[{"success":true,"trial_type":"fullscreen","trial_index":0,"time_elapsed":15285,"internal_node_id":"0.0-0.0","subject_id":"5f1c66f13d69c002fa1fe42f","study_id":"60edd13110225f80f9f3709b","session_id":"6196c1efbb76498b082fdf0f","condition":"contingent","relevant_dimensions":["wings","legs"],"bee_group":{"antennae":"X","wings":"1","pattern":"X","legs":"M"},"bonus":0.960000000000001},{"success":true,"timeout":false,"failed_images":[],"failed_audio":[],"failed_video":[],"trial_type":"preload","trial_index":1,"time_elapsed":17199,"internal_node_id":"0.0-1.0","subject_id":"5f1c66f13d69c002fa1fe42f","study_id":"60edd13110225f80f9f3709b","session_id":"6196c1efbb76498b082fdf0f","condition":"contingent","relevant_dimensions":["wings","legs"],"bee_group":{"antennae":"X","wings":"1","pattern":"X","legs":"M"},"bonus":0.960000000000001},{"rt":1139.6999999999534,"stimulus":"Welcome! Press any key to begin.","response":"alt","trial_type":"html-keyboard-response","trial_index":2,"time_elapsed":18339,"internal_node_id":"0.0-2.0","subject_id":"5f1c66f13d69c002fa1fe42f","study_id":"60edd13110225f80f9f3709b","session_id":"6196c1efbb76498b082fdf0f","condition":"contingent","relevant_dimensions":["wings","legs"],"bee_group":{"antennae":"X","wings":"1","pattern":"X","legs":"M"},"bonus":0.960000000000001},{"view_history":[{"page_index":0,"viewing_time":82146.19999999995},{"page_index":1,"viewing_time":34590.89999999991},{"page_index":2,"viewing_time":2303.100000000093},{"page_index":3,"viewing_time":14585},{"page_index":4,"viewing_time":8057.899999999907},{"page_index":5,"viewing_time":3928},{"page_index":6,"viewing_time":10639},{"page_index":7,"viewing_time":3480},{"page_index":8,"viewing_time":2573},{"page_index":9,"viewing_time":2302.9000000001397},{"page_index":10,"viewing_time":2407},{"page_index":11,"viewing_time":7073.299999999814},{"page_index":12,"viewing_time":31726.600000000093},{"page_index":13,"viewing_time":1107.1000000000931},{"page_index":14,"viewing_time":1886}],"rt":208806.3999999999,"trial_type":"instructions","trial_index":3,"time_elapsed":227146,"internal_node_id":"0.0-3.0-0.0","subject_id":"5f1c66f13d69c002fa1fe42f","study_id":"60edd13110225f80f9f3709b","session_id":"6196c1efbb76498b082fdf0f","condition":"contingent","relevant_dimensions":["wings","legs"],"bee_group":{"antennae":"X","wings":"1","pattern":"X","legs":"M"},"bonus":0.960000000000001},{"rt":15095.699999999953,"response":{"Q0":["Two or six legs","Stripes or spots on body","Single or double wings","Antennae or no antennae"]},"question_order":[0],"trial_type":"survey-multi-select","trial_index":4,"time_elapsed":242244,"internal_node_id":"0.0-3.0-1.0","subject_id":"5f1c66f13d69c002fa1fe42f","study_id":"60edd13110225f80f9f3709b","session_id":"6196c1efbb76498b082fdf0f","condition":"contingent","relevant_dimensions":["wings","legs"],"bee_group":{"antennae":"X","wings":"1","pattern":"X","legs":"M"},"correct":true,"bonus":0.960000000000001},{"rt":17574,"response":{"Q1":"No.","Q2":"Based on the four features of the bee.","Q3":"You do not learn if it was friendly or dangerous, and do not alter your bonus."},"question_order":[0,1,2],"trial_type":"survey-multi-choice","trial_index":5,"time_elapsed":259819,"internal_node_id":"0.0-3.0-2.0","subject_id":"5f1c66f13d69c002fa1fe42f","study_id":"60edd13110225f80f9f3709b","session_id":"6196c1efbb76498b082fdf0f","condition":"contingent","relevant_dimensions":["wings","legs"],"bee_group":{"antennae":"X","wings":"1","pattern":"X","legs":"M"},"correct":true,"bonus":0.960000000000001},{"rt":2672,"stimulus":"<p>Congrats, you got everything right<br>When you're ready, click the button below to continue to the experiment.</p>","response":0,"trial_type":"html-button-response","trial_index":6,"time_elapsed":262492,"internal_node_id":"0.0-3.0-3.0","subject_id":"5f1c66f13d69c002fa1fe42f","study_id":"60edd13110225f80f9f3709b","session_id":"6196c1efbb76498b082fdf0f","condition":"contingent","relevant_dimensions":["wings","legs"],"bee_group":{"antennae":"X","wings":"1","pattern":"X","legs":"M"},"bonus":0.960000000000001},{"rt":2154.5,"stimulus":"bees-with-color/bee-B2SF.svg","response":0,"trial_type":"image-button-response","trial_index":7,"time_elapsed":264648,"internal_node_id":"0.0-4.0-0.0","subject_id":"5f1c66f13d69c002fa1fe42f","study_id":"60edd13110225f80f9f3709b","session_id":"6196c1efbb76498b082fdf0f","condition":"contingent","relevant_dimensions":["wings","legs"],"bee_group":{"antennae":"X","wings":"1","pattern":"X","legs":"M"},"action":"harvest","summary":"good-harvest","bonus":0.960000000000001},{"rt":2862.7000000001863,"stimulus":"\n                    <p><b>Action: <em>harvest</em></b></p>\n                    <p>This is the bee that you just saw.</p>\n                    <img src=\"bees-with-color/bee-B2SF.svg\" width=\"200\">\n                    <p><span class=\"greenText\"><b>Successful harvest!</b></span><br>Your pay has increased by $0.02. Your bonus pay is now $0.56.</p>\n            ","response":0,"trial_type":"html-button-response","trial_index":8,"time_elapsed":267512,"internal_node_id":"0.0-4.0-1.0","subject_id":"5f1c66f13d69c002fa1fe42f","study_id":"60edd13110225f80f9f3709b","session_id":"6196c1efbb76498b082fdf0f","condition":"contingent","relevant_dimensions":["wings","legs"],"bee_group":{"antennae":"X","wings":"1","pattern":"X","legs":"M"},"bonus":0.960000000000001},{"rt":1602.1000000000931,"stimulus":"bees-with-color/bee-A1SM.svg","response":0,"trial_type":"image-button-response","trial_index":9,"time_elapsed":269115,"internal_node_id":"0.0-4.0-0.1","subject_id":"5f1c66f13d69c002fa1fe42f","study_id":"60edd13110225f80f9f3709b","session_id":"6196c1efbb76498b082fdf0f","condition":"contingent","relevant_dimensions":["wings","legs"],"bee_group":{"antennae":"X","wings":"1","pattern":"X","legs":"M"},"action":"harvest","summary":"bad-harvest","bonus":0.960000000000001},{"rt":1411.2000000001863,"stimulus":"\n                    <p><b>Action: <em>harvest</em></b></p>\n                    <p>This is the bee that you just saw.</p>\n                    <img src=\"bees-with-color/bee-A1SM.svg\" width=\"200\">\n                    <p><span class=\"redText\">Bad choice, the bee was angry.</span><br><b>You have been stung!</b><br>Your pay has been decreased by $0.10. Your bonus pay is now $0.46.</p>\n            ","response":0,"trial_type":"html-button-response","trial_index":10,"time_elapsed":270527,"internal_node_id":"0.0-4.0-1.1","subject_id":"5f1c66f13d69c002fa1fe42f","study_id":"60edd13110225f80f9f3709b","session_id":"6196c1efbb76498b082fdf0f","condition":"contingent","relevant_dimensions":["wings","legs"],"bee_group":{"antennae":"X","wings":"1","pattern":"X","legs":"M"},"bonus":0.960000000000001},{"rt":1118.6999999999534,"stimulus":"bees-with-color/bee-B1DF.svg","response":0,"trial_type":"image-button-response","trial_index":11,"time_elapsed":271647,"internal_node_id":"0.0-4.0-0.2","subject_id":"5f1c66f13d69c002fa1fe42f","study_id":"60edd13110225f80f9f3709b","session_id":"6196c1efbb76498b082fdf0f","condition":"contingent","relevant_dimensions":["wings","legs"],"bee_group":{"antennae":"X","wings":"1","pattern":"X","legs":"M"},"action":"harvest","summary":"good-harvest","bonus":0.960000000000001},{"rt":638.8999999999069,"stimulus":"\n                    <p><b>Action: <em>harvest</em></b></p>\n                    <p>This is the bee that you just saw.</p>\n                    <img src=\"bees-with-color/bee-B1DF.svg\" width=\"200\">\n                    <p><span class=\"greenText\"><b>Successful harvest!</b></span><br>Your pay has increased by $0.02. Your bonus pay is now $0.48.</p>\n            ","response":0,"trial_type":"html-button-response","trial_index":12,"time_elapsed":272287,"internal_node_id":"0.0-4.0-1.2","subject_id":"5f1c66f13d69c002fa1fe42f","study_id":"60edd13110225f80f9f3709b","session_id":"6196c1efbb76498b082fdf0f","condition":"contingent","relevant_dimensions":["wings","legs"],"bee_group":{"antennae":"X","wings":"1","pattern":"X","legs":"M"},"bonus":0.960000000000001},{"rt":1186.0999999998603,"stimulus":"bees-with-color/bee-B2DM.svg","response":1,"trial_type":"image-button-response","trial_index":13,"time_elapsed":273474,"internal_node_id":"0.0-4.0-0.3","subject_id":"5f1c66f13d69c002fa1fe42f","study_id":"60edd13110225f80f9f3709b","session_id":"6196c1efbb76498b082fdf0f","condition":"contingent","relevant_dimensions":["wings","legs"],"bee_group":{"antennae":"X","wings":"1","pattern":"X","legs":"M"},"action":"avoid","summary":"bad-avoid","bonus":0.960000000000001},{"rt":3027.4000000001397,"stimulus":"\n                    <p><b>Action: <em>avoid</em></b></p>\n                    <p>This is the bee that you just saw.</p>\n                    <img src=\"bees-with-color/bee-B2DM.svg\" width=\"200\">\n                    <p><br>Your bonus pay is unchanged, and remains at $0.48.</p>\n            ","response":0,"trial_type":"html-button-response","trial_index":14,"time_elapsed":276502,"internal_node_id":"0.0-4.0-1.3","subject_id":"5f1c66f13d69c002fa1fe42f","study_id":"60edd13110225f80f9f3709b","session_id":"6196c1efbb76498b082fdf0f","condition":"contingent","relevant_dimensions":["wings","legs"],"bee_group":{"antennae":"X","wings":"1","pattern":"X","legs":"M"},"bonus":0.960000000000001},{"rt":1533.8999999999069,"stimulus":"bees-with-color/bee-A1DM.svg","response":1,"trial_type":"image-button-response","trial_index":15,"time_elapsed":278037,"internal_node_id":"0.0-4.0-0.4","subject_id":"5f1c66f13d69c002fa1fe42f","study_id":"60edd13110225f80f9f3709b","session_id":"6196c1efbb76498b082fdf0f","condition":"contingent","relevant_dimensions":["wings","legs"],"bee_group":{"antennae":"X","wings":"1","pattern":"X","legs":"M"},"action":"avoid","summary":"good-avoid","bonus":0.960000000000001},{"rt":646.0999999998603,"stimulus":"\n                    <p><b>Action: <em>avoid</em></b></p>\n                    <p>This is the bee that you just saw.</p>\n                    <img src=\"bees-with-color/bee-A1DM.svg\" width=\"200\">\n                    <p><br>Your bonus pay is unchanged, and remains at $0.48.</p>\n            ","response":0,"trial_type":"html-button-response","trial_index":16,"time_elapsed":278684,"internal_node_id":"0.0-4.0-1.4","subject_id":"5f1c66f13d69c002fa1fe42f","study_id":"60edd13110225f80f9f3709b","session_id":"6196c1efbb76498b082fdf0f","condition":"contingent","relevant_dimensions":["wings","legs"],"bee_group":{"antennae":"X","wings":"1","pattern":"X","legs":"M"},"bonus":0.960000000000001},{"rt":886.2999999998137,"stimulus":"bees-with-color/bee-A1SF.svg","response":0,"trial_type":"image-button-response","trial_index":17,"time_elapsed":279570,"internal_node_id":"0.0-4.0-0.5","subject_id":"5f1c66f13d69c002fa1fe42f","study_id":"60edd13110225f80f9f3709b","session_id":"6196c1efbb76498b082fdf0f","condition":"contingent","relevant_dimensions":["wings","legs"],"bee_group":{"antennae":"X","wings":"1","pattern":"X","legs":"M"},"action":"harvest","summary":"good-harvest","bonus":0.960000000000001},{"rt":537.1999999999534,"stimulus":"\n                    <p><b>Action: <em>harvest</em></b></p>\n                    <p>This is the bee that you just saw.</p>\n                    <img src=\"bees-with-color/bee-A1SF.svg\" width=\"200\">\n                    <p><span class=\"greenText\"><b>Successful harvest!</b></span><br>Your pay has increased by $0.02. Your bonus pay is now $0.50.</p>\n            ","response":0,"trial_type":"html-button-response","trial_index":18,"time_elapsed":280108,"internal_node_id":"0.0-4.0-1.5","subject_id":"5f1c66f13d69c002fa1fe42f","study_id":"60edd13110225f80f9f3709b","session_id":"6196c1efbb76498b082fdf0f","condition":"contingent","relevant_dimensions":["wings","legs"],"bee_group":{"antennae":"X","wings":"1","pattern":"X","legs":"M"},"bonus":0.960000000000001},{"rt":1097.1999999999534,"stimulus":"bees-with-color/bee-B2DF.svg","response":0,"trial_type":"image-button-response","trial_index":19,"time_elapsed":281206,"internal_node_id":"0.0-4.0-0.6","subject_id":"5f1c66f13d69c002fa1fe42f","study_id":"60edd13110225f80f9f3709b","session_id":"6196c1efbb76498b082fdf0f","condition":"contingent","relevant_dimensions":["wings","legs"],"bee_group":{"antennae":"X","wings":"1","pattern":"X","legs":"M"},"action":"harvest","summary":"good-harvest","bonus":0.960000000000001},{"rt":630.3000000000466,"stimulus":"\n                    <p><b>Action: <em>harvest</em></b></p>\n                    <p>This is the bee that you just saw.</p>\n                    <img src=\"bees-with-color/bee-B2DF.svg\" width=\"200\">\n                    <p><span class=\"greenText\"><b>Successful harvest!</b></span><br>Your pay has increased by $0.02. Your bonus pay is now $0.52.</p>\n            ","response":0,"trial_type":"html-button-response","trial_index":20,"time_elapsed":281837,"internal_node_id":"0.0-4.0-1.6","subject_id":"5f1c66f13d69c002fa1fe42f","study_id":"60edd13110225f80f9f3709b","session_id":"6196c1efbb76498b082fdf0f","condition":"contingent","relevant_dimensions":["wings","legs"],"bee_group":{"antennae":"X","wings":"1","pattern":"X","legs":"M"},"bonus":0.960000000000001},{"rt":765.1999999999534,"stimulus":"bees-with-color/bee-A1DF.svg","response":0,"trial_type":"image-button-response","trial_index":21,"time_elapsed":282603,"internal_node_id":"0.0-4.0-0.7","subject_id":"5f1c66f13d69c002fa1fe42f","study_id":"60edd13110225f80f9f3709b","session_id":"6196c1efbb76498b082fdf0f","condition":"contingent","relevant_dimensions":["wings","legs"],"bee_group":{"antennae":"X","wings":"1","pattern":"X","legs":"M"},"action":"harvest","summary":"good-harvest","bonus":0.960000000000001},{"rt":614.1999999999534,"stimulus":"\n                    <p><b>Action: <em>harvest</em></b></p>\n                    <p>This is the bee that you just saw.</p>\n                    <img src=\"bees-with-color/bee-A1DF.svg\" width=\"200\">\n                    <p><span class=\"greenText\"><b>Successful harvest!</b></span><br>Your pay has increased by $0.02. Your bonus pay is now $0.54.</p>\n            ","response":0,"trial_type":"html-button-response","trial_index":22,"time_elapsed":283218,"internal_node_id":"0.0-4.0-1.7","subject_id":"5f1c66f13d69c002fa1fe42f","study_id":"60edd13110225f80f9f3709b","session_id":"6196c1efbb76498b082fdf0f","condition":"contingent","relevant_dimensions":["wings","legs"],"bee_group":{"antennae":"X","wings":"1","pattern":"X","legs":"M"},"bonus":0.960000000000001},{"rt":1054.0999999998603,"stimulus":"bees-with-color/bee-B1DM.svg","response":1,"trial_type":"image-button-response","trial_index":23,"time_elapsed":284273,"internal_node_id":"0.0-4.0-0.8","subject_id":"5f1c66f13d69c002fa1fe42f","study_id":"60edd13110225f80f9f3709b","session_id":"6196c1efbb76498b082fdf0f","condition":"contingent","relevant_dimensions":["wings","legs"],"bee_group":{"antennae":"X","wings":"1","pattern":"X","legs":"M"},"action":"avoid","summary":"good-avoid","bonus":0.960000000000001},{"rt":496.19999999995343,"stimulus":"\n                    <p><b>Action: <em>avoid</em></b></p>\n                    <p>This is the bee that you just saw.</p>\n                    <img src=\"bees-with-color/bee-B1DM.svg\" width=\"200\">\n                    <p><br>Your bonus pay is unchanged, and remains at $0.54.</p>\n            ","response":0,"trial_type":"html-button-response","trial_index":24,"time_elapsed":284770,"internal_node_id":"0.0-4.0-1.8","subject_id":"5f1c66f13d69c002fa1fe42f","study_id":"60edd13110225f80f9f3709b","session_id":"6196c1efbb76498b082fdf0f","condition":"contingent","relevant_dimensions":["wings","legs"],"bee_group":{"antennae":"X","wings":"1","pattern":"X","legs":"M"},"bonus":0.960000000000001},{"rt":1392.2999999998137,"stimulus":"bees-with-color/bee-A2DM.svg","response":1,"trial_type":"image-button-response","trial_index":25,"time_elapsed":286163,"internal_node_id":"0.0-4.0-0.9","subject_id":"5f1c66f13d69c002fa1fe42f","study_id":"60edd13110225f80f9f3709b","session_id":"6196c1efbb76498b082fdf0f","condition":"contingent","relevant_dimensions":["wings","legs"],"bee_group":{"antennae":"X","wings":"1","pattern":"X","legs":"M"},"action":"avoid","summary":"bad-avoid","bonus":0.960000000000001},{"rt":519.1999999999534,"stimulus":"\n                    <p><b>Action: <em>avoid</em></b></p>\n                    <p>This is the bee that you just saw.</p>\n                    <img src=\"bees-with-color/bee-A2DM.svg\" width=\"200\">\n                    <p><br>Your bonus pay is unchanged, and remains at $0.54.</p>\n            ","response":0,"trial_type":"html-button-response","trial_index":26,"time_elapsed":286683,"internal_node_id":"0.0-4.0-1.9","subject_id":"5f1c66f13d69c002fa1fe42f","study_id":"60edd13110225f80f9f3709b","session_id":"6196c1efbb76498b082fdf0f","condition":"contingent","relevant_dimensions":["wings","legs"],"bee_group":{"antennae":"X","wings":"1","pattern":"X","legs":"M"},"bonus":0.960000000000001},{"rt":718.2999999998137,"stimulus":"bees-with-color/bee-A2SF.svg","response":0,"trial_type":"image-button-response","trial_index":27,"time_elapsed":287402,"internal_node_id":"0.0-4.0-0.10","subject_id":"5f1c66f13d69c002fa1fe42f","study_id":"60edd13110225f80f9f3709b","session_id":"6196c1efbb76498b082fdf0f","condition":"contingent","relevant_dimensions":["wings","legs"],"bee_group":{"antennae":"X","wings":"1","pattern":"X","legs":"M"},"action":"harvest","summary":"good-harvest","bonus":0.960000000000001},{"rt":511.29999999981374,"stimulus":"\n                    <p><b>Action: <em>harvest</em></b></p>\n                    <p>This is the bee that you just saw.</p>\n                    <img src=\"bees-with-color/bee-A2SF.svg\" width=\"200\">\n                    <p><span class=\"greenText\"><b>Successful harvest!</b></span><br>Your pay has increased by $0.02. Your bonus pay is now $0.56.</p>\n            ","response":0,"trial_type":"html-button-response","trial_index":28,"time_elapsed":287914,"internal_node_id":"0.0-4.0-1.10","subject_id":"5f1c66f13d69c002fa1fe42f","study_id":"60edd13110225f80f9f3709b","session_id":"6196c1efbb76498b082fdf0f","condition":"contingent","relevant_dimensions":["wings","legs"],"bee_group":{"antennae":"X","wings":"1","pattern":"X","legs":"M"},"bonus":0.960000000000001},{"rt":1184.3999999999069,"stimulus":"bees-with-color/bee-B2SM.svg","response":1,"trial_type":"image-button-response","trial_index":29,"time_elapsed":289099,"internal_node_id":"0.0-4.0-0.11","subject_id":"5f1c66f13d69c002fa1fe42f","study_id":"60edd13110225f80f9f3709b","session_id":"6196c1efbb76498b082fdf0f","condition":"contingent","relevant_dimensions":["wings","legs"],"bee_group":{"antennae":"X","wings":"1","pattern":"X","legs":"M"},"action":"avoid","summary":"bad-avoid","bonus":0.960000000000001},{"rt":520.5,"stimulus":"\n                    <p><b>Action: <em>avoid</em></b></p>\n                    <p>This is the bee that you just saw.</p>\n                    <img src=\"bees-with-color/bee-B2SM.svg\" width=\"200\">\n                    <p><br>Your bonus pay is unchanged, and remains at $0.56.</p>\n            ","response":0,"trial_type":"html-button-response","trial_index":30,"time_elapsed":289621,"internal_node_id":"0.0-4.0-1.11","subject_id":"5f1c66f13d69c002fa1fe42f","study_id":"60edd13110225f80f9f3709b","session_id":"6196c1efbb76498b082fdf0f","condition":"contingent","relevant_dimensions":["wings","legs"],"bee_group":{"antennae":"X","wings":"1","pattern":"X","legs":"M"},"bonus":0.960000000000001},{"rt":854.1999999999534,"stimulus":"bees-with-color/bee-A2SM.svg","response":0,"trial_type":"image-button-response","trial_index":31,"time_elapsed":290475,"internal_node_id":"0.0-4.0-0.12","subject_id":"5f1c66f13d69c002fa1fe42f","study_id":"60edd13110225f80f9f3709b","session_id":"6196c1efbb76498b082fdf0f","condition":"contingent","relevant_dimensions":["wings","legs"],"bee_group":{"antennae":"X","wings":"1","pattern":"X","legs":"M"},"action":"harvest","summary":"good-harvest","bonus":0.960000000000001},{"rt":691.3000000000466,"stimulus":"\n                    <p><b>Action: <em>harvest</em></b></p>\n                    <p>This is the bee that you just saw.</p>\n                    <img src=\"bees-with-color/bee-A2SM.svg\" width=\"200\">\n                    <p><span class=\"greenText\"><b>Successful harvest!</b></span><br>Your pay has increased by $0.02. Your bonus pay is now $0.58.</p>\n            ","response":0,"trial_type":"html-button-response","trial_index":32,"time_elapsed":291167,"internal_node_id":"0.0-4.0-1.12","subject_id":"5f1c66f13d69c002fa1fe42f","study_id":"60edd13110225f80f9f3709b","session_id":"6196c1efbb76498b082fdf0f","condition":"contingent","relevant_dimensions":["wings","legs"],"bee_group":{"antennae":"X","wings":"1","pattern":"X","legs":"M"},"bonus":0.960000000000001},{"rt":1179.5999999998603,"stimulus":"bees-with-color/bee-B1SF.svg","response":0,"trial_type":"image-button-response","trial_index":33,"time_elapsed":292348,"internal_node_id":"0.0-4.0-0.13","subject_id":"5f1c66f13d69c002fa1fe42f","study_id":"60edd13110225f80f9f3709b","session_id":"6196c1efbb76498b082fdf0f","condition":"contingent","relevant_dimensions":["wings","legs"],"bee_group":{"antennae":"X","wings":"1","pattern":"X","legs":"M"},"action":"harvest","summary":"good-harvest","bonus":0.960000000000001},{"rt":491,"stimulus":"\n                    <p><b>Action: <em>harvest</em></b></p>\n                    <p>This is the bee that you just saw.</p>\n                    <img src=\"bees-with-color/bee-B1SF.svg\" width=\"200\">\n                    <p><span class=\"greenText\"><b>Successful harvest!</b></span><br>Your pay has increased by $0.02. Your bonus pay is now $0.60.</p>\n            ","response":0,"trial_type":"html-button-response","trial_index":34,"time_elapsed":292839,"internal_node_id":"0.0-4.0-1.13","subject_id":"5f1c66f13d69c002fa1fe42f","study_id":"60edd13110225f80f9f3709b","session_id":"6196c1efbb76498b082fdf0f","condition":"contingent","relevant_dimensions":["wings","legs"],"bee_group":{"antennae":"X","wings":"1","pattern":"X","legs":"M"},"bonus":0.960000000000001},{"rt":994.5,"stimulus":"bees-with-color/bee-B1SM.svg","response":0,"trial_type":"image-button-response","trial_index":35,"time_elapsed":293834,"internal_node_id":"0.0-4.0-0.14","subject_id":"5f1c66f13d69c002fa1fe42f","study_id":"60edd13110225f80f9f3709b","session_id":"6196c1efbb76498b082fdf0f","condition":"contingent","relevant_dimensions":["wings","legs"],"bee_group":{"antennae":"X","wings":"1","pattern":"X","legs":"M"},"action":"harvest","summary":"bad-harvest","bonus":0.960000000000001},{"rt":568.0999999998603,"stimulus":"\n                    <p><b>Action: <em>harvest</em></b></p>\n                    <p>This is the bee that you just saw.</p>\n                    <img src=\"bees-with-color/bee-B1SM.svg\" width=\"200\">\n                    <p><span class=\"redText\">Bad choice, the bee was angry.</span><br><b>You have been stung!</b><br>Your pay has been decreased by $0.10. Your bonus pay is now $0.50.</p>\n            ","response":0,"trial_type":"html-button-response","trial_index":36,"time_elapsed":294403,"internal_node_id":"0.0-4.0-1.14","subject_id":"5f1c66f13d69c002fa1fe42f","study_id":"60edd13110225f80f9f3709b","session_id":"6196c1efbb76498b082fdf0f","condition":"contingent","relevant_dimensions":["wings","legs"],"bee_group":{"antennae":"X","wings":"1","pattern":"X","legs":"M"},"bonus":0.960000000000001},{"rt":2709.2999999998137,"stimulus":"bees-with-color/bee-A2DF.svg","response":1,"trial_type":"image-button-response","trial_index":37,"time_elapsed":297113,"internal_node_id":"0.0-4.0-0.15","subject_id":"5f1c66f13d69c002fa1fe42f","study_id":"60edd13110225f80f9f3709b","session_id":"6196c1efbb76498b082fdf0f","condition":"contingent","relevant_dimensions":["wings","legs"],"bee_group":{"antennae":"X","wings":"1","pattern":"X","legs":"M"},"action":"avoid","summary":"bad-avoid","bonus":0.960000000000001},{"rt":429.19999999995343,"stimulus":"\n                    <p><b>Action: <em>avoid</em></b></p>\n                    <p>This is the bee that you just saw.</p>\n                    <img src=\"bees-with-color/bee-A2DF.svg\" width=\"200\">\n                    <p><br>Your bonus pay is unchanged, and remains at $0.50.</p>\n            ","response":0,"trial_type":"html-button-response","trial_index":38,"time_elapsed":297543,"internal_node_id":"0.0-4.0-1.15","subject_id":"5f1c66f13d69c002fa1fe42f","study_id":"60edd13110225f80f9f3709b","session_id":"6196c1efbb76498b082fdf0f","condition":"contingent","relevant_dimensions":["wings","legs"],"bee_group":{"antennae":"X","wings":"1","pattern":"X","legs":"M"},"bonus":0.960000000000001},{"rt":620.0999999998603,"stimulus":"bees-with-color/bee-A1SF.svg","response":0,"trial_type":"image-button-response","trial_index":39,"time_elapsed":298164,"internal_node_id":"0.0-4.0-0.16","subject_id":"5f1c66f13d69c002fa1fe42f","study_id":"60edd13110225f80f9f3709b","session_id":"6196c1efbb76498b082fdf0f","condition":"contingent","relevant_dimensions":["wings","legs"],"bee_group":{"antennae":"X","wings":"1","pattern":"X","legs":"M"},"action":"harvest","summary":"good-harvest","bonus":0.960000000000001},{"rt":572.2999999998137,"stimulus":"\n                    <p><b>Action: <em>harvest</em></b></p>\n                    <p>This is the bee that you just saw.</p>\n                    <img src=\"bees-with-color/bee-A1SF.svg\" width=\"200\">\n                    <p><span class=\"greenText\"><b>Successful harvest!</b></span><br>Your pay has increased by $0.02. Your bonus pay is now $0.52.</p>\n            ","response":0,"trial_type":"html-button-response","trial_index":40,"time_elapsed":298737,"internal_node_id":"0.0-4.0-1.16","subject_id":"5f1c66f13d69c002fa1fe42f","study_id":"60edd13110225f80f9f3709b","session_id":"6196c1efbb76498b082fdf0f","condition":"contingent","relevant_dimensions":["wings","legs"],"bee_group":{"antennae":"X","wings":"1","pattern":"X","legs":"M"},"bonus":0.960000000000001},{"rt":1134.2999999998137,"stimulus":"bees-with-color/bee-B2SF.svg","response":1,"trial_type":"image-button-response","trial_index":41,"time_elapsed":299872,"internal_node_id":"0.0-4.0-0.17","subject_id":"5f1c66f13d69c002fa1fe42f","study_id":"60edd13110225f80f9f3709b","session_id":"6196c1efbb76498b082fdf0f","condition":"contingent","relevant_dimensions":["wings","legs"],"bee_group":{"antennae":"X","wings":"1","pattern":"X","legs":"M"},"action":"avoid","summary":"bad-avoid","bonus":0.960000000000001},{"rt":704.1999999999534,"stimulus":"\n                    <p><b>Action: <em>avoid</em></b></p>\n                    <p>This is the bee that you just saw.</p>\n                    <img src=\"bees-with-color/bee-B2SF.svg\" width=\"200\">\n                    <p><br>Your bonus pay is unchanged, and remains at $0.52.</p>\n            ","response":0,"trial_type":"html-button-response","trial_index":42,"time_elapsed":300577,"internal_node_id":"0.0-4.0-1.17","subject_id":"5f1c66f13d69c002fa1fe42f","study_id":"60edd13110225f80f9f3709b","session_id":"6196c1efbb76498b082fdf0f","condition":"contingent","relevant_dimensions":["wings","legs"],"bee_group":{"antennae":"X","wings":"1","pattern":"X","legs":"M"},"bonus":0.960000000000001},{"rt":766.2999999998137,"stimulus":"bees-with-color/bee-A1DM.svg","response":1,"trial_type":"image-button-response","trial_index":43,"time_elapsed":301344,"internal_node_id":"0.0-4.0-0.18","subject_id":"5f1c66f13d69c002fa1fe42f","study_id":"60edd13110225f80f9f3709b","session_id":"6196c1efbb76498b082fdf0f","condition":"contingent","relevant_dimensions":["wings","legs"],"bee_group":{"antennae":"X","wings":"1","pattern":"X","legs":"M"},"action":"avoid","summary":"good-avoid","bonus":0.960000000000001},{"rt":461.10000000009313,"stimulus":"\n                    <p><b>Action: <em>avoid</em></b></p>\n                    <p>This is the bee that you just saw.</p>\n                    <img src=\"bees-with-color/bee-A1DM.svg\" width=\"200\">\n                    <p><br>Your bonus pay is unchanged, and remains at $0.52.</p>\n            ","response":0,"trial_type":"html-button-response","trial_index":44,"time_elapsed":301806,"internal_node_id":"0.0-4.0-1.18","subject_id":"5f1c66f13d69c002fa1fe42f","study_id":"60edd13110225f80f9f3709b","session_id":"6196c1efbb76498b082fdf0f","condition":"contingent","relevant_dimensions":["wings","legs"],"bee_group":{"antennae":"X","wings":"1","pattern":"X","legs":"M"},"bonus":0.960000000000001},{"rt":636.3999999999069,"stimulus":"bees-with-color/bee-B2DM.svg","response":1,"trial_type":"image-button-response","trial_index":45,"time_elapsed":302443,"internal_node_id":"0.0-4.0-0.19","subject_id":"5f1c66f13d69c002fa1fe42f","study_id":"60edd13110225f80f9f3709b","session_id":"6196c1efbb76498b082fdf0f","condition":"contingent","relevant_dimensions":["wings","legs"],"bee_group":{"antennae":"X","wings":"1","pattern":"X","legs":"M"},"action":"avoid","summary":"bad-avoid","bonus":0.960000000000001},{"rt":646.1999999999534,"stimulus":"\n                    <p><b>Action: <em>avoid</em></b></p>\n                    <p>This is the bee that you just saw.</p>\n                    <img src=\"bees-with-color/bee-B2DM.svg\" width=\"200\">\n                    <p><br>Your bonus pay is unchanged, and remains at $0.52.</p>\n            ","response":0,"trial_type":"html-button-response","trial_index":46,"time_elapsed":303090,"internal_node_id":"0.0-4.0-1.19","subject_id":"5f1c66f13d69c002fa1fe42f","study_id":"60edd13110225f80f9f3709b","session_id":"6196c1efbb76498b082fdf0f","condition":"contingent","relevant_dimensions":["wings","legs"],"bee_group":{"antennae":"X","wings":"1","pattern":"X","legs":"M"},"bonus":0.960000000000001},{"rt":1184.6000000000931,"stimulus":"bees-with-color/bee-A2DM.svg","response":1,"trial_type":"image-button-response","trial_index":47,"time_elapsed":304275,"internal_node_id":"0.0-4.0-0.20","subject_id":"5f1c66f13d69c002fa1fe42f","study_id":"60edd13110225f80f9f3709b","session_id":"6196c1efbb76498b082fdf0f","condition":"contingent","relevant_dimensions":["wings","legs"],"bee_group":{"antennae":"X","wings":"1","pattern":"X","legs":"M"},"action":"avoid","summary":"bad-avoid","bonus":0.960000000000001},{"rt":346.29999999981374,"stimulus":"\n                    <p><b>Action: <em>avoid</em></b></p>\n                    <p>This is the bee that you just saw.</p>\n                    <img src=\"bees-with-color/bee-A2DM.svg\" width=\"200\">\n                    <p><br>Your bonus pay is unchanged, and remains at $0.52.</p>\n            ","response":0,"trial_type":"html-button-response","trial_index":48,"time_elapsed":304622,"internal_node_id":"0.0-4.0-1.20","subject_id":"5f1c66f13d69c002fa1fe42f","study_id":"60edd13110225f80f9f3709b","session_id":"6196c1efbb76498b082fdf0f","condition":"contingent","relevant_dimensions":["wings","legs"],"bee_group":{"antennae":"X","wings":"1","pattern":"X","legs":"M"},"bonus":0.960000000000001},{"rt":1016.2999999998137,"stimulus":"bees-with-color/bee-B1DF.svg","response":0,"trial_type":"image-button-response","trial_index":49,"time_elapsed":305639,"internal_node_id":"0.0-4.0-0.21","subject_id":"5f1c66f13d69c002fa1fe42f","study_id":"60edd13110225f80f9f3709b","session_id":"6196c1efbb76498b082fdf0f","condition":"contingent","relevant_dimensions":["wings","legs"],"bee_group":{"antennae":"X","wings":"1","pattern":"X","legs":"M"},"action":"harvest","summary":"good-harvest","bonus":0.960000000000001},{"rt":484.39999999990687,"stimulus":"\n                    <p><b>Action: <em>harvest</em></b></p>\n                    <p>This is the bee that you just saw.</p>\n                    <img src=\"bees-with-color/bee-B1DF.svg\" width=\"200\">\n                    <p><span class=\"greenText\"><b>Successful harvest!</b></span><br>Your pay has increased by $0.02. Your bonus pay is now $0.54.</p>\n            ","response":0,"trial_type":"html-button-response","trial_index":50,"time_elapsed":306124,"internal_node_id":"0.0-4.0-1.21","subject_id":"5f1c66f13d69c002fa1fe42f","study_id":"60edd13110225f80f9f3709b","session_id":"6196c1efbb76498b082fdf0f","condition":"contingent","relevant_dimensions":["wings","legs"],"bee_group":{"antennae":"X","wings":"1","pattern":"X","legs":"M"},"bonus":0.960000000000001},{"rt":1204.3999999999069,"stimulus":"bees-with-color/bee-A2DF.svg","response":1,"trial_type":"image-button-response","trial_index":51,"time_elapsed":307329,"internal_node_id":"0.0-4.0-0.22","subject_id":"5f1c66f13d69c002fa1fe42f","study_id":"60edd13110225f80f9f3709b","session_id":"6196c1efbb76498b082fdf0f","condition":"contingent","relevant_dimensions":["wings","legs"],"bee_group":{"antennae":"X","wings":"1","pattern":"X","legs":"M"},"action":"avoid","summary":"bad-avoid","bonus":0.960000000000001},{"rt":481.10000000009313,"stimulus":"\n                    <p><b>Action: <em>avoid</em></b></p>\n                    <p>This is the bee that you just saw.</p>\n                    <img src=\"bees-with-color/bee-A2DF.svg\" width=\"200\">\n                    <p><br>Your bonus pay is unchanged, and remains at $0.54.</p>\n            ","response":0,"trial_type":"html-button-response","trial_index":52,"time_elapsed":307811,"internal_node_id":"0.0-4.0-1.22","subject_id":"5f1c66f13d69c002fa1fe42f","study_id":"60edd13110225f80f9f3709b","session_id":"6196c1efbb76498b082fdf0f","condition":"contingent","relevant_dimensions":["wings","legs"],"bee_group":{"antennae":"X","wings":"1","pattern":"X","legs":"M"},"bonus":0.960000000000001},{"rt":967.5,"stimulus":"bees-with-color/bee-B1SM.svg","response":0,"trial_type":"image-button-response","trial_index":53,"time_elapsed":308779,"internal_node_id":"0.0-4.0-0.23","subject_id":"5f1c66f13d69c002fa1fe42f","study_id":"60edd13110225f80f9f3709b","session_id":"6196c1efbb76498b082fdf0f","condition":"contingent","relevant_dimensions":["wings","legs"],"bee_group":{"antennae":"X","wings":"1","pattern":"X","legs":"M"},"action":"harvest","summary":"bad-harvest","bonus":0.960000000000001},{"rt":665.1000000000931,"stimulus":"\n                    <p><b>Action: <em>harvest</em></b></p>\n                    <p>This is the bee that you just saw.</p>\n                    <img src=\"bees-with-color/bee-B1SM.svg\" width=\"200\">\n                    <p><span class=\"redText\">Bad choice, the bee was angry.</span><br><b>You have been stung!</b><br>Your pay has been decreased by $0.10. Your bonus pay is now $0.44.</p>\n            ","response":0,"trial_type":"html-button-response","trial_index":54,"time_elapsed":309445,"internal_node_id":"0.0-4.0-1.23","subject_id":"5f1c66f13d69c002fa1fe42f","study_id":"60edd13110225f80f9f3709b","session_id":"6196c1efbb76498b082fdf0f","condition":"contingent","relevant_dimensions":["wings","legs"],"bee_group":{"antennae":"X","wings":"1","pattern":"X","legs":"M"},"bonus":0.960000000000001},{"rt":820.3999999999069,"stimulus":"bees-with-color/bee-A1DF.svg","response":0,"trial_type":"image-button-response","trial_index":55,"time_elapsed":310266,"internal_node_id":"0.0-4.0-0.24","subject_id":"5f1c66f13d69c002fa1fe42f","study_id":"60edd13110225f80f9f3709b","session_id":"6196c1efbb76498b082fdf0f","condition":"contingent","relevant_dimensions":["wings","legs"],"bee_group":{"antennae":"X","wings":"1","pattern":"X","legs":"M"},"action":"harvest","summary":"good-harvest","bonus":0.960000000000001},{"rt":492.10000000009313,"stimulus":"\n                    <p><b>Action: <em>harvest</em></b></p>\n                    <p>This is the bee that you just saw.</p>\n                    <img src=\"bees-with-color/bee-A1DF.svg\" width=\"200\">\n                    <p><span class=\"greenText\"><b>Successful harvest!</b></span><br>Your pay has increased by $0.02. Your bonus pay is now $0.46.</p>\n            ","response":0,"trial_type":"html-button-response","trial_index":56,"time_elapsed":310759,"internal_node_id":"0.0-4.0-1.24","subject_id":"5f1c66f13d69c002fa1fe42f","study_id":"60edd13110225f80f9f3709b","session_id":"6196c1efbb76498b082fdf0f","condition":"contingent","relevant_dimensions":["wings","legs"],"bee_group":{"antennae":"X","wings":"1","pattern":"X","legs":"M"},"bonus":0.960000000000001},{"rt":590.3999999999069,"stimulus":"bees-with-color/bee-B1SF.svg","response":0,"trial_type":"image-button-response","trial_index":57,"time_elapsed":311350,"internal_node_id":"0.0-4.0-0.25","subject_id":"5f1c66f13d69c002fa1fe42f","study_id":"60edd13110225f80f9f3709b","session_id":"6196c1efbb76498b082fdf0f","condition":"contingent","relevant_dimensions":["wings","legs"],"bee_group":{"antennae":"X","wings":"1","pattern":"X","legs":"M"},"action":"harvest","summary":"good-harvest","bonus":0.960000000000001},{"rt":402,"stimulus":"\n                    <p><b>Action: <em>harvest</em></b></p>\n                    <p>This is the bee that you just saw.</p>\n                    <img src=\"bees-with-color/bee-B1SF.svg\" width=\"200\">\n                    <p><span class=\"greenText\"><b>Successful harvest!</b></span><br>Your pay has increased by $0.02. Your bonus pay is now $0.48.</p>\n            ","response":0,"trial_type":"html-button-response","trial_index":58,"time_elapsed":311753,"internal_node_id":"0.0-4.0-1.25","subject_id":"5f1c66f13d69c002fa1fe42f","study_id":"60edd13110225f80f9f3709b","session_id":"6196c1efbb76498b082fdf0f","condition":"contingent","relevant_dimensions":["wings","legs"],"bee_group":{"antennae":"X","wings":"1","pattern":"X","legs":"M"},"bonus":0.960000000000001},{"rt":961.3000000000466,"stimulus":"bees-with-color/bee-A2SF.svg","response":0,"trial_type":"image-button-response","trial_index":59,"time_elapsed":312715,"internal_node_id":"0.0-4.0-0.26","subject_id":"5f1c66f13d69c002fa1fe42f","study_id":"60edd13110225f80f9f3709b","session_id":"6196c1efbb76498b082fdf0f","condition":"contingent","relevant_dimensions":["wings","legs"],"bee_group":{"antennae":"X","wings":"1","pattern":"X","legs":"M"},"action":"harvest","summary":"good-harvest","bonus":0.960000000000001},{"rt":483.19999999995343,"stimulus":"\n                    <p><b>Action: <em>harvest</em></b></p>\n                    <p>This is the bee that you just saw.</p>\n                    <img src=\"bees-with-color/bee-A2SF.svg\" width=\"200\">\n                    <p><span class=\"greenText\"><b>Successful harvest!</b></span><br>Your pay has increased by $0.02. Your bonus pay is now $0.50.</p>\n            ","response":0,"trial_type":"html-button-response","trial_index":60,"time_elapsed":313199,"internal_node_id":"0.0-4.0-1.26","subject_id":"5f1c66f13d69c002fa1fe42f","study_id":"60edd13110225f80f9f3709b","session_id":"6196c1efbb76498b082fdf0f","condition":"contingent","relevant_dimensions":["wings","legs"],"bee_group":{"antennae":"X","wings":"1","pattern":"X","legs":"M"},"bonus":0.960000000000001},{"rt":1189.1999999999534,"stimulus":"bees-with-color/bee-B2SM.svg","response":1,"trial_type":"image-button-response","trial_index":61,"time_elapsed":314389,"internal_node_id":"0.0-4.0-0.27","subject_id":"5f1c66f13d69c002fa1fe42f","study_id":"60edd13110225f80f9f3709b","session_id":"6196c1efbb76498b082fdf0f","condition":"contingent","relevant_dimensions":["wings","legs"],"bee_group":{"antennae":"X","wings":"1","pattern":"X","legs":"M"},"action":"avoid","summary":"bad-avoid","bonus":0.960000000000001},{"rt":694.3999999999069,"stimulus":"\n                    <p><b>Action: <em>avoid</em></b></p>\n                    <p>This is the bee that you just saw.</p>\n                    <img src=\"bees-with-color/bee-B2SM.svg\" width=\"200\">\n                    <p><br>Your bonus pay is unchanged, and remains at $0.50.</p>\n            ","response":0,"trial_type":"html-button-response","trial_index":62,"time_elapsed":315084,"internal_node_id":"0.0-4.0-1.27","subject_id":"5f1c66f13d69c002fa1fe42f","study_id":"60edd13110225f80f9f3709b","session_id":"6196c1efbb76498b082fdf0f","condition":"contingent","relevant_dimensions":["wings","legs"],"bee_group":{"antennae":"X","wings":"1","pattern":"X","legs":"M"},"bonus":0.960000000000001},{"rt":775.3999999999069,"stimulus":"bees-with-color/bee-A1SM.svg","response":0,"trial_type":"image-button-response","trial_index":63,"time_elapsed":315860,"internal_node_id":"0.0-4.0-0.28","subject_id":"5f1c66f13d69c002fa1fe42f","study_id":"60edd13110225f80f9f3709b","session_id":"6196c1efbb76498b082fdf0f","condition":"contingent","relevant_dimensions":["wings","legs"],"bee_group":{"antennae":"X","wings":"1","pattern":"X","legs":"M"},"action":"harvest","summary":"bad-harvest","bonus":0.960000000000001},{"rt":547.1999999999534,"stimulus":"\n                    <p><b>Action: <em>harvest</em></b></p>\n                    <p>This is the bee that you just saw.</p>\n                    <img src=\"bees-with-color/bee-A1SM.svg\" width=\"200\">\n                    <p><span class=\"redText\">Bad choice, the bee was angry.</span><br><b>You have been stung!</b><br>Your pay has been decreased by $0.10. Your bonus pay is now $0.40.</p>\n            ","response":0,"trial_type":"html-button-response","trial_index":64,"time_elapsed":316408,"internal_node_id":"0.0-4.0-1.28","subject_id":"5f1c66f13d69c002fa1fe42f","study_id":"60edd13110225f80f9f3709b","session_id":"6196c1efbb76498b082fdf0f","condition":"contingent","relevant_dimensions":["wings","legs"],"bee_group":{"antennae":"X","wings":"1","pattern":"X","legs":"M"},"bonus":0.960000000000001},{"rt":5472.40000000014,"stimulus":"bees-with-color/bee-B1DM.svg","response":1,"trial_type":"image-button-response","trial_index":65,"time_elapsed":321881,"internal_node_id":"0.0-4.0-0.29","subject_id":"5f1c66f13d69c002fa1fe42f","study_id":"60edd13110225f80f9f3709b","session_id":"6196c1efbb76498b082fdf0f","condition":"contingent","relevant_dimensions":["wings","legs"],"bee_group":{"antennae":"X","wings":"1","pattern":"X","legs":"M"},"action":"avoid","summary":"good-avoid","bonus":0.960000000000001},{"rt":443.19999999995343,"stimulus":"\n                    <p><b>Action: <em>avoid</em></b></p>\n                    <p>This is the bee that you just saw.</p>\n                    <img src=\"bees-with-color/bee-B1DM.svg\" width=\"200\">\n                    <p><br>Your bonus pay is unchanged, and remains at $0.40.</p>\n            ","response":0,"trial_type":"html-button-response","trial_index":66,"time_elapsed":322325,"internal_node_id":"0.0-4.0-1.29","subject_id":"5f1c66f13d69c002fa1fe42f","study_id":"60edd13110225f80f9f3709b","session_id":"6196c1efbb76498b082fdf0f","condition":"contingent","relevant_dimensions":["wings","legs"],"bee_group":{"antennae":"X","wings":"1","pattern":"X","legs":"M"},"bonus":0.960000000000001},{"rt":1536.1000000000931,"stimulus":"bees-with-color/bee-A2SM.svg","response":1,"trial_type":"image-button-response","trial_index":67,"time_elapsed":323862,"internal_node_id":"0.0-4.0-0.30","subject_id":"5f1c66f13d69c002fa1fe42f","study_id":"60edd13110225f80f9f3709b","session_id":"6196c1efbb76498b082fdf0f","condition":"contingent","relevant_dimensions":["wings","legs"],"bee_group":{"antennae":"X","wings":"1","pattern":"X","legs":"M"},"action":"avoid","summary":"bad-avoid","bonus":0.960000000000001},{"rt":410.30000000004657,"stimulus":"\n                    <p><b>Action: <em>avoid</em></b></p>\n                    <p>This is the bee that you just saw.</p>\n                    <img src=\"bees-with-color/bee-A2SM.svg\" width=\"200\">\n                    <p><br>Your bonus pay is unchanged, and remains at $0.40.</p>\n            ","response":0,"trial_type":"html-button-response","trial_index":68,"time_elapsed":324273,"internal_node_id":"0.0-4.0-1.30","subject_id":"5f1c66f13d69c002fa1fe42f","study_id":"60edd13110225f80f9f3709b","session_id":"6196c1efbb76498b082fdf0f","condition":"contingent","relevant_dimensions":["wings","legs"],"bee_group":{"antennae":"X","wings":"1","pattern":"X","legs":"M"},"bonus":0.960000000000001},{"rt":679.1999999999534,"stimulus":"bees-with-color/bee-B2DF.svg","response":0,"trial_type":"image-button-response","trial_index":69,"time_elapsed":324953,"internal_node_id":"0.0-4.0-0.31","subject_id":"5f1c66f13d69c002fa1fe42f","study_id":"60edd13110225f80f9f3709b","session_id":"6196c1efbb76498b082fdf0f","condition":"contingent","relevant_dimensions":["wings","legs"],"bee_group":{"antennae":"X","wings":"1","pattern":"X","legs":"M"},"action":"harvest","summary":"good-harvest","bonus":0.960000000000001},{"rt":439.29999999981374,"stimulus":"\n                    <p><b>Action: <em>harvest</em></b></p>\n                    <p>This is the bee that you just saw.</p>\n                    <img src=\"bees-with-color/bee-B2DF.svg\" width=\"200\">\n                    <p><span class=\"greenText\"><b>Successful harvest!</b></span><br>Your pay has increased by $0.02. Your bonus pay is now $0.42.</p>\n            ","response":0,"trial_type":"html-button-response","trial_index":70,"time_elapsed":325393,"internal_node_id":"0.0-4.0-1.31","subject_id":"5f1c66f13d69c002fa1fe42f","study_id":"60edd13110225f80f9f3709b","session_id":"6196c1efbb76498b082fdf0f","condition":"contingent","relevant_dimensions":["wings","legs"],"bee_group":{"antennae":"X","wings":"1","pattern":"X","legs":"M"},"bonus":0.960000000000001},{"rt":577.1999999999534,"stimulus":"bees-with-color/bee-B2SF.svg","response":0,"trial_type":"image-button-response","trial_index":71,"time_elapsed":325971,"internal_node_id":"0.0-4.0-0.32","subject_id":"5f1c66f13d69c002fa1fe42f","study_id":"60edd13110225f80f9f3709b","session_id":"6196c1efbb76498b082fdf0f","condition":"contingent","relevant_dimensions":["wings","legs"],"bee_group":{"antennae":"X","wings":"1","pattern":"X","legs":"M"},"action":"harvest","summary":"good-harvest","bonus":0.960000000000001},{"rt":461.19999999995343,"stimulus":"\n                    <p><b>Action: <em>harvest</em></b></p>\n                    <p>This is the bee that you just saw.</p>\n                    <img src=\"bees-with-color/bee-B2SF.svg\" width=\"200\">\n                    <p><span class=\"greenText\"><b>Successful harvest!</b></span><br>Your pay has increased by $0.02. Your bonus pay is now $0.44.</p>\n            ","response":0,"trial_type":"html-button-response","trial_index":72,"time_elapsed":326433,"internal_node_id":"0.0-4.0-1.32","subject_id":"5f1c66f13d69c002fa1fe42f","study_id":"60edd13110225f80f9f3709b","session_id":"6196c1efbb76498b082fdf0f","condition":"contingent","relevant_dimensions":["wings","legs"],"bee_group":{"antennae":"X","wings":"1","pattern":"X","legs":"M"},"bonus":0.960000000000001},{"rt":679.3999999999069,"stimulus":"bees-with-color/bee-B1SM.svg","response":0,"trial_type":"image-button-response","trial_index":73,"time_elapsed":327113,"internal_node_id":"0.0-4.0-0.33","subject_id":"5f1c66f13d69c002fa1fe42f","study_id":"60edd13110225f80f9f3709b","session_id":"6196c1efbb76498b082fdf0f","condition":"contingent","relevant_dimensions":["wings","legs"],"bee_group":{"antennae":"X","wings":"1","pattern":"X","legs":"M"},"action":"harvest","summary":"bad-harvest","bonus":0.960000000000001},{"rt":611.1999999999534,"stimulus":"\n                    <p><b>Action: <em>harvest</em></b></p>\n                    <p>This is the bee that you just saw.</p>\n                    <img src=\"bees-with-color/bee-B1SM.svg\" width=\"200\">\n                    <p><span class=\"redText\">Bad choice, the bee was angry.</span><br><b>You have been stung!</b><br>Your pay has been decreased by $0.10. Your bonus pay is now $0.34.</p>\n            ","response":0,"trial_type":"html-button-response","trial_index":74,"time_elapsed":327725,"internal_node_id":"0.0-4.0-1.33","subject_id":"5f1c66f13d69c002fa1fe42f","study_id":"60edd13110225f80f9f3709b","session_id":"6196c1efbb76498b082fdf0f","condition":"contingent","relevant_dimensions":["wings","legs"],"bee_group":{"antennae":"X","wings":"1","pattern":"X","legs":"M"},"bonus":0.960000000000001},{"rt":861.5,"stimulus":"bees-with-color/bee-A2DF.svg","response":0,"trial_type":"image-button-response","trial_index":75,"time_elapsed":328587,"internal_node_id":"0.0-4.0-0.34","subject_id":"5f1c66f13d69c002fa1fe42f","study_id":"60edd13110225f80f9f3709b","session_id":"6196c1efbb76498b082fdf0f","condition":"contingent","relevant_dimensions":["wings","legs"],"bee_group":{"antennae":"X","wings":"1","pattern":"X","legs":"M"},"action":"harvest","summary":"good-harvest","bonus":0.960000000000001},{"rt":516.3000000000466,"stimulus":"\n                    <p><b>Action: <em>harvest</em></b></p>\n                    <p>This is the bee that you just saw.</p>\n                    <img src=\"bees-with-color/bee-A2DF.svg\" width=\"200\">\n                    <p><span class=\"greenText\"><b>Successful harvest!</b></span><br>Your pay has increased by $0.02. Your bonus pay is now $0.36.</p>\n            ","response":0,"trial_type":"html-button-response","trial_index":76,"time_elapsed":329104,"internal_node_id":"0.0-4.0-1.34","subject_id":"5f1c66f13d69c002fa1fe42f","study_id":"60edd13110225f80f9f3709b","session_id":"6196c1efbb76498b082fdf0f","condition":"contingent","relevant_dimensions":["wings","legs"],"bee_group":{"antennae":"X","wings":"1","pattern":"X","legs":"M"},"bonus":0.960000000000001},{"rt":556.4000000001397,"stimulus":"bees-with-color/bee-A2SF.svg","response":0,"trial_type":"image-button-response","trial_index":77,"time_elapsed":329661,"internal_node_id":"0.0-4.0-0.35","subject_id":"5f1c66f13d69c002fa1fe42f","study_id":"60edd13110225f80f9f3709b","session_id":"6196c1efbb76498b082fdf0f","condition":"contingent","relevant_dimensions":["wings","legs"],"bee_group":{"antennae":"X","wings":"1","pattern":"X","legs":"M"},"action":"harvest","summary":"good-harvest","bonus":0.960000000000001},{"rt":568.3000000000466,"stimulus":"\n                    <p><b>Action: <em>harvest</em></b></p>\n                    <p>This is the bee that you just saw.</p>\n                    <img src=\"bees-with-color/bee-A2SF.svg\" width=\"200\">\n                    <p><span class=\"greenText\"><b>Successful harvest!</b></span><br>Your pay has increased by $0.02. Your bonus pay is now $0.38.</p>\n            ","response":0,"trial_type":"html-button-response","trial_index":78,"time_elapsed":330230,"internal_node_id":"0.0-4.0-1.35","subject_id":"5f1c66f13d69c002fa1fe42f","study_id":"60edd13110225f80f9f3709b","session_id":"6196c1efbb76498b082fdf0f","condition":"contingent","relevant_dimensions":["wings","legs"],"bee_group":{"antennae":"X","wings":"1","pattern":"X","legs":"M"},"bonus":0.960000000000001},{"rt":961.5,"stimulus":"bees-with-color/bee-A2SM.svg","response":1,"trial_type":"image-button-response","trial_index":79,"time_elapsed":331192,"internal_node_id":"0.0-4.0-0.36","subject_id":"5f1c66f13d69c002fa1fe42f","study_id":"60edd13110225f80f9f3709b","session_id":"6196c1efbb76498b082fdf0f","condition":"contingent","relevant_dimensions":["wings","legs"],"bee_group":{"antennae":"X","wings":"1","pattern":"X","legs":"M"},"action":"avoid","summary":"bad-avoid","bonus":0.960000000000001},{"rt":441.10000000009313,"stimulus":"\n                    <p><b>Action: <em>avoid</em></b></p>\n                    <p>This is the bee that you just saw.</p>\n                    <img src=\"bees-with-color/bee-A2SM.svg\" width=\"200\">\n                    <p><br>Your bonus pay is unchanged, and remains at $0.38.</p>\n            ","response":0,"trial_type":"html-button-response","trial_index":80,"time_elapsed":331634,"internal_node_id":"0.0-4.0-1.36","subject_id":"5f1c66f13d69c002fa1fe42f","study_id":"60edd13110225f80f9f3709b","session_id":"6196c1efbb76498b082fdf0f","condition":"contingent","relevant_dimensions":["wings","legs"],"bee_group":{"antennae":"X","wings":"1","pattern":"X","legs":"M"},"bonus":0.960000000000001},{"rt":1303.1999999999534,"stimulus":"bees-with-color/bee-B1DM.svg","response":1,"trial_type":"image-button-response","trial_index":81,"time_elapsed":332938,"internal_node_id":"0.0-4.0-0.37","subject_id":"5f1c66f13d69c002fa1fe42f","study_id":"60edd13110225f80f9f3709b","session_id":"6196c1efbb76498b082fdf0f","condition":"contingent","relevant_dimensions":["wings","legs"],"bee_group":{"antennae":"X","wings":"1","pattern":"X","legs":"M"},"action":"avoid","summary":"good-avoid","bonus":0.960000000000001},{"rt":392.29999999981374,"stimulus":"\n                    <p><b>Action: <em>avoid</em></b></p>\n                    <p>This is the bee that you just saw.</p>\n                    <img src=\"bees-with-color/bee-B1DM.svg\" width=\"200\">\n                    <p><br>Your bonus pay is unchanged, and remains at $0.38.</p>\n            ","response":0,"trial_type":"html-button-response","trial_index":82,"time_elapsed":333331,"internal_node_id":"0.0-4.0-1.37","subject_id":"5f1c66f13d69c002fa1fe42f","study_id":"60edd13110225f80f9f3709b","session_id":"6196c1efbb76498b082fdf0f","condition":"contingent","relevant_dimensions":["wings","legs"],"bee_group":{"antennae":"X","wings":"1","pattern":"X","legs":"M"},"bonus":0.960000000000001},{"rt":762.3000000000466,"stimulus":"bees-with-color/bee-A2DM.svg","response":1,"trial_type":"image-button-response","trial_index":83,"time_elapsed":334094,"internal_node_id":"0.0-4.0-0.38","subject_id":"5f1c66f13d69c002fa1fe42f","study_id":"60edd13110225f80f9f3709b","session_id":"6196c1efbb76498b082fdf0f","condition":"contingent","relevant_dimensions":["wings","legs"],"bee_group":{"antennae":"X","wings":"1","pattern":"X","legs":"M"},"action":"avoid","summary":"bad-avoid","bonus":0.960000000000001},{"rt":411.19999999995343,"stimulus":"\n                    <p><b>Action: <em>avoid</em></b></p>\n                    <p>This is the bee that you just saw.</p>\n                    <img src=\"bees-with-color/bee-A2DM.svg\" width=\"200\">\n                    <p><br>Your bonus pay is unchanged, and remains at $0.38.</p>\n            ","response":0,"trial_type":"html-button-response","trial_index":84,"time_elapsed":334506,"internal_node_id":"0.0-4.0-1.38","subject_id":"5f1c66f13d69c002fa1fe42f","study_id":"60edd13110225f80f9f3709b","session_id":"6196c1efbb76498b082fdf0f","condition":"contingent","relevant_dimensions":["wings","legs"],"bee_group":{"antennae":"X","wings":"1","pattern":"X","legs":"M"},"bonus":0.960000000000001},{"rt":558.3000000000466,"stimulus":"bees-with-color/bee-B1SF.svg","response":0,"trial_type":"image-button-response","trial_index":85,"time_elapsed":335065,"internal_node_id":"0.0-4.0-0.39","subject_id":"5f1c66f13d69c002fa1fe42f","study_id":"60edd13110225f80f9f3709b","session_id":"6196c1efbb76498b082fdf0f","condition":"contingent","relevant_dimensions":["wings","legs"],"bee_group":{"antennae":"X","wings":"1","pattern":"X","legs":"M"},"action":"harvest","summary":"good-harvest","bonus":0.960000000000001},{"rt":334.0999999998603,"stimulus":"\n                    <p><b>Action: <em>harvest</em></b></p>\n                    <p>This is the bee that you just saw.</p>\n                    <img src=\"bees-with-color/bee-B1SF.svg\" width=\"200\">\n                    <p><span class=\"greenText\"><b>Successful harvest!</b></span><br>Your pay has increased by $0.02. Your bonus pay is now $0.40.</p>\n            ","response":0,"trial_type":"html-button-response","trial_index":86,"time_elapsed":335400,"internal_node_id":"0.0-4.0-1.39","subject_id":"5f1c66f13d69c002fa1fe42f","study_id":"60edd13110225f80f9f3709b","session_id":"6196c1efbb76498b082fdf0f","condition":"contingent","relevant_dimensions":["wings","legs"],"bee_group":{"antennae":"X","wings":"1","pattern":"X","legs":"M"},"bonus":0.960000000000001},{"rt":645.3999999999069,"stimulus":"bees-with-color/bee-B1DF.svg","response":0,"trial_type":"image-button-response","trial_index":87,"time_elapsed":336046,"internal_node_id":"0.0-4.0-0.40","subject_id":"5f1c66f13d69c002fa1fe42f","study_id":"60edd13110225f80f9f3709b","session_id":"6196c1efbb76498b082fdf0f","condition":"contingent","relevant_dimensions":["wings","legs"],"bee_group":{"antennae":"X","wings":"1","pattern":"X","legs":"M"},"action":"harvest","summary":"good-harvest","bonus":0.960000000000001},{"rt":384.19999999995343,"stimulus":"\n                    <p><b>Action: <em>harvest</em></b></p>\n                    <p>This is the bee that you just saw.</p>\n                    <img src=\"bees-with-color/bee-B1DF.svg\" width=\"200\">\n                    <p><span class=\"greenText\"><b>Successful harvest!</b></span><br>Your pay has increased by $0.02. Your bonus pay is now $0.42.</p>\n            ","response":0,"trial_type":"html-button-response","trial_index":88,"time_elapsed":336431,"internal_node_id":"0.0-4.0-1.40","subject_id":"5f1c66f13d69c002fa1fe42f","study_id":"60edd13110225f80f9f3709b","session_id":"6196c1efbb76498b082fdf0f","condition":"contingent","relevant_dimensions":["wings","legs"],"bee_group":{"antennae":"X","wings":"1","pattern":"X","legs":"M"},"bonus":0.960000000000001},{"rt":594.2999999998137,"stimulus":"bees-with-color/bee-A1DF.svg","response":0,"trial_type":"image-button-response","trial_index":89,"time_elapsed":337026,"internal_node_id":"0.0-4.0-0.41","subject_id":"5f1c66f13d69c002fa1fe42f","study_id":"60edd13110225f80f9f3709b","session_id":"6196c1efbb76498b082fdf0f","condition":"contingent","relevant_dimensions":["wings","legs"],"bee_group":{"antennae":"X","wings":"1","pattern":"X","legs":"M"},"action":"harvest","summary":"good-harvest","bonus":0.960000000000001},{"rt":379.19999999995343,"stimulus":"\n                    <p><b>Action: <em>harvest</em></b></p>\n                    <p>This is the bee that you just saw.</p>\n                    <img src=\"bees-with-color/bee-A1DF.svg\" width=\"200\">\n                    <p><span class=\"greenText\"><b>Successful harvest!</b></span><br>Your pay has increased by $0.02. Your bonus pay is now $0.44.</p>\n            ","response":0,"trial_type":"html-button-response","trial_index":90,"time_elapsed":337406,"internal_node_id":"0.0-4.0-1.41","subject_id":"5f1c66f13d69c002fa1fe42f","study_id":"60edd13110225f80f9f3709b","session_id":"6196c1efbb76498b082fdf0f","condition":"contingent","relevant_dimensions":["wings","legs"],"bee_group":{"antennae":"X","wings":"1","pattern":"X","legs":"M"},"bonus":0.960000000000001},{"rt":741.1999999999534,"stimulus":"bees-with-color/bee-B2DF.svg","response":0,"trial_type":"image-button-response","trial_index":91,"time_elapsed":338148,"internal_node_id":"0.0-4.0-0.42","subject_id":"5f1c66f13d69c002fa1fe42f","study_id":"60edd13110225f80f9f3709b","session_id":"6196c1efbb76498b082fdf0f","condition":"contingent","relevant_dimensions":["wings","legs"],"bee_group":{"antennae":"X","wings":"1","pattern":"X","legs":"M"},"action":"harvest","summary":"good-harvest","bonus":0.960000000000001},{"rt":427.30000000004657,"stimulus":"\n                    <p><b>Action: <em>harvest</em></b></p>\n                    <p>This is the bee that you just saw.</p>\n                    <img src=\"bees-with-color/bee-B2DF.svg\" width=\"200\">\n                    <p><span class=\"greenText\"><b>Successful harvest!</b></span><br>Your pay has increased by $0.02. Your bonus pay is now $0.46.</p>\n            ","response":0,"trial_type":"html-button-response","trial_index":92,"time_elapsed":338576,"internal_node_id":"0.0-4.0-1.42","subject_id":"5f1c66f13d69c002fa1fe42f","study_id":"60edd13110225f80f9f3709b","session_id":"6196c1efbb76498b082fdf0f","condition":"contingent","relevant_dimensions":["wings","legs"],"bee_group":{"antennae":"X","wings":"1","pattern":"X","legs":"M"},"bonus":0.960000000000001},{"rt":602.3000000000466,"stimulus":"bees-with-color/bee-A1SF.svg","response":0,"trial_type":"image-button-response","trial_index":93,"time_elapsed":339179,"internal_node_id":"0.0-4.0-0.43","subject_id":"5f1c66f13d69c002fa1fe42f","study_id":"60edd13110225f80f9f3709b","session_id":"6196c1efbb76498b082fdf0f","condition":"contingent","relevant_dimensions":["wings","legs"],"bee_group":{"antennae":"X","wings":"1","pattern":"X","legs":"M"},"action":"harvest","summary":"good-harvest","bonus":0.960000000000001},{"rt":374.4000000001397,"stimulus":"\n                    <p><b>Action: <em>harvest</em></b></p>\n                    <p>This is the bee that you just saw.</p>\n                    <img src=\"bees-with-color/bee-A1SF.svg\" width=\"200\">\n                    <p><span class=\"greenText\"><b>Successful harvest!</b></span><br>Your pay has increased by $0.02. Your bonus pay is now $0.48.</p>\n            ","response":0,"trial_type":"html-button-response","trial_index":94,"time_elapsed":339554,"internal_node_id":"0.0-4.0-1.43","subject_id":"5f1c66f13d69c002fa1fe42f","study_id":"60edd13110225f80f9f3709b","session_id":"6196c1efbb76498b082fdf0f","condition":"contingent","relevant_dimensions":["wings","legs"],"bee_group":{"antennae":"X","wings":"1","pattern":"X","legs":"M"},"bonus":0.960000000000001},{"rt":870.3000000000466,"stimulus":"bees-with-color/bee-A1SM.svg","response":1,"trial_type":"image-button-response","trial_index":95,"time_elapsed":340426,"internal_node_id":"0.0-4.0-0.44","subject_id":"5f1c66f13d69c002fa1fe42f","study_id":"60edd13110225f80f9f3709b","session_id":"6196c1efbb76498b082fdf0f","condition":"contingent","relevant_dimensions":["wings","legs"],"bee_group":{"antennae":"X","wings":"1","pattern":"X","legs":"M"},"action":"avoid","summary":"good-avoid","bonus":0.960000000000001},{"rt":527.0999999998603,"stimulus":"\n                    <p><b>Action: <em>avoid</em></b></p>\n                    <p>This is the bee that you just saw.</p>\n                    <img src=\"bees-with-color/bee-A1SM.svg\" width=\"200\">\n                    <p><br>Your bonus pay is unchanged, and remains at $0.48.</p>\n            ","response":0,"trial_type":"html-button-response","trial_index":96,"time_elapsed":340953,"internal_node_id":"0.0-4.0-1.44","subject_id":"5f1c66f13d69c002fa1fe42f","study_id":"60edd13110225f80f9f3709b","session_id":"6196c1efbb76498b082fdf0f","condition":"contingent","relevant_dimensions":["wings","legs"],"bee_group":{"antennae":"X","wings":"1","pattern":"X","legs":"M"},"bonus":0.960000000000001},{"rt":775.4000000001397,"stimulus":"bees-with-color/bee-A1DM.svg","response":1,"trial_type":"image-button-response","trial_index":97,"time_elapsed":341730,"internal_node_id":"0.0-4.0-0.45","subject_id":"5f1c66f13d69c002fa1fe42f","study_id":"60edd13110225f80f9f3709b","session_id":"6196c1efbb76498b082fdf0f","condition":"contingent","relevant_dimensions":["wings","legs"],"bee_group":{"antennae":"X","wings":"1","pattern":"X","legs":"M"},"action":"avoid","summary":"good-avoid","bonus":0.960000000000001},{"rt":1202.1999999999534,"stimulus":"\n                    <p><b>Action: <em>avoid</em></b></p>\n                    <p>This is the bee that you just saw.</p>\n                    <img src=\"bees-with-color/bee-A1DM.svg\" width=\"200\">\n                    <p><br>Your bonus pay is unchanged, and remains at $0.48.</p>\n            ","response":0,"trial_type":"html-button-response","trial_index":98,"time_elapsed":342932,"internal_node_id":"0.0-4.0-1.45","subject_id":"5f1c66f13d69c002fa1fe42f","study_id":"60edd13110225f80f9f3709b","session_id":"6196c1efbb76498b082fdf0f","condition":"contingent","relevant_dimensions":["wings","legs"],"bee_group":{"antennae":"X","wings":"1","pattern":"X","legs":"M"},"bonus":0.960000000000001},{"rt":1132.4000000001397,"stimulus":"bees-with-color/bee-B2DM.svg","response":1,"trial_type":"image-button-response","trial_index":99,"time_elapsed":344066,"internal_node_id":"0.0-4.0-0.46","subject_id":"5f1c66f13d69c002fa1fe42f","study_id":"60edd13110225f80f9f3709b","session_id":"6196c1efbb76498b082fdf0f","condition":"contingent","relevant_dimensions":["wings","legs"],"bee_group":{"antennae":"X","wings":"1","pattern":"X","legs":"M"},"action":"avoid","summary":"bad-avoid","bonus":0.960000000000001},{"rt":422.19999999995343,"stimulus":"\n                    <p><b>Action: <em>avoid</em></b></p>\n                    <p>This is the bee that you just saw.</p>\n                    <img src=\"bees-with-color/bee-B2DM.svg\" width=\"200\">\n                    <p><br>Your bonus pay is unchanged, and remains at $0.48.</p>\n            ","response":0,"trial_type":"html-button-response","trial_index":100,"time_elapsed":344488,"internal_node_id":"0.0-4.0-1.46","subject_id":"5f1c66f13d69c002fa1fe42f","study_id":"60edd13110225f80f9f3709b","session_id":"6196c1efbb76498b082fdf0f","condition":"contingent","relevant_dimensions":["wings","legs"],"bee_group":{"antennae":"X","wings":"1","pattern":"X","legs":"M"},"bonus":0.960000000000001},{"rt":559.3000000000466,"stimulus":"bees-with-color/bee-B2SM.svg","response":1,"trial_type":"image-button-response","trial_index":101,"time_elapsed":345049,"internal_node_id":"0.0-4.0-0.47","subject_id":"5f1c66f13d69c002fa1fe42f","study_id":"60edd13110225f80f9f3709b","session_id":"6196c1efbb76498b082fdf0f","condition":"contingent","relevant_dimensions":["wings","legs"],"bee_group":{"antennae":"X","wings":"1","pattern":"X","legs":"M"},"action":"avoid","summary":"bad-avoid","bonus":0.960000000000001},{"rt":461.19999999995343,"stimulus":"\n                    <p><b>Action: <em>avoid</em></b></p>\n                    <p>This is the bee that you just saw.</p>\n                    <img src=\"bees-with-color/bee-B2SM.svg\" width=\"200\">\n                    <p><br>Your bonus pay is unchanged, and remains at $0.48.</p>\n            ","response":0,"trial_type":"html-button-response","trial_index":102,"time_elapsed":345511,"internal_node_id":"0.0-4.0-1.47","subject_id":"5f1c66f13d69c002fa1fe42f","study_id":"60edd13110225f80f9f3709b","session_id":"6196c1efbb76498b082fdf0f","condition":"contingent","relevant_dimensions":["wings","legs"],"bee_group":{"antennae":"X","wings":"1","pattern":"X","legs":"M"},"bonus":0.960000000000001},{"rt":1037.3000000000466,"stimulus":"bees-with-color/bee-A1DM.svg","response":1,"trial_type":"image-button-response","trial_index":103,"time_elapsed":346549,"internal_node_id":"0.0-4.0-0.48","subject_id":"5f1c66f13d69c002fa1fe42f","study_id":"60edd13110225f80f9f3709b","session_id":"6196c1efbb76498b082fdf0f","condition":"contingent","relevant_dimensions":["wings","legs"],"bee_group":{"antennae":"X","wings":"1","pattern":"X","legs":"M"},"action":"avoid","summary":"good-avoid","bonus":0.960000000000001},{"rt":307.19999999995343,"stimulus":"\n                    <p><b>Action: <em>avoid</em></b></p>\n                    <p>This is the bee that you just saw.</p>\n                    <img src=\"bees-with-color/bee-A1DM.svg\" width=\"200\">\n                    <p><br>Your bonus pay is unchanged, and remains at $0.48.</p>\n            ","response":0,"trial_type":"html-button-response","trial_index":104,"time_elapsed":346857,"internal_node_id":"0.0-4.0-1.48","subject_id":"5f1c66f13d69c002fa1fe42f","study_id":"60edd13110225f80f9f3709b","session_id":"6196c1efbb76498b082fdf0f","condition":"contingent","relevant_dimensions":["wings","legs"],"bee_group":{"antennae":"X","wings":"1","pattern":"X","legs":"M"},"bonus":0.960000000000001},{"rt":512.4000000001397,"stimulus":"bees-with-color/bee-A2SM.svg","response":1,"trial_type":"image-button-response","trial_index":105,"time_elapsed":347370,"internal_node_id":"0.0-4.0-0.49","subject_id":"5f1c66f13d69c002fa1fe42f","study_id":"60edd13110225f80f9f3709b","session_id":"6196c1efbb76498b082fdf0f","condition":"contingent","relevant_dimensions":["wings","legs"],"bee_group":{"antennae":"X","wings":"1","pattern":"X","legs":"M"},"action":"avoid","summary":"bad-avoid","bonus":0.960000000000001},{"rt":328.19999999995343,"stimulus":"\n                    <p><b>Action: <em>avoid</em></b></p>\n                    <p>This is the bee that you just saw.</p>\n                    <img src=\"bees-with-color/bee-A2SM.svg\" width=\"200\">\n                    <p><br>Your bonus pay is unchanged, and remains at $0.48.</p>\n            ","response":0,"trial_type":"html-button-response","trial_index":106,"time_elapsed":347699,"internal_node_id":"0.0-4.0-1.49","subject_id":"5f1c66f13d69c002fa1fe42f","study_id":"60edd13110225f80f9f3709b","session_id":"6196c1efbb76498b082fdf0f","condition":"contingent","relevant_dimensions":["wings","legs"],"bee_group":{"antennae":"X","wings":"1","pattern":"X","legs":"M"},"bonus":0.960000000000001},{"rt":613.3999999999069,"stimulus":"bees-with-color/bee-B2SM.svg","response":1,"trial_type":"image-button-response","trial_index":107,"time_elapsed":348313,"internal_node_id":"0.0-4.0-0.50","subject_id":"5f1c66f13d69c002fa1fe42f","study_id":"60edd13110225f80f9f3709b","session_id":"6196c1efbb76498b082fdf0f","condition":"contingent","relevant_dimensions":["wings","legs"],"bee_group":{"antennae":"X","wings":"1","pattern":"X","legs":"M"},"action":"avoid","summary":"bad-avoid","bonus":0.960000000000001},{"rt":429.29999999981374,"stimulus":"\n                    <p><b>Action: <em>avoid</em></b></p>\n                    <p>This is the bee that you just saw.</p>\n                    <img src=\"bees-with-color/bee-B2SM.svg\" width=\"200\">\n                    <p><br>Your bonus pay is unchanged, and remains at $0.48.</p>\n            ","response":0,"trial_type":"html-button-response","trial_index":108,"time_elapsed":348743,"internal_node_id":"0.0-4.0-1.50","subject_id":"5f1c66f13d69c002fa1fe42f","study_id":"60edd13110225f80f9f3709b","session_id":"6196c1efbb76498b082fdf0f","condition":"contingent","relevant_dimensions":["wings","legs"],"bee_group":{"antennae":"X","wings":"1","pattern":"X","legs":"M"},"bonus":0.960000000000001},{"rt":919.0999999998603,"stimulus":"bees-with-color/bee-B1DF.svg","response":0,"trial_type":"image-button-response","trial_index":109,"time_elapsed":349662,"internal_node_id":"0.0-4.0-0.51","subject_id":"5f1c66f13d69c002fa1fe42f","study_id":"60edd13110225f80f9f3709b","session_id":"6196c1efbb76498b082fdf0f","condition":"contingent","relevant_dimensions":["wings","legs"],"bee_group":{"antennae":"X","wings":"1","pattern":"X","legs":"M"},"action":"harvest","summary":"good-harvest","bonus":0.960000000000001},{"rt":461.30000000004657,"stimulus":"\n                    <p><b>Action: <em>harvest</em></b></p>\n                    <p>This is the bee that you just saw.</p>\n                    <img src=\"bees-with-color/bee-B1DF.svg\" width=\"200\">\n                    <p><span class=\"greenText\"><b>Successful harvest!</b></span><br>Your pay has increased by $0.02. Your bonus pay is now $0.50.</p>\n            ","response":0,"trial_type":"html-button-response","trial_index":110,"time_elapsed":350125,"internal_node_id":"0.0-4.0-1.51","subject_id":"5f1c66f13d69c002fa1fe42f","study_id":"60edd13110225f80f9f3709b","session_id":"6196c1efbb76498b082fdf0f","condition":"contingent","relevant_dimensions":["wings","legs"],"bee_group":{"antennae":"X","wings":"1","pattern":"X","legs":"M"},"bonus":0.960000000000001},{"rt":724.1999999999534,"stimulus":"bees-with-color/bee-B1DM.svg","response":1,"trial_type":"image-button-response","trial_index":111,"time_elapsed":350850,"internal_node_id":"0.0-4.0-0.52","subject_id":"5f1c66f13d69c002fa1fe42f","study_id":"60edd13110225f80f9f3709b","session_id":"6196c1efbb76498b082fdf0f","condition":"contingent","relevant_dimensions":["wings","legs"],"bee_group":{"antennae":"X","wings":"1","pattern":"X","legs":"M"},"action":"avoid","summary":"good-avoid","bonus":0.960000000000001},{"rt":395,"stimulus":"\n                    <p><b>Action: <em>avoid</em></b></p>\n                    <p>This is the bee that you just saw.</p>\n                    <img src=\"bees-with-color/bee-B1DM.svg\" width=\"200\">\n                    <p><br>Your bonus pay is unchanged, and remains at $0.50.</p>\n            ","response":0,"trial_type":"html-button-response","trial_index":112,"time_elapsed":351245,"internal_node_id":"0.0-4.0-1.52","subject_id":"5f1c66f13d69c002fa1fe42f","study_id":"60edd13110225f80f9f3709b","session_id":"6196c1efbb76498b082fdf0f","condition":"contingent","relevant_dimensions":["wings","legs"],"bee_group":{"antennae":"X","wings":"1","pattern":"X","legs":"M"},"bonus":0.960000000000001},{"rt":496.4000000001397,"stimulus":"bees-with-color/bee-A2DM.svg","response":1,"trial_type":"image-button-response","trial_index":113,"time_elapsed":351742,"internal_node_id":"0.0-4.0-0.53","subject_id":"5f1c66f13d69c002fa1fe42f","study_id":"60edd13110225f80f9f3709b","session_id":"6196c1efbb76498b082fdf0f","condition":"contingent","relevant_dimensions":["wings","legs"],"bee_group":{"antennae":"X","wings":"1","pattern":"X","legs":"M"},"action":"avoid","summary":"bad-avoid","bonus":0.960000000000001},{"rt":382.5,"stimulus":"\n                    <p><b>Action: <em>avoid</em></b></p>\n                    <p>This is the bee that you just saw.</p>\n                    <img src=\"bees-with-color/bee-A2DM.svg\" width=\"200\">\n                    <p><br>Your bonus pay is unchanged, and remains at $0.50.</p>\n            ","response":0,"trial_type":"html-button-response","trial_index":114,"time_elapsed":352126,"internal_node_id":"0.0-4.0-1.53","subject_id":"5f1c66f13d69c002fa1fe42f","study_id":"60edd13110225f80f9f3709b","session_id":"6196c1efbb76498b082fdf0f","condition":"contingent","relevant_dimensions":["wings","legs"],"bee_group":{"antennae":"X","wings":"1","pattern":"X","legs":"M"},"bonus":0.960000000000001},{"rt":667.3999999999069,"stimulus":"bees-with-color/bee-A2SF.svg","response":0,"trial_type":"image-button-response","trial_index":115,"time_elapsed":352794,"internal_node_id":"0.0-4.0-0.54","subject_id":"5f1c66f13d69c002fa1fe42f","study_id":"60edd13110225f80f9f3709b","session_id":"6196c1efbb76498b082fdf0f","condition":"contingent","relevant_dimensions":["wings","legs"],"bee_group":{"antennae":"X","wings":"1","pattern":"X","legs":"M"},"action":"harvest","summary":"good-harvest","bonus":0.960000000000001},{"rt":399.19999999995343,"stimulus":"\n                    <p><b>Action: <em>harvest</em></b></p>\n                    <p>This is the bee that you just saw.</p>\n                    <img src=\"bees-with-color/bee-A2SF.svg\" width=\"200\">\n                    <p><span class=\"greenText\"><b>Successful harvest!</b></span><br>Your pay has increased by $0.02. Your bonus pay is now $0.52.</p>\n            ","response":0,"trial_type":"html-button-response","trial_index":116,"time_elapsed":353193,"internal_node_id":"0.0-4.0-1.54","subject_id":"5f1c66f13d69c002fa1fe42f","study_id":"60edd13110225f80f9f3709b","session_id":"6196c1efbb76498b082fdf0f","condition":"contingent","relevant_dimensions":["wings","legs"],"bee_group":{"antennae":"X","wings":"1","pattern":"X","legs":"M"},"bonus":0.960000000000001},{"rt":772.3000000000466,"stimulus":"bees-with-color/bee-B2DM.svg","response":1,"trial_type":"image-button-response","trial_index":117,"time_elapsed":353966,"internal_node_id":"0.0-4.0-0.55","subject_id":"5f1c66f13d69c002fa1fe42f","study_id":"60edd13110225f80f9f3709b","session_id":"6196c1efbb76498b082fdf0f","condition":"contingent","relevant_dimensions":["wings","legs"],"bee_group":{"antennae":"X","wings":"1","pattern":"X","legs":"M"},"action":"avoid","summary":"bad-avoid","bonus":0.960000000000001},{"rt":342.4000000001397,"stimulus":"\n                    <p><b>Action: <em>avoid</em></b></p>\n                    <p>This is the bee that you just saw.</p>\n                    <img src=\"bees-with-color/bee-B2DM.svg\" width=\"200\">\n                    <p><br>Your bonus pay is unchanged, and remains at $0.52.</p>\n            ","response":0,"trial_type":"html-button-response","trial_index":118,"time_elapsed":354310,"internal_node_id":"0.0-4.0-1.55","subject_id":"5f1c66f13d69c002fa1fe42f","study_id":"60edd13110225f80f9f3709b","session_id":"6196c1efbb76498b082fdf0f","condition":"contingent","relevant_dimensions":["wings","legs"],"bee_group":{"antennae":"X","wings":"1","pattern":"X","legs":"M"},"bonus":0.960000000000001},{"rt":519.1999999999534,"stimulus":"bees-with-color/bee-B2DF.svg","response":0,"trial_type":"image-button-response","trial_index":119,"time_elapsed":354829,"internal_node_id":"0.0-4.0-0.56","subject_id":"5f1c66f13d69c002fa1fe42f","study_id":"60edd13110225f80f9f3709b","session_id":"6196c1efbb76498b082fdf0f","condition":"contingent","relevant_dimensions":["wings","legs"],"bee_group":{"antennae":"X","wings":"1","pattern":"X","legs":"M"},"action":"harvest","summary":"good-harvest","bonus":0.960000000000001},{"rt":448.4000000001397,"stimulus":"\n                    <p><b>Action: <em>harvest</em></b></p>\n                    <p>This is the bee that you just saw.</p>\n                    <img src=\"bees-with-color/bee-B2DF.svg\" width=\"200\">\n                    <p><span class=\"greenText\"><b>Successful harvest!</b></span><br>Your pay has increased by $0.02. Your bonus pay is now $0.54.</p>\n            ","response":0,"trial_type":"html-button-response","trial_index":120,"time_elapsed":355279,"internal_node_id":"0.0-4.0-1.56","subject_id":"5f1c66f13d69c002fa1fe42f","study_id":"60edd13110225f80f9f3709b","session_id":"6196c1efbb76498b082fdf0f","condition":"contingent","relevant_dimensions":["wings","legs"],"bee_group":{"antennae":"X","wings":"1","pattern":"X","legs":"M"},"bonus":0.960000000000001},{"rt":686.1999999999534,"stimulus":"bees-with-color/bee-A1SM.svg","response":1,"trial_type":"image-button-response","trial_index":121,"time_elapsed":355965,"internal_node_id":"0.0-4.0-0.57","subject_id":"5f1c66f13d69c002fa1fe42f","study_id":"60edd13110225f80f9f3709b","session_id":"6196c1efbb76498b082fdf0f","condition":"contingent","relevant_dimensions":["wings","legs"],"bee_group":{"antennae":"X","wings":"1","pattern":"X","legs":"M"},"action":"avoid","summary":"good-avoid","bonus":0.960000000000001},{"rt":297.30000000004657,"stimulus":"\n                    <p><b>Action: <em>avoid</em></b></p>\n                    <p>This is the bee that you just saw.</p>\n                    <img src=\"bees-with-color/bee-A1SM.svg\" width=\"200\">\n                    <p><br>Your bonus pay is unchanged, and remains at $0.54.</p>\n            ","response":0,"trial_type":"html-button-response","trial_index":122,"time_elapsed":356263,"internal_node_id":"0.0-4.0-1.57","subject_id":"5f1c66f13d69c002fa1fe42f","study_id":"60edd13110225f80f9f3709b","session_id":"6196c1efbb76498b082fdf0f","condition":"contingent","relevant_dimensions":["wings","legs"],"bee_group":{"antennae":"X","wings":"1","pattern":"X","legs":"M"},"bonus":0.960000000000001},{"rt":1278.3000000000466,"stimulus":"bees-with-color/bee-A2DF.svg","response":0,"trial_type":"image-button-response","trial_index":123,"time_elapsed":357542,"internal_node_id":"0.0-4.0-0.58","subject_id":"5f1c66f13d69c002fa1fe42f","study_id":"60edd13110225f80f9f3709b","session_id":"6196c1efbb76498b082fdf0f","condition":"contingent","relevant_dimensions":["wings","legs"],"bee_group":{"antennae":"X","wings":"1","pattern":"X","legs":"M"},"action":"harvest","summary":"good-harvest","bonus":0.960000000000001},{"rt":675.3000000000466,"stimulus":"\n                    <p><b>Action: <em>harvest</em></b></p>\n                    <p>This is the bee that you just saw.</p>\n                    <img src=\"bees-with-color/bee-A2DF.svg\" width=\"200\">\n                    <p><span class=\"greenText\"><b>Successful harvest!</b></span><br>Your pay has increased by $0.02. Your bonus pay is now $0.56.</p>\n            ","response":0,"trial_type":"html-button-response","trial_index":124,"time_elapsed":358218,"internal_node_id":"0.0-4.0-1.58","subject_id":"5f1c66f13d69c002fa1fe42f","study_id":"60edd13110225f80f9f3709b","session_id":"6196c1efbb76498b082fdf0f","condition":"contingent","relevant_dimensions":["wings","legs"],"bee_group":{"antennae":"X","wings":"1","pattern":"X","legs":"M"},"bonus":0.960000000000001},{"rt":1684.3000000000466,"stimulus":"bees-with-color/bee-B1SF.svg","response":0,"trial_type":"image-button-response","trial_index":125,"time_elapsed":359903,"internal_node_id":"0.0-4.0-0.59","subject_id":"5f1c66f13d69c002fa1fe42f","study_id":"60edd13110225f80f9f3709b","session_id":"6196c1efbb76498b082fdf0f","condition":"contingent","relevant_dimensions":["wings","legs"],"bee_group":{"antennae":"X","wings":"1","pattern":"X","legs":"M"},"action":"harvest","summary":"good-harvest","bonus":0.960000000000001},{"rt":622.3000000000466,"stimulus":"\n                    <p><b>Action: <em>harvest</em></b></p>\n                    <p>This is the bee that you just saw.</p>\n                    <img src=\"bees-with-color/bee-B1SF.svg\" width=\"200\">\n                    <p><span class=\"greenText\"><b>Successful harvest!</b></span><br>Your pay has increased by $0.02. Your bonus pay is now $0.58.</p>\n            ","response":0,"trial_type":"html-button-response","trial_index":126,"time_elapsed":360527,"internal_node_id":"0.0-4.0-1.59","subject_id":"5f1c66f13d69c002fa1fe42f","study_id":"60edd13110225f80f9f3709b","session_id":"6196c1efbb76498b082fdf0f","condition":"contingent","relevant_dimensions":["wings","legs"],"bee_group":{"antennae":"X","wings":"1","pattern":"X","legs":"M"},"bonus":0.960000000000001},{"rt":911.8999999999069,"stimulus":"bees-with-color/bee-B1SM.svg","response":1,"trial_type":"image-button-response","trial_index":127,"time_elapsed":361440,"internal_node_id":"0.0-4.0-0.60","subject_id":"5f1c66f13d69c002fa1fe42f","study_id":"60edd13110225f80f9f3709b","session_id":"6196c1efbb76498b082fdf0f","condition":"contingent","relevant_dimensions":["wings","legs"],"bee_group":{"antennae":"X","wings":"1","pattern":"X","legs":"M"},"action":"avoid","summary":"good-avoid","bonus":0.960000000000001},{"rt":392.19999999995343,"stimulus":"\n                    <p><b>Action: <em>avoid</em></b></p>\n                    <p>This is the bee that you just saw.</p>\n                    <img src=\"bees-with-color/bee-B1SM.svg\" width=\"200\">\n                    <p><br>Your bonus pay is unchanged, and remains at $0.58.</p>\n            ","response":0,"trial_type":"html-button-response","trial_index":128,"time_elapsed":361832,"internal_node_id":"0.0-4.0-1.60","subject_id":"5f1c66f13d69c002fa1fe42f","study_id":"60edd13110225f80f9f3709b","session_id":"6196c1efbb76498b082fdf0f","condition":"contingent","relevant_dimensions":["wings","legs"],"bee_group":{"antennae":"X","wings":"1","pattern":"X","legs":"M"},"bonus":0.960000000000001},{"rt":617.1999999999534,"stimulus":"bees-with-color/bee-A1SF.svg","response":0,"trial_type":"image-button-response","trial_index":129,"time_elapsed":362451,"internal_node_id":"0.0-4.0-0.61","subject_id":"5f1c66f13d69c002fa1fe42f","study_id":"60edd13110225f80f9f3709b","session_id":"6196c1efbb76498b082fdf0f","condition":"contingent","relevant_dimensions":["wings","legs"],"bee_group":{"antennae":"X","wings":"1","pattern":"X","legs":"M"},"action":"harvest","summary":"good-harvest","bonus":0.960000000000001},{"rt":594.0999999998603,"stimulus":"\n                    <p><b>Action: <em>harvest</em></b></p>\n                    <p>This is the bee that you just saw.</p>\n                    <img src=\"bees-with-color/bee-A1SF.svg\" width=\"200\">\n                    <p><span class=\"greenText\"><b>Successful harvest!</b></span><br>Your pay has increased by $0.02. Your bonus pay is now $0.60.</p>\n            ","response":0,"trial_type":"html-button-response","trial_index":130,"time_elapsed":363045,"internal_node_id":"0.0-4.0-1.61","subject_id":"5f1c66f13d69c002fa1fe42f","study_id":"60edd13110225f80f9f3709b","session_id":"6196c1efbb76498b082fdf0f","condition":"contingent","relevant_dimensions":["wings","legs"],"bee_group":{"antennae":"X","wings":"1","pattern":"X","legs":"M"},"bonus":0.960000000000001},{"rt":1062.3000000000466,"stimulus":"bees-with-color/bee-A1DF.svg","response":0,"trial_type":"image-button-response","trial_index":131,"time_elapsed":364109,"internal_node_id":"0.0-4.0-0.62","subject_id":"5f1c66f13d69c002fa1fe42f","study_id":"60edd13110225f80f9f3709b","session_id":"6196c1efbb76498b082fdf0f","condition":"contingent","relevant_dimensions":["wings","legs"],"bee_group":{"antennae":"X","wings":"1","pattern":"X","legs":"M"},"action":"harvest","summary":"good-harvest","bonus":0.960000000000001},{"rt":634.2999999998137,"stimulus":"\n                    <p><b>Action: <em>harvest</em></b></p>\n                    <p>This is the bee that you just saw.</p>\n                    <img src=\"bees-with-color/bee-A1DF.svg\" width=\"200\">\n                    <p><span class=\"greenText\"><b>Successful harvest!</b></span><br>Your pay has increased by $0.02. Your bonus pay is now $0.62.</p>\n            ","response":0,"trial_type":"html-button-response","trial_index":132,"time_elapsed":364744,"internal_node_id":"0.0-4.0-1.62","subject_id":"5f1c66f13d69c002fa1fe42f","study_id":"60edd13110225f80f9f3709b","session_id":"6196c1efbb76498b082fdf0f","condition":"contingent","relevant_dimensions":["wings","legs"],"bee_group":{"antennae":"X","wings":"1","pattern":"X","legs":"M"},"bonus":0.960000000000001},{"rt":1462.2999999998137,"stimulus":"bees-with-color/bee-B2SF.svg","response":0,"trial_type":"image-button-response","trial_index":133,"time_elapsed":366207,"internal_node_id":"0.0-4.0-0.63","subject_id":"5f1c66f13d69c002fa1fe42f","study_id":"60edd13110225f80f9f3709b","session_id":"6196c1efbb76498b082fdf0f","condition":"contingent","relevant_dimensions":["wings","legs"],"bee_group":{"antennae":"X","wings":"1","pattern":"X","legs":"M"},"action":"harvest","summary":"good-harvest","bonus":0.960000000000001},{"rt":1011.1999999999534,"stimulus":"\n                    <p><b>Action: <em>harvest</em></b></p>\n                    <p>This is the bee that you just saw.</p>\n                    <img src=\"bees-with-color/bee-B2SF.svg\" width=\"200\">\n                    <p><span class=\"greenText\"><b>Successful harvest!</b></span><br>Your pay has increased by $0.02. Your bonus pay is now $0.64.</p>\n            ","response":0,"trial_type":"html-button-response","trial_index":134,"time_elapsed":367218,"internal_node_id":"0.0-4.0-1.63","subject_id":"5f1c66f13d69c002fa1fe42f","study_id":"60edd13110225f80f9f3709b","session_id":"6196c1efbb76498b082fdf0f","condition":"contingent","relevant_dimensions":["wings","legs"],"bee_group":{"antennae":"X","wings":"1","pattern":"X","legs":"M"},"bonus":0.960000000000001},{"rt":6059.600000000093,"stimulus":"You have completed the first part of this experiment.<br><br>You will now begin a shorter second part, in which you will receive no feedback.<br>The same rules regarding bonus pay apply.<br><br>Press any key to begin.","response":"arrowup","trial_type":"html-keyboard-response","trial_index":135,"time_elapsed":373279,"internal_node_id":"0.0-5.0","subject_id":"5f1c66f13d69c002fa1fe42f","study_id":"60edd13110225f80f9f3709b","session_id":"6196c1efbb76498b082fdf0f","condition":"contingent","relevant_dimensions":["wings","legs"],"bee_group":{"antennae":"X","wings":"1","pattern":"X","legs":"M"},"bonus":0.960000000000001},{"rt":1764,"stimulus":"bees-with-color/bee-B2SF.svg","response":0,"trial_type":"image-button-response","trial_index":136,"time_elapsed":375045,"internal_node_id":"0.0-6.0-0.0","subject_id":"5f1c66f13d69c002fa1fe42f","study_id":"60edd13110225f80f9f3709b","session_id":"6196c1efbb76498b082fdf0f","condition":"contingent","relevant_dimensions":["wings","legs"],"bee_group":{"antennae":"X","wings":"1","pattern":"X","legs":"M"},"bonus":0.960000000000001},{"rt":754.8999999999069,"stimulus":"bees-with-color/bee-A1SM.svg","response":1,"trial_type":"image-button-response","trial_index":137,"time_elapsed":375801,"internal_node_id":"0.0-6.0-0.1","subject_id":"5f1c66f13d69c002fa1fe42f","study_id":"60edd13110225f80f9f3709b","session_id":"6196c1efbb76498b082fdf0f","condition":"contingent","relevant_dimensions":["wings","legs"],"bee_group":{"antennae":"X","wings":"1","pattern":"X","legs":"M"},"bonus":0.960000000000001},{"rt":841,"stimulus":"bees-with-color/bee-B2DF.svg","response":0,"trial_type":"image-button-response","trial_index":138,"time_elapsed":376643,"internal_node_id":"0.0-6.0-0.2","subject_id":"5f1c66f13d69c002fa1fe42f","study_id":"60edd13110225f80f9f3709b","session_id":"6196c1efbb76498b082fdf0f","condition":"contingent","relevant_dimensions":["wings","legs"],"bee_group":{"antennae":"X","wings":"1","pattern":"X","legs":"M"},"bonus":0.960000000000001},{"rt":628.8999999999069,"stimulus":"bees-with-color/bee-A1DF.svg","response":0,"trial_type":"image-button-response","trial_index":139,"time_elapsed":377273,"internal_node_id":"0.0-6.0-0.3","subject_id":"5f1c66f13d69c002fa1fe42f","study_id":"60edd13110225f80f9f3709b","session_id":"6196c1efbb76498b082fdf0f","condition":"contingent","relevant_dimensions":["wings","legs"],"bee_group":{"antennae":"X","wings":"1","pattern":"X","legs":"M"},"bonus":0.960000000000001},{"rt":570.6999999999534,"stimulus":"bees-with-color/bee-A1SF.svg","response":0,"trial_type":"image-button-response","trial_index":140,"time_elapsed":377845,"internal_node_id":"0.0-6.0-0.4","subject_id":"5f1c66f13d69c002fa1fe42f","study_id":"60edd13110225f80f9f3709b","session_id":"6196c1efbb76498b082fdf0f","condition":"contingent","relevant_dimensions":["wings","legs"],"bee_group":{"antennae":"X","wings":"1","pattern":"X","legs":"M"},"bonus":0.960000000000001},{"rt":615,"stimulus":"bees-with-color/bee-A2SF.svg","response":0,"trial_type":"image-button-response","trial_index":141,"time_elapsed":378461,"internal_node_id":"0.0-6.0-0.5","subject_id":"5f1c66f13d69c002fa1fe42f","study_id":"60edd13110225f80f9f3709b","session_id":"6196c1efbb76498b082fdf0f","condition":"contingent","relevant_dimensions":["wings","legs"],"bee_group":{"antennae":"X","wings":"1","pattern":"X","legs":"M"},"bonus":0.960000000000001},{"rt":1952.8000000000466,"stimulus":"bees-with-color/bee-B2SM.svg","response":1,"trial_type":"image-button-response","trial_index":142,"time_elapsed":380415,"internal_node_id":"0.0-6.0-0.6","subject_id":"5f1c66f13d69c002fa1fe42f","study_id":"60edd13110225f80f9f3709b","session_id":"6196c1efbb76498b082fdf0f","condition":"contingent","relevant_dimensions":["wings","legs"],"bee_group":{"antennae":"X","wings":"1","pattern":"X","legs":"M"},"bonus":0.960000000000001},{"rt":719.9000000001397,"stimulus":"bees-with-color/bee-B1DM.svg","response":1,"trial_type":"image-button-response","trial_index":143,"time_elapsed":381136,"internal_node_id":"0.0-6.0-0.7","subject_id":"5f1c66f13d69c002fa1fe42f","study_id":"60edd13110225f80f9f3709b","session_id":"6196c1efbb76498b082fdf0f","condition":"contingent","relevant_dimensions":["wings","legs"],"bee_group":{"antennae":"X","wings":"1","pattern":"X","legs":"M"},"bonus":0.960000000000001},{"rt":466.9000000001397,"stimulus":"bees-with-color/bee-A1DM.svg","response":1,"trial_type":"image-button-response","trial_index":144,"time_elapsed":381605,"internal_node_id":"0.0-6.0-0.8","subject_id":"5f1c66f13d69c002fa1fe42f","study_id":"60edd13110225f80f9f3709b","session_id":"6196c1efbb76498b082fdf0f","condition":"contingent","relevant_dimensions":["wings","legs"],"bee_group":{"antennae":"X","wings":"1","pattern":"X","legs":"M"},"bonus":0.960000000000001},{"rt":478.70000000018626,"stimulus":"bees-with-color/bee-A2DM.svg","response":1,"trial_type":"image-button-response","trial_index":145,"time_elapsed":382084,"internal_node_id":"0.0-6.0-0.9","subject_id":"5f1c66f13d69c002fa1fe42f","study_id":"60edd13110225f80f9f3709b","session_id":"6196c1efbb76498b082fdf0f","condition":"contingent","relevant_dimensions":["wings","legs"],"bee_group":{"antennae":"X","wings":"1","pattern":"X","legs":"M"},"bonus":0.960000000000001},{"rt":538.8999999999069,"stimulus":"bees-with-color/bee-B1SF.svg","response":0,"trial_type":"image-button-response","trial_index":146,"time_elapsed":382625,"internal_node_id":"0.0-6.0-0.10","subject_id":"5f1c66f13d69c002fa1fe42f","study_id":"60edd13110225f80f9f3709b","session_id":"6196c1efbb76498b082fdf0f","condition":"contingent","relevant_dimensions":["wings","legs"],"bee_group":{"antennae":"X","wings":"1","pattern":"X","legs":"M"},"bonus":0.960000000000001},{"rt":590.7000000001863,"stimulus":"bees-with-color/bee-B1DF.svg","response":0,"trial_type":"image-button-response","trial_index":147,"time_elapsed":383216,"internal_node_id":"0.0-6.0-0.11","subject_id":"5f1c66f13d69c002fa1fe42f","study_id":"60edd13110225f80f9f3709b","session_id":"6196c1efbb76498b082fdf0f","condition":"contingent","relevant_dimensions":["wings","legs"],"bee_group":{"antennae":"X","wings":"1","pattern":"X","legs":"M"},"bonus":0.960000000000001},{"rt":588.8999999999069,"stimulus":"bees-with-color/bee-B2DM.svg","response":1,"trial_type":"image-button-response","trial_index":148,"time_elapsed":383806,"internal_node_id":"0.0-6.0-0.12","subject_id":"5f1c66f13d69c002fa1fe42f","study_id":"60edd13110225f80f9f3709b","session_id":"6196c1efbb76498b082fdf0f","condition":"contingent","relevant_dimensions":["wings","legs"],"bee_group":{"antennae":"X","wings":"1","pattern":"X","legs":"M"},"bonus":0.960000000000001},{"rt":533,"stimulus":"bees-with-color/bee-A2SM.svg","response":1,"trial_type":"image-button-response","trial_index":149,"time_elapsed":384340,"internal_node_id":"0.0-6.0-0.13","subject_id":"5f1c66f13d69c002fa1fe42f","study_id":"60edd13110225f80f9f3709b","session_id":"6196c1efbb76498b082fdf0f","condition":"contingent","relevant_dimensions":["wings","legs"],"bee_group":{"antennae":"X","wings":"1","pattern":"X","legs":"M"},"bonus":0.960000000000001},{"rt":638,"stimulus":"bees-with-color/bee-A2DF.svg","response":0,"trial_type":"image-button-response","trial_index":150,"time_elapsed":384979,"internal_node_id":"0.0-6.0-0.14","subject_id":"5f1c66f13d69c002fa1fe42f","study_id":"60edd13110225f80f9f3709b","session_id":"6196c1efbb76498b082fdf0f","condition":"contingent","relevant_dimensions":["wings","legs"],"bee_group":{"antennae":"X","wings":"1","pattern":"X","legs":"M"},"bonus":0.960000000000001},{"rt":869.8999999999069,"stimulus":"bees-with-color/bee-B1SM.svg","response":1,"trial_type":"image-button-response","trial_index":151,"time_elapsed":385850,"internal_node_id":"0.0-6.0-0.15","subject_id":"5f1c66f13d69c002fa1fe42f","study_id":"60edd13110225f80f9f3709b","session_id":"6196c1efbb76498b082fdf0f","condition":"contingent","relevant_dimensions":["wings","legs"],"bee_group":{"antennae":"X","wings":"1","pattern":"X","legs":"M"},"bonus":0.960000000000001},{"rt":1319.0999999998603,"stimulus":"bees-with-color/bee-A2SM.svg","response":1,"trial_type":"image-button-response","trial_index":152,"time_elapsed":387170,"internal_node_id":"0.0-6.0-0.16","subject_id":"5f1c66f13d69c002fa1fe42f","study_id":"60edd13110225f80f9f3709b","session_id":"6196c1efbb76498b082fdf0f","condition":"contingent","relevant_dimensions":["wings","legs"],"bee_group":{"antennae":"X","wings":"1","pattern":"X","legs":"M"},"bonus":0.960000000000001},{"rt":552,"stimulus":"bees-with-color/bee-B2SF.svg","response":0,"trial_type":"image-button-response","trial_index":153,"time_elapsed":387723,"internal_node_id":"0.0-6.0-0.17","subject_id":"5f1c66f13d69c002fa1fe42f","study_id":"60edd13110225f80f9f3709b","session_id":"6196c1efbb76498b082fdf0f","condition":"contingent","relevant_dimensions":["wings","legs"],"bee_group":{"antennae":"X","wings":"1","pattern":"X","legs":"M"},"bonus":0.960000000000001},{"rt":1071.1999999999534,"stimulus":"bees-with-color/bee-B1DM.svg","response":1,"trial_type":"image-button-response","trial_index":154,"time_elapsed":388796,"internal_node_id":"0.0-6.0-0.18","subject_id":"5f1c66f13d69c002fa1fe42f","study_id":"60edd13110225f80f9f3709b","session_id":"6196c1efbb76498b082fdf0f","condition":"contingent","relevant_dimensions":["wings","legs"],"bee_group":{"antennae":"X","wings":"1","pattern":"X","legs":"M"},"bonus":0.960000000000001},{"rt":749.8999999999069,"stimulus":"bees-with-color/bee-A2DF.svg","response":0,"trial_type":"image-button-response","trial_index":155,"time_elapsed":389546,"internal_node_id":"0.0-6.0-0.19","subject_id":"5f1c66f13d69c002fa1fe42f","study_id":"60edd13110225f80f9f3709b","session_id":"6196c1efbb76498b082fdf0f","condition":"contingent","relevant_dimensions":["wings","legs"],"bee_group":{"antennae":"X","wings":"1","pattern":"X","legs":"M"},"bonus":0.960000000000001},{"rt":610,"stimulus":"bees-with-color/bee-B1SF.svg","response":0,"trial_type":"image-button-response","trial_index":156,"time_elapsed":390157,"internal_node_id":"0.0-6.0-0.20","subject_id":"5f1c66f13d69c002fa1fe42f","study_id":"60edd13110225f80f9f3709b","session_id":"6196c1efbb76498b082fdf0f","condition":"contingent","relevant_dimensions":["wings","legs"],"bee_group":{"antennae":"X","wings":"1","pattern":"X","legs":"M"},"bonus":0.960000000000001},{"rt":617.0999999998603,"stimulus":"bees-with-color/bee-A1DF.svg","response":0,"trial_type":"image-button-response","trial_index":157,"time_elapsed":390775,"internal_node_id":"0.0-6.0-0.21","subject_id":"5f1c66f13d69c002fa1fe42f","study_id":"60edd13110225f80f9f3709b","session_id":"6196c1efbb76498b082fdf0f","condition":"contingent","relevant_dimensions":["wings","legs"],"bee_group":{"antennae":"X","wings":"1","pattern":"X","legs":"M"},"bonus":0.960000000000001},{"rt":848,"stimulus":"bees-with-color/bee-B2SM.svg","response":1,"trial_type":"image-button-response","trial_index":158,"time_elapsed":391624,"internal_node_id":"0.0-6.0-0.22","subject_id":"5f1c66f13d69c002fa1fe42f","study_id":"60edd13110225f80f9f3709b","session_id":"6196c1efbb76498b082fdf0f","condition":"contingent","relevant_dimensions":["wings","legs"],"bee_group":{"antennae":"X","wings":"1","pattern":"X","legs":"M"},"bonus":0.960000000000001},{"rt":543.0999999998603,"stimulus":"bees-with-color/bee-A1DM.svg","response":1,"trial_type":"image-button-response","trial_index":159,"time_elapsed":392168,"internal_node_id":"0.0-6.0-0.23","subject_id":"5f1c66f13d69c002fa1fe42f","study_id":"60edd13110225f80f9f3709b","session_id":"6196c1efbb76498b082fdf0f","condition":"contingent","relevant_dimensions":["wings","legs"],"bee_group":{"antennae":"X","wings":"1","pattern":"X","legs":"M"},"bonus":0.960000000000001},{"rt":427,"stimulus":"bees-with-color/bee-B1SM.svg","response":1,"trial_type":"image-button-response","trial_index":160,"time_elapsed":392596,"internal_node_id":"0.0-6.0-0.24","subject_id":"5f1c66f13d69c002fa1fe42f","study_id":"60edd13110225f80f9f3709b","session_id":"6196c1efbb76498b082fdf0f","condition":"contingent","relevant_dimensions":["wings","legs"],"bee_group":{"antennae":"X","wings":"1","pattern":"X","legs":"M"},"bonus":0.960000000000001},{"rt":413,"stimulus":"bees-with-color/bee-A1SM.svg","response":1,"trial_type":"image-button-response","trial_index":161,"time_elapsed":393011,"internal_node_id":"0.0-6.0-0.25","subject_id":"5f1c66f13d69c002fa1fe42f","study_id":"60edd13110225f80f9f3709b","session_id":"6196c1efbb76498b082fdf0f","condition":"contingent","relevant_dimensions":["wings","legs"],"bee_group":{"antennae":"X","wings":"1","pattern":"X","legs":"M"},"bonus":0.960000000000001},{"rt":574.9000000001397,"stimulus":"bees-with-color/bee-A2SF.svg","response":0,"trial_type":"image-button-response","trial_index":162,"time_elapsed":393586,"internal_node_id":"0.0-6.0-0.26","subject_id":"5f1c66f13d69c002fa1fe42f","study_id":"60edd13110225f80f9f3709b","session_id":"6196c1efbb76498b082fdf0f","condition":"contingent","relevant_dimensions":["wings","legs"],"bee_group":{"antennae":"X","wings":"1","pattern":"X","legs":"M"},"bonus":0.960000000000001},{"rt":466.9000000001397,"stimulus":"bees-with-color/bee-B2DM.svg","response":1,"trial_type":"image-button-response","trial_index":163,"time_elapsed":394054,"internal_node_id":"0.0-6.0-0.27","subject_id":"5f1c66f13d69c002fa1fe42f","study_id":"60edd13110225f80f9f3709b","session_id":"6196c1efbb76498b082fdf0f","condition":"contingent","relevant_dimensions":["wings","legs"],"bee_group":{"antennae":"X","wings":"1","pattern":"X","legs":"M"},"bonus":0.960000000000001},{"rt":704,"stimulus":"bees-with-color/bee-B2DF.svg","response":0,"trial_type":"image-button-response","trial_index":164,"time_elapsed":394759,"internal_node_id":"0.0-6.0-0.28","subject_id":"5f1c66f13d69c002fa1fe42f","study_id":"60edd13110225f80f9f3709b","session_id":"6196c1efbb76498b082fdf0f","condition":"contingent","relevant_dimensions":["wings","legs"],"bee_group":{"antennae":"X","wings":"1","pattern":"X","legs":"M"},"bonus":0.960000000000001},{"rt":369,"stimulus":"bees-with-color/bee-A2DM.svg","response":1,"trial_type":"image-button-response","trial_index":165,"time_elapsed":39