[{"success":true,"trial_type":"fullscreen","trial_index":0,"time_elapsed":3753,"internal_node_id":"0.0-0.0","subject_id":"614737a4f5b4c0a971902323","study_id":"6197b3f67c2b5cd3b6d9596a","session_id":"619bfc2b6f26346e36b54696","condition":"full-information","relevant_dimensions":["pattern","legs"],"bee_group":{"antennae":"X","wings":"X","pattern":"S","legs":"M"},"bonus":0.42000000000000115},{"success":true,"timeout":false,"failed_images":[],"failed_audio":[],"failed_video":[],"trial_type":"preload","trial_index":1,"time_elapsed":5449,"internal_node_id":"0.0-1.0","subject_id":"614737a4f5b4c0a971902323","study_id":"6197b3f67c2b5cd3b6d9596a","session_id":"619bfc2b6f26346e36b54696","condition":"full-information","relevant_dimensions":["pattern","legs"],"bee_group":{"antennae":"X","wings":"X","pattern":"S","legs":"M"},"bonus":0.42000000000000115},{"rt":2910.600000023842,"stimulus":"Welcome! Press any key to begin.","response":" ","trial_type":"html-keyboard-response","trial_index":2,"time_elapsed":8361,"internal_node_id":"0.0-2.0","subject_id":"614737a4f5b4c0a971902323","study_id":"6197b3f67c2b5cd3b6d9596a","session_id":"619bfc2b6f26346e36b54696","condition":"full-information","relevant_dimensions":["pattern","legs"],"bee_group":{"antennae":"X","wings":"X","pattern":"S","legs":"M"},"bonus":0.42000000000000115},{"view_history":[{"page_index":0,"viewing_time":6029.899999976158},{"page_index":1,"viewing_time":17422.900000095367},{"page_index":2,"viewing_time":16167.899999976158},{"page_index":3,"viewing_time":14248.799999952316},{"page_index":4,"viewing_time":9105.200000047684},{"page_index":5,"viewing_time":13759.899999976158},{"page_index":6,"viewing_time":20855.799999952316},{"page_index":7,"viewing_time":6574.5},{"page_index":8,"viewing_time":4450.600000023842},{"page_index":9,"viewing_time":3859.2000000476837},{"page_index":10,"viewing_time":3491.399999976158},{"page_index":11,"viewing_time":22205},{"page_index":12,"viewing_time":15874.5},{"page_index":13,"viewing_time":2450.2000000476837},{"page_index":14,"viewing_time":4624.799999952316}],"rt":161121,"trial_type":"instructions","trial_index":3,"time_elapsed":169483,"internal_node_id":"0.0-3.0-0.0","subject_id":"614737a4f5b4c0a971902323","study_id":"6197b3f67c2b5cd3b6d9596a","session_id":"619bfc2b6f26346e36b54696","condition":"full-information","relevant_dimensions":["pattern","legs"],"bee_group":{"antennae":"X","wings":"X","pattern":"S","legs":"M"},"bonus":0.42000000000000115},{"rt":15809,"response":{"Q0":["Two or six legs","Stripes or spots on body","Single or double wings","Antennae or no antennae"]},"question_order":[0],"trial_type":"survey-multi-select","trial_index":4,"time_elapsed":185296,"internal_node_id":"0.0-3.0-1.0","subject_id":"614737a4f5b4c0a971902323","study_id":"6197b3f67c2b5cd3b6d9596a","session_id":"619bfc2b6f26346e36b54696","condition":"full-information","relevant_dimensions":["pattern","legs"],"bee_group":{"antennae":"X","wings":"X","pattern":"S","legs":"M"},"correct":true,"bonus":0.42000000000000115},{"rt":46232.299999952316,"response":{"Q1":"No.","Q2":"Based on the four features of the bee.","Q3":"You learn if it was friendly or dangerous, but do not alter your bonus."},"question_order":[0,1,2],"trial_type":"survey-multi-choice","trial_index":5,"time_elapsed":231531,"internal_node_id":"0.0-3.0-2.0","subject_id":"614737a4f5b4c0a971902323","study_id":"6197b3f67c2b5cd3b6d9596a","session_id":"619bfc2b6f26346e36b54696","condition":"full-information","relevant_dimensions":["pattern","legs"],"bee_group":{"antennae":"X","wings":"X","pattern":"S","legs":"M"},"correct":true,"bonus":0.42000000000000115},{"rt":3448.8000000715256,"stimulus":"<p>Congrats, you got everything right<br>When you're ready, click the button below to continue to the experiment.</p>","response":0,"trial_type":"html-button-response","trial_index":6,"time_elapsed":234981,"internal_node_id":"0.0-3.0-3.0","subject_id":"614737a4f5b4c0a971902323","study_id":"6197b3f67c2b5cd3b6d9596a","session_id":"619bfc2b6f26346e36b54696","condition":"full-information","relevant_dimensions":["pattern","legs"],"bee_group":{"antennae":"X","wings":"X","pattern":"S","legs":"M"},"bonus":0.42000000000000115},{"rt":9662.200000047684,"stimulus":"bees-with-color/bee-B2DF.svg","response":1,"trial_type":"image-button-response","trial_index":7,"time_elapsed":244646,"internal_node_id":"0.0-4.0-0.0","subject_id":"614737a4f5b4c0a971902323","study_id":"6197b3f67c2b5cd3b6d9596a","session_id":"619bfc2b6f26346e36b54696","condition":"full-information","relevant_dimensions":["pattern","legs"],"bee_group":{"antennae":"X","wings":"X","pattern":"S","legs":"M"},"action":"avoid","summary":"bad-avoid","bonus":0.42000000000000115},{"rt":8191.899999976158,"stimulus":"\n                    <p><b>Action: <em>avoid</em></b></p>\n                    <p>This is the bee that you just saw.</p>\n                    <img src=\"bees-with-color/bee-B2DF.svg\" width=\"200\">\n                    <p><span class=\"redText\">Bad choice,</span> the bee was friendly.<br>Your bonus pay is unchanged, and remains at $0.54.</p>\n            ","response":0,"trial_type":"html-button-response","trial_index":8,"time_elapsed":252841,"internal_node_id":"0.0-4.0-1.0","subject_id":"614737a4f5b4c0a971902323","study_id":"6197b3f67c2b5cd3b6d9596a","session_id":"619bfc2b6f26346e36b54696","condition":"full-information","relevant_dimensions":["pattern","legs"],"bee_group":{"antennae":"X","wings":"X","pattern":"S","legs":"M"},"bonus":0.42000000000000115},{"rt":6204.299999952316,"stimulus":"bees-with-color/bee-B1SM.svg","response":0,"trial_type":"image-button-response","trial_index":9,"time_elapsed":259047,"internal_node_id":"0.0-4.0-0.1","subject_id":"614737a4f5b4c0a971902323","study_id":"6197b3f67c2b5cd3b6d9596a","session_id":"619bfc2b6f26346e36b54696","condition":"full-information","relevant_dimensions":["pattern","legs"],"bee_group":{"antennae":"X","wings":"X","pattern":"S","legs":"M"},"action":"harvest","summary":"bad-harvest","bonus":0.42000000000000115},{"rt":5284.700000047684,"stimulus":"\n                    <p><b>Action: <em>harvest</em></b></p>\n                    <p>This is the bee that you just saw.</p>\n                    <img src=\"bees-with-color/bee-B1SM.svg\" width=\"200\">\n                    <p><span class=\"redText\">Bad choice, the bee was angry.</span><br><b>You have been stung!</b><br>Your pay has been decreased by $0.10. Your bonus pay is now $0.44.</p>\n            ","response":0,"trial_type":"html-button-response","trial_index":10,"time_elapsed":264334,"internal_node_id":"0.0-4.0-1.1","subject_id":"614737a4f5b4c0a971902323","study_id":"6197b3f67c2b5cd3b6d9596a","session_id":"619bfc2b6f26346e36b54696","condition":"full-information","relevant_dimensions":["pattern","legs"],"bee_group":{"antennae":"X","wings":"X","pattern":"S","legs":"M"},"bonus":0.42000000000000115},{"rt":2692.100000023842,"stimulus":"bees-with-color/bee-A1DM.svg","response":1,"trial_type":"image-button-response","trial_index":11,"time_elapsed":267028,"internal_node_id":"0.0-4.0-0.2","subject_id":"614737a4f5b4c0a971902323","study_id":"6197b3f67c2b5cd3b6d9596a","session_id":"619bfc2b6f26346e36b54696","condition":"full-information","relevant_dimensions":["pattern","legs"],"bee_group":{"antennae":"X","wings":"X","pattern":"S","legs":"M"},"action":"avoid","summary":"bad-avoid","bonus":0.42000000000000115},{"rt":3140.7999999523163,"stimulus":"\n                    <p><b>Action: <em>avoid</em></b></p>\n                    <p>This is the bee that you just saw.</p>\n                    <img src=\"bees-with-color/bee-A1DM.svg\" width=\"200\">\n                    <p><span class=\"redText\">Bad choice,</span> the bee was friendly.<br>Your bonus pay is unchanged, and remains at $0.44.</p>\n            ","response":0,"trial_type":"html-button-response","trial_index":12,"time_elapsed":270171,"internal_node_id":"0.0-4.0-1.2","subject_id":"614737a4f5b4c0a971902323","study_id":"6197b3f67c2b5cd3b6d9596a","session_id":"619bfc2b6f26346e36b54696","condition":"full-information","relevant_dimensions":["pattern","legs"],"bee_group":{"antennae":"X","wings":"X","pattern":"S","legs":"M"},"bonus":0.42000000000000115},{"rt":2845.7999999523163,"stimulus":"bees-with-color/bee-B1SF.svg","response":0,"trial_type":"image-button-response","trial_index":13,"time_elapsed":273019,"internal_node_id":"0.0-4.0-0.3","subject_id":"614737a4f5b4c0a971902323","study_id":"6197b3f67c2b5cd3b6d9596a","session_id":"619bfc2b6f26346e36b54696","condition":"full-information","relevant_dimensions":["pattern","legs"],"bee_group":{"antennae":"X","wings":"X","pattern":"S","legs":"M"},"action":"harvest","summary":"good-harvest","bonus":0.42000000000000115},{"rt":4887.399999976158,"stimulus":"\n                    <p><b>Action: <em>harvest</em></b></p>\n                    <p>This is the bee that you just saw.</p>\n                    <img src=\"bees-with-color/bee-B1SF.svg\" width=\"200\">\n                    <p><span class=\"greenText\"><b>Successful harvest!</b></span><br>Your pay has increased by $0.02. Your bonus pay is now $0.46.</p>\n            ","response":0,"trial_type":"html-button-response","trial_index":14,"time_elapsed":277907,"internal_node_id":"0.0-4.0-1.3","subject_id":"614737a4f5b4c0a971902323","study_id":"6197b3f67c2b5cd3b6d9596a","session_id":"619bfc2b6f26346e36b54696","condition":"full-information","relevant_dimensions":["pattern","legs"],"bee_group":{"antennae":"X","wings":"X","pattern":"S","legs":"M"},"bonus":0.42000000000000115},{"rt":3968,"stimulus":"bees-with-color/bee-A1DF.svg","response":0,"trial_type":"image-button-response","trial_index":15,"time_elapsed":281877,"internal_node_id":"0.0-4.0-0.4","subject_id":"614737a4f5b4c0a971902323","study_id":"6197b3f67c2b5cd3b6d9596a","session_id":"619bfc2b6f26346e36b54696","condition":"full-information","relevant_dimensions":["pattern","legs"],"bee_group":{"antennae":"X","wings":"X","pattern":"S","legs":"M"},"action":"harvest","summary":"good-harvest","bonus":0.42000000000000115},{"rt":2886.600000023842,"stimulus":"\n                    <p><b>Action: <em>harvest</em></b></p>\n                    <p>This is the bee that you just saw.</p>\n                    <img src=\"bees-with-color/bee-A1DF.svg\" width=\"200\">\n                    <p><span class=\"greenText\"><b>Successful harvest!</b></span><br>Your pay has increased by $0.02. Your bonus pay is now $0.48.</p>\n            ","response":0,"trial_type":"html-button-response","trial_index":16,"time_elapsed":284766,"internal_node_id":"0.0-4.0-1.4","subject_id":"614737a4f5b4c0a971902323","study_id":"6197b3f67c2b5cd3b6d9596a","session_id":"619bfc2b6f26346e36b54696","condition":"full-information","relevant_dimensions":["pattern","legs"],"bee_group":{"antennae":"X","wings":"X","pattern":"S","legs":"M"},"bonus":0.42000000000000115},{"rt":3856.6999999284744,"stimulus":"bees-with-color/bee-A2DF.svg","response":1,"trial_type":"image-button-response","trial_index":17,"time_elapsed":288624,"internal_node_id":"0.0-4.0-0.5","subject_id":"614737a4f5b4c0a971902323","study_id":"6197b3f67c2b5cd3b6d9596a","session_id":"619bfc2b6f26346e36b54696","condition":"full-information","relevant_dimensions":["pattern","legs"],"bee_group":{"antennae":"X","wings":"X","pattern":"S","legs":"M"},"action":"avoid","summary":"bad-avoid","bonus":0.42000000000000115},{"rt":3059.899999976158,"stimulus":"\n                    <p><b>Action: <em>avoid</em></b></p>\n                    <p>This is the bee that you just saw.</p>\n                    <img src=\"bees-with-color/bee-A2DF.svg\" width=\"200\">\n                    <p><span class=\"redText\">Bad choice,</span> the bee was friendly.<br>Your bonus pay is unchanged, and remains at $0.48.</p>\n            ","response":0,"trial_type":"html-button-response","trial_index":18,"time_elapsed":291686,"internal_node_id":"0.0-4.0-1.5","subject_id":"614737a4f5b4c0a971902323","study_id":"6197b3f67c2b5cd3b6d9596a","session_id":"619bfc2b6f26346e36b54696","condition":"full-information","relevant_dimensions":["pattern","legs"],"bee_group":{"antennae":"X","wings":"X","pattern":"S","legs":"M"},"bonus":0.42000000000000115},{"rt":5367,"stimulus":"bees-with-color/bee-A1SF.svg","response":0,"trial_type":"image-button-response","trial_index":19,"time_elapsed":297055,"internal_node_id":"0.0-4.0-0.6","subject_id":"614737a4f5b4c0a971902323","study_id":"6197b3f67c2b5cd3b6d9596a","session_id":"619bfc2b6f26346e36b54696","condition":"full-information","relevant_dimensions":["pattern","legs"],"bee_group":{"antennae":"X","wings":"X","pattern":"S","legs":"M"},"action":"harvest","summary":"good-harvest","bonus":0.42000000000000115},{"rt":1845.8999999761581,"stimulus":"\n                    <p><b>Action: <em>harvest</em></b></p>\n                    <p>This is the bee that you just saw.</p>\n                    <img src=\"bees-with-color/bee-A1SF.svg\" width=\"200\">\n                    <p><span class=\"greenText\"><b>Successful harvest!</b></span><br>Your pay has increased by $0.02. Your bonus pay is now $0.50.</p>\n            ","response":0,"trial_type":"html-button-response","trial_index":20,"time_elapsed":298902,"internal_node_id":"0.0-4.0-1.6","subject_id":"614737a4f5b4c0a971902323","study_id":"6197b3f67c2b5cd3b6d9596a","session_id":"619bfc2b6f26346e36b54696","condition":"full-information","relevant_dimensions":["pattern","legs"],"bee_group":{"antennae":"X","wings":"X","pattern":"S","legs":"M"},"bonus":0.42000000000000115},{"rt":2591.4000000953674,"stimulus":"bees-with-color/bee-B2SM.svg","response":1,"trial_type":"image-button-response","trial_index":21,"time_elapsed":301495,"internal_node_id":"0.0-4.0-0.7","subject_id":"614737a4f5b4c0a971902323","study_id":"6197b3f67c2b5cd3b6d9596a","session_id":"619bfc2b6f26346e36b54696","condition":"full-information","relevant_dimensions":["pattern","legs"],"bee_group":{"antennae":"X","wings":"X","pattern":"S","legs":"M"},"action":"avoid","summary":"good-avoid","bonus":0.42000000000000115},{"rt":3878,"stimulus":"\n                    <p><b>Action: <em>avoid</em></b></p>\n                    <p>This is the bee that you just saw.</p>\n                    <img src=\"bees-with-color/bee-B2SM.svg\" width=\"200\">\n                    <p><span class=\"greenText\">Good choice!</span>  This bee would have stung you.<br>Your bonus pay is unchanged, and remains at $0.50.</p>\n            ","response":0,"trial_type":"html-button-response","trial_index":22,"time_elapsed":305374,"internal_node_id":"0.0-4.0-1.7","subject_id":"614737a4f5b4c0a971902323","study_id":"6197b3f67c2b5cd3b6d9596a","session_id":"619bfc2b6f26346e36b54696","condition":"full-information","relevant_dimensions":["pattern","legs"],"bee_group":{"antennae":"X","wings":"X","pattern":"S","legs":"M"},"bonus":0.42000000000000115},{"rt":3674,"stimulus":"bees-with-color/bee-B2SF.svg","response":0,"trial_type":"image-button-response","trial_index":23,"time_elapsed":309050,"internal_node_id":"0.0-4.0-0.8","subject_id":"614737a4f5b4c0a971902323","study_id":"6197b3f67c2b5cd3b6d9596a","session_id":"619bfc2b6f26346e36b54696","condition":"full-information","relevant_dimensions":["pattern","legs"],"bee_group":{"antennae":"X","wings":"X","pattern":"S","legs":"M"},"action":"harvest","summary":"good-harvest","bonus":0.42000000000000115},{"rt":1640.3999999761581,"stimulus":"\n                    <p><b>Action: <em>harvest</em></b></p>\n                    <p>This is the bee that you just saw.</p>\n                    <img src=\"bees-with-color/bee-B2SF.svg\" width=\"200\">\n                    <p><span class=\"greenText\"><b>Successful harvest!</b></span><br>Your pay has increased by $0.02. Your bonus pay is now $0.52.</p>\n            ","response":0,"trial_type":"html-button-response","trial_index":24,"time_elapsed":310692,"internal_node_id":"0.0-4.0-1.8","subject_id":"614737a4f5b4c0a971902323","study_id":"6197b3f67c2b5cd3b6d9596a","session_id":"619bfc2b6f26346e36b54696","condition":"full-information","relevant_dimensions":["pattern","legs"],"bee_group":{"antennae":"X","wings":"X","pattern":"S","legs":"M"},"bonus":0.42000000000000115},{"rt":2111.5,"stimulus":"bees-with-color/bee-A2SF.svg","response":0,"trial_type":"image-button-response","trial_index":25,"time_elapsed":312805,"internal_node_id":"0.0-4.0-0.9","subject_id":"614737a4f5b4c0a971902323","study_id":"6197b3f67c2b5cd3b6d9596a","session_id":"619bfc2b6f26346e36b54696","condition":"full-information","relevant_dimensions":["pattern","legs"],"bee_group":{"antennae":"X","wings":"X","pattern":"S","legs":"M"},"action":"harvest","summary":"good-harvest","bonus":0.42000000000000115},{"rt":1520.1000000238419,"stimulus":"\n                    <p><b>Action: <em>harvest</em></b></p>\n                    <p>This is the bee that you just saw.</p>\n                    <img src=\"bees-with-color/bee-A2SF.svg\" width=\"200\">\n                    <p><span class=\"greenText\"><b>Successful harvest!</b></span><br>Your pay has increased by $0.02. Your bonus pay is now $0.54.</p>\n            ","response":0,"trial_type":"html-button-response","trial_index":26,"time_elapsed":314326,"internal_node_id":"0.0-4.0-1.9","subject_id":"614737a4f5b4c0a971902323","study_id":"6197b3f67c2b5cd3b6d9596a","session_id":"619bfc2b6f26346e36b54696","condition":"full-information","relevant_dimensions":["pattern","legs"],"bee_group":{"antennae":"X","wings":"X","pattern":"S","legs":"M"},"bonus":0.42000000000000115},{"rt":1815.7999999523163,"stimulus":"bees-with-color/bee-B1DM.svg","response":1,"trial_type":"image-button-response","trial_index":27,"time_elapsed":316143,"internal_node_id":"0.0-4.0-0.10","subject_id":"614737a4f5b4c0a971902323","study_id":"6197b3f67c2b5cd3b6d9596a","session_id":"619bfc2b6f26346e36b54696","condition":"full-information","relevant_dimensions":["pattern","legs"],"bee_group":{"antennae":"X","wings":"X","pattern":"S","legs":"M"},"action":"avoid","summary":"bad-avoid","bonus":0.42000000000000115},{"rt":1693.8999999761581,"stimulus":"\n                    <p><b>Action: <em>avoid</em></b></p>\n                    <p>This is the bee that you just saw.</p>\n                    <img src=\"bees-with-color/bee-B1DM.svg\" width=\"200\">\n                    <p><span class=\"redText\">Bad choice,</span> the bee was friendly.<br>Your bonus pay is unchanged, and remains at $0.54.</p>\n            ","response":0,"trial_type":"html-button-response","trial_index":28,"time_elapsed":317839,"internal_node_id":"0.0-4.0-1.10","subject_id":"614737a4f5b4c0a971902323","study_id":"6197b3f67c2b5cd3b6d9596a","session_id":"619bfc2b6f26346e36b54696","condition":"full-information","relevant_dimensions":["pattern","legs"],"bee_group":{"antennae":"X","wings":"X","pattern":"S","legs":"M"},"bonus":0.42000000000000115},{"rt":2050.600000023842,"stimulus":"bees-with-color/bee-A2DM.svg","response":1,"trial_type":"image-button-response","trial_index":29,"time_elapsed":319891,"internal_node_id":"0.0-4.0-0.11","subject_id":"614737a4f5b4c0a971902323","study_id":"6197b3f67c2b5cd3b6d9596a","session_id":"619bfc2b6f26346e36b54696","condition":"full-information","relevant_dimensions":["pattern","legs"],"bee_group":{"antennae":"X","wings":"X","pattern":"S","legs":"M"},"action":"avoid","summary":"bad-avoid","bonus":0.42000000000000115},{"rt":1457.8000000715256,"stimulus":"\n                    <p><b>Action: <em>avoid</em></b></p>\n                    <p>This is the bee that you just saw.</p>\n                    <img src=\"bees-with-color/bee-A2DM.svg\" width=\"200\">\n                    <p><span class=\"redText\">Bad choice,</span> the bee was friendly.<br>Your bonus pay is unchanged, and remains at $0.54.</p>\n            ","response":0,"trial_type":"html-button-response","trial_index":30,"time_elapsed":321350,"internal_node_id":"0.0-4.0-1.11","subject_id":"614737a4f5b4c0a971902323","study_id":"6197b3f67c2b5cd3b6d9596a","session_id":"619bfc2b6f26346e36b54696","condition":"full-information","relevant_dimensions":["pattern","legs"],"bee_group":{"antennae":"X","wings":"X","pattern":"S","legs":"M"},"bonus":0.42000000000000115},{"rt":5480.600000023842,"stimulus":"bees-with-color/bee-A2SM.svg","response":1,"trial_type":"image-button-response","trial_index":31,"time_elapsed":326832,"internal_node_id":"0.0-4.0-0.12","subject_id":"614737a4f5b4c0a971902323","study_id":"6197b3f67c2b5cd3b6d9596a","session_id":"619bfc2b6f26346e36b54696","condition":"full-information","relevant_dimensions":["pattern","legs"],"bee_group":{"antennae":"X","wings":"X","pattern":"S","legs":"M"},"action":"avoid","summary":"good-avoid","bonus":0.42000000000000115},{"rt":2040.2999999523163,"stimulus":"\n                    <p><b>Action: <em>avoid</em></b></p>\n                    <p>This is the bee that you just saw.</p>\n                    <img src=\"bees-with-color/bee-A2SM.svg\" width=\"200\">\n                    <p><span class=\"greenText\">Good choice!</span>  This bee would have stung you.<br>Your bonus pay is unchanged, and remains at $0.54.</p>\n            ","response":0,"trial_type":"html-button-response","trial_index":32,"time_elapsed":328874,"internal_node_id":"0.0-4.0-1.12","subject_id":"614737a4f5b4c0a971902323","study_id":"6197b3f67c2b5cd3b6d9596a","session_id":"619bfc2b6f26346e36b54696","condition":"full-information","relevant_dimensions":["pattern","legs"],"bee_group":{"antennae":"X","wings":"X","pattern":"S","legs":"M"},"bonus":0.42000000000000115},{"rt":2009.2000000476837,"stimulus":"bees-with-color/bee-A1SM.svg","response":0,"trial_type":"image-button-response","trial_index":33,"time_elapsed":330885,"internal_node_id":"0.0-4.0-0.13","subject_id":"614737a4f5b4c0a971902323","study_id":"6197b3f67c2b5cd3b6d9596a","session_id":"619bfc2b6f26346e36b54696","condition":"full-information","relevant_dimensions":["pattern","legs"],"bee_group":{"antennae":"X","wings":"X","pattern":"S","legs":"M"},"action":"harvest","summary":"bad-harvest","bonus":0.42000000000000115},{"rt":2662.9000000953674,"stimulus":"\n                    <p><b>Action: <em>harvest</em></b></p>\n                    <p>This is the bee that you just saw.</p>\n                    <img src=\"bees-with-color/bee-A1SM.svg\" width=\"200\">\n                    <p><span class=\"redText\">Bad choice, the bee was angry.</span><br><b>You have been stung!</b><br>Your pay has been decreased by $0.10. Your bonus pay is now $0.44.</p>\n            ","response":0,"trial_type":"html-button-response","trial_index":34,"time_elapsed":333549,"internal_node_id":"0.0-4.0-1.13","subject_id":"614737a4f5b4c0a971902323","study_id":"6197b3f67c2b5cd3b6d9596a","session_id":"619bfc2b6f26346e36b54696","condition":"full-information","relevant_dimensions":["pattern","legs"],"bee_group":{"antennae":"X","wings":"X","pattern":"S","legs":"M"},"bonus":0.42000000000000115},{"rt":2662.6999999284744,"stimulus":"bees-with-color/bee-B1DF.svg","response":0,"trial_type":"image-button-response","trial_index":35,"time_elapsed":336213,"internal_node_id":"0.0-4.0-0.14","subject_id":"614737a4f5b4c0a971902323","study_id":"6197b3f67c2b5cd3b6d9596a","session_id":"619bfc2b6f26346e36b54696","condition":"full-information","relevant_dimensions":["pattern","legs"],"bee_group":{"antennae":"X","wings":"X","pattern":"S","legs":"M"},"action":"harvest","summary":"good-harvest","bonus":0.42000000000000115},{"rt":1611,"stimulus":"\n                    <p><b>Action: <em>harvest</em></b></p>\n                    <p>This is the bee that you just saw.</p>\n                    <img src=\"bees-with-color/bee-B1DF.svg\" width=\"200\">\n                    <p><span class=\"greenText\"><b>Successful harvest!</b></span><br>Your pay has increased by $0.02. Your bonus pay is now $0.46.</p>\n            ","response":0,"trial_type":"html-button-response","trial_index":36,"time_elapsed":337826,"internal_node_id":"0.0-4.0-1.14","subject_id":"614737a4f5b4c0a971902323","study_id":"6197b3f67c2b5cd3b6d9596a","session_id":"619bfc2b6f26346e36b54696","condition":"full-information","relevant_dimensions":["pattern","legs"],"bee_group":{"antennae":"X","wings":"X","pattern":"S","legs":"M"},"bonus":0.42000000000000115},{"rt":4408.699999928474,"stimulus":"bees-with-color/bee-B2DM.svg","response":0,"trial_type":"image-button-response","trial_index":37,"time_elapsed":342236,"internal_node_id":"0.0-4.0-0.15","subject_id":"614737a4f5b4c0a971902323","study_id":"6197b3f67c2b5cd3b6d9596a","session_id":"619bfc2b6f26346e36b54696","condition":"full-information","relevant_dimensions":["pattern","legs"],"bee_group":{"antennae":"X","wings":"X","pattern":"S","legs":"M"},"action":"harvest","summary":"good-harvest","bonus":0.42000000000000115},{"rt":2968.5,"stimulus":"\n                    <p><b>Action: <em>harvest</em></b></p>\n                    <p>This is the bee that you just saw.</p>\n                    <img src=\"bees-with-color/bee-B2DM.svg\" width=\"200\">\n                    <p><span class=\"greenText\"><b>Successful harvest!</b></span><br>Your pay has increased by $0.02. Your bonus pay is now $0.48.</p>\n            ","response":0,"trial_type":"html-button-response","trial_index":38,"time_elapsed":345207,"internal_node_id":"0.0-4.0-1.15","subject_id":"614737a4f5b4c0a971902323","study_id":"6197b3f67c2b5cd3b6d9596a","session_id":"619bfc2b6f26346e36b54696","condition":"full-information","relevant_dimensions":["pattern","legs"],"bee_group":{"antennae":"X","wings":"X","pattern":"S","legs":"M"},"bonus":0.42000000000000115},{"rt":3858.0999999046326,"stimulus":"bees-with-color/bee-B2SF.svg","response":0,"trial_type":"image-button-response","trial_index":39,"time_elapsed":349067,"internal_node_id":"0.0-4.0-0.16","subject_id":"614737a4f5b4c0a971902323","study_id":"6197b3f67c2b5cd3b6d9596a","session_id":"619bfc2b6f26346e36b54696","condition":"full-information","relevant_dimensions":["pattern","legs"],"bee_group":{"antennae":"X","wings":"X","pattern":"S","legs":"M"},"action":"harvest","summary":"good-harvest","bonus":0.42000000000000115},{"rt":1537.6999999284744,"stimulus":"\n                    <p><b>Action: <em>harvest</em></b></p>\n                    <p>This is the bee that you just saw.</p>\n                    <img src=\"bees-with-color/bee-B2SF.svg\" width=\"200\">\n                    <p><span class=\"greenText\"><b>Successful harvest!</b></span><br>Your pay has increased by $0.02. Your bonus pay is now $0.50.</p>\n            ","response":0,"trial_type":"html-button-response","trial_index":40,"time_elapsed":350606,"internal_node_id":"0.0-4.0-1.16","subject_id":"614737a4f5b4c0a971902323","study_id":"6197b3f67c2b5cd3b6d9596a","session_id":"619bfc2b6f26346e36b54696","condition":"full-information","relevant_dimensions":["pattern","legs"],"bee_group":{"antennae":"X","wings":"X","pattern":"S","legs":"M"},"bonus":0.42000000000000115},{"rt":2070.2000000476837,"stimulus":"bees-with-color/bee-A2SF.svg","response":0,"trial_type":"image-button-response","trial_index":41,"time_elapsed":352678,"internal_node_id":"0.0-4.0-0.17","subject_id":"614737a4f5b4c0a971902323","study_id":"6197b3f67c2b5cd3b6d9596a","session_id":"619bfc2b6f26346e36b54696","condition":"full-information","relevant_dimensions":["pattern","legs"],"bee_group":{"antennae":"X","wings":"X","pattern":"S","legs":"M"},"action":"harvest","summary":"good-harvest","bonus":0.42000000000000115},{"rt":1479,"stimulus":"\n                    <p><b>Action: <em>harvest</em></b></p>\n                    <p>This is the bee that you just saw.</p>\n                    <img src=\"bees-with-color/bee-A2SF.svg\" width=\"200\">\n                    <p><span class=\"greenText\"><b>Successful harvest!</b></span><br>Your pay has increased by $0.02. Your bonus pay is now $0.52.</p>\n            ","response":0,"trial_type":"html-button-response","trial_index":42,"time_elapsed":354159,"internal_node_id":"0.0-4.0-1.17","subject_id":"614737a4f5b4c0a971902323","study_id":"6197b3f67c2b5cd3b6d9596a","session_id":"619bfc2b6f26346e36b54696","condition":"full-information","relevant_dimensions":["pattern","legs"],"bee_group":{"antennae":"X","wings":"X","pattern":"S","legs":"M"},"bonus":0.42000000000000115},{"rt":3764,"stimulus":"bees-with-color/bee-A2DM.svg","response":1,"trial_type":"image-button-response","trial_index":43,"time_elapsed":357925,"internal_node_id":"0.0-4.0-0.18","subject_id":"614737a4f5b4c0a971902323","study_id":"6197b3f67c2b5cd3b6d9596a","session_id":"619bfc2b6f26346e36b54696","condition":"full-information","relevant_dimensions":["pattern","legs"],"bee_group":{"antennae":"X","wings":"X","pattern":"S","legs":"M"},"action":"avoid","summary":"bad-avoid","bonus":0.42000000000000115},{"rt":1692.5,"stimulus":"\n                    <p><b>Action: <em>avoid</em></b></p>\n                    <p>This is the bee that you just saw.</p>\n                    <img src=\"bees-with-color/bee-A2DM.svg\" width=\"200\">\n                    <p><span class=\"redText\">Bad choice,</span> the bee was friendly.<br>Your bonus pay is unchanged, and remains at $0.52.</p>\n            ","response":0,"trial_type":"html-button-response","trial_index":44,"time_elapsed":359619,"internal_node_id":"0.0-4.0-1.18","subject_id":"614737a4f5b4c0a971902323","study_id":"6197b3f67c2b5cd3b6d9596a","session_id":"619bfc2b6f26346e36b54696","condition":"full-information","relevant_dimensions":["pattern","legs"],"bee_group":{"antennae":"X","wings":"X","pattern":"S","legs":"M"},"bonus":0.42000000000000115},{"rt":2233.6999999284744,"stimulus":"bees-with-color/bee-A1DF.svg","response":0,"trial_type":"image-button-response","trial_index":45,"time_elapsed":361854,"internal_node_id":"0.0-4.0-0.19","subject_id":"614737a4f5b4c0a971902323","study_id":"6197b3f67c2b5cd3b6d9596a","session_id":"619bfc2b6f26346e36b54696","condition":"full-information","relevant_dimensions":["pattern","legs"],"bee_group":{"antennae":"X","wings":"X","pattern":"S","legs":"M"},"action":"harvest","summary":"good-harvest","bonus":0.42000000000000115},{"rt":1335.9000000953674,"stimulus":"\n                    <p><b>Action: <em>harvest</em></b></p>\n                    <p>This is the bee that you just saw.</p>\n                    <img src=\"bees-with-color/bee-A1DF.svg\" width=\"200\">\n                    <p><span class=\"greenText\"><b>Successful harvest!</b></span><br>Your pay has increased by $0.02. Your bonus pay is now $0.54.</p>\n            ","response":0,"trial_type":"html-button-response","trial_index":46,"time_elapsed":363192,"internal_node_id":"0.0-4.0-1.19","subject_id":"614737a4f5b4c0a971902323","study_id":"6197b3f67c2b5cd3b6d9596a","session_id":"619bfc2b6f26346e36b54696","condition":"full-information","relevant_dimensions":["pattern","legs"],"bee_group":{"antennae":"X","wings":"X","pattern":"S","legs":"M"},"bonus":0.42000000000000115},{"rt":1937.6999999284744,"stimulus":"bees-with-color/bee-A1SM.svg","response":0,"trial_type":"image-button-response","trial_index":47,"time_elapsed":365131,"internal_node_id":"0.0-4.0-0.20","subject_id":"614737a4f5b4c0a971902323","study_id":"6197b3f67c2b5cd3b6d9596a","session_id":"619bfc2b6f26346e36b54696","condition":"full-information","relevant_dimensions":["pattern","legs"],"bee_group":{"antennae":"X","wings":"X","pattern":"S","legs":"M"},"action":"harvest","summary":"bad-harvest","bonus":0.42000000000000115},{"rt":1529.5999999046326,"stimulus":"\n                    <p><b>Action: <em>harvest</em></b></p>\n                    <p>This is the bee that you just saw.</p>\n                    <img src=\"bees-with-color/bee-A1SM.svg\" width=\"200\">\n                    <p><span class=\"redText\">Bad choice, the bee was angry.</span><br><b>You have been stung!</b><br>Your pay has been decreased by $0.10. Your bonus pay is now $0.44.</p>\n            ","response":0,"trial_type":"html-button-response","trial_index":48,"time_elapsed":366662,"internal_node_id":"0.0-4.0-1.20","subject_id":"614737a4f5b4c0a971902323","study_id":"6197b3f67c2b5cd3b6d9596a","session_id":"619bfc2b6f26346e36b54696","condition":"full-information","relevant_dimensions":["pattern","legs"],"bee_group":{"antennae":"X","wings":"X","pattern":"S","legs":"M"},"bonus":0.42000000000000115},{"rt":1641.7000000476837,"stimulus":"bees-with-color/bee-B1DF.svg","response":0,"trial_type":"image-button-response","trial_index":49,"time_elapsed":368306,"internal_node_id":"0.0-4.0-0.21","subject_id":"614737a4f5b4c0a971902323","study_id":"6197b3f67c2b5cd3b6d9596a","session_id":"619bfc2b6f26346e36b54696","condition":"full-information","relevant_dimensions":["pattern","legs"],"bee_group":{"antennae":"X","wings":"X","pattern":"S","legs":"M"},"action":"harvest","summary":"good-harvest","bonus":0.42000000000000115},{"rt":1927.3000000715256,"stimulus":"\n                    <p><b>Action: <em>harvest</em></b></p>\n                    <p>This is the bee that you just saw.</p>\n                    <img src=\"bees-with-color/bee-B1DF.svg\" width=\"200\">\n                    <p><span class=\"greenText\"><b>Successful harvest!</b></span><br>Your pay has increased by $0.02. Your bonus pay is now $0.46.</p>\n            ","response":0,"trial_type":"html-button-response","trial_index":50,"time_elapsed":370235,"internal_node_id":"0.0-4.0-1.21","subject_id":"614737a4f5b4c0a971902323","study_id":"6197b3f67c2b5cd3b6d9596a","session_id":"619bfc2b6f26346e36b54696","condition":"full-information","relevant_dimensions":["pattern","legs"],"bee_group":{"antennae":"X","wings":"X","pattern":"S","legs":"M"},"bonus":0.42000000000000115},{"rt":1835.7000000476837,"stimulus":"bees-with-color/bee-A1DM.svg","response":0,"trial_type":"image-button-response","trial_index":51,"time_elapsed":372072,"internal_node_id":"0.0-4.0-0.22","subject_id":"614737a4f5b4c0a971902323","study_id":"6197b3f67c2b5cd3b6d9596a","session_id":"619bfc2b6f26346e36b54696","condition":"full-information","relevant_dimensions":["pattern","legs"],"bee_group":{"antennae":"X","wings":"X","pattern":"S","legs":"M"},"action":"harvest","summary":"good-harvest","bonus":0.42000000000000115},{"rt":1467.8000000715256,"stimulus":"\n                    <p><b>Action: <em>harvest</em></b></p>\n                    <p>This is the bee that you just saw.</p>\n                    <img src=\"bees-with-color/bee-A1DM.svg\" width=\"200\">\n                    <p><span class=\"greenText\"><b>Successful harvest!</b></span><br>Your pay has increased by $0.02. Your bonus pay is now $0.48.</p>\n            ","response":0,"trial_type":"html-button-response","trial_index":52,"time_elapsed":373542,"internal_node_id":"0.0-4.0-1.22","subject_id":"614737a4f5b4c0a971902323","study_id":"6197b3f67c2b5cd3b6d9596a","session_id":"619bfc2b6f26346e36b54696","condition":"full-information","relevant_dimensions":["pattern","legs"],"bee_group":{"antennae":"X","wings":"X","pattern":"S","legs":"M"},"bonus":0.42000000000000115},{"rt":1427.5999999046326,"stimulus":"bees-with-color/bee-B1SM.svg","response":0,"trial_type":"image-button-response","trial_index":53,"time_elapsed":374971,"internal_node_id":"0.0-4.0-0.23","subject_id":"614737a4f5b4c0a971902323","study_id":"6197b3f67c2b5cd3b6d9596a","session_id":"619bfc2b6f26346e36b54696","condition":"full-information","relevant_dimensions":["pattern","legs"],"bee_group":{"antennae":"X","wings":"X","pattern":"S","legs":"M"},"action":"harvest","summary":"bad-harvest","bonus":0.42000000000000115},{"rt":1641.1000000238419,"stimulus":"\n                    <p><b>Action: <em>harvest</em></b></p>\n                    <p>This is the bee that you just saw.</p>\n                    <img src=\"bees-with-color/bee-B1SM.svg\" width=\"200\">\n                    <p><span class=\"redText\">Bad choice, the bee was angry.</span><br><b>You have been stung!</b><br>Your pay has been decreased by $0.10. Your bonus pay is now $0.38.</p>\n            ","response":0,"trial_type":"html-button-response","trial_index":54,"time_elapsed":376614,"internal_node_id":"0.0-4.0-1.23","subject_id":"614737a4f5b4c0a971902323","study_id":"6197b3f67c2b5cd3b6d9596a","session_id":"619bfc2b6f26346e36b54696","condition":"full-information","relevant_dimensions":["pattern","legs"],"bee_group":{"antennae":"X","wings":"X","pattern":"S","legs":"M"},"bonus":0.42000000000000115},{"rt":2570.600000023842,"stimulus":"bees-with-color/bee-B2DF.svg","response":0,"trial_type":"image-button-response","trial_index":55,"time_elapsed":379186,"internal_node_id":"0.0-4.0-0.24","subject_id":"614737a4f5b4c0a971902323","study_id":"6197b3f67c2b5cd3b6d9596a","session_id":"619bfc2b6f26346e36b54696","condition":"full-information","relevant_dimensions":["pattern","legs"],"bee_group":{"antennae":"X","wings":"X","pattern":"S","legs":"M"},"action":"harvest","summary":"good-harvest","bonus":0.42000000000000115},{"rt":1723.2000000476837,"stimulus":"\n                    <p><b>Action: <em>harvest</em></b></p>\n                    <p>This is the bee that you just saw.</p>\n                    <img src=\"bees-with-color/bee-B2DF.svg\" width=\"200\">\n                    <p><span class=\"greenText\"><b>Successful harvest!</b></span><br>Your pay has increased by $0.02. Your bonus pay is now $0.40.</p>\n            ","response":0,"trial_type":"html-button-response","trial_index":56,"time_elapsed":380911,"internal_node_id":"0.0-4.0-1.24","subject_id":"614737a4f5b4c0a971902323","study_id":"6197b3f67c2b5cd3b6d9596a","session_id":"619bfc2b6f26346e36b54696","condition":"full-information","relevant_dimensions":["pattern","legs"],"bee_group":{"antennae":"X","wings":"X","pattern":"S","legs":"M"},"bonus":0.42000000000000115},{"rt":5173.100000023842,"stimulus":"bees-with-color/bee-B1DM.svg","response":0,"trial_type":"image-button-response","trial_index":57,"time_elapsed":386086,"internal_node_id":"0.0-4.0-0.25","subject_id":"614737a4f5b4c0a971902323","study_id":"6197b3f67c2b5cd3b6d9596a","session_id":"619bfc2b6f26346e36b54696","condition":"full-information","relevant_dimensions":["pattern","legs"],"bee_group":{"antennae":"X","wings":"X","pattern":"S","legs":"M"},"action":"harvest","summary":"good-harvest","bonus":0.42000000000000115},{"rt":1579.8999999761581,"stimulus":"\n                    <p><b>Action: <em>harvest</em></b></p>\n                    <p>This is the bee that you just saw.</p>\n                    <img src=\"bees-with-color/bee-B1DM.svg\" width=\"200\">\n                    <p><span class=\"greenText\"><b>Successful harvest!</b></span><br>Your pay has increased by $0.02. Your bonus pay is now $0.42.</p>\n            ","response":0,"trial_type":"html-button-response","trial_index":58,"time_elapsed":387667,"internal_node_id":"0.0-4.0-1.25","subject_id":"614737a4f5b4c0a971902323","study_id":"6197b3f67c2b5cd3b6d9596a","session_id":"619bfc2b6f26346e36b54696","condition":"full-information","relevant_dimensions":["pattern","legs"],"bee_group":{"antennae":"X","wings":"X","pattern":"S","legs":"M"},"bonus":0.42000000000000115},{"rt":1712.8999999761581,"stimulus":"bees-with-color/bee-B2DM.svg","response":0,"trial_type":"image-button-response","trial_index":59,"time_elapsed":389382,"internal_node_id":"0.0-4.0-0.26","subject_id":"614737a4f5b4c0a971902323","study_id":"6197b3f67c2b5cd3b6d9596a","session_id":"619bfc2b6f26346e36b54696","condition":"full-information","relevant_dimensions":["pattern","legs"],"bee_group":{"antennae":"X","wings":"X","pattern":"S","legs":"M"},"action":"harvest","summary":"good-harvest","bonus":0.42000000000000115},{"rt":1315.3000000715256,"stimulus":"\n                    <p><b>Action: <em>harvest</em></b></p>\n                    <p>This is the bee that you just saw.</p>\n                    <img src=\"bees-with-color/bee-B2DM.svg\" width=\"200\">\n                    <p><span class=\"greenText\"><b>Successful harvest!</b></span><br>Your pay has increased by $0.02. Your bonus pay is now $0.44.</p>\n            ","response":0,"trial_type":"html-button-response","trial_index":60,"time_elapsed":390699,"internal_node_id":"0.0-4.0-1.26","subject_id":"614737a4f5b4c0a971902323","study_id":"6197b3f67c2b5cd3b6d9596a","session_id":"619bfc2b6f26346e36b54696","condition":"full-information","relevant_dimensions":["pattern","legs"],"bee_group":{"antennae":"X","wings":"X","pattern":"S","legs":"M"},"bonus":0.42000000000000115},{"rt":2060.5999999046326,"stimulus":"bees-with-color/bee-A2DF.svg","response":1,"trial_type":"image-button-response","trial_index":61,"time_elapsed":392760,"internal_node_id":"0.0-4.0-0.27","subject_id":"614737a4f5b4c0a971902323","study_id":"6197b3f67c2b5cd3b6d9596a","session_id":"619bfc2b6f26346e36b54696","condition":"full-information","relevant_dimensions":["pattern","legs"],"bee_group":{"antennae":"X","wings":"X","pattern":"S","legs":"M"},"action":"avoid","summary":"bad-avoid","bonus":0.42000000000000115},{"rt":5439.399999976158,"stimulus":"\n                    <p><b>Action: <em>avoid</em></b></p>\n                    <p>This is the bee that you just saw.</p>\n                    <img src=\"bees-with-color/bee-A2DF.svg\" width=\"200\">\n                    <p><span class=\"redText\">Bad choice,</span> the bee was friendly.<br>Your bonus pay is unchanged, and remains at $0.44.</p>\n            ","response":0,"trial_type":"html-button-response","trial_index":62,"time_elapsed":398201,"internal_node_id":"0.0-4.0-1.27","subject_id":"614737a4f5b4c0a971902323","study_id":"6197b3f67c2b5cd3b6d9596a","session_id":"619bfc2b6f26346e36b54696","condition":"full-information","relevant_dimensions":["pattern","legs"],"bee_group":{"antennae":"X","wings":"X","pattern":"S","legs":"M"},"bonus":0.42000000000000115},{"rt":6358.5,"stimulus":"bees-with-color/bee-B1SF.svg","response":0,"trial_type":"image-button-response","trial_index":63,"time_elapsed":404561,"internal_node_id":"0.0-4.0-0.28","subject_id":"614737a4f5b4c0a971902323","study_id":"6197b3f67c2b5cd3b6d9596a","session_id":"619bfc2b6f26346e36b54696","condition":"full-information","relevant_dimensions":["pattern","legs"],"bee_group":{"antennae":"X","wings":"X","pattern":"S","legs":"M"},"action":"harvest","summary":"good-harvest","bonus":0.42000000000000115},{"rt":1845.6000000238419,"stimulus":"\n                    <p><b>Action: <em>harvest</em></b></p>\n                    <p>This is the bee that you just saw.</p>\n                    <img src=\"bees-with-color/bee-B1SF.svg\" width=\"200\">\n                    <p><span class=\"greenText\"><b>Successful harvest!</b></span><br>Your pay has increased by $0.02. Your bonus pay is now $0.46.</p>\n            ","response":0,"trial_type":"html-button-response","trial_index":64,"time_elapsed":406408,"internal_node_id":"0.0-4.0-1.28","subject_id":"614737a4f5b4c0a971902323","study_id":"6197b3f67c2b5cd3b6d9596a","session_id":"619bfc2b6f26346e36b54696","condition":"full-information","relevant_dimensions":["pattern","legs"],"bee_group":{"antennae":"X","wings":"X","pattern":"S","legs":"M"},"bonus":0.42000000000000115},{"rt":3387.600000023842,"stimulus":"bees-with-color/bee-B2SM.svg","response":1,"trial_type":"image-button-response","trial_index":65,"time_elapsed":409797,"internal_node_id":"0.0-4.0-0.29","subject_id":"614737a4f5b4c0a971902323","study_id":"6197b3f67c2b5cd3b6d9596a","session_id":"619bfc2b6f26346e36b54696","condition":"full-information","relevant_dimensions":["pattern","legs"],"bee_group":{"antennae":"X","wings":"X","pattern":"S","legs":"M"},"action":"avoid","summary":"good-avoid","bonus":0.42000000000000115},{"rt":2499.2000000476837,"stimulus":"\n                    <p><b>Action: <em>avoid</em></b></p>\n                    <p>This is the bee that you just saw.</p>\n                    <img src=\"bees-with-color/bee-B2SM.svg\" width=\"200\">\n                    <p><span class=\"greenText\">Good choice!</span>  This bee would have stung you.<br>Your bonus pay is unchanged, and remains at $0.46.</p>\n            ","response":0,"trial_type":"html-button-response","trial_index":66,"time_elapsed":412297,"internal_node_id":"0.0-4.0-1.29","subject_id":"614737a4f5b4c0a971902323","study_id":"6197b3f67c2b5cd3b6d9596a","session_id":"619bfc2b6f26346e36b54696","condition":"full-information","relevant_dimensions":["pattern","legs"],"bee_group":{"antennae":"X","wings":"X","pattern":"S","legs":"M"},"bonus":0.42000000000000115},{"rt":3888,"stimulus":"bees-with-color/bee-A1SF.svg","response":0,"trial_type":"image-button-response","trial_index":67,"time_elapsed":416187,"internal_node_id":"0.0-4.0-0.30","subject_id":"614737a4f5b4c0a971902323","study_id":"6197b3f67c2b5cd3b6d9596a","session_id":"619bfc2b6f26346e36b54696","condition":"full-information","relevant_dimensions":["pattern","legs"],"bee_group":{"antennae":"X","wings":"X","pattern":"S","legs":"M"},"action":"harvest","summary":"good-harvest","bonus":0.42000000000000115},{"rt":1477.9000000953674,"stimulus":"\n                    <p><b>Action: <em>harvest</em></b></p>\n                    <p>This is the bee that you just saw.</p>\n                    <img src=\"bees-with-color/bee-A1SF.svg\" width=\"200\">\n                    <p><span class=\"greenText\"><b>Successful harvest!</b></span><br>Your pay has increased by $0.02. Your bonus pay is now $0.48.</p>\n            ","response":0,"trial_type":"html-button-response","trial_index":68,"time_elapsed":417666,"internal_node_id":"0.0-4.0-1.30","subject_id":"614737a4f5b4c0a971902323","study_id":"6197b3f67c2b5cd3b6d9596a","session_id":"619bfc2b6f26346e36b54696","condition":"full-information","relevant_dimensions":["pattern","legs"],"bee_group":{"antennae":"X","wings":"X","pattern":"S","legs":"M"},"bonus":0.42000000000000115},{"rt":2744.600000023842,"stimulus":"bees-with-color/bee-A2SM.svg","response":0,"trial_type":"image-button-response","trial_index":69,"time_elapsed":420412,"internal_node_id":"0.0-4.0-0.31","subject_id":"614737a4f5b4c0a971902323","study_id":"6197b3f67c2b5cd3b6d9596a","session_id":"619bfc2b6f26346e36b54696","condition":"full-information","relevant_dimensions":["pattern","legs"],"bee_group":{"antennae":"X","wings":"X","pattern":"S","legs":"M"},"action":"harvest","summary":"bad-harvest","bonus":0.42000000000000115},{"rt":1397.1000000238419,"stimulus":"\n                    <p><b>Action: <em>harvest</em></b></p>\n                    <p>This is the bee that you just saw.</p>\n                    <img src=\"bees-with-color/bee-A2SM.svg\" width=\"200\">\n                    <p><span class=\"redText\">Bad choice, the bee was angry.</span><br><b>You have been stung!</b><br>Your pay has been decreased by $0.10. Your bonus pay is now $0.38.</p>\n            ","response":0,"trial_type":"html-button-response","trial_index":70,"time_elapsed":421810,"internal_node_id":"0.0-4.0-1.31","subject_id":"614737a4f5b4c0a971902323","study_id":"6197b3f67c2b5cd3b6d9596a","session_id":"619bfc2b6f26346e36b54696","condition":"full-information","relevant_dimensions":["pattern","legs"],"bee_group":{"antennae":"X","wings":"X","pattern":"S","legs":"M"},"bonus":0.42000000000000115},{"rt":4203.600000023842,"stimulus":"bees-with-color/bee-A1SM.svg","response":0,"trial_type":"image-button-response","trial_index":71,"time_elapsed":426015,"internal_node_id":"0.0-4.0-0.32","subject_id":"614737a4f5b4c0a971902323","study_id":"6197b3f67c2b5cd3b6d9596a","session_id":"619bfc2b6f26346e36b54696","condition":"full-information","relevant_dimensions":["pattern","legs"],"bee_group":{"antennae":"X","wings":"X","pattern":"S","legs":"M"},"action":"harvest","summary":"bad-harvest","bonus":0.42000000000000115},{"rt":1570.5999999046326,"stimulus":"\n                    <p><b>Action: <em>harvest</em></b></p>\n                    <p>This is the bee that you just saw.</p>\n                    <img src=\"bees-with-color/bee-A1SM.svg\" width=\"200\">\n                    <p><span class=\"redText\">Bad choice, the bee was angry.</span><br><b>You have been stung!</b><br>Your pay has been decreased by $0.10. Your bonus pay is now $0.28.</p>\n            ","response":0,"trial_type":"html-button-response","trial_index":72,"time_elapsed":427587,"internal_node_id":"0.0-4.0-1.32","subject_id":"614737a4f5b4c0a971902323","study_id":"6197b3f67c2b5cd3b6d9596a","session_id":"619bfc2b6f26346e36b54696","condition":"full-information","relevant_dimensions":["pattern","legs"],"bee_group":{"antennae":"X","wings":"X","pattern":"S","legs":"M"},"bonus":0.42000000000000115},{"rt":2581.100000023842,"stimulus":"bees-with-color/bee-A2SM.svg","response":1,"trial_type":"image-button-response","trial_index":73,"time_elapsed":430169,"internal_node_id":"0.0-4.0-0.33","subject_id":"614737a4f5b4c0a971902323","study_id":"6197b3f67c2b5cd3b6d9596a","session_id":"619bfc2b6f26346e36b54696","condition":"full-information","relevant_dimensions":["pattern","legs"],"bee_group":{"antennae":"X","wings":"X","pattern":"S","legs":"M"},"action":"avoid","summary":"good-avoid","bonus":0.42000000000000115},{"rt":1498.5999999046326,"stimulus":"\n                    <p><b>Action: <em>avoid</em></b></p>\n                    <p>This is the bee that you just saw.</p>\n                    <img src=\"bees-with-color/bee-A2SM.svg\" width=\"200\">\n                    <p><span class=\"greenText\">Good choice!</span>  This bee would have stung you.<br>Your bonus pay is unchanged, and remains at $0.28.</p>\n            ","response":0,"trial_type":"html-button-response","trial_index":74,"time_elapsed":431669,"internal_node_id":"0.0-4.0-1.33","subject_id":"614737a4f5b4c0a971902323","study_id":"6197b3f67c2b5cd3b6d9596a","session_id":"619bfc2b6f26346e36b54696","condition":"full-information","relevant_dimensions":["pattern","legs"],"bee_group":{"antennae":"X","wings":"X","pattern":"S","legs":"M"},"bonus":0.42000000000000115},{"rt":3233.8000000715256,"stimulus":"bees-with-color/bee-B2DM.svg","response":1,"trial_type":"image-button-response","trial_index":75,"time_elapsed":434905,"internal_node_id":"0.0-4.0-0.34","subject_id":"614737a4f5b4c0a971902323","study_id":"6197b3f67c2b5cd3b6d9596a","session_id":"619bfc2b6f26346e36b54696","condition":"full-information","relevant_dimensions":["pattern","legs"],"bee_group":{"antennae":"X","wings":"X","pattern":"S","legs":"M"},"action":"avoid","summary":"bad-avoid","bonus":0.42000000000000115},{"rt":1193.3000000715256,"stimulus":"\n                    <p><b>Action: <em>avoid</em></b></p>\n                    <p>This is the bee that you just saw.</p>\n                    <img src=\"bees-with-color/bee-B2DM.svg\" width=\"200\">\n                    <p><span class=\"redText\">Bad choice,</span> the bee was friendly.<br>Your bonus pay is unchanged, and remains at $0.28.</p>\n            ","response":0,"trial_type":"html-button-response","trial_index":76,"time_elapsed":436099,"internal_node_id":"0.0-4.0-1.34","subject_id":"614737a4f5b4c0a971902323","study_id":"6197b3f67c2b5cd3b6d9596a","session_id":"619bfc2b6f26346e36b54696","condition":"full-information","relevant_dimensions":["pattern","legs"],"bee_group":{"antennae":"X","wings":"X","pattern":"S","legs":"M"},"bonus":0.42000000000000115},{"rt":3070.5,"stimulus":"bees-with-color/bee-A2SF.svg","response":0,"trial_type":"image-button-response","trial_index":77,"time_elapsed":439171,"internal_node_id":"0.0-4.0-0.35","subject_id":"614737a4f5b4c0a971902323","study_id":"6197b3f67c2b5cd3b6d9596a","session_id":"619bfc2b6f26346e36b54696","condition":"full-information","relevant_dimensions":["pattern","legs"],"bee_group":{"antennae":"X","wings":"X","pattern":"S","legs":"M"},"action":"harvest","summary":"good-harvest","bonus":0.42000000000000115},{"rt":1305.1000000238419,"stimulus":"\n                    <p><b>Action: <em>harvest</em></b></p>\n                    <p>This is the bee that you just saw.</p>\n                    <img src=\"bees-with-color/bee-A2SF.svg\" width=\"200\">\n                    <p><span class=\"greenText\"><b>Successful harvest!</b></span><br>Your pay has increased by $0.02. Your bonus pay is now $0.30.</p>\n            ","response":0,"trial_type":"html-button-response","trial_index":78,"time_elapsed":440478,"internal_node_id":"0.0-4.0-1.35","subject_id":"614737a4f5b4c0a971902323","study_id":"6197b3f67c2b5cd3b6d9596a","session_id":"619bfc2b6f26346e36b54696","condition":"full-information","relevant_dimensions":["pattern","legs"],"bee_group":{"antennae":"X","wings":"X","pattern":"S","legs":"M"},"bonus":0.42000000000000115},{"rt":3111.399999976158,"stimulus":"bees-with-color/bee-A1DM.svg","response":0,"trial_type":"image-button-response","trial_index":79,"time_elapsed":443591,"internal_node_id":"0.0-4.0-0.36","subject_id":"614737a4f5b4c0a971902323","study_id":"6197b3f67c2b5cd3b6d9596a","session_id":"619bfc2b6f26346e36b54696","condition":"full-information","relevant_dimensions":["pattern","legs"],"bee_group":{"antennae":"X","wings":"X","pattern":"S","legs":"M"},"action":"harvest","summary":"good-harvest","bonus":0.42000000000000115},{"rt":1284.7999999523163,"stimulus":"\n                    <p><b>Action: <em>harvest</em></b></p>\n                    <p>This is the bee that you just saw.</p>\n                    <img src=\"bees-with-color/bee-A1DM.svg\" width=\"200\">\n                    <p><span class=\"greenText\"><b>Successful harvest!</b></span><br>Your pay has increased by $0.02. Your bonus pay is now $0.32.</p>\n            ","response":0,"trial_type":"html-button-response","trial_index":80,"time_elapsed":444877,"internal_node_id":"0.0-4.0-1.36","subject_id":"614737a4f5b4c0a971902323","study_id":"6197b3f67c2b5cd3b6d9596a","session_id":"619bfc2b6f26346e36b54696","condition":"full-information","relevant_dimensions":["pattern","legs"],"bee_group":{"antennae":"X","wings":"X","pattern":"S","legs":"M"},"bonus":0.42000000000000115},{"rt":2009.7999999523163,"stimulus":"bees-with-color/bee-B1DF.svg","response":0,"trial_type":"image-button-response","trial_index":81,"time_elapsed":446888,"internal_node_id":"0.0-4.0-0.37","subject_id":"614737a4f5b4c0a971902323","study_id":"6197b3f67c2b5cd3b6d9596a","session_id":"619bfc2b6f26346e36b54696","condition":"full-information","relevant_dimensions":["pattern","legs"],"bee_group":{"antennae":"X","wings":"X","pattern":"S","legs":"M"},"action":"harvest","summary":"good-harvest","bonus":0.42000000000000115},{"rt":1151.9000000953674,"stimulus":"\n                    <p><b>Action: <em>harvest</em></b></p>\n                    <p>This is the bee that you just saw.</p>\n                    <img src=\"bees-with-color/bee-B1DF.svg\" width=\"200\">\n                    <p><span class=\"greenText\"><b>Successful harvest!</b></span><br>Your pay has increased by $0.02. Your bonus pay is now $0.34.</p>\n            ","response":0,"trial_type":"html-button-response","trial_index":82,"time_elapsed":448042,"internal_node_id":"0.0-4.0-1.37","subject_id":"614737a4f5b4c0a971902323","study_id":"6197b3f67c2b5cd3b6d9596a","session_id":"619bfc2b6f26346e36b54696","condition":"full-information","relevant_dimensions":["pattern","legs"],"bee_group":{"antennae":"X","wings":"X","pattern":"S","legs":"M"},"bonus":0.42000000000000115},{"rt":1703.8000000715256,"stimulus":"bees-with-color/bee-A1DF.svg","response":0,"trial_type":"image-button-response","trial_index":83,"time_elapsed":449747,"internal_node_id":"0.0-4.0-0.38","subject_id":"614737a4f5b4c0a971902323","study_id":"6197b3f67c2b5cd3b6d9596a","session_id":"619bfc2b6f26346e36b54696","condition":"full-information","relevant_dimensions":["pattern","legs"],"bee_group":{"antennae":"X","wings":"X","pattern":"S","legs":"M"},"action":"harvest","summary":"good-harvest","bonus":0.42000000000000115},{"rt":1111.1000000238419,"stimulus":"\n                    <p><b>Action: <em>harvest</em></b></p>\n                    <p>This is the bee that you just saw.</p>\n                    <img src=\"bees-with-color/bee-A1DF.svg\" width=\"200\">\n                    <p><span class=\"greenText\"><b>Successful harvest!</b></span><br>Your pay has increased by $0.02. Your bonus pay is now $0.36.</p>\n            ","response":0,"trial_type":"html-button-response","trial_index":84,"time_elapsed":450859,"internal_node_id":"0.0-4.0-1.38","subject_id":"614737a4f5b4c0a971902323","study_id":"6197b3f67c2b5cd3b6d9596a","session_id":"619bfc2b6f26346e36b54696","condition":"full-information","relevant_dimensions":["pattern","legs"],"bee_group":{"antennae":"X","wings":"X","pattern":"S","legs":"M"},"bonus":0.42000000000000115},{"rt":5490,"stimulus":"bees-with-color/bee-A2DF.svg","response":1,"trial_type":"image-button-response","trial_index":85,"time_elapsed":456351,"internal_node_id":"0.0-4.0-0.39","subject_id":"614737a4f5b4c0a971902323","study_id":"6197b3f67c2b5cd3b6d9596a","session_id":"619bfc2b6f26346e36b54696","condition":"full-information","relevant_dimensions":["pattern","legs"],"bee_group":{"antennae":"X","wings":"X","pattern":"S","legs":"M"},"action":"avoid","summary":"bad-avoid","bonus":0.42000000000000115},{"rt":2315.100000023842,"stimulus":"\n                    <p><b>Action: <em>avoid</em></b></p>\n                    <p>This is the bee that you just saw.</p>\n                    <img src=\"bees-with-color/bee-A2DF.svg\" width=\"200\">\n                    <p><span class=\"redText\">Bad choice,</span> the bee was friendly.<br>Your bonus pay is unchanged, and remains at $0.36.</p>\n            ","response":0,"trial_type":"html-button-response","trial_index":86,"time_elapsed":458668,"internal_node_id":"0.0-4.0-1.39","subject_id":"614737a4f5b4c0a971902323","study_id":"6197b3f67c2b5cd3b6d9596a","session_id":"619bfc2b6f26346e36b54696","condition":"full-information","relevant_dimensions":["pattern","legs"],"bee_group":{"antennae":"X","wings":"X","pattern":"S","legs":"M"},"bonus":0.42000000000000115},{"rt":4672.299999952316,"stimulus":"bees-with-color/bee-B2DF.svg","response":1,"trial_type":"image-button-response","trial_index":87,"time_elapsed":463342,"internal_node_id":"0.0-4.0-0.40","subject_id":"614737a4f5b4c0a971902323","study_id":"6197b3f67c2b5cd3b6d9596a","session_id":"619bfc2b6f26346e36b54696","condition":"full-information","relevant_dimensions":["pattern","legs"],"bee_group":{"antennae":"X","wings":"X","pattern":"S","legs":"M"},"action":"avoid","summary":"bad-avoid","bonus":0.42000000000000115},{"rt":2100.899999976158,"stimulus":"\n                    <p><b>Action: <em>avoid</em></b></p>\n                    <p>This is the bee that you just saw.</p>\n                    <img src=\"bees-with-color/bee-B2DF.svg\" width=\"200\">\n                    <p><span class=\"redText\">Bad choice,</span> the bee was friendly.<br>Your bonus pay is unchanged, and remains at $0.36.</p>\n            ","response":0,"trial_type":"html-button-response","trial_index":88,"time_elapsed":465444,"internal_node_id":"0.0-4.0-1.40","subject_id":"614737a4f5b4c0a971902323","study_id":"6197b3f67c2b5cd3b6d9596a","session_id":"619bfc2b6f26346e36b54696","condition":"full-information","relevant_dimensions":["pattern","legs"],"bee_group":{"antennae":"X","wings":"X","pattern":"S","legs":"M"},"bonus":0.42000000000000115},{"rt":2693.2000000476837,"stimulus":"bees-with-color/bee-B2SF.svg","response":0,"trial_type":"image-button-response","trial_index":89,"time_elapsed":468139,"internal_node_id":"0.0-4.0-0.41","subject_id":"614737a4f5b4c0a971902323","study_id":"6197b3f67c2b5cd3b6d9596a","session_id":"619bfc2b6f26346e36b54696","condition":"full-information","relevant_dimensions":["pattern","legs"],"bee_group":{"antennae":"X","wings":"X","pattern":"S","legs":"M"},"action":"harvest","summary":"good-harvest","bonus":0.42000000000000115},{"rt":1131.6000000238419,"stimulus":"\n                    <p><b>Action: <em>harvest</em></b></p>\n                    <p>This is the bee that you just saw.</p>\n                    <img src=\"bees-with-color/bee-B2SF.svg\" width=\"200\">\n                    <p><span class=\"greenText\"><b>Successful harvest!</b></span><br>Your pay has increased by $0.02. Your bonus pay is now $0.38.</p>\n            ","response":0,"trial_type":"html-button-response","trial_index":90,"time_elapsed":469273,"internal_node_id":"0.0-4.0-1.41","subject_id":"614737a4f5b4c0a971902323","study_id":"6197b3f67c2b5cd3b6d9596a","session_id":"619bfc2b6f26346e36b54696","condition":"full-information","relevant_dimensions":["pattern","legs"],"bee_group":{"antennae":"X","wings":"X","pattern":"S","legs":"M"},"bonus":0.42000000000000115},{"rt":3519.100000023842,"stimulus":"bees-with-color/bee-B1DM.svg","response":0,"trial_type":"image-button-response","trial_index":91,"time_elapsed":472793,"internal_node_id":"0.0-4.0-0.42","subject_id":"614737a4f5b4c0a971902323","study_id":"6197b3f67c2b5cd3b6d9596a","session_id":"619bfc2b6f26346e36b54696","condition":"full-information","relevant_dimensions":["pattern","legs"],"bee_group":{"antennae":"X","wings":"X","pattern":"S","legs":"M"},"action":"harvest","summary":"good-harvest","bonus":0.42000000000000115},{"rt":1284.5,"stimulus":"\n                    <p><b>Action: <em>harvest</em></b></p>\n                    <p>This is the bee that you just saw.</p>\n                    <img src=\"bees-with-color/bee-B1DM.svg\" width=\"200\">\n                    <p><span class=\"greenText\"><b>Successful harvest!</b></span><br>Your pay has increased by $0.02. Your bonus pay is now $0.40.</p>\n            ","response":0,"trial_type":"html-button-response","trial_index":92,"time_elapsed":474079,"internal_node_id":"0.0-4.0-1.42","subject_id":"614737a4f5b4c0a971902323","study_id":"6197b3f67c2b5cd3b6d9596a","session_id":"619bfc2b6f26346e36b54696","condition":"full-information","relevant_dimensions":["pattern","legs"],"bee_group":{"antennae":"X","wings":"X","pattern":"S","legs":"M"},"bonus":0.42000000000000115},{"rt":2130.7000000476837,"stimulus":"bees-with-color/bee-A1SF.svg","response":0,"trial_type":"image-button-response","trial_index":93,"time_elapsed":476212,"internal_node_id":"0.0-4.0-0.43","subject_id":"614737a4f5b4c0a971902323","study_id":"6197b3f67c2b5cd3b6d9596a","session_id":"619bfc2b6f26346e36b54696","condition":"full-information","relevant_dimensions":["pattern","legs"],"bee_group":{"antennae":"X","wings":"X","pattern":"S","legs":"M"},"action":"harvest","summary":"good-harvest","bonus":0.42000000000000115},{"rt":1161.1000000238419,"stimulus":"\n                    <p><b>Action: <em>harvest</em></b></p>\n                    <p>This is the bee that you just saw.</p>\n                    <img src=\"bees-with-color/bee-A1SF.svg\" width=\"200\">\n                    <p><span class=\"greenText\"><b>Successful harvest!</b></span><br>Your pay has increased by $0.02. Your bonus pay is now $0.42.</p>\n            ","response":0,"trial_type":"html-button-response","trial_index":94,"time_elapsed":477376,"internal_node_id":"0.0-4.0-1.43","subject_id":"614737a4f5b4c0a971902323","study_id":"6197b3f67c2b5cd3b6d9596a","session_id":"619bfc2b6f26346e36b54696","condition":"full-information","relevant_dimensions":["pattern","legs"],"bee_group":{"antennae":"X","wings":"X","pattern":"S","legs":"M"},"bonus":0.42000000000000115},{"rt":1836.1999999284744,"stimulus":"bees-with-color/bee-B1SF.svg","response":0,"trial_type":"image-button-response","trial_index":95,"time_elapsed":479214,"internal_node_id":"0.0-4.0-0.44","subject_id":"614737a4f5b4c0a971902323","study_id":"6197b3f67c2b5cd3b6d9596a","session_id":"619bfc2b6f26346e36b54696","condition":"full-information","relevant_dimensions":["pattern","legs"],"bee_group":{"antennae":"X","wings":"X","pattern":"S","legs":"M"},"action":"harvest","summary":"good-harvest","bonus":0.42000000000000115},{"rt":1252.5,"stimulus":"\n                    <p><b>Action: <em>harvest</em></b></p>\n                    <p>This is the bee that you just saw.</p>\n                    <img src=\"bees-with-color/bee-B1SF.svg\" width=\"200\">\n                    <p><span class=\"greenText\"><b>Successful harvest!</b></span><br>Your pay has increased by $0.02. Your bonus pay is now $0.44.</p>\n            ","response":0,"trial_type":"html-button-response","trial_index":96,"time_elapsed":480468,"internal_node_id":"0.0-4.0-1.44","subject_id":"614737a4f5b4c0a971902323","study_id":"6197b3f67c2b5cd3b6d9596a","session_id":"619bfc2b6f26346e36b54696","condition":"full-information","relevant_dimensions":["pattern","legs"],"bee_group":{"antennae":"X","wings":"X","pattern":"S","legs":"M"},"bonus":0.42000000000000115},{"rt":2335.899999976158,"stimulus":"bees-with-color/bee-B2SM.svg","response":1,"trial_type":"image-button-response","trial_index":97,"time_elapsed":482805,"internal_node_id":"0.0-4.0-0.45","subject_id":"614737a4f5b4c0a971902323","study_id":"6197b3f67c2b5cd3b6d9596a","session_id":"619bfc2b6f26346e36b54696","condition":"full-information","relevant_dimensions":["pattern","legs"],"bee_group":{"antennae":"X","wings":"X","pattern":"S","legs":"M"},"action":"avoid","summary":"good-avoid","bonus":0.42000000000000115},{"rt":2122.7000000476837,"stimulus":"\n                    <p><b>Action: <em>avoid</em></b></p>\n                    <p>This is the bee that you just saw.</p>\n                    <img src=\"bees-with-color/bee-B2SM.svg\" width=\"200\">\n                    <p><span class=\"greenText\">Good choice!</span>  This bee would have stung you.<br>Your bonus pay is unchanged, and remains at $0.44.</p>\n            ","response":0,"trial_type":"html-button-response","trial_index":98,"time_elapsed":484929,"internal_node_id":"0.0-4.0-1.45","subject_id":"614737a4f5b4c0a971902323","study_id":"6197b3f67c2b5cd3b6d9596a","session_id":"619bfc2b6f26346e36b54696","condition":"full-information","relevant_dimensions":["pattern","legs"],"bee_group":{"antennae":"X","wings":"X","pattern":"S","legs":"M"},"bonus":0.42000000000000115},{"rt":2283.0999999046326,"stimulus":"bees-with-color/bee-B1SM.svg","response":1,"trial_type":"image-button-response","trial_index":99,"time_elapsed":487215,"internal_node_id":"0.0-4.0-0.46","subject_id":"614737a4f5b4c0a971902323","study_id":"6197b3f67c2b5cd3b6d9596a","session_id":"619bfc2b6f26346e36b54696","condition":"full-information","relevant_dimensions":["pattern","legs"],"bee_group":{"antennae":"X","wings":"X","pattern":"S","legs":"M"},"action":"avoid","summary":"good-avoid","bonus":0.42000000000000115},{"rt":1641.6000000238419,"stimulus":"\n                    <p><b>Action: <em>avoid</em></b></p>\n                    <p>This is the bee that you just saw.</p>\n                    <img src=\"bees-with-color/bee-B1SM.svg\" width=\"200\">\n                    <p><span class=\"greenText\">Good choice!</span>  This bee would have stung you.<br>Your bonus pay is unchanged, and remains at $0.44.</p>\n            ","response":0,"trial_type":"html-button-response","trial_index":100,"time_elapsed":488858,"internal_node_id":"0.0-4.0-1.46","subject_id":"614737a4f5b4c0a971902323","study_id":"6197b3f67c2b5cd3b6d9596a","session_id":"619bfc2b6f26346e36b54696","condition":"full-information","relevant_dimensions":["pattern","legs"],"bee_group":{"antennae":"X","wings":"X","pattern":"S","legs":"M"},"bonus":0.42000000000000115},{"rt":2427.0999999046326,"stimulus":"bees-with-color/bee-A2DM.svg","response":1,"trial_type":"image-button-response","trial_index":101,"time_elapsed":491287,"internal_node_id":"0.0-4.0-0.47","subject_id":"614737a4f5b4c0a971902323","study_id":"6197b3f67c2b5cd3b6d9596a","session_id":"619bfc2b6f26346e36b54696","condition":"full-information","relevant_dimensions":["pattern","legs"],"bee_group":{"antennae":"X","wings":"X","pattern":"S","legs":"M"},"action":"avoid","summary":"bad-avoid","bonus":0.42000000000000115},{"rt":4816.700000047684,"stimulus":"\n                    <p><b>Action: <em>avoid</em></b></p>\n                    <p>This is the bee that you just saw.</p>\n                    <img src=\"bees-with-color/bee-A2DM.svg\" width=\"200\">\n                    <p><span class=\"redText\">Bad choice,</span> the bee was friendly.<br>Your bonus pay is unchanged, and remains at $0.44.</p>\n            ","response":0,"trial_type":"html-button-response","trial_index":102,"time_elapsed":496105,"internal_node_id":"0.0-4.0-1.47","subject_id":"614737a4f5b4c0a971902323","study_id":"6197b3f67c2b5cd3b6d9596a","session_id":"619bfc2b6f26346e36b54696","condition":"full-information","relevant_dimensions":["pattern","legs"],"bee_group":{"antennae":"X","wings":"X","pattern":"S","legs":"M"},"bonus":0.42000000000000115},{"rt":4918.200000047684,"stimulus":"bees-with-color/bee-B1DM.svg","response":1,"trial_type":"image-button-response","trial_index":103,"time_elapsed":501025,"internal_node_id":"0.0-4.0-0.48","subject_id":"614737a4f5b4c0a971902323","study_id":"6197b3f67c2b5cd3b6d9596a","session_id":"619bfc2b6f26346e36b54696","condition":"full-information","relevant_dimensions":["pattern","legs"],"bee_group":{"antennae":"X","wings":"X","pattern":"S","legs":"M"},"action":"avoid","summary":"bad-avoid","bonus":0.42000000000000115},{"rt":1448,"stimulus":"\n                    <p><b>Action: <em>avoid</em></b></p>\n                    <p>This is the bee that you just saw.</p>\n                    <img src=\"bees-with-color/bee-B1DM.svg\" width=\"200\">\n                    <p><span class=\"redText\">Bad choice,</span> the bee was friendly.<br>Your bonus pay is unchanged, and remains at $0.44.</p>\n            ","response":0,"trial_type":"html-button-response","trial_index":104,"time_elapsed":502474,"internal_node_id":"0.0-4.0-1.48","subject_id":"614737a4f5b4c0a971902323","study_id":"6197b3f67c2b5cd3b6d9596a","session_id":"619bfc2b6f26346e36b54696","condition":"full-information","relevant_dimensions":["pattern","legs"],"bee_group":{"antennae":"X","wings":"X","pattern":"S","legs":"M"},"bonus":0.42000000000000115},{"rt":4010.100000023842,"stimulus":"bees-with-color/bee-B2SF.svg","response":0,"trial_type":"image-button-response","trial_index":105,"time_elapsed":506486,"internal_node_id":"0.0-4.0-0.49","subject_id":"614737a4f5b4c0a971902323","study_id":"6197b3f67c2b5cd3b6d9596a","session_id":"619bfc2b6f26346e36b54696","condition":"full-information","relevant_dimensions":["pattern","legs"],"bee_group":{"antennae":"X","wings":"X","pattern":"S","legs":"M"},"action":"harvest","summary":"good-harvest","bonus":0.42000000000000115},{"rt":1283.6000000238419,"stimulus":"\n                    <p><b>Action: <em>harvest</em></b></p>\n                    <p>This is the bee that you just saw.</p>\n                    <img src=\"bees-with-color/bee-B2SF.svg\" width=\"200\">\n                    <p><span class=\"greenText\"><b>Successful harvest!</b></span><br>Your pay has increased by $0.02. Your bonus pay is now $0.46.</p>\n            ","response":0,"trial_type":"html-button-response","trial_index":106,"time_elapsed":507771,"internal_node_id":"0.0-4.0-1.49","subject_id":"614737a4f5b4c0a971902323","study_id":"6197b3f67c2b5cd3b6d9596a","session_id":"619bfc2b6f26346e36b54696","condition":"full-information","relevant_dimensions":["pattern","legs"],"bee_group":{"antennae":"X","wings":"X","pattern":"S","legs":"M"},"bonus":0.42000000000000115},{"rt":2805.1999999284744,"stimulus":"bees-with-color/bee-A2SM.svg","response":1,"trial_type":"image-button-response","trial_index":107,"time_elapsed":510578,"internal_node_id":"0.0-4.0-0.50","subject_id":"614737a4f5b4c0a971902323","study_id":"6197b3f67c2b5cd3b6d9596a","session_id":"619bfc2b6f26346e36b54696","condition":"full-information","relevant_dimensions":["pattern","legs"],"bee_group":{"antennae":"X","wings":"X","pattern":"S","legs":"M"},"action":"avoid","summary":"good-avoid","bonus":0.42000000000000115},{"rt":1458.5,"stimulus":"\n                    <p><b>Action: <em>avoid</em></b></p>\n                    <p>This is the bee that you just saw.</p>\n                    <img src=\"bees-with-color/bee-A2SM.svg\" width=\"200\">\n                    <p><span class=\"greenText\">Good choice!</span>  This bee would have stung you.<br>Your bonus pay is unchanged, and remains at $0.46.</p>\n            ","response":0,"trial_type":"html-button-response","trial_index":108,"time_elapsed":512037,"internal_node_id":"0.0-4.0-1.50","subject_id":"614737a4f5b4c0a971902323","study_id":"6197b3f67c2b5cd3b6d9596a","session_id":"619bfc2b6f26346e36b54696","condition":"full-information","relevant_dimensions":["pattern","legs"],"bee_group":{"antennae":"X","wings":"X","pattern":"S","legs":"M"},"bonus":0.42000000000000115},{"rt":1610.8999999761581,"stimulus":"bees-with-color/bee-B2DF.svg","response":1,"trial_type":"image-button-response","trial_index":109,"time_elapsed":513650,"internal_node_id":"0.0-4.0-0.51","subject_id":"614737a4f5b4c0a971902323","study_id":"6197b3f67c2b5cd3b6d9596a","session_id":"619bfc2b6f26346e36b54696","condition":"full-information","relevant_dimensions":["pattern","legs"],"bee_group":{"antennae":"X","wings":"X","pattern":"S","legs":"M"},"action":"avoid","summary":"bad-avoid","bonus":0.42000000000000115},{"rt":1284.5,"stimulus":"\n                    <p><b>Action: <em>avoid</em></b></p>\n                    <p>This is the bee that you just saw.</p>\n                    <img src=\"bees-with-color/bee-B2DF.svg\" width=\"200\">\n                    <p><span class=\"redText\">Bad choice,</span> the bee was friendly.<br>Your bonus pay is unchanged, and remains at $0.46.</p>\n            ","response":0,"trial_type":"html-button-response","trial_index":110,"time_elapsed":514935,"internal_node_id":"0.0-4.0-1.51","subject_id":"614737a4f5b4c0a971902323","study_id":"6197b3f67c2b5cd3b6d9596a","session_id":"619bfc2b6f26346e36b54696","condition":"full-information","relevant_dimensions":["pattern","legs"],"bee_group":{"antennae":"X","wings":"X","pattern":"S","legs":"M"},"bonus":0.42000000000000115},{"rt":2020.6000000238419,"stimulus":"bees-with-color/bee-B2SM.svg","response":0,"trial_type":"image-button-response","trial_index":111,"time_elapsed":516957,"internal_node_id":"0.0-4.0-0.52","subject_id":"614737a4f5b4c0a971902323","study_id":"6197b3f67c2b5cd3b6d9596a","session_id":"619bfc2b6f26346e36b54696","condition":"full-information","relevant_dimensions":["pattern","legs"],"bee_group":{"antennae":"X","wings":"X","pattern":"S","legs":"M"},"action":"harvest","summary":"bad-harvest","bonus":0.42000000000000115},{"rt":1611.1999999284744,"stimulus":"\n                    <p><b>Action: <em>harvest</em></b></p>\n                    <p>This is the bee that you just saw.</p>\n                    <img src=\"bees-with-color/bee-B2SM.svg\" width=\"200\">\n                    <p><span class=\"redText\">Bad choice, the bee was angry.</span><br><b>You have been stung!</b><br>Your pay has been decreased by $0.10. Your bonus pay is now $0.36.</p>\n            ","response":0,"trial_type":"html-button-response","trial_index":112,"time_elapsed":518570,"internal_node_id":"0.0-4.0-1.52","subject_id":"614737a4f5b4c0a971902323","study_id":"6197b3f67c2b5cd3b6d9596a","session_id":"619bfc2b6f26346e36b54696","condition":"full-information","relevant_dimensions":["pattern","legs"],"bee_group":{"antennae":"X","wings":"X","pattern":"S","legs":"M"},"bonus":0.42000000000000115},{"rt":1692,"stimulus":"bees-with-color/bee-B1DF.svg","response":0,"trial_type":"image-button-response","trial_index":113,"time_elapsed":520263,"internal_node_id":"0.0-4.0-0.53","subject_id":"614737a4f5b4c0a971902323","study_id":"6197b3f67c2b5cd3b6d9596a","session_id":"619bfc2b6f26346e36b54696","condition":"full-information","relevant_dimensions":["pattern","legs"],"bee_group":{"antennae":"X","wings":"X","pattern":"S","legs":"M"},"action":"harvest","summary":"good-harvest","bonus":0.42000000000000115},{"rt":1877.0999999046326,"stimulus":"\n                    <p><b>Action: <em>harvest</em></b></p>\n                    <p>This is the bee that you just saw.</p>\n                    <img src=\"bees-with-color/bee-B1DF.svg\" width=\"200\">\n                    <p><span class=\"greenText\"><b>Successful harvest!</b></span><br>Your pay has increased by $0.02. Your bonus pay is now $0.38.</p>\n            ","response":0,"trial_type":"html-button-response","trial_index":114,"time_elapsed":522142,"internal_node_id":"0.0-4.0-1.53","subject_id":"614737a4f5b4c0a971902323","study_id":"6197b3f67c2b5cd3b6d9596a","session_id":"619bfc2b6f26346e36b54696","condition":"full-information","relevant_dimensions":["pattern","legs"],"bee_group":{"antennae":"X","wings":"X","pattern":"S","legs":"M"},"bonus":0.42000000000000115},{"rt":2795.399999976158,"stimulus":"bees-with-color/bee-A2DM.svg","response":0,"trial_type":"image-button-response","trial_index":115,"time_elapsed":524938,"internal_node_id":"0.0-4.0-0.54","subject_id":"614737a4f5b4c0a971902323","study_id":"6197b3f67c2b5cd3b6d9596a","session_id":"619bfc2b6f26346e36b54696","condition":"full-information","relevant_dimensions":["pattern","legs"],"bee_group":{"antennae":"X","wings":"X","pattern":"S","legs":"M"},"action":"harvest","summary":"good-harvest","bonus":0.42000000000000115},{"rt":1366.5,"stimulus":"\n                    <p><b>Action: <em>harvest</em></b></p>\n                    <p>This is the bee that you just saw.</p>\n                    <img src=\"bees-with-color/bee-A2DM.svg\" width=\"200\">\n                    <p><span class=\"greenText\"><b>Successful harvest!</b></span><br>Your pay has increased by $0.02. Your bonus pay is now $0.40.</p>\n            ","response":0,"trial_type":"html-button-response","trial_index":116,"time_elapsed":526306,"internal_node_id":"0.0-4.0-1.54","subject_id":"614737a4f5b4c0a971902323","study_id":"6197b3f67c2b5cd3b6d9596a","session_id":"619bfc2b6f26346e36b54696","condition":"full-information","relevant_dimensions":["pattern","legs"],"bee_group":{"antennae":"X","wings":"X","pattern":"S","legs":"M"},"bonus":0.42000000000000115},{"rt":4509.900000095367,"stimulus":"bees-with-color/bee-A1DF.svg","response":0,"trial_type":"image-button-response","trial_index":117,"time_elapsed":530818,"internal_node_id":"0.0-4.0-0.55","subject_id":"614737a4f5b4c0a971902323","study_id":"6197b3f67c2b5cd3b6d9596a","session_id":"619bfc2b6f26346e36b54696","condition":"full-information","relevant_dimensions":["pattern","legs"],"bee_group":{"antennae":"X","wings":"X","pattern":"S","legs":"M"},"action":"harvest","summary":"good-harvest","bonus":0.42000000000000115},{"rt":1304.7000000476837,"stimulus":"\n                    <p><b>Action: <em>harvest</em></b></p>\n                    <p>This is the bee that you just saw.</p>\n                    <img src=\"bees-with-color/bee-A1DF.svg\" width=\"200\">\n                    <p><span class=\"greenText\"><b>Successful harvest!</b></span><br>Your pay has increased by $0.02. Your bonus pay is now $0.42.</p>\n            ","response":0,"trial_type":"html-button-response","trial_index":118,"time_elapsed":532124,"internal_node_id":"0.0-4.0-1.55","subject_id":"614737a4f5b4c0a971902323","study_id":"6197b3f67c2b5cd3b6d9596a","session_id":"619bfc2b6f26346e36b54696","condition":"full-information","relevant_dimensions":["pattern","legs"],"bee_group":{"antennae":"X","wings":"X","pattern":"S","legs":"M"},"bonus":0.42000000000000115},{"rt":2356.2000000476837,"stimulus":"bees-with-color/bee-B1SM.svg","response":1,"trial_type":"image-button-response","trial_index":119,"time_elapsed":534482,"internal_node_id":"0.0-4.0-0.56","subject_id":"614737a4f5b4c0a971902323","study_id":"6197b3f67c2b5cd3b6d9596a","session_id":"619bfc2b6f26346e36b54696","condition":"full-information","relevant_dimensions":["pattern","legs"],"bee_group":{"antennae":"X","wings":"X","pattern":"S","legs":"M"},"action":"avoid","summary":"good-avoid","bonus":0.42000000000000115},{"rt":1866,"stimulus":"\n                    <p><b>Action: <em>avoid</em></b></p>\n                    <p>This is the bee that you just saw.</p>\n                    <img src=\"bees-with-color/bee-B1SM.svg\" width=\"200\">\n                    <p><span class=\"greenText\">Good choice!</span>  This bee would have stung you.<br>Your bonus pay is unchanged, and remains at $0.42.</p>\n            ","response":0,"trial_type":"html-button-response","trial_index":120,"time_elapsed":536349,"internal_node_id":"0.0-4.0-1.56","subject_id":"614737a4f5b4c0a971902323","study_id":"6197b3f67c2b5cd3b6d9596a","session_id":"619bfc2b6f26346e36b54696","condition":"full-information","relevant_dimensions":["pattern","legs"],"bee_group":{"antennae":"X","wings":"X","pattern":"S","legs":"M"},"bonus":0.42000000000000115},{"rt":3059.7999999523163,"stimulus":"bees-with-color/bee-A1SF.svg","response":1,"trial_type":"image-button-response","trial_index":121,"time_elapsed":539411,"internal_node_id":"0.0-4.0-0.57","subject_id":"614737a4f5b4c0a971902323","study_id":"6197b3f67c2b5cd3b6d9596a","session_id":"619bfc2b6f26346e36b54696","condition":"full-information","relevant_dimensions":["pattern","legs"],"bee_group":{"antennae":"X","wings":"X","pattern":"S","legs":"M"},"action":"avoid","summary":"bad-avoid","bonus":0.42000000000000115},{"rt":5448.699999928474,"stimulus":"\n                    <p><b>Action: <em>avoid</em></b></p>\n                    <p>This is the bee that you just saw.</p>\n                    <img src=\"bees-with-color/bee-A1SF.svg\" width=\"200\">\n                    <p><span class=\"redText\">Bad choice,</span> the bee was friendly.<br>Your bonus pay is unchanged, and remains at $0.42.</p>\n            ","response":0,"trial_type":"html-button-response","trial_index":122,"time_elapsed":544861,"internal_node_id":"0.0-4.0-1.57","subject_id":"614737a4f5b4c0a971902323","study_id":"6197b3f67c2b5cd3b6d9596a","session_id":"619bfc2b6f26346e36b54696","condition":"full-information","relevant_dimensions":["pattern","legs"],"bee_group":{"antennae":"X","wings":"X","pattern":"S","legs":"M"},"bonus":0.42000000000000115},{"rt":1978.2999999523163,"stimulus":"bees-with-color/bee-A1DM.svg","response":1,"trial_type":"image-button-response","trial_index":123,"time_elapsed":546841,"internal_node_id":"0.0-4.0-0.58","subject_id":"614737a4f5b4c0a971902323","study_id":"6197b3f67c2b5cd3b6d9596a","session_id":"619bfc2b6f26346e36b54696","condition":"full-information","relevant_dimensions":["pattern","legs"],"bee_group":{"antennae":"X","wings":"X","pattern":"S","legs":"M"},"action":"avoid","summary":"bad-avoid","bonus":0.42000000000000115},{"rt":1274.5,"stimulus":"\n                    <p><b>Action: <em>avoid</em></b></p>\n                    <p>This is the bee that you just saw.</p>\n                    <img src=\"bees-with-color/bee-A1DM.svg\" width=\"200\">\n                    <p><span class=\"redText\">Bad choice,</span> the bee was friendly.<br>Your bonus pay is unchanged, and remains at $0.42.</p>\n            ","response":0,"trial_type":"html-button-response","trial_index":124,"time_elapsed":548117,"internal_node_id":"0.0-4.0-1.58","subject_id":"614737a4f5b4c0a971902323","study_id":"6197b3f67c2b5cd3b6d9596a","session_id":"619bfc2b6f26346e36b54696","condition":"full-information","relevant_dimensions":["pattern","legs"],"bee_group":{"antennae":"X","wings":"X","pattern":"S","legs":"M"},"bonus":0.42000000000000115},{"rt":3366.7000000476837,"stimulus":"bees-with-color/bee-B1SF.svg","response":0,"trial_type":"image-button-response","trial_index":125,"time_elapsed":551485,"internal_node_id":"0.0-4.0-0.59","subject_id":"614737a4f5b4c0a971902323","study_id":"6197b3f67c2b5cd3b6d9596a","session_id":"619bfc2b6f26346e36b54696","condition":"full-information","relevant_dimensions":["pattern","legs"],"bee_group":{"antennae":"X","wings":"X","pattern":"S","legs":"M"},"action":"harvest","summary":"good-harvest","bonus":0.42000000000000115},{"rt":1325.2000000476837,"stimulus":"\n                    <p><b>Action: <em>harvest</em></b></p>\n                    <p>This is the bee that you just saw.</p>\n                    <img src=\"bees-with-color/bee-B1SF.svg\" width=\"200\">\n                    <p><span class=\"greenText\"><b>Successful harvest!</b></span><br>Your pay has increased by $0.02. Your bonus pay is now $0.44.</p>\n            ","response":0,"trial_type":"html-button-response","trial_index":126,"time_elapsed":552811,"internal_node_id":"0.0-4.0-1.59","subject_id":"614737a4f5b4c0a971902323","study_id":"6197b3f67c2b5cd3b6d9596a","session_id":"619bfc2b6f26346e36b54696","condition":"full-information","relevant_dimensions":["pattern","legs"],"bee_group":{"antennae":"X","wings":"X","pattern":"S","legs":"M"},"bonus":0.42000000000000115},{"rt":3733.2000000476837,"stimulus":"bees-with-color/bee-A2DF.svg","response":0,"trial_type":"image-button-response","trial_index":127,"time_elapsed":556546,"internal_node_id":"0.0-4.0-0.60","subject_id":"614737a4f5b4c0a971902323","study_id":"6197b3f67c2b5cd3b6d9596a","session_id":"619bfc2b6f26346e36b54696","condition":"full-information","relevant_dimensions":["pattern","legs"],"bee_group":{"antennae":"X","wings":"X","pattern":"S","legs":"M"},"action":"harvest","summary":"good-harvest","bonus":0.42000000000000115},{"rt":1202.2000000476837,"stimulus":"\n                    <p><b>Action: <em>harvest</em></b></p>\n                    <p>This is the bee that you just saw.</p>\n                    <img src=\"bees-with-color/bee-A2DF.svg\" width=\"200\">\n                    <p><span class=\"greenText\"><b>Successful harvest!</b></span><br>Your pay has increased by $0.02. Your bonus pay is now $0.46.</p>\n            ","response":0,"trial_type":"html-button-response","trial_index":128,"time_elapsed":557750,"internal_node_id":"0.0-4.0-1.60","subject_id":"614737a4f5b4c0a971902323","study_id":"6197b3f67c2b5cd3b6d9596a","session_id":"619bfc2b6f26346e36b54696","condition":"full-information","relevant_dimensions":["pattern","legs"],"bee_group":{"antennae":"X","wings":"X","pattern":"S","legs":"M"},"bonus":0.42000000000000115},{"rt":1416.6000000238419,"stimulus":"bees-with-color/bee-B2DM.svg","response":1,"trial_type":"image-button-response","trial_index":129,"time_elapsed":559169,"internal_node_id":"0.0-4.0-0.61","subject_id":"614737a4f5b4c0a971902323","study_id":"6197b3f67c2b5cd3b6d9596a","session_id":"619bfc2b6f26346e36b54696","condition":"full-information","relevant_dimensions":["pattern","legs"],"bee_group":{"antennae":"X","wings":"X","pattern":"S","legs":"M"},"action":"avoid","summary":"bad-avoid","bonus":0.42000000000000115},{"rt":5182.799999952316,"stimulus":"\n                    <p><b>Action: <em>avoid</em></b></p>\n                    <p>This is the bee that you just saw.</p>\n                    <img src=\"bees-with-color/bee-B2DM.svg\" width=\"200\">\n                    <p><span class=\"redText\">Bad choice,</span> the bee was friendly.<br>Your bonus pay is unchanged, and remains at $0.46.</p>\n            ","response":0,"trial_type":"html-button-response","trial_index":130,"time_elapsed":564353,"internal_node_id":"0.0-4.0-1.61","subject_id":"614737a4f5b4c0a971902323","study_id":"6197b3f67c2b5cd3b6d9596a","session_id":"619bfc2b6f26346e36b54696","condition":"full-information","relevant_dimensions":["pattern","legs"],"bee_group":{"antennae":"X","wings":"X","pattern":"S","legs":"M"},"bonus":0.42000000000000115},{"rt":1815,"stimulus":"bees-with-color/bee-A1SM.svg","response":0,"trial_type":"image-button-response","trial_index":131,"time_elapsed":566170,"internal_node_id":"0.0-4.0-0.62","subject_id":"614737a4f5b4c0a971902323","study_id":"6197b3f67c2b5cd3b6d9596a","session_id":"619bfc2b6f26346e36b54696","condition":"full-information","relevant_dimensions":["pattern","legs"],"bee_group":{"antennae":"X","wings":"X","pattern":"S","legs":"M"},"action":"harvest","summary":"bad-harvest","bonus":0.42000000000000115},{"rt":1335.8000000715256,"stimulus":"\n                    <p><b>Action: <em>harvest</em></b></p>\n                    <p>This is the bee that you just saw.</p>\n                    <img src=\"bees-with-color/bee-A1SM.svg\" width=\"200\">\n                    <p><span class=\"redText\">Bad choice, the bee was angry.</span><br><b>You have been stung!</b><br>Your pay has been decreased by $0.10. Your bonus pay is now $0.36.</p>\n            ","response":0,"trial_type":"html-button-response","trial_index":132,"time_elapsed":567507,"internal_node_id":"0.0-4.0-1.62","subject_id":"614737a4f5b4c0a971902323","study_id":"6197b3f67c2b5cd3b6d9596a","session_id":"619bfc2b6f26346e36b54696","condition":"full-information","relevant_dimensions":["pattern","legs"],"bee_group":{"antennae":"X","wings":"X","pattern":"S","legs":"M"},"bonus":0.42000000000000115},{"rt":1375.8999999761581,"stimulus":"bees-with-color/bee-A2SF.svg","response":0,"trial_type":"image-button-response","trial_index":133,"time_elapsed":568885,"internal_node_id":"0.0-4.0-0.63","subject_id":"614737a4f5b4c0a971902323","study_id":"6197b3f67c2b5cd3b6d9596a","session_id":"619bfc2b6f26346e36b54696","condition":"full-information","relevant_dimensions":["pattern","legs"],"bee_group":{"antennae":"X","wings":"X","pattern":"S","legs":"M"},"action":"harvest","summary":"good-harvest","bonus":0.42000000000000115},{"rt":1325.3999999761581,"stimulus":"\n                    <p><b>Action: <em>harvest</em></b></p>\n                    <p>This is the bee that you just saw.</p>\n                    <img src=\"bees-with-color/bee-A2SF.svg\" width=\"200\">\n                    <p><span class=\"greenText\"><b>Successful harvest!</b></span><br>Your pay has increased by $0.02. Your bonus pay is now $0.38.</p>\n            ","response":0,"trial_type":"html-button-response","trial_index":134,"time_elapsed":570211,"internal_node_id":"0.0-4.0-1.63","subject_id":"614737a4f5b4c0a971902323","study_id":"6197b3f67c2b5cd3b6d9596a","session_id":"619bfc2b6f26346e36b54696","condition":"full-information","relevant_dimensions":["pattern","legs"],"bee_group":{"antennae":"X","wings":"X","pattern":"S","legs":"M"},"bonus":0.42000000000000115},{"rt":10105.5,"stimulus":"You have completed the first part of this experiment.<br><br>You will now begin a shorter second part, in which you will receive no feedback.<br>The same rules regarding bonus pay apply.<br><br>Press any key to begin.","response":" ","trial_type":"html-keyboard-response","trial_index":135,"time_elapsed":580319,"internal_node_id":"0.0-5.0","subject_id":"614737a4f5b4c0a971902323","study_id":"6197b3f67c2b5cd3b6d9596a","session_id":"619bfc2b6f26346e36b54696","condition":"full-information","relevant_dimensions":["pattern","legs"],"bee_group":{"antennae":"X","wings":"X","pattern":"S","legs":"M"},"bonus":0.42000000000000115},{"rt":4157.099999904633,"stimulus":"bees-with-color/bee-B2SF.svg","response":0,"trial_type":"image-button-response","trial_index":136,"time_elapsed":584500,"internal_node_id":"0.0-6.0-0.0","subject_id":"614737a4f5b4c0a971902323","study_id":"6197b3f67c2b5cd3b6d9596a","session_id":"619bfc2b6f26346e36b54696","condition":"full-information","relevant_dimensions":["pattern","legs"],"bee_group":{"antennae":"X","wings":"X","pattern":"S","legs":"M"},"bonus":0.42000000000000115},{"rt":4783.900000095367,"stimulus":"bees-with-color/bee-A1SM.svg","response":0,"trial_type":"image-button-response","trial_index":137,"time_elapsed":589286,"internal_node_id":"0.0-6.0-0.1","subject_id":"614737a4f5b4c0a971902323","study_id":"6197b3f67c2b5cd3b6d9596a","session_id":"619bfc2b6f26346e36b54696","condition":"full-information","relevant_dimensions":["pattern","legs"],"bee_group":{"antennae":"X","wings":"X","pattern":"S","legs":"M"},"bonus":0.42000000000000115},{"rt":2232,"stimulus":"bees-with-color/bee-B2DF.svg","response":1,"trial_type":"image-button-response","trial_index":138,"time_elapsed":591521,"internal_node_id":"0.0-6.0-0.2","subject_id":"614737a4f5b4c0a971902323","study_id":"6197b3f67c2b5cd3b6d9596a","session_id":"619bfc2b6f26346e36b54696","condition":"full-information","relevant_dimensions":["pattern","legs"],"bee_group":{"antennae":"X","wings":"X","pattern":"S","legs":"M"},"bonus":0.42000000000000115},{"rt":3645.399999976158,"stimulus":"bees-with-color/bee-B2DM.svg","response":1,"trial_type":"image-button-response","trial_index":139,"time_elapsed":595169,"internal_node_id":"0.0-6.0-0.3","subject_id":"614737a4f5b4c0a971902323","study_id":"6197b3f67c2b5cd3b6d9596a","session_id":"619bfc2b6f26346e36b54696","condition":"full-information","relevant_dimensions":["pattern","legs"],"bee_group":{"antennae":"X","wings":"X","pattern":"S","legs":"M"},"bonus":0.42000000000000115},{"rt":1962.6999999284744,"stimulus":"bees-with-color/bee-A2DF.svg","response":0,"trial_type":"image-button-response","trial_index":140,"time_elapsed":597134,"internal_node_id":"0.0-6.0-0.4","subject_id":"614737a4f5b4c0a971902323","study_id":"6197b3f67c2b5cd3b6d9596a","session_id":"619bfc2b6f26346e36b54696","condition":"full-information","relevant_dimensions":["pattern","legs"],"bee_group":{"antennae":"X","wings":"X","pattern":"S","legs":"M"},"bonus":0.42000000000000115},{"rt":4171,"stimulus":"bees-with-color/bee-A2SM.svg","response":1,"trial_type":"image-button-response","trial_index":141,"time_elapsed":601308,"internal_node_id":"0.0-6.0-0.5","subject_id":"614737a4f5b4c0a971902323","study_id":"6197b3f67c2b5cd3b6d9596a","session_id":"619bfc2b6f26346e36b54696","condition":"full-information","relevant_dimensions":["pattern","legs"],"bee_group":{"antennae":"X","wings":"X","pattern":"S","legs":"M"},"bonus":0.42000000000000115},{"rt":1630.2999999523163,"stimulus":"bees-with-color/bee-A2SF.svg","response":0,"trial_type":"image-button-response","trial_index":142,"time_elapsed":602941,"internal_node_id":"0.0-6.0-0.6","subject_id":"614737a4f5b4c0a971902323","study_id":"6197b3f67c2b5cd3b6d9596a","session_id":"619bfc2b6f26346e36b54696","condition":"full-information","relevant_dimensions":["pattern","legs"],"bee_group":{"antennae":"X","wings":"X","pattern":"S","legs":"M"},"bonus":0.42000000000000115},{"rt":4100.299999952316,"stimulus":"bees-with-color/bee-B1DM.svg","response":0,"trial_type":"image-button-response","trial_index":143,"time_elapsed":607043,"internal_node_id":"0.0-6.0-0.7","subject_id":"614737a4f5b4c0a971902323","study_id":"6197b3f67c2b5cd3b6d9596a","session_id":"619bfc2b6f26346e36b54696","condition":"full-information","relevant_dimensions":["pattern","legs"],"bee_group":{"antennae":"X","wings":"X","pattern":"S","legs":"M"},"bonus":0.42000000000000115},{"rt":1997.7000000476837,"stimulus":"bees-with-color/bee-B2SM.svg","response":1,"trial_type":"image-button-response","trial_index":144,"time_elapsed":609043,"internal_node_id":"0.0-6.0-0.8","subject_id":"614737a4f5b4c0a971902323","study_id":"6197b3f67c2b5cd3b6d9596a","session_id":"619bfc2b6f26346e36b54696","condition":"full-information","relevant_dimensions":["pattern","legs"],"bee_group":{"antennae":"X","wings":"X","pattern":"S","legs":"M"},"bonus":0.42000000000000115},{"rt":6161.699999928474,"stimulus":"bees-with-color/bee-B1DF.svg","response":0,"trial_type":"image-button-response","trial_index":145,"time_elapsed":615207,"internal_node_id":"0.0-6.0-0.9","subject_id":"614737a4f5b4c0a971902323","study_id":"6197b3f67c2b5cd3b6d9596a","session_id":"619bfc2b6f26346e36b54696","condition":"full-information","relevant_dimensions":["pattern","legs"],"bee_group":{"antennae":"X","wings":"X","pattern":"S","legs":"M"},"bonus":0.42000000000000115},{"rt":1457.1000000238419,"stimulus":"bees-with-color/bee-A1SF.svg","response":0,"trial_type":"image-button-response","trial_index":146,"time_elapsed":616666,"internal_node_id":"0.0-6.0-0.10","subject_id":"614737a4f5b4c0a971902323","study_id":"6197b3f67c2b5cd3b6d9596a","session_id":"619bfc2b6f26346e36b54696","condition":"full-information","relevant_dimensions":["pattern","legs"],"bee_group":{"antennae":"X","wings":"X","pattern":"S","legs":"M"},"bonus":0.42000000000000115},{"rt":2060.2999999523163,"stimulus":"bees-with-color/bee-A1DF.svg","response":0,"trial_type":"image-button-response","trial_index":147,"time_elapsed":618728,"internal_node_id":"0.0-6.0-0.11","subject_id":"614737a4f5b4c0a971902323","study_id":"6197b3f67c2b5cd3b6d9596a","session_id":"619bfc2b6f26346e36b54696","condition":"full-information","relevant_dimensions":["pattern","legs"],"bee_group":{"antennae":"X","wings":"X","pattern":"S","legs":"M"},"bonus":0.42000000000000115},{"rt":1803.7999999523163,"stimulus":"bees-with-color/bee-A2DM.svg","response":1,"trial_type":"image-button-response","trial_index":148,"time_elapsed":620534,"internal_node_id":"0.0-6.0-0.12","subject_id":"614737a4f5b4c0a971902323","study_id":"6197b3f67c2b5cd3b6d9596a","session_id":"619bfc2b6f26346e36b54696","condition":"full-information","relevant_dimensions":["pattern","legs"],"bee_group":{"antennae":"X","wings":"X","pattern":"S","legs":"M"},"bonus":0.42000000000000115},{"rt":1702.7000000476837,"stimulus":"bees-with-color/bee-A1DM.svg","response":0,"trial_type":"image-button-response","trial_index":149,"time_elapsed":622239,"internal_node_id":"0.0-6.0-0.13","subject_id":"614737a4f5b4c0a971902323","study_id":"6197b3f67c2b5cd3b6d9596a","session_id":"619bfc2b6f26346e36b54696","condition":"full-information","relevant_dimensions":["pattern","legs"],"bee_group":{"antennae":"X","wings":"X","pattern":"S","legs":"M"},"bonus":0.42000000000000115},{"rt":5223.299999952316,"stimulus":"bees-with-color/bee-B1SM.svg","response":0,"trial_type":"image-button-response","trial_index":150,"time_elapsed":627464,"internal_node_id":"0.0-6.0-0.14","subject_id":"614737a4f5b4c0a971902323","study_id":"6197b3f67c2b5cd3b6d9596a","session_id":"619bfc2b6f26346e36b54696","condition":"full-information","relevant_dimensions":["pattern","legs"],"bee_group":{"antennae":"X","wings":"X","pattern":"S","legs":"M"},"bonus":0.42000000000000115},{"rt":1192.2999999523163,"stimulus":"bees-with-color/bee-B1SF.svg","response":0,"trial_type":"image-button-response","trial_index":151,"time_elapsed":628659,"internal_node_id":"0.0-6.0-0.15","subject_id":"614737a4f5b4c0a971902323","study_id":"6197b3f67c2b5cd3b6d9596a","session_id":"619bfc2b6f26346e36b54696","condition":"full-information","relevant_dimensions":["pattern","legs"],"bee_group":{"antennae":"X","wings":"X","pattern":"S","legs":"M"},"bonus":0.42000000000000115},{"rt":4050.5,"stimulus":"bees-with-color/bee-B1SF.svg","response":0,"trial_type":"image-button-response","trial_index":152,"time_elapsed":632711,"internal_node_id":"0.0-6.0-0.16","subject_id":"614737a4f5b4c0a971902323","study_id":"6197b3f67c2b5cd3b6d9596a","session_id":"619bfc2b6f26346e36b54696","condition":"full-information","relevant_dimensions":["pattern","legs"],"bee_group":{"antennae":"X","wings":"X","pattern":"S","legs":"M"},"bonus":0.42000000000000115},{"rt":1559.7000000476837,"stimulus":"bees-with-color/bee-B1SM.svg","response":0,"trial_type":"image-button-response","trial_index":153,"time_elapsed":634272,"internal_node_id":"0.0-6.0-0.17","subject_id":"614737a4f5b4c0a971902323","study_id":"6197b3f67c2b5cd3b6d9596a","session_id":"619bfc2b6f26346e36b54696","condition":"full-information","relevant_dimensions":["pattern","legs"],"bee_group":{"antennae":"X","wings":"X","pattern":"S","legs":"M"},"bonus":0.42000000000000115},{"rt":2804.9000000953674,"stimulus":"bees-with-color/bee-A1DF.svg","response":1,"trial_type":"image-button-response","trial_index":154,"time_elapsed":637078,"internal_node_id":"0.0-6.0-0.18","subject_id":"614737a4f5b4c0a971902323","study_id":"6197b3f67c2b5cd3b6d9596a","session_id":"619bfc2b6f26346e36b54696","condition":"full-information","relevant_dimensions":["pattern","legs"],"bee_group":{"antennae":"X","wings":"X","pattern":"S","legs":"M"},"bonus":0.42000000000000115},{"rt":1111,"stimulus":"bees-with-color/bee-A1SM.svg","response":1,"trial_type":"image-button-response","trial_index":155,"time_elapsed":638191,"internal_node_id":"0.0-6.0-0.19","subject_id":"614737a4f5b4c0a971902323","study_id":"6197b3f67c2b5cd3b6d9596a","session_id":"619bfc2b6f26346e36b54696","condition":"full-information","relevant_dimensions":["pattern","legs"],"bee_group":{"antennae":"X","wings":"X","pattern":"S","legs":"M"},"bonus":0.42000000000000115},{"rt":5682.600000023842,"stimulus":"bees-with-color/bee-A1DM.svg","response":1,"trial_type":"image-button-response","trial_index":156,"time_elapsed":643876,"internal_node_id":"0.0-6.0-0.20","subject_id":"614737a4f5b4c0a971902323","study_id":"6197b3f67c2b5cd3b6d9596a","session_id":"619bfc2b6f26346e36b54696","condition":"full-information","relevant_dimensions":["pattern","legs"],"bee_group":{"antennae":"X","wings":"X","pattern":"S","legs":"M"},"bonus":0.42000000000000115},{"rt":1559.7999999523163,"stimulus":"bees-with-color/bee-B1DF.svg","response":0,"trial_type":"image-button-response","trial_index":157,"time_elapsed":645437,"