[{"success":true,"trial_type":"fullscreen","trial_index":0,"time_elapsed":30494,"internal_node_id":"0.0-0.0","subject_id":"5e2b922e32129c1ea324c7ae","study_id":"6197b3f67c2b5cd3b6d9596a","session_id":"619be58ebbd63e5b1a8add82","condition":"full-information","relevant_dimensions":["antennae","legs"],"bee_group":{"antennae":"A","wings":"X","pattern":"X","legs":"F"},"bonus":0.12000000000000001},{"success":true,"timeout":false,"failed_images":[],"failed_audio":[],"failed_video":[],"trial_type":"preload","trial_index":1,"time_elapsed":32314,"internal_node_id":"0.0-1.0","subject_id":"5e2b922e32129c1ea324c7ae","study_id":"6197b3f67c2b5cd3b6d9596a","session_id":"619be58ebbd63e5b1a8add82","condition":"full-information","relevant_dimensions":["antennae","legs"],"bee_group":{"antennae":"A","wings":"X","pattern":"X","legs":"F"},"bonus":0.12000000000000001},{"rt":2770,"stimulus":"Welcome! Press any key to begin.","response":"v","trial_type":"html-keyboard-response","trial_index":2,"time_elapsed":35085,"internal_node_id":"0.0-2.0","subject_id":"5e2b922e32129c1ea324c7ae","study_id":"6197b3f67c2b5cd3b6d9596a","session_id":"619be58ebbd63e5b1a8add82","condition":"full-information","relevant_dimensions":["antennae","legs"],"bee_group":{"antennae":"A","wings":"X","pattern":"X","legs":"F"},"bonus":0.12000000000000001},{"view_history":[{"page_index":0,"viewing_time":4849},{"page_index":1,"viewing_time":20245},{"page_index":2,"viewing_time":8863},{"page_index":3,"viewing_time":15141},{"page_index":4,"viewing_time":6003},{"page_index":5,"viewing_time":4249},{"page_index":6,"viewing_time":27150},{"page_index":7,"viewing_time":9977},{"page_index":8,"viewing_time":4061},{"page_index":9,"viewing_time":4475},{"page_index":10,"viewing_time":6080},{"page_index":11,"viewing_time":6587},{"page_index":12,"viewing_time":13579},{"page_index":13,"viewing_time":1666},{"page_index":14,"viewing_time":1309}],"rt":134234,"trial_type":"instructions","trial_index":3,"time_elapsed":169320,"internal_node_id":"0.0-3.0-0.0","subject_id":"5e2b922e32129c1ea324c7ae","study_id":"6197b3f67c2b5cd3b6d9596a","session_id":"619be58ebbd63e5b1a8add82","condition":"full-information","relevant_dimensions":["antennae","legs"],"bee_group":{"antennae":"A","wings":"X","pattern":"X","legs":"F"},"bonus":0.12000000000000001},{"rt":10878,"response":{"Q0":["Two or six legs","Stripes or spots on body","Single or double wings","Antennae or no antennae"]},"question_order":[0],"trial_type":"survey-multi-select","trial_index":4,"time_elapsed":180211,"internal_node_id":"0.0-3.0-1.0","subject_id":"5e2b922e32129c1ea324c7ae","study_id":"6197b3f67c2b5cd3b6d9596a","session_id":"619be58ebbd63e5b1a8add82","condition":"full-information","relevant_dimensions":["antennae","legs"],"bee_group":{"antennae":"A","wings":"X","pattern":"X","legs":"F"},"correct":true,"bonus":0.12000000000000001},{"rt":15485,"response":{"Q1":"No.","Q2":"Based on the four features of the bee.","Q3":"You learn if it was friendly or dangerous, but do not alter your bonus."},"question_order":[0,1,2],"trial_type":"survey-multi-choice","trial_index":5,"time_elapsed":195702,"internal_node_id":"0.0-3.0-2.0","subject_id":"5e2b922e32129c1ea324c7ae","study_id":"6197b3f67c2b5cd3b6d9596a","session_id":"619be58ebbd63e5b1a8add82","condition":"full-information","relevant_dimensions":["antennae","legs"],"bee_group":{"antennae":"A","wings":"X","pattern":"X","legs":"F"},"correct":true,"bonus":0.12000000000000001},{"rt":80050,"stimulus":"<p>Congrats, you got everything right<br>When you're ready, click the button below to continue to the experiment.</p>","response":0,"trial_type":"html-button-response","trial_index":6,"time_elapsed":275757,"internal_node_id":"0.0-3.0-3.0","subject_id":"5e2b922e32129c1ea324c7ae","study_id":"6197b3f67c2b5cd3b6d9596a","session_id":"619be58ebbd63e5b1a8add82","condition":"full-information","relevant_dimensions":["antennae","legs"],"bee_group":{"antennae":"A","wings":"X","pattern":"X","legs":"F"},"bonus":0.12000000000000001},{"rt":12686,"stimulus":"bees-with-color/bee-B1SF.svg","response":0,"trial_type":"image-button-response","trial_index":7,"time_elapsed":288448,"internal_node_id":"0.0-4.0-0.0","subject_id":"5e2b922e32129c1ea324c7ae","study_id":"6197b3f67c2b5cd3b6d9596a","session_id":"619be58ebbd63e5b1a8add82","condition":"full-information","relevant_dimensions":["antennae","legs"],"bee_group":{"antennae":"A","wings":"X","pattern":"X","legs":"F"},"action":"harvest","summary":"good-harvest","bonus":0.12000000000000001},{"rt":10242,"stimulus":"\n                    <p><b>Action: <em>harvest</em></b></p>\n                    <p>This is the bee that you just saw.</p>\n                    <img src=\"bees-with-color/bee-B1SF.svg\" width=\"200\">\n                    <p><span class=\"greenText\"><b>Successful harvest!</b></span><br>Your pay has increased by $0.02. Your bonus pay is now $0.56.</p>\n            ","response":0,"trial_type":"html-button-response","trial_index":8,"time_elapsed":298723,"internal_node_id":"0.0-4.0-1.0","subject_id":"5e2b922e32129c1ea324c7ae","study_id":"6197b3f67c2b5cd3b6d9596a","session_id":"619be58ebbd63e5b1a8add82","condition":"full-information","relevant_dimensions":["antennae","legs"],"bee_group":{"antennae":"A","wings":"X","pattern":"X","legs":"F"},"bonus":0.12000000000000001},{"rt":4463,"stimulus":"bees-with-color/bee-B1DF.svg","response":0,"trial_type":"image-button-response","trial_index":9,"time_elapsed":303189,"internal_node_id":"0.0-4.0-0.1","subject_id":"5e2b922e32129c1ea324c7ae","study_id":"6197b3f67c2b5cd3b6d9596a","session_id":"619be58ebbd63e5b1a8add82","condition":"full-information","relevant_dimensions":["antennae","legs"],"bee_group":{"antennae":"A","wings":"X","pattern":"X","legs":"F"},"action":"harvest","summary":"good-harvest","bonus":0.12000000000000001},{"rt":13889,"stimulus":"\n                    <p><b>Action: <em>harvest</em></b></p>\n                    <p>This is the bee that you just saw.</p>\n                    <img src=\"bees-with-color/bee-B1DF.svg\" width=\"200\">\n                    <p><span class=\"greenText\"><b>Successful harvest!</b></span><br>Your pay has increased by $0.02. Your bonus pay is now $0.58.</p>\n            ","response":0,"trial_type":"html-button-response","trial_index":10,"time_elapsed":317083,"internal_node_id":"0.0-4.0-1.1","subject_id":"5e2b922e32129c1ea324c7ae","study_id":"6197b3f67c2b5cd3b6d9596a","session_id":"619be58ebbd63e5b1a8add82","condition":"full-information","relevant_dimensions":["antennae","legs"],"bee_group":{"antennae":"A","wings":"X","pattern":"X","legs":"F"},"bonus":0.12000000000000001},{"rt":4459,"stimulus":"bees-with-color/bee-A2SM.svg","response":1,"trial_type":"image-button-response","trial_index":11,"time_elapsed":321545,"internal_node_id":"0.0-4.0-0.2","subject_id":"5e2b922e32129c1ea324c7ae","study_id":"6197b3f67c2b5cd3b6d9596a","session_id":"619be58ebbd63e5b1a8add82","condition":"full-information","relevant_dimensions":["antennae","legs"],"bee_group":{"antennae":"A","wings":"X","pattern":"X","legs":"F"},"action":"avoid","summary":"bad-avoid","bonus":0.12000000000000001},{"rt":14356,"stimulus":"\n                    <p><b>Action: <em>avoid</em></b></p>\n                    <p>This is the bee that you just saw.</p>\n                    <img src=\"bees-with-color/bee-A2SM.svg\" width=\"200\">\n                    <p><span class=\"redText\">Bad choice,</span> the bee was friendly.<br>Your bonus pay is unchanged, and remains at $0.58.</p>\n            ","response":0,"trial_type":"html-button-response","trial_index":12,"time_elapsed":335903,"internal_node_id":"0.0-4.0-1.2","subject_id":"5e2b922e32129c1ea324c7ae","study_id":"6197b3f67c2b5cd3b6d9596a","session_id":"619be58ebbd63e5b1a8add82","condition":"full-information","relevant_dimensions":["antennae","legs"],"bee_group":{"antennae":"A","wings":"X","pattern":"X","legs":"F"},"bonus":0.12000000000000001},{"rt":2633,"stimulus":"bees-with-color/bee-A1SF.svg","response":0,"trial_type":"image-button-response","trial_index":13,"time_elapsed":338536,"internal_node_id":"0.0-4.0-0.3","subject_id":"5e2b922e32129c1ea324c7ae","study_id":"6197b3f67c2b5cd3b6d9596a","session_id":"619be58ebbd63e5b1a8add82","condition":"full-information","relevant_dimensions":["antennae","legs"],"bee_group":{"antennae":"A","wings":"X","pattern":"X","legs":"F"},"action":"harvest","summary":"bad-harvest","bonus":0.12000000000000001},{"rt":5291,"stimulus":"\n                    <p><b>Action: <em>harvest</em></b></p>\n                    <p>This is the bee that you just saw.</p>\n                    <img src=\"bees-with-color/bee-A1SF.svg\" width=\"200\">\n                    <p><span class=\"redText\">Bad choice, the bee was angry.</span><br><b>You have been stung!</b><br>Your pay has been decreased by $0.10. Your bonus pay is now $0.48.</p>\n            ","response":0,"trial_type":"html-button-response","trial_index":14,"time_elapsed":343831,"internal_node_id":"0.0-4.0-1.3","subject_id":"5e2b922e32129c1ea324c7ae","study_id":"6197b3f67c2b5cd3b6d9596a","session_id":"619be58ebbd63e5b1a8add82","condition":"full-information","relevant_dimensions":["antennae","legs"],"bee_group":{"antennae":"A","wings":"X","pattern":"X","legs":"F"},"bonus":0.12000000000000001},{"rt":2174,"stimulus":"bees-with-color/bee-A1DM.svg","response":0,"trial_type":"image-button-response","trial_index":15,"time_elapsed":346008,"internal_node_id":"0.0-4.0-0.4","subject_id":"5e2b922e32129c1ea324c7ae","study_id":"6197b3f67c2b5cd3b6d9596a","session_id":"619be58ebbd63e5b1a8add82","condition":"full-information","relevant_dimensions":["antennae","legs"],"bee_group":{"antennae":"A","wings":"X","pattern":"X","legs":"F"},"action":"harvest","summary":"good-harvest","bonus":0.12000000000000001},{"rt":1621,"stimulus":"\n                    <p><b>Action: <em>harvest</em></b></p>\n                    <p>This is the bee that you just saw.</p>\n                    <img src=\"bees-with-color/bee-A1DM.svg\" width=\"200\">\n                    <p><span class=\"greenText\"><b>Successful harvest!</b></span><br>Your pay has increased by $0.02. Your bonus pay is now $0.50.</p>\n            ","response":0,"trial_type":"html-button-response","trial_index":16,"time_elapsed":347632,"internal_node_id":"0.0-4.0-1.4","subject_id":"5e2b922e32129c1ea324c7ae","study_id":"6197b3f67c2b5cd3b6d9596a","session_id":"619be58ebbd63e5b1a8add82","condition":"full-information","relevant_dimensions":["antennae","legs"],"bee_group":{"antennae":"A","wings":"X","pattern":"X","legs":"F"},"bonus":0.12000000000000001},{"rt":1984,"stimulus":"bees-with-color/bee-A2DM.svg","response":0,"trial_type":"image-button-response","trial_index":17,"time_elapsed":349618,"internal_node_id":"0.0-4.0-0.5","subject_id":"5e2b922e32129c1ea324c7ae","study_id":"6197b3f67c2b5cd3b6d9596a","session_id":"619be58ebbd63e5b1a8add82","condition":"full-information","relevant_dimensions":["antennae","legs"],"bee_group":{"antennae":"A","wings":"X","pattern":"X","legs":"F"},"action":"harvest","summary":"good-harvest","bonus":0.12000000000000001},{"rt":1402,"stimulus":"\n                    <p><b>Action: <em>harvest</em></b></p>\n                    <p>This is the bee that you just saw.</p>\n                    <img src=\"bees-with-color/bee-A2DM.svg\" width=\"200\">\n                    <p><span class=\"greenText\"><b>Successful harvest!</b></span><br>Your pay has increased by $0.02. Your bonus pay is now $0.52.</p>\n            ","response":0,"trial_type":"html-button-response","trial_index":18,"time_elapsed":351022,"internal_node_id":"0.0-4.0-1.5","subject_id":"5e2b922e32129c1ea324c7ae","study_id":"6197b3f67c2b5cd3b6d9596a","session_id":"619be58ebbd63e5b1a8add82","condition":"full-information","relevant_dimensions":["antennae","legs"],"bee_group":{"antennae":"A","wings":"X","pattern":"X","legs":"F"},"bonus":0.12000000000000001},{"rt":1936,"stimulus":"bees-with-color/bee-A1DF.svg","response":1,"trial_type":"image-button-response","trial_index":19,"time_elapsed":352961,"internal_node_id":"0.0-4.0-0.6","subject_id":"5e2b922e32129c1ea324c7ae","study_id":"6197b3f67c2b5cd3b6d9596a","session_id":"619be58ebbd63e5b1a8add82","condition":"full-information","relevant_dimensions":["antennae","legs"],"bee_group":{"antennae":"A","wings":"X","pattern":"X","legs":"F"},"action":"avoid","summary":"good-avoid","bonus":0.12000000000000001},{"rt":3031,"stimulus":"\n                    <p><b>Action: <em>avoid</em></b></p>\n                    <p>This is the bee that you just saw.</p>\n                    <img src=\"bees-with-color/bee-A1DF.svg\" width=\"200\">\n                    <p><span class=\"greenText\">Good choice!</span>  This bee would have stung you.<br>Your bonus pay is unchanged, and remains at $0.52.</p>\n            ","response":0,"trial_type":"html-button-response","trial_index":20,"time_elapsed":355995,"internal_node_id":"0.0-4.0-1.6","subject_id":"5e2b922e32129c1ea324c7ae","study_id":"6197b3f67c2b5cd3b6d9596a","session_id":"619be58ebbd63e5b1a8add82","condition":"full-information","relevant_dimensions":["antennae","legs"],"bee_group":{"antennae":"A","wings":"X","pattern":"X","legs":"F"},"bonus":0.12000000000000001},{"rt":85689,"stimulus":"bees-with-color/bee-B1DM.svg","response":0,"trial_type":"image-button-response","trial_index":21,"time_elapsed":441689,"internal_node_id":"0.0-4.0-0.7","subject_id":"5e2b922e32129c1ea324c7ae","study_id":"6197b3f67c2b5cd3b6d9596a","session_id":"619be58ebbd63e5b1a8add82","condition":"full-information","relevant_dimensions":["antennae","legs"],"bee_group":{"antennae":"A","wings":"X","pattern":"X","legs":"F"},"action":"harvest","summary":"good-harvest","bonus":0.12000000000000001},{"rt":2763,"stimulus":"\n                    <p><b>Action: <em>harvest</em></b></p>\n                    <p>This is the bee that you just saw.</p>\n                    <img src=\"bees-with-color/bee-B1DM.svg\" width=\"200\">\n                    <p><span class=\"greenText\"><b>Successful harvest!</b></span><br>Your pay has increased by $0.02. Your bonus pay is now $0.54.</p>\n            ","response":0,"trial_type":"html-button-response","trial_index":22,"time_elapsed":444454,"internal_node_id":"0.0-4.0-1.7","subject_id":"5e2b922e32129c1ea324c7ae","study_id":"6197b3f67c2b5cd3b6d9596a","session_id":"619be58ebbd63e5b1a8add82","condition":"full-information","relevant_dimensions":["antennae","legs"],"bee_group":{"antennae":"A","wings":"X","pattern":"X","legs":"F"},"bonus":0.12000000000000001},{"rt":1605,"stimulus":"bees-with-color/bee-B2SF.svg","response":1,"trial_type":"image-button-response","trial_index":23,"time_elapsed":446061,"internal_node_id":"0.0-4.0-0.8","subject_id":"5e2b922e32129c1ea324c7ae","study_id":"6197b3f67c2b5cd3b6d9596a","session_id":"619be58ebbd63e5b1a8add82","condition":"full-information","relevant_dimensions":["antennae","legs"],"bee_group":{"antennae":"A","wings":"X","pattern":"X","legs":"F"},"action":"avoid","summary":"bad-avoid","bonus":0.12000000000000001},{"rt":1551,"stimulus":"\n                    <p><b>Action: <em>avoid</em></b></p>\n                    <p>This is the bee that you just saw.</p>\n                    <img src=\"bees-with-color/bee-B2SF.svg\" width=\"200\">\n                    <p><span class=\"redText\">Bad choice,</span> the bee was friendly.<br>Your bonus pay is unchanged, and remains at $0.54.</p>\n            ","response":0,"trial_type":"html-button-response","trial_index":24,"time_elapsed":447614,"internal_node_id":"0.0-4.0-1.8","subject_id":"5e2b922e32129c1ea324c7ae","study_id":"6197b3f67c2b5cd3b6d9596a","session_id":"619be58ebbd63e5b1a8add82","condition":"full-information","relevant_dimensions":["antennae","legs"],"bee_group":{"antennae":"A","wings":"X","pattern":"X","legs":"F"},"bonus":0.12000000000000001},{"rt":1829,"stimulus":"bees-with-color/bee-A2DF.svg","response":1,"trial_type":"image-button-response","trial_index":25,"time_elapsed":449446,"internal_node_id":"0.0-4.0-0.9","subject_id":"5e2b922e32129c1ea324c7ae","study_id":"6197b3f67c2b5cd3b6d9596a","session_id":"619be58ebbd63e5b1a8add82","condition":"full-information","relevant_dimensions":["antennae","legs"],"bee_group":{"antennae":"A","wings":"X","pattern":"X","legs":"F"},"action":"avoid","summary":"good-avoid","bonus":0.12000000000000001},{"rt":1289,"stimulus":"\n                    <p><b>Action: <em>avoid</em></b></p>\n                    <p>This is the bee that you just saw.</p>\n                    <img src=\"bees-with-color/bee-A2DF.svg\" width=\"200\">\n                    <p><span class=\"greenText\">Good choice!</span>  This bee would have stung you.<br>Your bonus pay is unchanged, and remains at $0.54.</p>\n            ","response":0,"trial_type":"html-button-response","trial_index":26,"time_elapsed":450738,"internal_node_id":"0.0-4.0-1.9","subject_id":"5e2b922e32129c1ea324c7ae","study_id":"6197b3f67c2b5cd3b6d9596a","session_id":"619be58ebbd63e5b1a8add82","condition":"full-information","relevant_dimensions":["antennae","legs"],"bee_group":{"antennae":"A","wings":"X","pattern":"X","legs":"F"},"bonus":0.12000000000000001},{"rt":1627,"stimulus":"bees-with-color/bee-A1SM.svg","response":0,"trial_type":"image-button-response","trial_index":27,"time_elapsed":452368,"internal_node_id":"0.0-4.0-0.10","subject_id":"5e2b922e32129c1ea324c7ae","study_id":"6197b3f67c2b5cd3b6d9596a","session_id":"619be58ebbd63e5b1a8add82","condition":"full-information","relevant_dimensions":["antennae","legs"],"bee_group":{"antennae":"A","wings":"X","pattern":"X","legs":"F"},"action":"harvest","summary":"good-harvest","bonus":0.12000000000000001},{"rt":1828,"stimulus":"\n                    <p><b>Action: <em>harvest</em></b></p>\n                    <p>This is the bee that you just saw.</p>\n                    <img src=\"bees-with-color/bee-A1SM.svg\" width=\"200\">\n                    <p><span class=\"greenText\"><b>Successful harvest!</b></span><br>Your pay has increased by $0.02. Your bonus pay is now $0.56.</p>\n            ","response":0,"trial_type":"html-button-response","trial_index":28,"time_elapsed":454199,"internal_node_id":"0.0-4.0-1.10","subject_id":"5e2b922e32129c1ea324c7ae","study_id":"6197b3f67c2b5cd3b6d9596a","session_id":"619be58ebbd63e5b1a8add82","condition":"full-information","relevant_dimensions":["antennae","legs"],"bee_group":{"antennae":"A","wings":"X","pattern":"X","legs":"F"},"bonus":0.12000000000000001},{"rt":1626,"stimulus":"bees-with-color/bee-A2SF.svg","response":0,"trial_type":"image-button-response","trial_index":29,"time_elapsed":455828,"internal_node_id":"0.0-4.0-0.11","subject_id":"5e2b922e32129c1ea324c7ae","study_id":"6197b3f67c2b5cd3b6d9596a","session_id":"619be58ebbd63e5b1a8add82","condition":"full-information","relevant_dimensions":["antennae","legs"],"bee_group":{"antennae":"A","wings":"X","pattern":"X","legs":"F"},"action":"harvest","summary":"bad-harvest","bonus":0.12000000000000001},{"rt":2652,"stimulus":"\n                    <p><b>Action: <em>harvest</em></b></p>\n                    <p>This is the bee that you just saw.</p>\n                    <img src=\"bees-with-color/bee-A2SF.svg\" width=\"200\">\n                    <p><span class=\"redText\">Bad choice, the bee was angry.</span><br><b>You have been stung!</b><br>Your pay has been decreased by $0.10. Your bonus pay is now $0.46.</p>\n            ","response":0,"trial_type":"html-button-response","trial_index":30,"time_elapsed":458482,"internal_node_id":"0.0-4.0-1.11","subject_id":"5e2b922e32129c1ea324c7ae","study_id":"6197b3f67c2b5cd3b6d9596a","session_id":"619be58ebbd63e5b1a8add82","condition":"full-information","relevant_dimensions":["antennae","legs"],"bee_group":{"antennae":"A","wings":"X","pattern":"X","legs":"F"},"bonus":0.12000000000000001},{"rt":2251,"stimulus":"bees-with-color/bee-B2DM.svg","response":1,"trial_type":"image-button-response","trial_index":31,"time_elapsed":460735,"internal_node_id":"0.0-4.0-0.12","subject_id":"5e2b922e32129c1ea324c7ae","study_id":"6197b3f67c2b5cd3b6d9596a","session_id":"619be58ebbd63e5b1a8add82","condition":"full-information","relevant_dimensions":["antennae","legs"],"bee_group":{"antennae":"A","wings":"X","pattern":"X","legs":"F"},"action":"avoid","summary":"bad-avoid","bonus":0.12000000000000001},{"rt":1227,"stimulus":"\n                    <p><b>Action: <em>avoid</em></b></p>\n                    <p>This is the bee that you just saw.</p>\n                    <img src=\"bees-with-color/bee-B2DM.svg\" width=\"200\">\n                    <p><span class=\"redText\">Bad choice,</span> the bee was friendly.<br>Your bonus pay is unchanged, and remains at $0.46.</p>\n            ","response":0,"trial_type":"html-button-response","trial_index":32,"time_elapsed":461965,"internal_node_id":"0.0-4.0-1.12","subject_id":"5e2b922e32129c1ea324c7ae","study_id":"6197b3f67c2b5cd3b6d9596a","session_id":"619be58ebbd63e5b1a8add82","condition":"full-information","relevant_dimensions":["antennae","legs"],"bee_group":{"antennae":"A","wings":"X","pattern":"X","legs":"F"},"bonus":0.12000000000000001},{"rt":1380,"stimulus":"bees-with-color/bee-B1SM.svg","response":0,"trial_type":"image-button-response","trial_index":33,"time_elapsed":463347,"internal_node_id":"0.0-4.0-0.13","subject_id":"5e2b922e32129c1ea324c7ae","study_id":"6197b3f67c2b5cd3b6d9596a","session_id":"619be58ebbd63e5b1a8add82","condition":"full-information","relevant_dimensions":["antennae","legs"],"bee_group":{"antennae":"A","wings":"X","pattern":"X","legs":"F"},"action":"harvest","summary":"good-harvest","bonus":0.12000000000000001},{"rt":1274,"stimulus":"\n                    <p><b>Action: <em>harvest</em></b></p>\n                    <p>This is the bee that you just saw.</p>\n                    <img src=\"bees-with-color/bee-B1SM.svg\" width=\"200\">\n                    <p><span class=\"greenText\"><b>Successful harvest!</b></span><br>Your pay has increased by $0.02. Your bonus pay is now $0.48.</p>\n            ","response":0,"trial_type":"html-button-response","trial_index":34,"time_elapsed":464624,"internal_node_id":"0.0-4.0-1.13","subject_id":"5e2b922e32129c1ea324c7ae","study_id":"6197b3f67c2b5cd3b6d9596a","session_id":"619be58ebbd63e5b1a8add82","condition":"full-information","relevant_dimensions":["antennae","legs"],"bee_group":{"antennae":"A","wings":"X","pattern":"X","legs":"F"},"bonus":0.12000000000000001},{"rt":1142,"stimulus":"bees-with-color/bee-B2SM.svg","response":0,"trial_type":"image-button-response","trial_index":35,"time_elapsed":465769,"internal_node_id":"0.0-4.0-0.14","subject_id":"5e2b922e32129c1ea324c7ae","study_id":"6197b3f67c2b5cd3b6d9596a","session_id":"619be58ebbd63e5b1a8add82","condition":"full-information","relevant_dimensions":["antennae","legs"],"bee_group":{"antennae":"A","wings":"X","pattern":"X","legs":"F"},"action":"harvest","summary":"good-harvest","bonus":0.12000000000000001},{"rt":1474,"stimulus":"\n                    <p><b>Action: <em>harvest</em></b></p>\n                    <p>This is the bee that you just saw.</p>\n                    <img src=\"bees-with-color/bee-B2SM.svg\" width=\"200\">\n                    <p><span class=\"greenText\"><b>Successful harvest!</b></span><br>Your pay has increased by $0.02. Your bonus pay is now $0.50.</p>\n            ","response":0,"trial_type":"html-button-response","trial_index":36,"time_elapsed":467244,"internal_node_id":"0.0-4.0-1.14","subject_id":"5e2b922e32129c1ea324c7ae","study_id":"6197b3f67c2b5cd3b6d9596a","session_id":"619be58ebbd63e5b1a8add82","condition":"full-information","relevant_dimensions":["antennae","legs"],"bee_group":{"antennae":"A","wings":"X","pattern":"X","legs":"F"},"bonus":0.12000000000000001},{"rt":3066,"stimulus":"bees-with-color/bee-B2DF.svg","response":1,"trial_type":"image-button-response","trial_index":37,"time_elapsed":470312,"internal_node_id":"0.0-4.0-0.15","subject_id":"5e2b922e32129c1ea324c7ae","study_id":"6197b3f67c2b5cd3b6d9596a","session_id":"619be58ebbd63e5b1a8add82","condition":"full-information","relevant_dimensions":["antennae","legs"],"bee_group":{"antennae":"A","wings":"X","pattern":"X","legs":"F"},"action":"avoid","summary":"bad-avoid","bonus":0.12000000000000001},{"rt":1104,"stimulus":"\n                    <p><b>Action: <em>avoid</em></b></p>\n                    <p>This is the bee that you just saw.</p>\n                    <img src=\"bees-with-color/bee-B2DF.svg\" width=\"200\">\n                    <p><span class=\"redText\">Bad choice,</span> the bee was friendly.<br>Your bonus pay is unchanged, and remains at $0.50.</p>\n            ","response":0,"trial_type":"html-button-response","trial_index":38,"time_elapsed":471417,"internal_node_id":"0.0-4.0-1.15","subject_id":"5e2b922e32129c1ea324c7ae","study_id":"6197b3f67c2b5cd3b6d9596a","session_id":"619be58ebbd63e5b1a8add82","condition":"full-information","relevant_dimensions":["antennae","legs"],"bee_group":{"antennae":"A","wings":"X","pattern":"X","legs":"F"},"bonus":0.12000000000000001},{"rt":1355,"stimulus":"bees-with-color/bee-B1SM.svg","response":0,"trial_type":"image-button-response","trial_index":39,"time_elapsed":472773,"internal_node_id":"0.0-4.0-0.16","subject_id":"5e2b922e32129c1ea324c7ae","study_id":"6197b3f67c2b5cd3b6d9596a","session_id":"619be58ebbd63e5b1a8add82","condition":"full-information","relevant_dimensions":["antennae","legs"],"bee_group":{"antennae":"A","wings":"X","pattern":"X","legs":"F"},"action":"harvest","summary":"good-harvest","bonus":0.12000000000000001},{"rt":1169,"stimulus":"\n                    <p><b>Action: <em>harvest</em></b></p>\n                    <p>This is the bee that you just saw.</p>\n                    <img src=\"bees-with-color/bee-B1SM.svg\" width=\"200\">\n                    <p><span class=\"greenText\"><b>Successful harvest!</b></span><br>Your pay has increased by $0.02. Your bonus pay is now $0.52.</p>\n            ","response":0,"trial_type":"html-button-response","trial_index":40,"time_elapsed":473947,"internal_node_id":"0.0-4.0-1.16","subject_id":"5e2b922e32129c1ea324c7ae","study_id":"6197b3f67c2b5cd3b6d9596a","session_id":"619be58ebbd63e5b1a8add82","condition":"full-information","relevant_dimensions":["antennae","legs"],"bee_group":{"antennae":"A","wings":"X","pattern":"X","legs":"F"},"bonus":0.12000000000000001},{"rt":1249,"stimulus":"bees-with-color/bee-B1SF.svg","response":0,"trial_type":"image-button-response","trial_index":41,"time_elapsed":475198,"internal_node_id":"0.0-4.0-0.17","subject_id":"5e2b922e32129c1ea324c7ae","study_id":"6197b3f67c2b5cd3b6d9596a","session_id":"619be58ebbd63e5b1a8add82","condition":"full-information","relevant_dimensions":["antennae","legs"],"bee_group":{"antennae":"A","wings":"X","pattern":"X","legs":"F"},"action":"harvest","summary":"good-harvest","bonus":0.12000000000000001},{"rt":898,"stimulus":"\n                    <p><b>Action: <em>harvest</em></b></p>\n                    <p>This is the bee that you just saw.</p>\n                    <img src=\"bees-with-color/bee-B1SF.svg\" width=\"200\">\n                    <p><span class=\"greenText\"><b>Successful harvest!</b></span><br>Your pay has increased by $0.02. Your bonus pay is now $0.54.</p>\n            ","response":0,"trial_type":"html-button-response","trial_index":42,"time_elapsed":476098,"internal_node_id":"0.0-4.0-1.17","subject_id":"5e2b922e32129c1ea324c7ae","study_id":"6197b3f67c2b5cd3b6d9596a","session_id":"619be58ebbd63e5b1a8add82","condition":"full-information","relevant_dimensions":["antennae","legs"],"bee_group":{"antennae":"A","wings":"X","pattern":"X","legs":"F"},"bonus":0.12000000000000001},{"rt":1467,"stimulus":"bees-with-color/bee-A2DF.svg","response":0,"trial_type":"image-button-response","trial_index":43,"time_elapsed":477566,"internal_node_id":"0.0-4.0-0.18","subject_id":"5e2b922e32129c1ea324c7ae","study_id":"6197b3f67c2b5cd3b6d9596a","session_id":"619be58ebbd63e5b1a8add82","condition":"full-information","relevant_dimensions":["antennae","legs"],"bee_group":{"antennae":"A","wings":"X","pattern":"X","legs":"F"},"action":"harvest","summary":"bad-harvest","bonus":0.12000000000000001},{"rt":1065,"stimulus":"\n                    <p><b>Action: <em>harvest</em></b></p>\n                    <p>This is the bee that you just saw.</p>\n                    <img src=\"bees-with-color/bee-A2DF.svg\" width=\"200\">\n                    <p><span class=\"redText\">Bad choice, the bee was angry.</span><br><b>You have been stung!</b><br>Your pay has been decreased by $0.10. Your bonus pay is now $0.44.</p>\n            ","response":0,"trial_type":"html-button-response","trial_index":44,"time_elapsed":478635,"internal_node_id":"0.0-4.0-1.18","subject_id":"5e2b922e32129c1ea324c7ae","study_id":"6197b3f67c2b5cd3b6d9596a","session_id":"619be58ebbd63e5b1a8add82","condition":"full-information","relevant_dimensions":["antennae","legs"],"bee_group":{"antennae":"A","wings":"X","pattern":"X","legs":"F"},"bonus":0.12000000000000001},{"rt":1216,"stimulus":"bees-with-color/bee-B2SF.svg","response":1,"trial_type":"image-button-response","trial_index":45,"time_elapsed":479852,"internal_node_id":"0.0-4.0-0.19","subject_id":"5e2b922e32129c1ea324c7ae","study_id":"6197b3f67c2b5cd3b6d9596a","session_id":"619be58ebbd63e5b1a8add82","condition":"full-information","relevant_dimensions":["antennae","legs"],"bee_group":{"antennae":"A","wings":"X","pattern":"X","legs":"F"},"action":"avoid","summary":"bad-avoid","bonus":0.12000000000000001},{"rt":985,"stimulus":"\n                    <p><b>Action: <em>avoid</em></b></p>\n                    <p>This is the bee that you just saw.</p>\n                    <img src=\"bees-with-color/bee-B2SF.svg\" width=\"200\">\n                    <p><span class=\"redText\">Bad choice,</span> the bee was friendly.<br>Your bonus pay is unchanged, and remains at $0.44.</p>\n            ","response":0,"trial_type":"html-button-response","trial_index":46,"time_elapsed":480839,"internal_node_id":"0.0-4.0-1.19","subject_id":"5e2b922e32129c1ea324c7ae","study_id":"6197b3f67c2b5cd3b6d9596a","session_id":"619be58ebbd63e5b1a8add82","condition":"full-information","relevant_dimensions":["antennae","legs"],"bee_group":{"antennae":"A","wings":"X","pattern":"X","legs":"F"},"bonus":0.12000000000000001},{"rt":1416,"stimulus":"bees-with-color/bee-B1DF.svg","response":0,"trial_type":"image-button-response","trial_index":47,"time_elapsed":482256,"internal_node_id":"0.0-4.0-0.20","subject_id":"5e2b922e32129c1ea324c7ae","study_id":"6197b3f67c2b5cd3b6d9596a","session_id":"619be58ebbd63e5b1a8add82","condition":"full-information","relevant_dimensions":["antennae","legs"],"bee_group":{"antennae":"A","wings":"X","pattern":"X","legs":"F"},"action":"harvest","summary":"good-harvest","bonus":0.12000000000000001},{"rt":824,"stimulus":"\n                    <p><b>Action: <em>harvest</em></b></p>\n                    <p>This is the bee that you just saw.</p>\n                    <img src=\"bees-with-color/bee-B1DF.svg\" width=\"200\">\n                    <p><span class=\"greenText\"><b>Successful harvest!</b></span><br>Your pay has increased by $0.02. Your bonus pay is now $0.46.</p>\n            ","response":0,"trial_type":"html-button-response","trial_index":48,"time_elapsed":483083,"internal_node_id":"0.0-4.0-1.20","subject_id":"5e2b922e32129c1ea324c7ae","study_id":"6197b3f67c2b5cd3b6d9596a","session_id":"619be58ebbd63e5b1a8add82","condition":"full-information","relevant_dimensions":["antennae","legs"],"bee_group":{"antennae":"A","wings":"X","pattern":"X","legs":"F"},"bonus":0.12000000000000001},{"rt":1177,"stimulus":"bees-with-color/bee-A2SM.svg","response":0,"trial_type":"image-button-response","trial_index":49,"time_elapsed":484261,"internal_node_id":"0.0-4.0-0.21","subject_id":"5e2b922e32129c1ea324c7ae","study_id":"6197b3f67c2b5cd3b6d9596a","session_id":"619be58ebbd63e5b1a8add82","condition":"full-information","relevant_dimensions":["antennae","legs"],"bee_group":{"antennae":"A","wings":"X","pattern":"X","legs":"F"},"action":"harvest","summary":"good-harvest","bonus":0.12000000000000001},{"rt":911,"stimulus":"\n                    <p><b>Action: <em>harvest</em></b></p>\n                    <p>This is the bee that you just saw.</p>\n                    <img src=\"bees-with-color/bee-A2SM.svg\" width=\"200\">\n                    <p><span class=\"greenText\"><b>Successful harvest!</b></span><br>Your pay has increased by $0.02. Your bonus pay is now $0.48.</p>\n            ","response":0,"trial_type":"html-button-response","trial_index":50,"time_elapsed":485177,"internal_node_id":"0.0-4.0-1.21","subject_id":"5e2b922e32129c1ea324c7ae","study_id":"6197b3f67c2b5cd3b6d9596a","session_id":"619be58ebbd63e5b1a8add82","condition":"full-information","relevant_dimensions":["antennae","legs"],"bee_group":{"antennae":"A","wings":"X","pattern":"X","legs":"F"},"bonus":0.12000000000000001},{"rt":2223,"stimulus":"bees-with-color/bee-A1DF.svg","response":1,"trial_type":"image-button-response","trial_index":51,"time_elapsed":487402,"internal_node_id":"0.0-4.0-0.22","subject_id":"5e2b922e32129c1ea324c7ae","study_id":"6197b3f67c2b5cd3b6d9596a","session_id":"619be58ebbd63e5b1a8add82","condition":"full-information","relevant_dimensions":["antennae","legs"],"bee_group":{"antennae":"A","wings":"X","pattern":"X","legs":"F"},"action":"avoid","summary":"good-avoid","bonus":0.12000000000000001},{"rt":1034,"stimulus":"\n                    <p><b>Action: <em>avoid</em></b></p>\n                    <p>This is the bee that you just saw.</p>\n                    <img src=\"bees-with-color/bee-A1DF.svg\" width=\"200\">\n                    <p><span class=\"greenText\">Good choice!</span>  This bee would have stung you.<br>Your bonus pay is unchanged, and remains at $0.48.</p>\n            ","response":0,"trial_type":"html-button-response","trial_index":52,"time_elapsed":488437,"internal_node_id":"0.0-4.0-1.22","subject_id":"5e2b922e32129c1ea324c7ae","study_id":"6197b3f67c2b5cd3b6d9596a","session_id":"619be58ebbd63e5b1a8add82","condition":"full-information","relevant_dimensions":["antennae","legs"],"bee_group":{"antennae":"A","wings":"X","pattern":"X","legs":"F"},"bonus":0.12000000000000001},{"rt":1353,"stimulus":"bees-with-color/bee-B1DM.svg","response":0,"trial_type":"image-button-response","trial_index":53,"time_elapsed":489793,"internal_node_id":"0.0-4.0-0.23","subject_id":"5e2b922e32129c1ea324c7ae","study_id":"6197b3f67c2b5cd3b6d9596a","session_id":"619be58ebbd63e5b1a8add82","condition":"full-information","relevant_dimensions":["antennae","legs"],"bee_group":{"antennae":"A","wings":"X","pattern":"X","legs":"F"},"action":"harvest","summary":"good-harvest","bonus":0.12000000000000001},{"rt":1778,"stimulus":"\n                    <p><b>Action: <em>harvest</em></b></p>\n                    <p>This is the bee that you just saw.</p>\n                    <img src=\"bees-with-color/bee-B1DM.svg\" width=\"200\">\n                    <p><span class=\"greenText\"><b>Successful harvest!</b></span><br>Your pay has increased by $0.02. Your bonus pay is now $0.50.</p>\n            ","response":0,"trial_type":"html-button-response","trial_index":54,"time_elapsed":491573,"internal_node_id":"0.0-4.0-1.23","subject_id":"5e2b922e32129c1ea324c7ae","study_id":"6197b3f67c2b5cd3b6d9596a","session_id":"619be58ebbd63e5b1a8add82","condition":"full-information","relevant_dimensions":["antennae","legs"],"bee_group":{"antennae":"A","wings":"X","pattern":"X","legs":"F"},"bonus":0.12000000000000001},{"rt":4234,"stimulus":"bees-with-color/bee-A2SF.svg","response":1,"trial_type":"image-button-response","trial_index":55,"time_elapsed":495809,"internal_node_id":"0.0-4.0-0.24","subject_id":"5e2b922e32129c1ea324c7ae","study_id":"6197b3f67c2b5cd3b6d9596a","session_id":"619be58ebbd63e5b1a8add82","condition":"full-information","relevant_dimensions":["antennae","legs"],"bee_group":{"antennae":"A","wings":"X","pattern":"X","legs":"F"},"action":"avoid","summary":"good-avoid","bonus":0.12000000000000001},{"rt":2430,"stimulus":"\n                    <p><b>Action: <em>avoid</em></b></p>\n                    <p>This is the bee that you just saw.</p>\n                    <img src=\"bees-with-color/bee-A2SF.svg\" width=\"200\">\n                    <p><span class=\"greenText\">Good choice!</span>  This bee would have stung you.<br>Your bonus pay is unchanged, and remains at $0.50.</p>\n            ","response":0,"trial_type":"html-button-response","trial_index":56,"time_elapsed":498242,"internal_node_id":"0.0-4.0-1.24","subject_id":"5e2b922e32129c1ea324c7ae","study_id":"6197b3f67c2b5cd3b6d9596a","session_id":"619be58ebbd63e5b1a8add82","condition":"full-information","relevant_dimensions":["antennae","legs"],"bee_group":{"antennae":"A","wings":"X","pattern":"X","legs":"F"},"bonus":0.12000000000000001},{"rt":1697,"stimulus":"bees-with-color/bee-A1SF.svg","response":1,"trial_type":"image-button-response","trial_index":57,"time_elapsed":499941,"internal_node_id":"0.0-4.0-0.25","subject_id":"5e2b922e32129c1ea324c7ae","study_id":"6197b3f67c2b5cd3b6d9596a","session_id":"619be58ebbd63e5b1a8add82","condition":"full-information","relevant_dimensions":["antennae","legs"],"bee_group":{"antennae":"A","wings":"X","pattern":"X","legs":"F"},"action":"avoid","summary":"good-avoid","bonus":0.12000000000000001},{"rt":1004,"stimulus":"\n                    <p><b>Action: <em>avoid</em></b></p>\n                    <p>This is the bee that you just saw.</p>\n                    <img src=\"bees-with-color/bee-A1SF.svg\" width=\"200\">\n                    <p><span class=\"greenText\">Good choice!</span>  This bee would have stung you.<br>Your bonus pay is unchanged, and remains at $0.50.</p>\n            ","response":0,"trial_type":"html-button-response","trial_index":58,"time_elapsed":500948,"internal_node_id":"0.0-4.0-1.25","subject_id":"5e2b922e32129c1ea324c7ae","study_id":"6197b3f67c2b5cd3b6d9596a","session_id":"619be58ebbd63e5b1a8add82","condition":"full-information","relevant_dimensions":["antennae","legs"],"bee_group":{"antennae":"A","wings":"X","pattern":"X","legs":"F"},"bonus":0.12000000000000001},{"rt":1065,"stimulus":"bees-with-color/bee-A1SM.svg","response":0,"trial_type":"image-button-response","trial_index":59,"time_elapsed":502015,"internal_node_id":"0.0-4.0-0.26","subject_id":"5e2b922e32129c1ea324c7ae","study_id":"6197b3f67c2b5cd3b6d9596a","session_id":"619be58ebbd63e5b1a8add82","condition":"full-information","relevant_dimensions":["antennae","legs"],"bee_group":{"antennae":"A","wings":"X","pattern":"X","legs":"F"},"action":"harvest","summary":"good-harvest","bonus":0.12000000000000001},{"rt":779,"stimulus":"\n                    <p><b>Action: <em>harvest</em></b></p>\n                    <p>This is the bee that you just saw.</p>\n                    <img src=\"bees-with-color/bee-A1SM.svg\" width=\"200\">\n                    <p><span class=\"greenText\"><b>Successful harvest!</b></span><br>Your pay has increased by $0.02. Your bonus pay is now $0.52.</p>\n            ","response":0,"trial_type":"html-button-response","trial_index":60,"time_elapsed":502795,"internal_node_id":"0.0-4.0-1.26","subject_id":"5e2b922e32129c1ea324c7ae","study_id":"6197b3f67c2b5cd3b6d9596a","session_id":"619be58ebbd63e5b1a8add82","condition":"full-information","relevant_dimensions":["antennae","legs"],"bee_group":{"antennae":"A","wings":"X","pattern":"X","legs":"F"},"bonus":0.12000000000000001},{"rt":1388,"stimulus":"bees-with-color/bee-B2SM.svg","response":0,"trial_type":"image-button-response","trial_index":61,"time_elapsed":504185,"internal_node_id":"0.0-4.0-0.27","subject_id":"5e2b922e32129c1ea324c7ae","study_id":"6197b3f67c2b5cd3b6d9596a","session_id":"619be58ebbd63e5b1a8add82","condition":"full-information","relevant_dimensions":["antennae","legs"],"bee_group":{"antennae":"A","wings":"X","pattern":"X","legs":"F"},"action":"harvest","summary":"good-harvest","bonus":0.12000000000000001},{"rt":764,"stimulus":"\n                    <p><b>Action: <em>harvest</em></b></p>\n                    <p>This is the bee that you just saw.</p>\n                    <img src=\"bees-with-color/bee-B2SM.svg\" width=\"200\">\n                    <p><span class=\"greenText\"><b>Successful harvest!</b></span><br>Your pay has increased by $0.02. Your bonus pay is now $0.54.</p>\n            ","response":0,"trial_type":"html-button-response","trial_index":62,"time_elapsed":504952,"internal_node_id":"0.0-4.0-1.27","subject_id":"5e2b922e32129c1ea324c7ae","study_id":"6197b3f67c2b5cd3b6d9596a","session_id":"619be58ebbd63e5b1a8add82","condition":"full-information","relevant_dimensions":["antennae","legs"],"bee_group":{"antennae":"A","wings":"X","pattern":"X","legs":"F"},"bonus":0.12000000000000001},{"rt":1050,"stimulus":"bees-with-color/bee-B2DM.svg","response":0,"trial_type":"image-button-response","trial_index":63,"time_elapsed":506006,"internal_node_id":"0.0-4.0-0.28","subject_id":"5e2b922e32129c1ea324c7ae","study_id":"6197b3f67c2b5cd3b6d9596a","session_id":"619be58ebbd63e5b1a8add82","condition":"full-information","relevant_dimensions":["antennae","legs"],"bee_group":{"antennae":"A","wings":"X","pattern":"X","legs":"F"},"action":"harvest","summary":"good-harvest","bonus":0.12000000000000001},{"rt":683,"stimulus":"\n                    <p><b>Action: <em>harvest</em></b></p>\n                    <p>This is the bee that you just saw.</p>\n                    <img src=\"bees-with-color/bee-B2DM.svg\" width=\"200\">\n                    <p><span class=\"greenText\"><b>Successful harvest!</b></span><br>Your pay has increased by $0.02. Your bonus pay is now $0.56.</p>\n            ","response":0,"trial_type":"html-button-response","trial_index":64,"time_elapsed":506691,"internal_node_id":"0.0-4.0-1.28","subject_id":"5e2b922e32129c1ea324c7ae","study_id":"6197b3f67c2b5cd3b6d9596a","session_id":"619be58ebbd63e5b1a8add82","condition":"full-information","relevant_dimensions":["antennae","legs"],"bee_group":{"antennae":"A","wings":"X","pattern":"X","legs":"F"},"bonus":0.12000000000000001},{"rt":1803,"stimulus":"bees-with-color/bee-B2DF.svg","response":1,"trial_type":"image-button-response","trial_index":65,"time_elapsed":508496,"internal_node_id":"0.0-4.0-0.29","subject_id":"5e2b922e32129c1ea324c7ae","study_id":"6197b3f67c2b5cd3b6d9596a","session_id":"619be58ebbd63e5b1a8add82","condition":"full-information","relevant_dimensions":["antennae","legs"],"bee_group":{"antennae":"A","wings":"X","pattern":"X","legs":"F"},"action":"avoid","summary":"bad-avoid","bonus":0.12000000000000001},{"rt":877,"stimulus":"\n                    <p><b>Action: <em>avoid</em></b></p>\n                    <p>This is the bee that you just saw.</p>\n                    <img src=\"bees-with-color/bee-B2DF.svg\" width=\"200\">\n                    <p><span class=\"redText\">Bad choice,</span> the bee was friendly.<br>Your bonus pay is unchanged, and remains at $0.56.</p>\n            ","response":0,"trial_type":"html-button-response","trial_index":66,"time_elapsed":509374,"internal_node_id":"0.0-4.0-1.29","subject_id":"5e2b922e32129c1ea324c7ae","study_id":"6197b3f67c2b5cd3b6d9596a","session_id":"619be58ebbd63e5b1a8add82","condition":"full-information","relevant_dimensions":["antennae","legs"],"bee_group":{"antennae":"A","wings":"X","pattern":"X","legs":"F"},"bonus":0.12000000000000001},{"rt":2867,"stimulus":"bees-with-color/bee-A2DM.svg","response":0,"trial_type":"image-button-response","trial_index":67,"time_elapsed":512243,"internal_node_id":"0.0-4.0-0.30","subject_id":"5e2b922e32129c1ea324c7ae","study_id":"6197b3f67c2b5cd3b6d9596a","session_id":"619be58ebbd63e5b1a8add82","condition":"full-information","relevant_dimensions":["antennae","legs"],"bee_group":{"antennae":"A","wings":"X","pattern":"X","legs":"F"},"action":"harvest","summary":"good-harvest","bonus":0.12000000000000001},{"rt":734,"stimulus":"\n                    <p><b>Action: <em>harvest</em></b></p>\n                    <p>This is the bee that you just saw.</p>\n                    <img src=\"bees-with-color/bee-A2DM.svg\" width=\"200\">\n                    <p><span class=\"greenText\"><b>Successful harvest!</b></span><br>Your pay has increased by $0.02. Your bonus pay is now $0.58.</p>\n            ","response":0,"trial_type":"html-button-response","trial_index":68,"time_elapsed":512979,"internal_node_id":"0.0-4.0-1.30","subject_id":"5e2b922e32129c1ea324c7ae","study_id":"6197b3f67c2b5cd3b6d9596a","session_id":"619be58ebbd63e5b1a8add82","condition":"full-information","relevant_dimensions":["antennae","legs"],"bee_group":{"antennae":"A","wings":"X","pattern":"X","legs":"F"},"bonus":0.12000000000000001},{"rt":1275,"stimulus":"bees-with-color/bee-A1DM.svg","response":0,"trial_type":"image-button-response","trial_index":69,"time_elapsed":514255,"internal_node_id":"0.0-4.0-0.31","subject_id":"5e2b922e32129c1ea324c7ae","study_id":"6197b3f67c2b5cd3b6d9596a","session_id":"619be58ebbd63e5b1a8add82","condition":"full-information","relevant_dimensions":["antennae","legs"],"bee_group":{"antennae":"A","wings":"X","pattern":"X","legs":"F"},"action":"harvest","summary":"good-harvest","bonus":0.12000000000000001},{"rt":762,"stimulus":"\n                    <p><b>Action: <em>harvest</em></b></p>\n                    <p>This is the bee that you just saw.</p>\n                    <img src=\"bees-with-color/bee-A1DM.svg\" width=\"200\">\n                    <p><span class=\"greenText\"><b>Successful harvest!</b></span><br>Your pay has increased by $0.02. Your bonus pay is now $0.60.</p>\n            ","response":0,"trial_type":"html-button-response","trial_index":70,"time_elapsed":515021,"internal_node_id":"0.0-4.0-1.31","subject_id":"5e2b922e32129c1ea324c7ae","study_id":"6197b3f67c2b5cd3b6d9596a","session_id":"619be58ebbd63e5b1a8add82","condition":"full-information","relevant_dimensions":["antennae","legs"],"bee_group":{"antennae":"A","wings":"X","pattern":"X","legs":"F"},"bonus":0.12000000000000001},{"rt":1088,"stimulus":"bees-with-color/bee-B1SF.svg","response":1,"trial_type":"image-button-response","trial_index":71,"time_elapsed":516111,"internal_node_id":"0.0-4.0-0.32","subject_id":"5e2b922e32129c1ea324c7ae","study_id":"6197b3f67c2b5cd3b6d9596a","session_id":"619be58ebbd63e5b1a8add82","condition":"full-information","relevant_dimensions":["antennae","legs"],"bee_group":{"antennae":"A","wings":"X","pattern":"X","legs":"F"},"action":"avoid","summary":"bad-avoid","bonus":0.12000000000000001},{"rt":898,"stimulus":"\n                    <p><b>Action: <em>avoid</em></b></p>\n                    <p>This is the bee that you just saw.</p>\n                    <img src=\"bees-with-color/bee-B1SF.svg\" width=\"200\">\n                    <p><span class=\"redText\">Bad choice,</span> the bee was friendly.<br>Your bonus pay is unchanged, and remains at $0.60.</p>\n            ","response":0,"trial_type":"html-button-response","trial_index":72,"time_elapsed":517011,"internal_node_id":"0.0-4.0-1.32","subject_id":"5e2b922e32129c1ea324c7ae","study_id":"6197b3f67c2b5cd3b6d9596a","session_id":"619be58ebbd63e5b1a8add82","condition":"full-information","relevant_dimensions":["antennae","legs"],"bee_group":{"antennae":"A","wings":"X","pattern":"X","legs":"F"},"bonus":0.12000000000000001},{"rt":1068,"stimulus":"bees-with-color/bee-A1SM.svg","response":0,"trial_type":"image-button-response","trial_index":73,"time_elapsed":518080,"internal_node_id":"0.0-4.0-0.33","subject_id":"5e2b922e32129c1ea324c7ae","study_id":"6197b3f67c2b5cd3b6d9596a","session_id":"619be58ebbd63e5b1a8add82","condition":"full-information","relevant_dimensions":["antennae","legs"],"bee_group":{"antennae":"A","wings":"X","pattern":"X","legs":"F"},"action":"harvest","summary":"good-harvest","bonus":0.12000000000000001},{"rt":900,"stimulus":"\n                    <p><b>Action: <em>harvest</em></b></p>\n                    <p>This is the bee that you just saw.</p>\n                    <img src=\"bees-with-color/bee-A1SM.svg\" width=\"200\">\n                    <p><span class=\"greenText\"><b>Successful harvest!</b></span><br>Your pay has increased by $0.02. Your bonus pay is now $0.62.</p>\n            ","response":0,"trial_type":"html-button-response","trial_index":74,"time_elapsed":518982,"internal_node_id":"0.0-4.0-1.33","subject_id":"5e2b922e32129c1ea324c7ae","study_id":"6197b3f67c2b5cd3b6d9596a","session_id":"619be58ebbd63e5b1a8add82","condition":"full-information","relevant_dimensions":["antennae","legs"],"bee_group":{"antennae":"A","wings":"X","pattern":"X","legs":"F"},"bonus":0.12000000000000001},{"rt":1167,"stimulus":"bees-with-color/bee-B1SM.svg","response":0,"trial_type":"image-button-response","trial_index":75,"time_elapsed":520152,"internal_node_id":"0.0-4.0-0.34","subject_id":"5e2b922e32129c1ea324c7ae","study_id":"6197b3f67c2b5cd3b6d9596a","session_id":"619be58ebbd63e5b1a8add82","condition":"full-information","relevant_dimensions":["antennae","legs"],"bee_group":{"antennae":"A","wings":"X","pattern":"X","legs":"F"},"action":"harvest","summary":"good-harvest","bonus":0.12000000000000001},{"rt":876,"stimulus":"\n                    <p><b>Action: <em>harvest</em></b></p>\n                    <p>This is the bee that you just saw.</p>\n                    <img src=\"bees-with-color/bee-B1SM.svg\" width=\"200\">\n                    <p><span class=\"greenText\"><b>Successful harvest!</b></span><br>Your pay has increased by $0.02. Your bonus pay is now $0.64.</p>\n            ","response":0,"trial_type":"html-button-response","trial_index":76,"time_elapsed":521030,"internal_node_id":"0.0-4.0-1.34","subject_id":"5e2b922e32129c1ea324c7ae","study_id":"6197b3f67c2b5cd3b6d9596a","session_id":"619be58ebbd63e5b1a8add82","condition":"full-information","relevant_dimensions":["antennae","legs"],"bee_group":{"antennae":"A","wings":"X","pattern":"X","legs":"F"},"bonus":0.12000000000000001},{"rt":79753,"stimulus":"bees-with-color/bee-B2DM.svg","response":0,"trial_type":"image-button-response","trial_index":77,"time_elapsed":600784,"internal_node_id":"0.0-4.0-0.35","subject_id":"5e2b922e32129c1ea324c7ae","study_id":"6197b3f67c2b5cd3b6d9596a","session_id":"619be58ebbd63e5b1a8add82","condition":"full-information","relevant_dimensions":["antennae","legs"],"bee_group":{"antennae":"A","wings":"X","pattern":"X","legs":"F"},"action":"harvest","summary":"good-harvest","bonus":0.12000000000000001},{"rt":986,"stimulus":"\n                    <p><b>Action: <em>harvest</em></b></p>\n                    <p>This is the bee that you just saw.</p>\n                    <img src=\"bees-with-color/bee-B2DM.svg\" width=\"200\">\n                    <p><span class=\"greenText\"><b>Successful harvest!</b></span><br>Your pay has increased by $0.02. Your bonus pay is now $0.66.</p>\n            ","response":0,"trial_type":"html-button-response","trial_index":78,"time_elapsed":601772,"internal_node_id":"0.0-4.0-1.35","subject_id":"5e2b922e32129c1ea324c7ae","study_id":"6197b3f67c2b5cd3b6d9596a","session_id":"619be58ebbd63e5b1a8add82","condition":"full-information","relevant_dimensions":["antennae","legs"],"bee_group":{"antennae":"A","wings":"X","pattern":"X","legs":"F"},"bonus":0.12000000000000001},{"rt":1019,"stimulus":"bees-with-color/bee-A2DM.svg","response":0,"trial_type":"image-button-response","trial_index":79,"time_elapsed":602796,"internal_node_id":"0.0-4.0-0.36","subject_id":"5e2b922e32129c1ea324c7ae","study_id":"6197b3f67c2b5cd3b6d9596a","session_id":"619be58ebbd63e5b1a8add82","condition":"full-information","relevant_dimensions":["antennae","legs"],"bee_group":{"antennae":"A","wings":"X","pattern":"X","legs":"F"},"action":"harvest","summary":"good-harvest","bonus":0.12000000000000001},{"rt":760,"stimulus":"\n                    <p><b>Action: <em>harvest</em></b></p>\n                    <p>This is the bee that you just saw.</p>\n                    <img src=\"bees-with-color/bee-A2DM.svg\" width=\"200\">\n                    <p><span class=\"greenText\"><b>Successful harvest!</b></span><br>Your pay has increased by $0.02. Your bonus pay is now $0.68.</p>\n            ","response":0,"trial_type":"html-button-response","trial_index":80,"time_elapsed":603557,"internal_node_id":"0.0-4.0-1.36","subject_id":"5e2b922e32129c1ea324c7ae","study_id":"6197b3f67c2b5cd3b6d9596a","session_id":"619be58ebbd63e5b1a8add82","condition":"full-information","relevant_dimensions":["antennae","legs"],"bee_group":{"antennae":"A","wings":"X","pattern":"X","legs":"F"},"bonus":0.12000000000000001},{"rt":1248,"stimulus":"bees-with-color/bee-A2SF.svg","response":0,"trial_type":"image-button-response","trial_index":81,"time_elapsed":604809,"internal_node_id":"0.0-4.0-0.37","subject_id":"5e2b922e32129c1ea324c7ae","study_id":"6197b3f67c2b5cd3b6d9596a","session_id":"619be58ebbd63e5b1a8add82","condition":"full-information","relevant_dimensions":["antennae","legs"],"bee_group":{"antennae":"A","wings":"X","pattern":"X","legs":"F"},"action":"harvest","summary":"bad-harvest","bonus":0.12000000000000001},{"rt":701,"stimulus":"\n                    <p><b>Action: <em>harvest</em></b></p>\n                    <p>This is the bee that you just saw.</p>\n                    <img src=\"bees-with-color/bee-A2SF.svg\" width=\"200\">\n                    <p><span class=\"redText\">Bad choice, the bee was angry.</span><br><b>You have been stung!</b><br>Your pay has been decreased by $0.10. Your bonus pay is now $0.58.</p>\n            ","response":0,"trial_type":"html-button-response","trial_index":82,"time_elapsed":605513,"internal_node_id":"0.0-4.0-1.37","subject_id":"5e2b922e32129c1ea324c7ae","study_id":"6197b3f67c2b5cd3b6d9596a","session_id":"619be58ebbd63e5b1a8add82","condition":"full-information","relevant_dimensions":["antennae","legs"],"bee_group":{"antennae":"A","wings":"X","pattern":"X","legs":"F"},"bonus":0.12000000000000001},{"rt":894,"stimulus":"bees-with-color/bee-A2DF.svg","response":0,"trial_type":"image-button-response","trial_index":83,"time_elapsed":606409,"internal_node_id":"0.0-4.0-0.38","subject_id":"5e2b922e32129c1ea324c7ae","study_id":"6197b3f67c2b5cd3b6d9596a","session_id":"619be58ebbd63e5b1a8add82","condition":"full-information","relevant_dimensions":["antennae","legs"],"bee_group":{"antennae":"A","wings":"X","pattern":"X","legs":"F"},"action":"harvest","summary":"bad-harvest","bonus":0.12000000000000001},{"rt":937,"stimulus":"\n                    <p><b>Action: <em>harvest</em></b></p>\n                    <p>This is the bee that you just saw.</p>\n                    <img src=\"bees-with-color/bee-A2DF.svg\" width=\"200\">\n                    <p><span class=\"redText\">Bad choice, the bee was angry.</span><br><b>You have been stung!</b><br>Your pay has been decreased by $0.10. Your bonus pay is now $0.48.</p>\n            ","response":0,"trial_type":"html-button-response","trial_index":84,"time_elapsed":607349,"internal_node_id":"0.0-4.0-1.38","subject_id":"5e2b922e32129c1ea324c7ae","study_id":"6197b3f67c2b5cd3b6d9596a","session_id":"619be58ebbd63e5b1a8add82","condition":"full-information","relevant_dimensions":["antennae","legs"],"bee_group":{"antennae":"A","wings":"X","pattern":"X","legs":"F"},"bonus":0.12000000000000001},{"rt":1139,"stimulus":"bees-with-color/bee-B2SM.svg","response":1,"trial_type":"image-button-response","trial_index":85,"time_elapsed":608489,"internal_node_id":"0.0-4.0-0.39","subject_id":"5e2b922e32129c1ea324c7ae","study_id":"6197b3f67c2b5cd3b6d9596a","session_id":"619be58ebbd63e5b1a8add82","condition":"full-information","relevant_dimensions":["antennae","legs"],"bee_group":{"antennae":"A","wings":"X","pattern":"X","legs":"F"},"action":"avoid","summary":"bad-avoid","bonus":0.12000000000000001},{"rt":697,"stimulus":"\n                    <p><b>Action: <em>avoid</em></b></p>\n                    <p>This is the bee that you just saw.</p>\n                    <img src=\"bees-with-color/bee-B2SM.svg\" width=\"200\">\n                    <p><span class=\"redText\">Bad choice,</span> the bee was friendly.<br>Your bonus pay is unchanged, and remains at $0.48.</p>\n            ","response":0,"trial_type":"html-button-response","trial_index":86,"time_elapsed":609189,"internal_node_id":"0.0-4.0-1.39","subject_id":"5e2b922e32129c1ea324c7ae","study_id":"6197b3f67c2b5cd3b6d9596a","session_id":"619be58ebbd63e5b1a8add82","condition":"full-information","relevant_dimensions":["antennae","legs"],"bee_group":{"antennae":"A","wings":"X","pattern":"X","legs":"F"},"bonus":0.12000000000000001},{"rt":2390,"stimulus":"bees-with-color/bee-B2SF.svg","response":1,"trial_type":"image-button-response","trial_index":87,"time_elapsed":611582,"internal_node_id":"0.0-4.0-0.40","subject_id":"5e2b922e32129c1ea324c7ae","study_id":"6197b3f67c2b5cd3b6d9596a","session_id":"619be58ebbd63e5b1a8add82","condition":"full-information","relevant_dimensions":["antennae","legs"],"bee_group":{"antennae":"A","wings":"X","pattern":"X","legs":"F"},"action":"avoid","summary":"bad-avoid","bonus":0.12000000000000001},{"rt":917,"stimulus":"\n                    <p><b>Action: <em>avoid</em></b></p>\n                    <p>This is the bee that you just saw.</p>\n                    <img src=\"bees-with-color/bee-B2SF.svg\" width=\"200\">\n                    <p><span class=\"redText\">Bad choice,</span> the bee was friendly.<br>Your bonus pay is unchanged, and remains at $0.48.</p>\n            ","response":0,"trial_type":"html-button-response","trial_index":88,"time_elapsed":612500,"internal_node_id":"0.0-4.0-1.40","subject_id":"5e2b922e32129c1ea324c7ae","study_id":"6197b3f67c2b5cd3b6d9596a","session_id":"619be58ebbd63e5b1a8add82","condition":"full-information","relevant_dimensions":["antennae","legs"],"bee_group":{"antennae":"A","wings":"X","pattern":"X","legs":"F"},"bonus":0.12000000000000001},{"rt":1037,"stimulus":"bees-with-color/bee-A1DF.svg","response":0,"trial_type":"image-button-response","trial_index":89,"time_elapsed":613539,"internal_node_id":"0.0-4.0-0.41","subject_id":"5e2b922e32129c1ea324c7ae","study_id":"6197b3f67c2b5cd3b6d9596a","session_id":"619be58ebbd63e5b1a8add82","condition":"full-information","relevant_dimensions":["antennae","legs"],"bee_group":{"antennae":"A","wings":"X","pattern":"X","legs":"F"},"action":"harvest","summary":"bad-harvest","bonus":0.12000000000000001},{"rt":818,"stimulus":"\n                    <p><b>Action: <em>harvest</em></b></p>\n                    <p>This is the bee that you just saw.</p>\n                    <img src=\"bees-with-color/bee-A1DF.svg\" width=\"200\">\n                    <p><span class=\"redText\">Bad choice, the bee was angry.</span><br><b>You have been stung!</b><br>Your pay has been decreased by $0.10. Your bonus pay is now $0.38.</p>\n            ","response":0,"trial_type":"html-button-response","trial_index":90,"time_elapsed":614360,"internal_node_id":"0.0-4.0-1.41","subject_id":"5e2b922e32129c1ea324c7ae","study_id":"6197b3f67c2b5cd3b6d9596a","session_id":"619be58ebbd63e5b1a8add82","condition":"full-information","relevant_dimensions":["antennae","legs"],"bee_group":{"antennae":"A","wings":"X","pattern":"X","legs":"F"},"bonus":0.12000000000000001},{"rt":2273,"stimulus":"bees-with-color/bee-A2SM.svg","response":0,"trial_type":"image-button-response","trial_index":91,"time_elapsed":616635,"internal_node_id":"0.0-4.0-0.42","subject_id":"5e2b922e32129c1ea324c7ae","study_id":"6197b3f67c2b5cd3b6d9596a","session_id":"619be58ebbd63e5b1a8add82","condition":"full-information","relevant_dimensions":["antennae","legs"],"bee_group":{"antennae":"A","wings":"X","pattern":"X","legs":"F"},"action":"harvest","summary":"good-harvest","bonus":0.12000000000000001},{"rt":2262,"stimulus":"\n                    <p><b>Action: <em>harvest</em></b></p>\n                    <p>This is the bee that you just saw.</p>\n                    <img src=\"bees-with-color/bee-A2SM.svg\" width=\"200\">\n                    <p><span class=\"greenText\"><b>Successful harvest!</b></span><br>Your pay has increased by $0.02. Your bonus pay is now $0.40.</p>\n            ","response":0,"trial_type":"html-button-response","trial_index":92,"time_elapsed":618899,"internal_node_id":"0.0-4.0-1.42","subject_id":"5e2b922e32129c1ea324c7ae","study_id":"6197b3f67c2b5cd3b6d9596a","session_id":"619be58ebbd63e5b1a8add82","condition":"full-information","relevant_dimensions":["antennae","legs"],"bee_group":{"antennae":"A","wings":"X","pattern":"X","legs":"F"},"bonus":0.12000000000000001},{"rt":1576,"stimulus":"bees-with-color/bee-B1DM.svg","response":1,"trial_type":"image-button-response","trial_index":93,"time_elapsed":620478,"internal_node_id":"0.0-4.0-0.43","subject_id":"5e2b922e32129c1ea324c7ae","study_id":"6197b3f67c2b5cd3b6d9596a","session_id":"619be58ebbd63e5b1a8add82","condition":"full-information","relevant_dimensions":["antennae","legs"],"bee_group":{"antennae":"A","wings":"X","pattern":"X","legs":"F"},"action":"avoid","summary":"bad-avoid","bonus":0.12000000000000001},{"rt":966,"stimulus":"\n                    <p><b>Action: <em>avoid</em></b></p>\n                    <p>This is the bee that you just saw.</p>\n                    <img src=\"bees-with-color/bee-B1DM.svg\" width=\"200\">\n                    <p><span class=\"redText\">Bad choice,</span> the bee was friendly.<br>Your bonus pay is unchanged, and remains at $0.40.</p>\n            ","response":0,"trial_type":"html-button-response","trial_index":94,"time_elapsed":621445,"internal_node_id":"0.0-4.0-1.43","subject_id":"5e2b922e32129c1ea324c7ae","study_id":"6197b3f67c2b5cd3b6d9596a","session_id":"619be58ebbd63e5b1a8add82","condition":"full-information","relevant_dimensions":["antennae","legs"],"bee_group":{"antennae":"A","wings":"X","pattern":"X","legs":"F"},"bonus":0.12000000000000001},{"rt":1293,"stimulus":"bees-with-color/bee-B1DF.svg","response":0,"trial_type":"image-button-response","trial_index":95,"time_elapsed":622740,"internal_node_id":"0.0-4.0-0.44","subject_id":"5e2b922e32129c1ea324c7ae","study_id":"6197b3f67c2b5cd3b6d9596a","session_id":"619be58ebbd63e5b1a8add82","condition":"full-information","relevant_dimensions":["antennae","legs"],"bee_group":{"antennae":"A","wings":"X","pattern":"X","legs":"F"},"action":"harvest","summary":"good-harvest","bonus":0.12000000000000001},{"rt":970,"stimulus":"\n                    <p><b>Action: <em>harvest</em></b></p>\n                    <p>This is the bee that you just saw.</p>\n                    <img src=\"bees-with-color/bee-B1DF.svg\" width=\"200\">\n                    <p><span class=\"greenText\"><b>Successful harvest!</b></span><br>Your pay has increased by $0.02. Your bonus pay is now $0.42.</p>\n            ","response":0,"trial_type":"html-button-response","trial_index":96,"time_elapsed":623712,"internal_node_id":"0.0-4.0-1.44","subject_id":"5e2b922e32129c1ea324c7ae","study_id":"6197b3f67c2b5cd3b6d9596a","session_id":"619be58ebbd63e5b1a8add82","condition":"full-information","relevant_dimensions":["antennae","legs"],"bee_group":{"antennae":"A","wings":"X","pattern":"X","legs":"F"},"bonus":0.12000000000000001},{"rt":1614,"stimulus":"bees-with-color/bee-A1SF.svg","response":0,"trial_type":"image-button-response","trial_index":97,"time_elapsed":625328,"internal_node_id":"0.0-4.0-0.45","subject_id":"5e2b922e32129c1ea324c7ae","study_id":"6197b3f67c2b5cd3b6d9596a","session_id":"619be58ebbd63e5b1a8add82","condition":"full-information","relevant_dimensions":["antennae","legs"],"bee_group":{"antennae":"A","wings":"X","pattern":"X","legs":"F"},"action":"harvest","summary":"bad-harvest","bonus":0.12000000000000001},{"rt":908,"stimulus":"\n                    <p><b>Action: <em>harvest</em></b></p>\n                    <p>This is the bee that you just saw.</p>\n                    <img src=\"bees-with-color/bee-A1SF.svg\" width=\"200\">\n                    <p><span class=\"redText\">Bad choice, the bee was angry.</span><br><b>You have been stung!</b><br>Your pay has been decreased by $0.10. Your bonus pay is now $0.32.</p>\n            ","response":0,"trial_type":"html-button-response","trial_index":98,"time_elapsed":626238,"internal_node_id":"0.0-4.0-1.45","subject_id":"5e2b922e32129c1ea324c7ae","study_id":"6197b3f67c2b5cd3b6d9596a","session_id":"619be58ebbd63e5b1a8add82","condition":"full-information","relevant_dimensions":["antennae","legs"],"bee_group":{"antennae":"A","wings":"X","pattern":"X","legs":"F"},"bonus":0.12000000000000001},{"rt":2232,"stimulus":"bees-with-color/bee-B2DF.svg","response":0,"trial_type":"image-button-response","trial_index":99,"time_elapsed":628473,"internal_node_id":"0.0-4.0-0.46","subject_id":"5e2b922e32129c1ea324c7ae","study_id":"6197b3f67c2b5cd3b6d9596a","session_id":"619be58ebbd63e5b1a8add82","condition":"full-information","relevant_dimensions":["antennae","legs"],"bee_group":{"antennae":"A","wings":"X","pattern":"X","legs":"F"},"action":"harvest","summary":"good-harvest","bonus":0.12000000000000001},{"rt":721,"stimulus":"\n                    <p><b>Action: <em>harvest</em></b></p>\n                    <p>This is the bee that you just saw.</p>\n                    <img src=\"bees-with-color/bee-B2DF.svg\" width=\"200\">\n                    <p><span class=\"greenText\"><b>Successful harvest!</b></span><br>Your pay has increased by $0.02. Your bonus pay is now $0.34.</p>\n            ","response":0,"trial_type":"html-button-response","trial_index":100,"time_elapsed":629194,"internal_node_id":"0.0-4.0-1.46","subject_id":"5e2b922e32129c1ea324c7ae","study_id":"6197b3f67c2b5cd3b6d9596a","session_id":"619be58ebbd63e5b1a8add82","condition":"full-information","relevant_dimensions":["antennae","legs"],"bee_group":{"antennae":"A","wings":"X","pattern":"X","legs":"F"},"bonus":0.12000000000000001},{"rt":64776,"stimulus":"bees-with-color/bee-A1DM.svg","response":0,"trial_type":"image-button-response","trial_index":101,"time_elapsed":693972,"internal_node_id":"0.0-4.0-0.47","subject_id":"5e2b922e32129c1ea324c7ae","study_id":"6197b3f67c2b5cd3b6d9596a","session_id":"619be58ebbd63e5b1a8add82","condition":"full-information","relevant_dimensions":["antennae","legs"],"bee_group":{"antennae":"A","wings":"X","pattern":"X","legs":"F"},"action":"harvest","summary":"good-harvest","bonus":0.12000000000000001},{"rt":1028,"stimulus":"\n                    <p><b>Action: <em>harvest</em></b></p>\n                    <p>This is the bee that you just saw.</p>\n                    <img src=\"bees-with-color/bee-A1DM.svg\" width=\"200\">\n                    <p><span class=\"greenText\"><b>Successful harvest!</b></span><br>Your pay has increased by $0.02. Your bonus pay is now $0.36.</p>\n            ","response":0,"trial_type":"html-button-response","trial_index":102,"time_elapsed":695002,"internal_node_id":"0.0-4.0-1.47","subject_id":"5e2b922e32129c1ea324c7ae","study_id":"6197b3f67c2b5cd3b6d9596a","session_id":"619be58ebbd63e5b1a8add82","condition":"full-information","relevant_dimensions":["antennae","legs"],"bee_group":{"antennae":"A","wings":"X","pattern":"X","legs":"F"},"bonus":0.12000000000000001},{"rt":1639,"stimulus":"bees-with-color/bee-B1SF.svg","response":1,"trial_type":"image-button-response","trial_index":103,"time_elapsed":696644,"internal_node_id":"0.0-4.0-0.48","subject_id":"5e2b922e32129c1ea324c7ae","study_id":"6197b3f67c2b5cd3b6d9596a","session_id":"619be58ebbd63e5b1a8add82","condition":"full-information","relevant_dimensions":["antennae","legs"],"bee_group":{"antennae":"A","wings":"X","pattern":"X","legs":"F"},"action":"avoid","summary":"bad-avoid","bonus":0.12000000000000001},{"rt":994,"stimulus":"\n                    <p><b>Action: <em>avoid</em></b></p>\n                    <p>This is the bee that you just saw.</p>\n                    <img src=\"bees-with-color/bee-B1SF.svg\" width=\"200\">\n                    <p><span class=\"redText\">Bad choice,</span> the bee was friendly.<br>Your bonus pay is unchanged, and remains at $0.36.</p>\n            ","response":0,"trial_type":"html-button-response","trial_index":104,"time_elapsed":697642,"internal_node_id":"0.0-4.0-1.48","subject_id":"5e2b922e32129c1ea324c7ae","study_id":"6197b3f67c2b5cd3b6d9596a","session_id":"619be58ebbd63e5b1a8add82","condition":"full-information","relevant_dimensions":["antennae","legs"],"bee_group":{"antennae":"A","wings":"X","pattern":"X","legs":"F"},"bonus":0.12000000000000001},{"rt":971,"stimulus":"bees-with-color/bee-B2SF.svg","response":0,"trial_type":"image-button-response","trial_index":105,"time_elapsed":698615,"internal_node_id":"0.0-4.0-0.49","subject_id":"5e2b922e32129c1ea324c7ae","study_id":"6197b3f67c2b5cd3b6d9596a","session_id":"619be58ebbd63e5b1a8add82","condition":"full-information","relevant_dimensions":["antennae","legs"],"bee_group":{"antennae":"A","wings":"X","pattern":"X","legs":"F"},"action":"harvest","summary":"good-harvest","bonus":0.12000000000000001},{"rt":694,"stimulus":"\n                    <p><b>Action: <em>harvest</em></b></p>\n                    <p>This is the bee that you just saw.</p>\n                    <img src=\"bees-with-color/bee-B2SF.svg\" width=\"200\">\n                    <p><span class=\"greenText\"><b>Successful harvest!</b></span><br>Your pay has increased by $0.02. Your bonus pay is now $0.38.</p>\n            ","response":0,"trial_type":"html-button-response","trial_index":106,"time_elapsed":699312,"internal_node_id":"0.0-4.0-1.49","subject_id":"5e2b922e32129c1ea324c7ae","study_id":"6197b3f67c2b5cd3b6d9596a","session_id":"619be58ebbd63e5b1a8add82","condition":"full-information","relevant_dimensions":["antennae","legs"],"bee_group":{"antennae":"A","wings":"X","pattern":"X","legs":"F"},"bonus":0.12000000000000001},{"rt":1501,"stimulus":"bees-with-color/bee-B1SM.svg","response":0,"trial_type":"image-button-response","trial_index":107,"time_elapsed":700816,"internal_node_id":"0.0-4.0-0.50","subject_id":"5e2b922e32129c1ea324c7ae","study_id":"6197b3f67c2b5cd3b6d9596a","session_id":"619be58ebbd63e5b1a8add82","condition":"full-information","relevant_dimensions":["antennae","legs"],"bee_group":{"antennae":"A","wings":"X","pattern":"X","legs":"F"},"action":"harvest","summary":"good-harvest","bonus":0.12000000000000001},{"rt":679,"stimulus":"\n                    <p><b>Action: <em>harvest</em></b></p>\n                    <p>This is the bee that you just saw.</p>\n                    <img src=\"bees-with-color/bee-B1SM.svg\" width=\"200\">\n                    <p><span class=\"greenText\"><b>Successful harvest!</b></span><br>Your pay has increased by $0.02. Your bonus pay is now $0.40.</p>\n            ","response":0,"trial_type":"html-button-response","trial_index":108,"time_elapsed":701498,"internal_node_id":"0.0-4.0-1.50","subject_id":"5e2b922e32129c1ea324c7ae","study_id":"6197b3f67c2b5cd3b6d9596a","session_id":"619be58ebbd63e5b1a8add82","condition":"full-information","relevant_dimensions":["antennae","legs"],"bee_group":{"antennae":"A","wings":"X","pattern":"X","legs":"F"},"bonus":0.12000000000000001},{"rt":2830,"stimulus":"bees-with-color/bee-B1DM.svg","response":0,"trial_type":"image-button-response","trial_index":109,"time_elapsed":704330,"internal_node_id":"0.0-4.0-0.51","subject_id":"5e2b922e32129c1ea324c7ae","study_id":"6197b3f67c2b5cd3b6d9596a","session_id":"619be58ebbd63e5b1a8add82","condition":"full-information","relevant_dimensions":["antennae","legs"],"bee_group":{"antennae":"A","wings":"X","pattern":"X","legs":"F"},"action":"harvest","summary":"good-harvest","bonus":0.12000000000000001},{"rt":689,"stimulus":"\n                    <p><b>Action: <em>harvest</em></b></p>\n                    <p>This is the bee that you just saw.</p>\n                    <img src=\"bees-with-color/bee-B1DM.svg\" width=\"200\">\n                    <p><span class=\"greenText\"><b>Successful harvest!</b></span><br>Your pay has increased by $0.02. Your bonus pay is now $0.42.</p>\n            ","response":0,"trial_type":"html-button-response","trial_index":110,"time_elapsed":705022,"internal_node_id":"0.0-4.0-1.51","subject_id":"5e2b922e32129c1ea324c7ae","study_id":"6197b3f67c2b5cd3b6d9596a","session_id":"619be58ebbd63e5b1a8add82","condition":"full-information","relevant_dimensions":["antennae","legs"],"bee_group":{"antennae":"A","wings":"X","pattern":"X","legs":"F"},"bonus":0.12000000000000001},{"rt":1011,"stimulus":"bees-with-color/bee-A2DF.svg","response":0,"trial_type":"image-button-response","trial_index":111,"time_elapsed":706035,"internal_node_id":"0.0-4.0-0.52","subject_id":"5e2b922e32129c1ea324c7ae","study_id":"6197b3f67c2b5cd3b6d9596a","session_id":"619be58ebbd63e5b1a8add82","condition":"full-information","relevant_dimensions":["antennae","legs"],"bee_group":{"antennae":"A","wings":"X","pattern":"X","legs":"F"},"action":"harvest","summary":"bad-harvest","bonus":0.12000000000000001},{"rt":653,"stimulus":"\n                    <p><b>Action: <em>harvest</em></b></p>\n                    <p>This is the bee that you just saw.</p>\n                    <img src=\"bees-with-color/bee-A2DF.svg\" width=\"200\">\n                    <p><span class=\"redText\">Bad choice, the bee was angry.</span><br><b>You have been stung!</b><br>Your pay has been decreased by $0.10. Your bonus pay is now $0.32.</p>\n            ","response":0,"trial_type":"html-button-response","trial_index":112,"time_elapsed":706691,"internal_node_id":"0.0-4.0-1.52","subject_id":"5e2b922e32129c1ea324c7ae","study_id":"6197b3f67c2b5cd3b6d9596a","session_id":"619be58ebbd63e5b1a8add82","condition":"full-information","relevant_dimensions":["antennae","legs"],"bee_group":{"antennae":"A","wings":"X","pattern":"X","legs":"F"},"bonus":0.12000000000000001},{"rt":943,"stimulus":"bees-with-color/bee-A1DF.svg","response":0,"trial_type":"image-button-response","trial_index":113,"time_elapsed":707637,"internal_node_id":"0.0-4.0-0.53","subject_id":"5e2b922e32129c1ea324c7ae","study_id":"6197b3f67c2b5cd3b6d9596a","session_id":"619be58ebbd63e5b1a8add82","condition":"full-information","relevant_dimensions":["antennae","legs"],"bee_group":{"antennae":"A","wings":"X","pattern":"X","legs":"F"},"action":"harvest","summary":"bad-harvest","bonus":0.12000000000000001},{"rt":591,"stimulus":"\n                    <p><b>Action: <em>harvest</em></b></p>\n                    <p>This is the bee that you just saw.</p>\n                    <img src=\"bees-with-color/bee-A1DF.svg\" width=\"200\">\n                    <p><span class=\"redText\">Bad choice, the bee was angry.</span><br><b>You have been stung!</b><br>Your pay has been decreased by $0.10. Your bonus pay is now $0.22.</p>\n            ","response":0,"trial_type":"html-button-response","trial_index":114,"time_elapsed":708230,"internal_node_id":"0.0-4.0-1.53","subject_id":"5e2b922e32129c1ea324c7ae","study_id":"6197b3f67c2b5cd3b6d9596a","session_id":"619be58ebbd63e5b1a8add82","condition":"full-information","relevant_dimensions":["antennae","legs"],"bee_group":{"antennae":"A","wings":"X","pattern":"X","legs":"F"},"bonus":0.12000000000000001},{"rt":1756,"stimulus":"bees-with-color/bee-B2SM.svg","response":0,"trial_type":"image-button-response","trial_index":115,"time_elapsed":709989,"internal_node_id":"0.0-4.0-0.54","subject_id":"5e2b922e32129c1ea324c7ae","study_id":"6197b3f67c2b5cd3b6d9596a","session_id":"619be58ebbd63e5b1a8add82","condition":"full-information","relevant_dimensions":["antennae","legs"],"bee_group":{"antennae":"A","wings":"X","pattern":"X","legs":"F"},"action":"harvest","summary":"good-harvest","bonus":0.12000000000000001},{"rt":635,"stimulus":"\n                    <p><b>Action: <em>harvest</em></b></p>\n                    <p>This is the bee that you just saw.</p>\n                    <img src=\"bees-with-color/bee-B2SM.svg\" width=\"200\">\n                    <p><span class=\"greenText\"><b>Successful harvest!</b></span><br>Your pay has increased by $0.02. Your bonus pay is now $0.24.</p>\n            ","response":0,"trial_type":"html-button-response","trial_index":116,"time_elapsed":710625,"internal_node_id":"0.0-4.0-1.54","subject_id":"5e2b922e32129c1ea324c7ae","study_id":"6197b3f67c2b5cd3b6d9596a","session_id":"619be58ebbd63e5b1a8add82","condition":"full-information","relevant_dimensions":["antennae","legs"],"bee_group":{"antennae":"A","wings":"X","pattern":"X","legs":"F"},"bonus":0.12000000000000001},{"rt":2026,"stimulus":"bees-with-color/bee-A1SM.svg","response":1,"trial_type":"image-button-response","trial_index":117,"time_elapsed":712654,"internal_node_id":"0.0-4.0-0.55","subject_id":"5e2b922e32129c1ea324c7ae","study_id":"6197b3f67c2b5cd3b6d9596a","session_id":"619be58ebbd63e5b1a8add82","condition":"full-information","relevant_dimensions":["antennae","legs"],"bee_group":{"antennae":"A","wings":"X","pattern":"X","legs":"F"},"action":"avoid","summary":"bad-avoid","bonus":0.12000000000000001},{"rt":666,"stimulus":"\n                    <p><b>Action: <em>avoid</em></b></p>\n                    <p>This is the bee that you just saw.</p>\n                    <img src=\"bees-with-color/bee-A1SM.svg\" width=\"200\">\n                    <p><span class=\"redText\">Bad choice,</span> the bee was friendly.<br>Your bonus pay is unchanged, and remains at $0.24.</p>\n            ","response":0,"trial_type":"html-button-response","trial_index":118,"time_elapsed":713322,"internal_node_id":"0.0-4.0-1.55","subject_id":"5e2b922e32129c1ea324c7ae","study_id":"6197b3f67c2b5cd3b6d9596a","session_id":"619be58ebbd63e5b1a8add82","condition":"full-information","relevant_dimensions":["antennae","legs"],"bee_group":{"antennae":"A","wings":"X","pattern":"X","legs":"F"},"bonus":0.12000000000000001},{"rt":1124,"stimulus":"bees-with-color/bee-B2DM.svg","response":1,"trial_type":"image-button-response","trial_index":119,"time_elapsed":714448,"internal_node_id":"0.0-4.0-0.56","subject_id":"5e2b922e32129c1ea324c7ae","study_id":"6197b3f67c2b5cd3b6d9596a","session_id":"619be58ebbd63e5b1a8add82","condition":"full-information","relevant_dimensions":["antennae","legs"],"bee_group":{"antennae":"A","wings":"X","pattern":"X","legs":"F"},"action":"avoid","summary":"bad-avoid","bonus":0.12000000000000001},{"rt":746,"stimulus":"\n                    <p><b>Action: <em>avoid</em></b></p>\n                    <p>This is the bee that you just saw.</p>\n                    <img src=\"bees-with-color/bee-B2DM.svg\" width=\"200\">\n                    <p><span class=\"redText\">Bad choice,</span> the bee was friendly.<br>Your bonus pay is unchanged, and remains at $0.24.</p>\n            ","response":0,"trial_type":"html-button-response","trial_index":120,"time_elapsed":715199,"internal_node_id":"0.0-4.0-1.56","subject_id":"5e2b922e32129c1ea324c7ae","study_id":"6197b3f67c2b5cd3b6d9596a","session_id":"619be58ebbd63e5b1a8add82","condition":"full-information","relevant_dimensions":["antennae","legs"],"bee_group":{"antennae":"A","wings":"X","pattern":"X","legs":"F"},"bonus":0.12000000000000001},{"rt":1061,"stimulus":"bees-with-color/bee-B2DF.svg","response":0,"trial_type":"image-button-response","trial_index":121,"time_elapsed":716262,"internal_node_id":"0.0-4.0-0.57","subject_id":"5e2b922e32129c1ea324c7ae","study_id":"6197b3f67c2b5cd3b6d9596a","session_id":"619be58ebbd63e5b1a8add82","condition":"full-information","relevant_dimensions":["antennae","legs"],"bee_group":{"antennae":"A","wings":"X","pattern":"X","legs":"F"},"action":"harvest","summary":"good-harvest","bonus":0.12000000000000001},{"rt":1398,"stimulus":"\n                    <p><b>Action: <em>harvest</em></b></p>\n                    <p>This is the bee that you just saw.</p>\n                    <img src=\"bees-with-color/bee-B2DF.svg\" width=\"200\">\n                    <p><span class=\"greenText\"><b>Successful harvest!</b></span><br>Your pay has increased by $0.02. Your bonus pay is now $0.26.</p>\n            ","response":0,"trial_type":"html-button-response","trial_index":122,"time_elapsed":717664,"internal_node_id":"0.0-4.0-1.57","subject_id":"5e2b922e32129c1ea324c7ae","study_id":"6197b3f67c2b5cd3b6d9596a","session_id":"619be58ebbd63e5b1a8add82","condition":"full-information","relevant_dimensions":["antennae","legs"],"bee_group":{"antennae":"A","wings":"X","pattern":"X","legs":"F"},"bonus":0.12000000000000001},{"rt":1758,"stimulus":"bees-with-color/bee-A1DM.svg","response":0,"trial_type":"image-button-response","trial_index":123,"time_elapsed":719425,"internal_node_id":"0.0-4.0-0.58","subject_id":"5e2b922e32129c1ea324c7ae","study_id":"6197b3f67c2b5cd3b6d9596a","session_id":"619be58ebbd63e5b1a8add82","condition":"full-information","relevant_dimensions":["antennae","legs"],"bee_group":{"antennae":"A","wings":"X","pattern":"X","legs":"F"},"action":"harvest","summary":"good-harvest","bonus":0.12000000000000001},{"rt":1214,"stimulus":"\n                    <p><b>Action: <em>harvest</em></b></p>\n                    <p>This is the bee that you just saw.</p>\n                    <img src=\"bees-with-color/bee-A1DM.svg\" width=\"200\">\n                    <p><span class=\"greenText\"><b>Successful harvest!</b></span><br>Your pay has increased by $0.02. Your bonus pay is now $0.28.</p>\n            ","response":0,"trial_type":"html-button-response","trial_index":124,"time_elapsed":720641,"internal_node_id":"0.0-4.0-1.58","subject_id":"5e2b922e32129c1ea324c7ae","study_id":"6197b3f67c2b5cd3b6d9596a","session_id":"619be58ebbd63e5b1a8add82","condition":"full-information","relevant_dimensions":["antennae","legs"],"bee_group":{"antennae":"A","wings":"X","pattern":"X","legs":"F"},"bonus":0.12000000000000001},{"rt":1100,"stimulus":"bees-with-color/bee-A2DM.svg","response":0,"trial_type":"image-button-response","trial_index":125,"time_elapsed":721744,"internal_node_id":"0.0-4.0-0.59","subject_id":"5e2b922e32129c1ea324c7ae","study_id":"6197b3f67c2b5cd3b6d9596a","session_id":"619be58ebbd63e5b1a8add82","condition":"full-information","relevant_dimensions":["antennae","legs"],"bee_group":{"antennae":"A","wings":"X","pattern":"X","legs":"F"},"action":"harvest","summary":"good-harvest","bonus":0.12000000000000001},{"rt":647,"stimulus":"\n                    <p><b>Action: <em>harvest</em></b></p>\n                    <p>This is the bee that you just saw.</p>\n                    <img src=\"bees-with-color/bee-A2DM.svg\" width=\"200\">\n                    <p><span class=\"greenText\"><b>Successful harvest!</b></span><br>Your pay has increased by $0.02. Your bonus pay is now $0.30.</p>\n            ","response":0,"trial_type":"html-button-response","trial_index":126,"time_elapsed":722393,"internal_node_id":"0.0-4.0-1.59","subject_id":"5e2b922e32129c1ea324c7ae","study_id":"6197b3f67c2b5cd3b6d9596a","session_id":"619be58ebbd63e5b1a8add82","condition":"full-information","relevant_dimensions":["antennae","legs"],"bee_group":{"antennae":"A","wings":"X","pattern":"X","legs":"F"},"bonus":0.12000000000000001},{"rt":1430,"stimulus":"bees-with-color/bee-A2SM.svg","response":0,"trial_type":"image-button-response","trial_index":127,"time_elapsed":723825,"internal_node_id":"0.0-4.0-0.60","subject_id":"5e2b922e32129c1ea324c7ae","study_id":"6197b3f67c2b5cd3b6d9596a","session_id":"619be58ebbd63e5b1a8add82","condition":"full-information","relevant_dimensions":["antennae","legs"],"bee_group":{"antennae":"A","wings":"X","pattern":"X","legs":"F"},"action":"harvest","summary":"good-harvest","bonus":0.12000000000000001},{"rt":671,"stimulus":"\n                    <p><b>Action: <em>harvest</em></b></p>\n                    <p>This is the bee that you just saw.</p>\n                    <img src=\"bees-with-color/bee-A2SM.svg\" width=\"200\">\n                    <p><span class=\"greenText\"><b>Successful harvest!</b></span><br>Your pay has increased by $0.02. Your bonus pay is now $0.32.</p>\n            ","response":0,"trial_type":"html-button-response","trial_index":128,"time_elapsed":724499,"internal_node_id":"0.0-4.0-1.60","subject_id":"5e2b922e32129c1ea324c7ae","study_id":"6197b3f67c2b5cd3b6d9596a","session_id":"619be58ebbd63e5b1a8add82","condition":"full-information","relevant_dimensions":["antennae","legs"],"bee_group":{"antennae":"A","wings":"X","pattern":"X","legs":"F"},"bonus":0.12000000000000001},{"rt":2902,"stimulus":"bees-with-color/bee-A1SF.svg","response":0,"trial_type":"image-button-response","trial_index":129,"time_elapsed":727403,"internal_node_id":"0.0-4.0-0.61","subject_id":"5e2b922e32129c1ea324c7ae","study_id":"6197b3f67c2b5cd3b6d9596a","session_id":"619be58ebbd63e5b1a8add82","condition":"full-information","relevant_dimensions":["antennae","legs"],"bee_group":{"antennae":"A","wings":"X","pattern":"X","legs":"F"},"action":"harvest","summary":"bad-harvest","bonus":0.12000000000000001},{"rt":1455,"stimulus":"\n                    <p><b>Action: <em>harvest</em></b></p>\n                    <p>This is the bee that you just saw.</p>\n                    <img src=\"bees-with-color/bee-A1SF.svg\" width=\"200\">\n                    <p><span class=\"redText\">Bad choice, the bee was angry.</span><br><b>You have been stung!</b><br>Your pay has been decreased by $0.10. Your bonus pay is now $0.22.</p>\n            ","response":0,"trial_type":"html-button-response","trial_index":130,"time_elapsed":728861,"internal_node_id":"0.0-4.0-1.61","subject_id":"5e2b922e32129c1ea324c7ae","study_id":"6197b3f67c2b5cd3b6d9596a","session_id":"619be58ebbd63e5b1a8add82","condition":"full-information","relevant_dimensions":["antennae","legs"],"bee_group":{"antennae":"A","wings":"X","pattern":"X","legs":"F"},"bonus":0.12000000000000001},{"rt":1118,"stimulus":"bees-with-color/bee-B1DF.svg","response":1,"trial_type":"image-button-response","trial_index":131,"time_elapsed":729981,"internal_node_id":"0.0-4.0-0.62","subject_id":"5e2b922e32129c1ea324c7ae","study_id":"6197b3f67c2b5cd3b6d9596a","session_id":"619be58ebbd63e5b1a8add82","condition":"full-information","relevant_dimensions":["antennae","legs"],"bee_group":{"antennae":"A","wings":"X","pattern":"X","legs":"F"},"action":"avoid","summary":"bad-avoid","bonus":0.12000000000000001},{"rt":582,"stimulus":"\n                    <p><b>Action: <em>avoid</em></b></p>\n                    <p>This is the bee that you just saw.</p>\n                    <img src=\"bees-with-color/bee-B1DF.svg\" width=\"200\">\n                    <p><span class=\"redText\">Bad choice,</span> the bee was friendly.<br>Your bonus pay is unchanged, and remains at $0.22.</p>\n            ","response":0,"trial_type":"html-button-response","trial_index":132,"time_elapsed":730565,"internal_node_id":"0.0-4.0-1.62","subject_id":"5e2b922e32129c1ea324c7ae","study_id":"6197b3f67c2b5cd3b6d9596a","session_id":"619be58ebbd63e5b1a8add82","condition":"full-information","relevant_dimensions":["antennae","legs"],"bee_group":{"antennae":"A","wings":"X","pattern":"X","legs":"F"},"bonus":0.12000000000000001},{"rt":1482,"stimulus":"bees-with-color/bee-A2SF.svg","response":0,"trial_type":"image-button-response","trial_index":133,"time_elapsed":732049,"internal_node_id":"0.0-4.0-0.63","subject_id":"5e2b922e32129c1ea324c7ae","study_id":"6197b3f67c2b5cd3b6d9596a","session_id":"619be58ebbd63e5b1a8add82","condition":"full-information","relevant_dimensions":["antennae","legs"],"bee_group":{"antennae":"A","wings":"X","pattern":"X","legs":"F"},"action":"harvest","summary":"bad-harvest","bonus":0.12000000000000001},{"rt":591,"stimulus":"\n                    <p><b>Action: <em>harvest</em></b></p>\n                    <p>This is the bee that you just saw.</p>\n                    <img src=\"bees-with-color/bee-A2SF.svg\" width=\"200\">\n                    <p><span class=\"redText\">Bad choice, the bee was angry.</span><br><b>You have been stung!</b><br>Your pay has been decreased by $0.10. Your bonus pay is now $0.12.</p>\n            ","response":0,"trial_type":"html-button-response","trial_index":134,"time_elapsed":732642,"internal_node_id":"0.0-4.0-1.63","subject_id":"5e2b922e32129c1ea324c7ae","study_id":"6197b3f67c2b5cd3b6d9596a","session_id":"619be58ebbd63e5b1a8add82","condition":"full-information","relevant_dimensions":["antennae","legs"],"bee_group":{"antennae":"A","wings":"X","pattern":"X","legs":"F"},"bonus":0.12000000000000001},{"rt":4616,"stimulus":"You have completed the first part of this experiment.<br><br>You will now begin a shorter second part, in which you will receive no feedback.<br>The same rules regarding bonus pay apply.<br><br>Press any key to begin.","response":" ","trial_type":"html-keyboard-response","trial_index":135,"time_elapsed":737260,"internal_node_id":"0.0-5.0","subject_id":"5e2b922e32129c1ea324c7ae","study_id":"6197b3f67c2b5cd3b6d9596a","session_id":"619be58ebbd63e5b1a8add82","condition":"full-information","relevant_dimensions":["antennae","legs"],"bee_group":{"antennae":"A","wings":"X","pattern":"X","legs":"F"},"bonus":0.12000000000000001},{"rt":4404,"stimulus":"bees-with-color/bee-A2SF.svg","response":0,"trial_type":"image-button-response","trial_index":136,"time_elapsed":741666,"internal_node_id":"0.0-6.0-0.0","subject_id":"5e2b922e32129c1ea324c7ae","study_id":"6197b3f67c2b5cd3b6d9596a","session_id":"619be58ebbd63e5b1a8add82","condition":"full-information","relevant_dimensions":["antennae","legs"],"bee_group":{"antennae":"A","wings":"X","pattern":"X","legs":"F"},"bonus":0.12000000000000001},{"rt":3835,"stimulus":"bees-with-color/bee-B1SF.svg","response":0,"trial_type":"image-button-response","trial_index":137,"time_elapsed":745504,"internal_node_id":"0.0-6.0-0.1","subject_id":"5e2b922e32129c1ea324c7ae","study_id":"6197b3f67c2b5cd3b6d9596a","session_id":"619be58ebbd63e5b1a8add82","condition":"full-information","relevant_dimensions":["antennae","legs"],"bee_group":{"antennae":"A","wings":"X","pattern":"X","legs":"F"},"bonus":0.12000000000000001},{"rt":2319,"stimulus":"bees-with-color/bee-B2DF.svg","response":0,"trial_type":"image-button-response","trial_index":138,"time_elapsed":747824,"internal_node_id":"0.0-6.0-0.2","subject_id":"5e2b922e32129c1ea324c7ae","study_id":"6197b3f67c2b5cd3b6d9596a","session_id":"619be58ebbd63e5b1a8add82","condition":"full-information","relevant_dimensions":["antennae","legs"],"bee_group":{"antennae":"A","wings":"X","pattern":"X","legs":"F"},"bonus":0.12000000000000001},{"rt":144,"stimulus":"bees-with-color/bee-B1DM.svg","response":0,"trial_type":"image-button-response","trial_index":139,"time_elapsed":747972,"internal_node_id":"0.0-6.0-0.3","subject_id":"5e2b922e32129c1ea324c7ae","study_id":"6197b3f67c2b5cd3b6d9596a","session_id":"619be58ebbd63e5b1a8add82","condition":"full-information","relevant_dimensions":["antennae","legs"],"bee_group":{"antennae":"A","wings":"X","pattern":"X","legs":"F"},"bonus":0.12000000000000001},{"rt":463,"stimulus":"bees-with-color/bee-A2DF.svg","response":0,"trial_type":"image-button-response","trial_index":140,"time_elapsed":748438,"internal_node_id":"0.0-6.0-0.4","subject_id":"5e2b922e32129c1ea324c7ae","study_id":"6197b3f67c2b5cd3b6d9596a","session_id":"619be58ebbd63e5b1a8add82","condition":"full-information","relevant_dimensions":["antennae","legs"],"bee_group":{"antennae":"A","wings":"X","pattern":"X","legs":"F"},"bonus":0.12000000000000001},{"rt":295,"stimulus":"bees-with-color/bee-B2SF.svg","response":0,"trial_type":"image-button-response","trial_index":141,"time_elapsed":748735,"internal_node_id":"0.0-6.0-0.5","subject_id":"5e2b922e32129c1ea324c7ae","study_id":"6197b3f67c2b5cd3b6d9596a","session_id":"619be58ebbd63e5b1a8add82","condition":"full-information","relevant_dimensions":["antennae","legs"],"bee_group":{"antennae":"A","wings":"X","pattern":"X","legs":"F"},"bonus":0.12000000000000001},{"rt":179,"stimulus":"bees-with-color/bee-A1DM.svg","response":0,"trial_type":"image-button-response","trial_index":142,"time_elapsed":748915,"internal_node_id":"0.0-6.0-0.6","subject_id":"5e2b922e32129c1ea324c7ae","study_id":"6197b3f67c2b5cd3b6d9596a","session_id":"619be58ebbd63e5b1a8add82","condition":"full-information","relevant_dimensions":["antennae","legs"],"bee_group":{"antennae":"A","wings":"X","pattern":"X","legs":"F"},"bonus":0.12000000000000001},{"rt":257,"stimulus":"bees-with-color/bee-A2DM.svg","response":0,"trial_type":"image-button-response","trial_index":143,"time_elapsed":749176,"internal_node_id":"0.0-6.0-0.7","subject_id":"5e2b922e32129c1ea324c7ae","study_id":"6197b3f67c2b5cd3b6d9596a","session_id":"619be58ebbd63e5b1a8add82","condition":"full-information","relevant_dimensions":["antennae","legs"],"bee_group":{"antennae":"A","wings":"X","pattern":"X","legs":"F"},"bonus":0.12000000000000001},{"rt":173,"stimulus":"bees-with-color/bee-B1DF.svg","response":0,"trial_type":"image-button-response","trial_index":144,"time_elapsed":749350,"internal_node_id":"0.0-6.0-0.8","subject_id":"5e2b922e32129c1ea324c7ae","study_id":"6197b3f67c2b5cd3b6d9596a","session_id":"619be58ebbd63e5b1a8add82","condition":"full-information","relevant_dimensions":["antennae","legs"],"bee_group":{"antennae":"A","wings":"X","pattern":"X","legs":"F"},"bonus":0.12000000000000001},{"rt":145,"stimulus":"bees-with-color/bee-A1DF.svg","response":0,"trial_type":"image-button-response","trial_index":145,"time_elapsed":749498,"internal_node_id":"0.0-6.0-0.9","subject_id":"5e2b922e32129c1ea324c7ae","study_id":"6197b3f67c2b5cd3b6d9596a","session_id":"619be58ebbd63e5b1a8add82","condition":"full-information","relevant_dimensions":["antennae","legs"],"bee_group":{"antennae":"A","wings":"X","pattern":"X","legs":"F"},"bonus":0.12000000000000001},{"rt":891,"stimulus":"bees-with-color/bee-A2SM.svg","response":1,"trial_type":"image-button-response","trial_index":146,"time_elapsed":750392,"internal_node_id":"0.0-6.0-0.10","subject_id":"5e2b922e32129c1ea324c7ae","study_id":"6197b3f67c2b5cd3b6d9596a","session_id":"619be58ebbd63e5b1a8add82","condition":"full-information","relevant_dimensions":["antennae","legs"],"bee_group":{"antennae":"A","wings":"X","pattern":"X","legs":"F"},"bonus":0.12000000000000001},{"rt":153,"stimulus":"bees-with-color/bee-B1SM.svg","response":1,"trial_type":"image-button-response","trial_index":147,"time_elapsed":750546,"internal_node_id":"0.0-6.0-0.11","subject_id":"5e2b922e32129c1ea324c7ae","study_id":"6197b3f67c2b5cd3b6d9596a","session_id":"619be58ebbd63e5b1a8add82","condition":"full-information","relevant_dimensions":["antennae","legs"],"bee_group":{"antennae":"A","wings":"X","pattern":"X","legs":"F"},"bonus":0.12000000000000001},{"rt":145,"stimulus":"bees-with-color/bee-B2DM.svg","response":1,"trial_type":"image-button-response","trial_index":148,"time_elapsed":750695,"internal_node_id":"0.0-6.0-0.12","subject_id":"5e2b922e32129c1ea324c7ae","study_id":"6197b3f67c2b5cd3b6d9596a","session_id":"619be58ebbd63e5b1a8add82","condition":"full-information","relevant_dimensions":["antennae","legs"],"bee_group":{"antennae":"A","wings":"X","pattern":"X","legs":"F"},"bonus":0.12000000000000001},{"rt":145,"stimulus":"bees-with-color/bee-A1SF.svg","response":1,"trial_type":"image-button-response","trial_index":149,"time_elapsed":750842,"internal_node_id":"0.0-6.0-0.13","subject_id":"5e2b922e32129c1ea324c7ae","study_id":"6197b3f67c2b5cd3b6d9596a","session_id":"619be58ebbd63e5b1a8add82","condition":"full-information","relevant_dimensions":["antennae","legs"],"bee_group":{"antennae":"A","wings":"X","pattern":"X","legs":"F"},"bonus":0.12000000000000001},{"rt":146,"stimulus":"bees-with-color/bee-B2SM.svg","response":1,"trial_type":"image-button-response","trial_index":150,"time_elapsed":750989,"internal_node_id":"0.0-6.0-0.14","subject_id":"5e2b922e32129c1ea324c7ae","study_id":"6197b3f67c2b5cd3b6d9596a","session_id":"619be58ebbd63e5b1a8add82","condition":"full-information","relevant_dimensions":["antennae","legs"],"bee_group":{"antennae":"A","wings":"X","pattern":"X","legs":"F"},"bonus":0.12000000000000001},{"rt":598,"stimulus":"bees-with-color/bee-A1SM.svg","response":0,"trial_type":"image-button-response","trial_index":151,"time_elapsed":751589,"internal_node_id":"0.0-6.0-0.15","subject_id":"5e2b922e32129c1ea324c7ae","study_id":"6197b3f67c2b5cd3b6d9596a","session_id":"619be58ebbd63e5b1a8add82","condition":"full-information","relevant_dimensions":["antennae","legs"],"bee_group":{"antennae":"A","wings":"X","pattern":"X","legs":"F"},"bonus":0.12000000000000001},{"rt":152,"stimulus":"bees-with-color/bee-A1DM.svg","response":0,"trial_type":"image-button-response","trial_index":152,"time_elapsed":751743,"internal_node_id":"0.0-6.0-0.16","subject_id":"5e2b922e32129c1ea324c7ae","study_id":"6197b3f67c2b5cd3b6d9596a","session_id":"619be58ebbd63e5b1a8add82","condition":"full-information","relevant_dimensions":["antennae","legs"],"bee_group":{"antennae":"A","wings":"X","pattern":"X","legs":"F"},"bonus":0.12000000000000001},{"rt":280,"stimulus":"bees-with-color/bee-A2DM.svg","response":0,"trial_type":"image-button-response","trial_index":153,"time_elapsed":752024,"internal_node_id":"0.0-6.0-0.17","subject_id":"5e2b922e32129c1ea324c7ae","study_id":"6197b3f67c2b5cd3b6d9596a","session_id":"619be58ebbd63e5b1a8add82","condition":"full-information","relevant_dimensions":["antennae","legs"],"bee_group":{"antennae":"A","wings":"X","pattern":"X","legs":"F"},"bonus":0.12000000000000001},{"rt":602,"stimulus":"bees-with-color/bee-B1SM.svg","response":1,"trial_type":"image-button-response","trial_index":154,"time_elapsed":752628,"internal_node_id":"0.0-6.0-0.18","subject_id":"5e2b922e32129c1ea324c7ae","study_id":"6197b3f67c2b5cd3b6d9596a","session_id":"619be58ebbd63e5b1a8add82","condition":"full-information","relevant_dimensions":["antennae","legs"],"bee_group":{"antennae":"A","wings":"X","pattern":"X","legs":"F"},"bonus":0.12000000000000001},{"rt":452,"stimulus":"bees-with-color/bee-A2SF.svg","response":0,"trial_type":"image-button-response","trial_index":155,"time_elapsed":753082,"internal_node_id":"0.0-6.0-0.19","subject_id":"5e2b922e32129c1ea324c7ae","study_id":"6197b3f67c2b5cd3b6d9596a","session_id":"619be58ebbd63e5b1a8add82","condition":"full-information","relevant_dimensions":["antennae","legs"],"bee_group":{"antennae":"A","wings":"X","pattern":"X","legs":"F"},"bonus":0.12000000000000001},{"rt":520,"stimulus":"bees-with-color/bee-A1SF.svg","response":1,"trial_type":"image-button-response","trial_index":156,"time_elapsed":753603,"internal_node_id":"0.0-6.0-0.20","subject_id":"5e2b922e32129c1ea324c7ae","study_id":"6197b3f67c2b5cd3b6d9596a","session_id":"619be58ebbd63e5b1a8add82","condition":"full-information","relevant_dimensions":["antennae","legs"],"bee_group":{"antennae":"A","wings":"X","pattern":"X","legs":"F"},"bonus":0.12000000000000001},{"rt":519,"stimulus":"bees-with-color/bee-B1DM.svg","response":0,"trial_type":"image-button-response","trial_index":157,"time_elapsed":754124,"internal_node_id":"0.0-6.0-0.21","subject_id":"5e2b922e32129c1ea324c7ae","study_id":"6197b3f67c2b5cd3b6d9596a","session_id":"619be58ebbd63e5b1a8add82","condition":"full-information","relevant_dimensions":["antennae","legs"],"bee_group":{"antennae":"A","wings":"X","pattern":"X","legs":"F"},"bonus":0.12000000000000001},{"rt":469,"stimulus":"bees-with-color/bee-B1DF.svg","response":1,"trial_type":"image-button-response","trial_index":158,"time_elapsed":754594,"internal_node_id":"0.0-6.0-0.22","subject_id":"5e2b922e32129c1ea324c7ae","study_id":"6197b3f67c2b5cd3b6d9596a","session_id":"619be58ebbd63e5b1a8add82","condition":"full-information","relevant_dimensions":["antennae","legs"],"bee_group":{"antennae":"A","wings":"X","pattern":"X","legs":"F"},"bonus":0.12000000000000001},{"rt":473,"stimulus":"bees-with-color/bee-B2DF.svg","response":0,"trial_type":"image-button-response","trial_index":159,"time_elapsed":755070,"internal_node_id":"0.0-6.0-0.23","subject_id":"5e2b922e32129c1ea324c7ae","study_id":"6197b3f67c2b5cd3b6d9596a","session_id":"619be58ebbd63e5b1a8add82","condition":"full-information","relevant_dimensions":["antennae","legs"],"bee_group":{"antennae":"A","wings":"X","pattern":"X","legs":"F"},"bonus":0.12000000000000001},{"rt":152,"stimulus":"bees-with-color/bee-A2DF.svg","response":0,"trial_type":"image-button-response","trial_index":160,"time_elapsed":755223,"internal_node_id":"0.0-6.0-0.24","subject_id":"5e2b922e32129c1ea324c7ae","study_id":"6197b3f67c2b5cd3b6d9596a","session_id":"619be58ebbd63e5b1a8add82","condition":"full-information","relevant_dimensions":["antennae","legs"],"bee_group":{"antennae":"A","wings":"X","pattern"