[{"success":true,"trial_type":"fullscreen","trial_index":0,"time_elapsed":2451,"internal_node_id":"0.0-0.0","subject_id":"5a062680c259f300017656b3","study_id":"6197b3f67c2b5cd3b6d9596a","session_id":"619be31f908569a938d4f68a","condition":"full-information","relevant_dimensions":["wings","legs"],"bee_group":{"antennae":"X","wings":"1","pattern":"X","legs":"M"},"bonus":0.7800000000000007},{"success":true,"timeout":false,"failed_images":[],"failed_audio":[],"failed_video":[],"trial_type":"preload","trial_index":1,"time_elapsed":4031,"internal_node_id":"0.0-1.0","subject_id":"5a062680c259f300017656b3","study_id":"6197b3f67c2b5cd3b6d9596a","session_id":"619be31f908569a938d4f68a","condition":"full-information","relevant_dimensions":["wings","legs"],"bee_group":{"antennae":"X","wings":"1","pattern":"X","legs":"M"},"bonus":0.7800000000000007},{"rt":1504,"stimulus":"Welcome! Press any key to begin.","response":"j","trial_type":"html-keyboard-response","trial_index":2,"time_elapsed":5536,"internal_node_id":"0.0-2.0","subject_id":"5a062680c259f300017656b3","study_id":"6197b3f67c2b5cd3b6d9596a","session_id":"619be31f908569a938d4f68a","condition":"full-information","relevant_dimensions":["wings","legs"],"bee_group":{"antennae":"X","wings":"1","pattern":"X","legs":"M"},"bonus":0.7800000000000007},{"view_history":[{"page_index":0,"viewing_time":2184},{"page_index":1,"viewing_time":6752},{"page_index":2,"viewing_time":14482},{"page_index":3,"viewing_time":9314},{"page_index":4,"viewing_time":2622},{"page_index":5,"viewing_time":4767},{"page_index":6,"viewing_time":6197},{"page_index":7,"viewing_time":7733},{"page_index":8,"viewing_time":3442},{"page_index":7,"viewing_time":674},{"page_index":8,"viewing_time":1012},{"page_index":7,"viewing_time":491},{"page_index":8,"viewing_time":600},{"page_index":7,"viewing_time":469},{"page_index":8,"viewing_time":702},{"page_index":7,"viewing_time":747},{"page_index":8,"viewing_time":2024},{"page_index":9,"viewing_time":3760},{"page_index":10,"viewing_time":1512},{"page_index":11,"viewing_time":2392},{"page_index":10,"viewing_time":1544},{"page_index":9,"viewing_time":189},{"page_index":8,"viewing_time":5425},{"page_index":9,"viewing_time":2235},{"page_index":10,"viewing_time":1194},{"page_index":11,"viewing_time":3548},{"page_index":12,"viewing_time":7265},{"page_index":13,"viewing_time":1051},{"page_index":14,"viewing_time":2177}],"rt":96505,"trial_type":"instructions","trial_index":3,"time_elapsed":102040,"internal_node_id":"0.0-3.0-0.0","subject_id":"5a062680c259f300017656b3","study_id":"6197b3f67c2b5cd3b6d9596a","session_id":"619be31f908569a938d4f68a","condition":"full-information","relevant_dimensions":["wings","legs"],"bee_group":{"antennae":"X","wings":"1","pattern":"X","legs":"M"},"bonus":0.7800000000000007},{"rt":12847,"response":{"Q0":["Two or six legs","Stripes or spots on body","Single or double wings","Antennae or no antennae"]},"question_order":[0],"trial_type":"survey-multi-select","trial_index":4,"time_elapsed":114891,"internal_node_id":"0.0-3.0-1.0","subject_id":"5a062680c259f300017656b3","study_id":"6197b3f67c2b5cd3b6d9596a","session_id":"619be31f908569a938d4f68a","condition":"full-information","relevant_dimensions":["wings","legs"],"bee_group":{"antennae":"X","wings":"1","pattern":"X","legs":"M"},"correct":true,"bonus":0.7800000000000007},{"rt":14437,"response":{"Q1":"No.","Q2":"Based on the four features of the bee.","Q3":"You learn if it was friendly or dangerous, but do not alter your bonus."},"question_order":[0,1,2],"trial_type":"survey-multi-choice","trial_index":5,"time_elapsed":129330,"internal_node_id":"0.0-3.0-2.0","subject_id":"5a062680c259f300017656b3","study_id":"6197b3f67c2b5cd3b6d9596a","session_id":"619be31f908569a938d4f68a","condition":"full-information","relevant_dimensions":["wings","legs"],"bee_group":{"antennae":"X","wings":"1","pattern":"X","legs":"M"},"correct":true,"bonus":0.7800000000000007},{"rt":1450,"stimulus":"<p>Congrats, you got everything right<br>When you're ready, click the button below to continue to the experiment.</p>","response":0,"trial_type":"html-button-response","trial_index":6,"time_elapsed":130782,"internal_node_id":"0.0-3.0-3.0","subject_id":"5a062680c259f300017656b3","study_id":"6197b3f67c2b5cd3b6d9596a","session_id":"619be31f908569a938d4f68a","condition":"full-information","relevant_dimensions":["wings","legs"],"bee_group":{"antennae":"X","wings":"1","pattern":"X","legs":"M"},"bonus":0.7800000000000007},{"rt":21255,"stimulus":"bees-with-color/bee-B1DM.svg","response":0,"trial_type":"image-button-response","trial_index":7,"time_elapsed":152038,"internal_node_id":"0.0-4.0-0.0","subject_id":"5a062680c259f300017656b3","study_id":"6197b3f67c2b5cd3b6d9596a","session_id":"619be31f908569a938d4f68a","condition":"full-information","relevant_dimensions":["wings","legs"],"bee_group":{"antennae":"X","wings":"1","pattern":"X","legs":"M"},"action":"harvest","summary":"bad-harvest","bonus":0.7800000000000007},{"rt":8054,"stimulus":"\n                    <p><b>Action: <em>harvest</em></b></p>\n                    <p>This is the bee that you just saw.</p>\n                    <img src=\"bees-with-color/bee-B1DM.svg\" width=\"200\">\n                    <p><span class=\"redText\">Bad choice, the bee was angry.</span><br><b>You have been stung!</b><br>Your pay has been decreased by $0.10. Your bonus pay is now $0.44.</p>\n            ","response":0,"trial_type":"html-button-response","trial_index":8,"time_elapsed":160104,"internal_node_id":"0.0-4.0-1.0","subject_id":"5a062680c259f300017656b3","study_id":"6197b3f67c2b5cd3b6d9596a","session_id":"619be31f908569a938d4f68a","condition":"full-information","relevant_dimensions":["wings","legs"],"bee_group":{"antennae":"X","wings":"1","pattern":"X","legs":"M"},"bonus":0.7800000000000007},{"rt":2774,"stimulus":"bees-with-color/bee-A2SF.svg","response":0,"trial_type":"image-button-response","trial_index":9,"time_elapsed":162880,"internal_node_id":"0.0-4.0-0.1","subject_id":"5a062680c259f300017656b3","study_id":"6197b3f67c2b5cd3b6d9596a","session_id":"619be31f908569a938d4f68a","condition":"full-information","relevant_dimensions":["wings","legs"],"bee_group":{"antennae":"X","wings":"1","pattern":"X","legs":"M"},"action":"harvest","summary":"good-harvest","bonus":0.7800000000000007},{"rt":4521,"stimulus":"\n                    <p><b>Action: <em>harvest</em></b></p>\n                    <p>This is the bee that you just saw.</p>\n                    <img src=\"bees-with-color/bee-A2SF.svg\" width=\"200\">\n                    <p><span class=\"greenText\"><b>Successful harvest!</b></span><br>Your pay has increased by $0.02. Your bonus pay is now $0.46.</p>\n            ","response":0,"trial_type":"html-button-response","trial_index":10,"time_elapsed":167401,"internal_node_id":"0.0-4.0-1.1","subject_id":"5a062680c259f300017656b3","study_id":"6197b3f67c2b5cd3b6d9596a","session_id":"619be31f908569a938d4f68a","condition":"full-information","relevant_dimensions":["wings","legs"],"bee_group":{"antennae":"X","wings":"1","pattern":"X","legs":"M"},"bonus":0.7800000000000007},{"rt":5153,"stimulus":"bees-with-color/bee-B1SF.svg","response":1,"trial_type":"image-button-response","trial_index":11,"time_elapsed":172555,"internal_node_id":"0.0-4.0-0.2","subject_id":"5a062680c259f300017656b3","study_id":"6197b3f67c2b5cd3b6d9596a","session_id":"619be31f908569a938d4f68a","condition":"full-information","relevant_dimensions":["wings","legs"],"bee_group":{"antennae":"X","wings":"1","pattern":"X","legs":"M"},"action":"avoid","summary":"bad-avoid","bonus":0.7800000000000007},{"rt":10951,"stimulus":"\n                    <p><b>Action: <em>avoid</em></b></p>\n                    <p>This is the bee that you just saw.</p>\n                    <img src=\"bees-with-color/bee-B1SF.svg\" width=\"200\">\n                    <p><span class=\"redText\">Bad choice,</span> the bee was friendly.<br>Your bonus pay is unchanged, and remains at $0.46.</p>\n            ","response":0,"trial_type":"html-button-response","trial_index":12,"time_elapsed":183507,"internal_node_id":"0.0-4.0-1.2","subject_id":"5a062680c259f300017656b3","study_id":"6197b3f67c2b5cd3b6d9596a","session_id":"619be31f908569a938d4f68a","condition":"full-information","relevant_dimensions":["wings","legs"],"bee_group":{"antennae":"X","wings":"1","pattern":"X","legs":"M"},"bonus":0.7800000000000007},{"rt":1012,"stimulus":"bees-with-color/bee-A2DF.svg","response":1,"trial_type":"image-button-response","trial_index":13,"time_elapsed":184520,"internal_node_id":"0.0-4.0-0.3","subject_id":"5a062680c259f300017656b3","study_id":"6197b3f67c2b5cd3b6d9596a","session_id":"619be31f908569a938d4f68a","condition":"full-information","relevant_dimensions":["wings","legs"],"bee_group":{"antennae":"X","wings":"1","pattern":"X","legs":"M"},"action":"avoid","summary":"bad-avoid","bonus":0.7800000000000007},{"rt":2495,"stimulus":"\n                    <p><b>Action: <em>avoid</em></b></p>\n                    <p>This is the bee that you just saw.</p>\n                    <img src=\"bees-with-color/bee-A2DF.svg\" width=\"200\">\n                    <p><span class=\"redText\">Bad choice,</span> the bee was friendly.<br>Your bonus pay is unchanged, and remains at $0.46.</p>\n            ","response":0,"trial_type":"html-button-response","trial_index":14,"time_elapsed":187018,"internal_node_id":"0.0-4.0-1.3","subject_id":"5a062680c259f300017656b3","study_id":"6197b3f67c2b5cd3b6d9596a","session_id":"619be31f908569a938d4f68a","condition":"full-information","relevant_dimensions":["wings","legs"],"bee_group":{"antennae":"X","wings":"1","pattern":"X","legs":"M"},"bonus":0.7800000000000007},{"rt":820,"stimulus":"bees-with-color/bee-A1SM.svg","response":0,"trial_type":"image-button-response","trial_index":15,"time_elapsed":187838,"internal_node_id":"0.0-4.0-0.4","subject_id":"5a062680c259f300017656b3","study_id":"6197b3f67c2b5cd3b6d9596a","session_id":"619be31f908569a938d4f68a","condition":"full-information","relevant_dimensions":["wings","legs"],"bee_group":{"antennae":"X","wings":"1","pattern":"X","legs":"M"},"action":"harvest","summary":"bad-harvest","bonus":0.7800000000000007},{"rt":5715,"stimulus":"\n                    <p><b>Action: <em>harvest</em></b></p>\n                    <p>This is the bee that you just saw.</p>\n                    <img src=\"bees-with-color/bee-A1SM.svg\" width=\"200\">\n                    <p><span class=\"redText\">Bad choice, the bee was angry.</span><br><b>You have been stung!</b><br>Your pay has been decreased by $0.10. Your bonus pay is now $0.36.</p>\n            ","response":0,"trial_type":"html-button-response","trial_index":16,"time_elapsed":193555,"internal_node_id":"0.0-4.0-1.4","subject_id":"5a062680c259f300017656b3","study_id":"6197b3f67c2b5cd3b6d9596a","session_id":"619be31f908569a938d4f68a","condition":"full-information","relevant_dimensions":["wings","legs"],"bee_group":{"antennae":"X","wings":"1","pattern":"X","legs":"M"},"bonus":0.7800000000000007},{"rt":3434,"stimulus":"bees-with-color/bee-A2DM.svg","response":0,"trial_type":"image-button-response","trial_index":17,"time_elapsed":196989,"internal_node_id":"0.0-4.0-0.5","subject_id":"5a062680c259f300017656b3","study_id":"6197b3f67c2b5cd3b6d9596a","session_id":"619be31f908569a938d4f68a","condition":"full-information","relevant_dimensions":["wings","legs"],"bee_group":{"antennae":"X","wings":"1","pattern":"X","legs":"M"},"action":"harvest","summary":"good-harvest","bonus":0.7800000000000007},{"rt":2734,"stimulus":"\n                    <p><b>Action: <em>harvest</em></b></p>\n                    <p>This is the bee that you just saw.</p>\n                    <img src=\"bees-with-color/bee-A2DM.svg\" width=\"200\">\n                    <p><span class=\"greenText\"><b>Successful harvest!</b></span><br>Your pay has increased by $0.02. Your bonus pay is now $0.38.</p>\n            ","response":0,"trial_type":"html-button-response","trial_index":18,"time_elapsed":199724,"internal_node_id":"0.0-4.0-1.5","subject_id":"5a062680c259f300017656b3","study_id":"6197b3f67c2b5cd3b6d9596a","session_id":"619be31f908569a938d4f68a","condition":"full-information","relevant_dimensions":["wings","legs"],"bee_group":{"antennae":"X","wings":"1","pattern":"X","legs":"M"},"bonus":0.7800000000000007},{"rt":1326,"stimulus":"bees-with-color/bee-A2SM.svg","response":1,"trial_type":"image-button-response","trial_index":19,"time_elapsed":201051,"internal_node_id":"0.0-4.0-0.6","subject_id":"5a062680c259f300017656b3","study_id":"6197b3f67c2b5cd3b6d9596a","session_id":"619be31f908569a938d4f68a","condition":"full-information","relevant_dimensions":["wings","legs"],"bee_group":{"antennae":"X","wings":"1","pattern":"X","legs":"M"},"action":"avoid","summary":"bad-avoid","bonus":0.7800000000000007},{"rt":2188,"stimulus":"\n                    <p><b>Action: <em>avoid</em></b></p>\n                    <p>This is the bee that you just saw.</p>\n                    <img src=\"bees-with-color/bee-A2SM.svg\" width=\"200\">\n                    <p><span class=\"redText\">Bad choice,</span> the bee was friendly.<br>Your bonus pay is unchanged, and remains at $0.38.</p>\n            ","response":0,"trial_type":"html-button-response","trial_index":20,"time_elapsed":203240,"internal_node_id":"0.0-4.0-1.6","subject_id":"5a062680c259f300017656b3","study_id":"6197b3f67c2b5cd3b6d9596a","session_id":"619be31f908569a938d4f68a","condition":"full-information","relevant_dimensions":["wings","legs"],"bee_group":{"antennae":"X","wings":"1","pattern":"X","legs":"M"},"bonus":0.7800000000000007},{"rt":690,"stimulus":"bees-with-color/bee-B2SF.svg","response":0,"trial_type":"image-button-response","trial_index":21,"time_elapsed":203931,"internal_node_id":"0.0-4.0-0.7","subject_id":"5a062680c259f300017656b3","study_id":"6197b3f67c2b5cd3b6d9596a","session_id":"619be31f908569a938d4f68a","condition":"full-information","relevant_dimensions":["wings","legs"],"bee_group":{"antennae":"X","wings":"1","pattern":"X","legs":"M"},"action":"harvest","summary":"good-harvest","bonus":0.7800000000000007},{"rt":2853,"stimulus":"\n                    <p><b>Action: <em>harvest</em></b></p>\n                    <p>This is the bee that you just saw.</p>\n                    <img src=\"bees-with-color/bee-B2SF.svg\" width=\"200\">\n                    <p><span class=\"greenText\"><b>Successful harvest!</b></span><br>Your pay has increased by $0.02. Your bonus pay is now $0.40.</p>\n            ","response":0,"trial_type":"html-button-response","trial_index":22,"time_elapsed":206786,"internal_node_id":"0.0-4.0-1.7","subject_id":"5a062680c259f300017656b3","study_id":"6197b3f67c2b5cd3b6d9596a","session_id":"619be31f908569a938d4f68a","condition":"full-information","relevant_dimensions":["wings","legs"],"bee_group":{"antennae":"X","wings":"1","pattern":"X","legs":"M"},"bonus":0.7800000000000007},{"rt":1281,"stimulus":"bees-with-color/bee-B2DF.svg","response":1,"trial_type":"image-button-response","trial_index":23,"time_elapsed":208068,"internal_node_id":"0.0-4.0-0.8","subject_id":"5a062680c259f300017656b3","study_id":"6197b3f67c2b5cd3b6d9596a","session_id":"619be31f908569a938d4f68a","condition":"full-information","relevant_dimensions":["wings","legs"],"bee_group":{"antennae":"X","wings":"1","pattern":"X","legs":"M"},"action":"avoid","summary":"bad-avoid","bonus":0.7800000000000007},{"rt":2033,"stimulus":"\n                    <p><b>Action: <em>avoid</em></b></p>\n                    <p>This is the bee that you just saw.</p>\n                    <img src=\"bees-with-color/bee-B2DF.svg\" width=\"200\">\n                    <p><span class=\"redText\">Bad choice,</span> the bee was friendly.<br>Your bonus pay is unchanged, and remains at $0.40.</p>\n            ","response":0,"trial_type":"html-button-response","trial_index":24,"time_elapsed":210103,"internal_node_id":"0.0-4.0-1.8","subject_id":"5a062680c259f300017656b3","study_id":"6197b3f67c2b5cd3b6d9596a","session_id":"619be31f908569a938d4f68a","condition":"full-information","relevant_dimensions":["wings","legs"],"bee_group":{"antennae":"X","wings":"1","pattern":"X","legs":"M"},"bonus":0.7800000000000007},{"rt":1690,"stimulus":"bees-with-color/bee-B2DM.svg","response":0,"trial_type":"image-button-response","trial_index":25,"time_elapsed":211793,"internal_node_id":"0.0-4.0-0.9","subject_id":"5a062680c259f300017656b3","study_id":"6197b3f67c2b5cd3b6d9596a","session_id":"619be31f908569a938d4f68a","condition":"full-information","relevant_dimensions":["wings","legs"],"bee_group":{"antennae":"X","wings":"1","pattern":"X","legs":"M"},"action":"harvest","summary":"good-harvest","bonus":0.7800000000000007},{"rt":2871,"stimulus":"\n                    <p><b>Action: <em>harvest</em></b></p>\n                    <p>This is the bee that you just saw.</p>\n                    <img src=\"bees-with-color/bee-B2DM.svg\" width=\"200\">\n                    <p><span class=\"greenText\"><b>Successful harvest!</b></span><br>Your pay has increased by $0.02. Your bonus pay is now $0.42.</p>\n            ","response":0,"trial_type":"html-button-response","trial_index":26,"time_elapsed":214665,"internal_node_id":"0.0-4.0-1.9","subject_id":"5a062680c259f300017656b3","study_id":"6197b3f67c2b5cd3b6d9596a","session_id":"619be31f908569a938d4f68a","condition":"full-information","relevant_dimensions":["wings","legs"],"bee_group":{"antennae":"X","wings":"1","pattern":"X","legs":"M"},"bonus":0.7800000000000007},{"rt":1436,"stimulus":"bees-with-color/bee-A1DF.svg","response":1,"trial_type":"image-button-response","trial_index":27,"time_elapsed":216104,"internal_node_id":"0.0-4.0-0.10","subject_id":"5a062680c259f300017656b3","study_id":"6197b3f67c2b5cd3b6d9596a","session_id":"619be31f908569a938d4f68a","condition":"full-information","relevant_dimensions":["wings","legs"],"bee_group":{"antennae":"X","wings":"1","pattern":"X","legs":"M"},"action":"avoid","summary":"bad-avoid","bonus":0.7800000000000007},{"rt":2604,"stimulus":"\n                    <p><b>Action: <em>avoid</em></b></p>\n                    <p>This is the bee that you just saw.</p>\n                    <img src=\"bees-with-color/bee-A1DF.svg\" width=\"200\">\n                    <p><span class=\"redText\">Bad choice,</span> the bee was friendly.<br>Your bonus pay is unchanged, and remains at $0.42.</p>\n            ","response":0,"trial_type":"html-button-response","trial_index":28,"time_elapsed":218708,"internal_node_id":"0.0-4.0-1.10","subject_id":"5a062680c259f300017656b3","study_id":"6197b3f67c2b5cd3b6d9596a","session_id":"619be31f908569a938d4f68a","condition":"full-information","relevant_dimensions":["wings","legs"],"bee_group":{"antennae":"X","wings":"1","pattern":"X","legs":"M"},"bonus":0.7800000000000007},{"rt":966,"stimulus":"bees-with-color/bee-B1DF.svg","response":1,"trial_type":"image-button-response","trial_index":29,"time_elapsed":219675,"internal_node_id":"0.0-4.0-0.11","subject_id":"5a062680c259f300017656b3","study_id":"6197b3f67c2b5cd3b6d9596a","session_id":"619be31f908569a938d4f68a","condition":"full-information","relevant_dimensions":["wings","legs"],"bee_group":{"antennae":"X","wings":"1","pattern":"X","legs":"M"},"action":"avoid","summary":"bad-avoid","bonus":0.7800000000000007},{"rt":988,"stimulus":"\n                    <p><b>Action: <em>avoid</em></b></p>\n                    <p>This is the bee that you just saw.</p>\n                    <img src=\"bees-with-color/bee-B1DF.svg\" width=\"200\">\n                    <p><span class=\"redText\">Bad choice,</span> the bee was friendly.<br>Your bonus pay is unchanged, and remains at $0.42.</p>\n            ","response":0,"trial_type":"html-button-response","trial_index":30,"time_elapsed":220664,"internal_node_id":"0.0-4.0-1.11","subject_id":"5a062680c259f300017656b3","study_id":"6197b3f67c2b5cd3b6d9596a","session_id":"619be31f908569a938d4f68a","condition":"full-information","relevant_dimensions":["wings","legs"],"bee_group":{"antennae":"X","wings":"1","pattern":"X","legs":"M"},"bonus":0.7800000000000007},{"rt":431,"stimulus":"bees-with-color/bee-A1DM.svg","response":1,"trial_type":"image-button-response","trial_index":31,"time_elapsed":221097,"internal_node_id":"0.0-4.0-0.12","subject_id":"5a062680c259f300017656b3","study_id":"6197b3f67c2b5cd3b6d9596a","session_id":"619be31f908569a938d4f68a","condition":"full-information","relevant_dimensions":["wings","legs"],"bee_group":{"antennae":"X","wings":"1","pattern":"X","legs":"M"},"action":"avoid","summary":"good-avoid","bonus":0.7800000000000007},{"rt":12573,"stimulus":"\n                    <p><b>Action: <em>avoid</em></b></p>\n                    <p>This is the bee that you just saw.</p>\n                    <img src=\"bees-with-color/bee-A1DM.svg\" width=\"200\">\n                    <p><span class=\"greenText\">Good choice!</span>  This bee would have stung you.<br>Your bonus pay is unchanged, and remains at $0.42.</p>\n            ","response":0,"trial_type":"html-button-response","trial_index":32,"time_elapsed":233672,"internal_node_id":"0.0-4.0-1.12","subject_id":"5a062680c259f300017656b3","study_id":"6197b3f67c2b5cd3b6d9596a","session_id":"619be31f908569a938d4f68a","condition":"full-information","relevant_dimensions":["wings","legs"],"bee_group":{"antennae":"X","wings":"1","pattern":"X","legs":"M"},"bonus":0.7800000000000007},{"rt":1110,"stimulus":"bees-with-color/bee-B2SM.svg","response":0,"trial_type":"image-button-response","trial_index":33,"time_elapsed":234783,"internal_node_id":"0.0-4.0-0.13","subject_id":"5a062680c259f300017656b3","study_id":"6197b3f67c2b5cd3b6d9596a","session_id":"619be31f908569a938d4f68a","condition":"full-information","relevant_dimensions":["wings","legs"],"bee_group":{"antennae":"X","wings":"1","pattern":"X","legs":"M"},"action":"harvest","summary":"good-harvest","bonus":0.7800000000000007},{"rt":1029,"stimulus":"\n                    <p><b>Action: <em>harvest</em></b></p>\n                    <p>This is the bee that you just saw.</p>\n                    <img src=\"bees-with-color/bee-B2SM.svg\" width=\"200\">\n                    <p><span class=\"greenText\"><b>Successful harvest!</b></span><br>Your pay has increased by $0.02. Your bonus pay is now $0.44.</p>\n            ","response":0,"trial_type":"html-button-response","trial_index":34,"time_elapsed":235813,"internal_node_id":"0.0-4.0-1.13","subject_id":"5a062680c259f300017656b3","study_id":"6197b3f67c2b5cd3b6d9596a","session_id":"619be31f908569a938d4f68a","condition":"full-information","relevant_dimensions":["wings","legs"],"bee_group":{"antennae":"X","wings":"1","pattern":"X","legs":"M"},"bonus":0.7800000000000007},{"rt":2467,"stimulus":"bees-with-color/bee-B1SM.svg","response":0,"trial_type":"image-button-response","trial_index":35,"time_elapsed":238281,"internal_node_id":"0.0-4.0-0.14","subject_id":"5a062680c259f300017656b3","study_id":"6197b3f67c2b5cd3b6d9596a","session_id":"619be31f908569a938d4f68a","condition":"full-information","relevant_dimensions":["wings","legs"],"bee_group":{"antennae":"X","wings":"1","pattern":"X","legs":"M"},"action":"harvest","summary":"bad-harvest","bonus":0.7800000000000007},{"rt":7556,"stimulus":"\n                    <p><b>Action: <em>harvest</em></b></p>\n                    <p>This is the bee that you just saw.</p>\n                    <img src=\"bees-with-color/bee-B1SM.svg\" width=\"200\">\n                    <p><span class=\"redText\">Bad choice, the bee was angry.</span><br><b>You have been stung!</b><br>Your pay has been decreased by $0.10. Your bonus pay is now $0.34.</p>\n            ","response":0,"trial_type":"html-button-response","trial_index":36,"time_elapsed":245838,"internal_node_id":"0.0-4.0-1.14","subject_id":"5a062680c259f300017656b3","study_id":"6197b3f67c2b5cd3b6d9596a","session_id":"619be31f908569a938d4f68a","condition":"full-information","relevant_dimensions":["wings","legs"],"bee_group":{"antennae":"X","wings":"1","pattern":"X","legs":"M"},"bonus":0.7800000000000007},{"rt":3192,"stimulus":"bees-with-color/bee-A1SF.svg","response":0,"trial_type":"image-button-response","trial_index":37,"time_elapsed":249030,"internal_node_id":"0.0-4.0-0.15","subject_id":"5a062680c259f300017656b3","study_id":"6197b3f67c2b5cd3b6d9596a","session_id":"619be31f908569a938d4f68a","condition":"full-information","relevant_dimensions":["wings","legs"],"bee_group":{"antennae":"X","wings":"1","pattern":"X","legs":"M"},"action":"harvest","summary":"good-harvest","bonus":0.7800000000000007},{"rt":850,"stimulus":"\n                    <p><b>Action: <em>harvest</em></b></p>\n                    <p>This is the bee that you just saw.</p>\n                    <img src=\"bees-with-color/bee-A1SF.svg\" width=\"200\">\n                    <p><span class=\"greenText\"><b>Successful harvest!</b></span><br>Your pay has increased by $0.02. Your bonus pay is now $0.36.</p>\n            ","response":0,"trial_type":"html-button-response","trial_index":38,"time_elapsed":249882,"internal_node_id":"0.0-4.0-1.15","subject_id":"5a062680c259f300017656b3","study_id":"6197b3f67c2b5cd3b6d9596a","session_id":"619be31f908569a938d4f68a","condition":"full-information","relevant_dimensions":["wings","legs"],"bee_group":{"antennae":"X","wings":"1","pattern":"X","legs":"M"},"bonus":0.7800000000000007},{"rt":2890,"stimulus":"bees-with-color/bee-B1DM.svg","response":0,"trial_type":"image-button-response","trial_index":39,"time_elapsed":252772,"internal_node_id":"0.0-4.0-0.16","subject_id":"5a062680c259f300017656b3","study_id":"6197b3f67c2b5cd3b6d9596a","session_id":"619be31f908569a938d4f68a","condition":"full-information","relevant_dimensions":["wings","legs"],"bee_group":{"antennae":"X","wings":"1","pattern":"X","legs":"M"},"action":"harvest","summary":"bad-harvest","bonus":0.7800000000000007},{"rt":5989,"stimulus":"\n                    <p><b>Action: <em>harvest</em></b></p>\n                    <p>This is the bee that you just saw.</p>\n                    <img src=\"bees-with-color/bee-B1DM.svg\" width=\"200\">\n                    <p><span class=\"redText\">Bad choice, the bee was angry.</span><br><b>You have been stung!</b><br>Your pay has been decreased by $0.10. Your bonus pay is now $0.26.</p>\n            ","response":0,"trial_type":"html-button-response","trial_index":40,"time_elapsed":258763,"internal_node_id":"0.0-4.0-1.16","subject_id":"5a062680c259f300017656b3","study_id":"6197b3f67c2b5cd3b6d9596a","session_id":"619be31f908569a938d4f68a","condition":"full-information","relevant_dimensions":["wings","legs"],"bee_group":{"antennae":"X","wings":"1","pattern":"X","legs":"M"},"bonus":0.7800000000000007},{"rt":1230,"stimulus":"bees-with-color/bee-B2SF.svg","response":0,"trial_type":"image-button-response","trial_index":41,"time_elapsed":259994,"internal_node_id":"0.0-4.0-0.17","subject_id":"5a062680c259f300017656b3","study_id":"6197b3f67c2b5cd3b6d9596a","session_id":"619be31f908569a938d4f68a","condition":"full-information","relevant_dimensions":["wings","legs"],"bee_group":{"antennae":"X","wings":"1","pattern":"X","legs":"M"},"action":"harvest","summary":"good-harvest","bonus":0.7800000000000007},{"rt":1008,"stimulus":"\n                    <p><b>Action: <em>harvest</em></b></p>\n                    <p>This is the bee that you just saw.</p>\n                    <img src=\"bees-with-color/bee-B2SF.svg\" width=\"200\">\n                    <p><span class=\"greenText\"><b>Successful harvest!</b></span><br>Your pay has increased by $0.02. Your bonus pay is now $0.28.</p>\n            ","response":0,"trial_type":"html-button-response","trial_index":42,"time_elapsed":261002,"internal_node_id":"0.0-4.0-1.17","subject_id":"5a062680c259f300017656b3","study_id":"6197b3f67c2b5cd3b6d9596a","session_id":"619be31f908569a938d4f68a","condition":"full-information","relevant_dimensions":["wings","legs"],"bee_group":{"antennae":"X","wings":"1","pattern":"X","legs":"M"},"bonus":0.7800000000000007},{"rt":982,"stimulus":"bees-with-color/bee-B1SF.svg","response":1,"trial_type":"image-button-response","trial_index":43,"time_elapsed":261985,"internal_node_id":"0.0-4.0-0.18","subject_id":"5a062680c259f300017656b3","study_id":"6197b3f67c2b5cd3b6d9596a","session_id":"619be31f908569a938d4f68a","condition":"full-information","relevant_dimensions":["wings","legs"],"bee_group":{"antennae":"X","wings":"1","pattern":"X","legs":"M"},"action":"avoid","summary":"bad-avoid","bonus":0.7800000000000007},{"rt":928,"stimulus":"\n                    <p><b>Action: <em>avoid</em></b></p>\n                    <p>This is the bee that you just saw.</p>\n                    <img src=\"bees-with-color/bee-B1SF.svg\" width=\"200\">\n                    <p><span class=\"redText\">Bad choice,</span> the bee was friendly.<br>Your bonus pay is unchanged, and remains at $0.28.</p>\n            ","response":0,"trial_type":"html-button-response","trial_index":44,"time_elapsed":262914,"internal_node_id":"0.0-4.0-1.18","subject_id":"5a062680c259f300017656b3","study_id":"6197b3f67c2b5cd3b6d9596a","session_id":"619be31f908569a938d4f68a","condition":"full-information","relevant_dimensions":["wings","legs"],"bee_group":{"antennae":"X","wings":"1","pattern":"X","legs":"M"},"bonus":0.7800000000000007},{"rt":1009,"stimulus":"bees-with-color/bee-A2DM.svg","response":0,"trial_type":"image-button-response","trial_index":45,"time_elapsed":263924,"internal_node_id":"0.0-4.0-0.19","subject_id":"5a062680c259f300017656b3","study_id":"6197b3f67c2b5cd3b6d9596a","session_id":"619be31f908569a938d4f68a","condition":"full-information","relevant_dimensions":["wings","legs"],"bee_group":{"antennae":"X","wings":"1","pattern":"X","legs":"M"},"action":"harvest","summary":"good-harvest","bonus":0.7800000000000007},{"rt":713,"stimulus":"\n                    <p><b>Action: <em>harvest</em></b></p>\n                    <p>This is the bee that you just saw.</p>\n                    <img src=\"bees-with-color/bee-A2DM.svg\" width=\"200\">\n                    <p><span class=\"greenText\"><b>Successful harvest!</b></span><br>Your pay has increased by $0.02. Your bonus pay is now $0.30.</p>\n            ","response":0,"trial_type":"html-button-response","trial_index":46,"time_elapsed":264639,"internal_node_id":"0.0-4.0-1.19","subject_id":"5a062680c259f300017656b3","study_id":"6197b3f67c2b5cd3b6d9596a","session_id":"619be31f908569a938d4f68a","condition":"full-information","relevant_dimensions":["wings","legs"],"bee_group":{"antennae":"X","wings":"1","pattern":"X","legs":"M"},"bonus":0.7800000000000007},{"rt":2182,"stimulus":"bees-with-color/bee-B2SM.svg","response":0,"trial_type":"image-button-response","trial_index":47,"time_elapsed":266821,"internal_node_id":"0.0-4.0-0.20","subject_id":"5a062680c259f300017656b3","study_id":"6197b3f67c2b5cd3b6d9596a","session_id":"619be31f908569a938d4f68a","condition":"full-information","relevant_dimensions":["wings","legs"],"bee_group":{"antennae":"X","wings":"1","pattern":"X","legs":"M"},"action":"harvest","summary":"good-harvest","bonus":0.7800000000000007},{"rt":544,"stimulus":"\n                    <p><b>Action: <em>harvest</em></b></p>\n                    <p>This is the bee that you just saw.</p>\n                    <img src=\"bees-with-color/bee-B2SM.svg\" width=\"200\">\n                    <p><span class=\"greenText\"><b>Successful harvest!</b></span><br>Your pay has increased by $0.02. Your bonus pay is now $0.32.</p>\n            ","response":0,"trial_type":"html-button-response","trial_index":48,"time_elapsed":267366,"internal_node_id":"0.0-4.0-1.20","subject_id":"5a062680c259f300017656b3","study_id":"6197b3f67c2b5cd3b6d9596a","session_id":"619be31f908569a938d4f68a","condition":"full-information","relevant_dimensions":["wings","legs"],"bee_group":{"antennae":"X","wings":"1","pattern":"X","legs":"M"},"bonus":0.7800000000000007},{"rt":1084,"stimulus":"bees-with-color/bee-A2DF.svg","response":0,"trial_type":"image-button-response","trial_index":49,"time_elapsed":268451,"internal_node_id":"0.0-4.0-0.21","subject_id":"5a062680c259f300017656b3","study_id":"6197b3f67c2b5cd3b6d9596a","session_id":"619be31f908569a938d4f68a","condition":"full-information","relevant_dimensions":["wings","legs"],"bee_group":{"antennae":"X","wings":"1","pattern":"X","legs":"M"},"action":"harvest","summary":"good-harvest","bonus":0.7800000000000007},{"rt":1205,"stimulus":"\n                    <p><b>Action: <em>harvest</em></b></p>\n                    <p>This is the bee that you just saw.</p>\n                    <img src=\"bees-with-color/bee-A2DF.svg\" width=\"200\">\n                    <p><span class=\"greenText\"><b>Successful harvest!</b></span><br>Your pay has increased by $0.02. Your bonus pay is now $0.34.</p>\n            ","response":0,"trial_type":"html-button-response","trial_index":50,"time_elapsed":269657,"internal_node_id":"0.0-4.0-1.21","subject_id":"5a062680c259f300017656b3","study_id":"6197b3f67c2b5cd3b6d9596a","session_id":"619be31f908569a938d4f68a","condition":"full-information","relevant_dimensions":["wings","legs"],"bee_group":{"antennae":"X","wings":"1","pattern":"X","legs":"M"},"bonus":0.7800000000000007},{"rt":2555,"stimulus":"bees-with-color/bee-A1SM.svg","response":1,"trial_type":"image-button-response","trial_index":51,"time_elapsed":272213,"internal_node_id":"0.0-4.0-0.22","subject_id":"5a062680c259f300017656b3","study_id":"6197b3f67c2b5cd3b6d9596a","session_id":"619be31f908569a938d4f68a","condition":"full-information","relevant_dimensions":["wings","legs"],"bee_group":{"antennae":"X","wings":"1","pattern":"X","legs":"M"},"action":"avoid","summary":"good-avoid","bonus":0.7800000000000007},{"rt":1837,"stimulus":"\n                    <p><b>Action: <em>avoid</em></b></p>\n                    <p>This is the bee that you just saw.</p>\n                    <img src=\"bees-with-color/bee-A1SM.svg\" width=\"200\">\n                    <p><span class=\"greenText\">Good choice!</span>  This bee would have stung you.<br>Your bonus pay is unchanged, and remains at $0.34.</p>\n            ","response":0,"trial_type":"html-button-response","trial_index":52,"time_elapsed":274052,"internal_node_id":"0.0-4.0-1.22","subject_id":"5a062680c259f300017656b3","study_id":"6197b3f67c2b5cd3b6d9596a","session_id":"619be31f908569a938d4f68a","condition":"full-information","relevant_dimensions":["wings","legs"],"bee_group":{"antennae":"X","wings":"1","pattern":"X","legs":"M"},"bonus":0.7800000000000007},{"rt":2446,"stimulus":"bees-with-color/bee-A1SF.svg","response":1,"trial_type":"image-button-response","trial_index":53,"time_elapsed":276499,"internal_node_id":"0.0-4.0-0.23","subject_id":"5a062680c259f300017656b3","study_id":"6197b3f67c2b5cd3b6d9596a","session_id":"619be31f908569a938d4f68a","condition":"full-information","relevant_dimensions":["wings","legs"],"bee_group":{"antennae":"X","wings":"1","pattern":"X","legs":"M"},"action":"avoid","summary":"bad-avoid","bonus":0.7800000000000007},{"rt":2626,"stimulus":"\n                    <p><b>Action: <em>avoid</em></b></p>\n                    <p>This is the bee that you just saw.</p>\n                    <img src=\"bees-with-color/bee-A1SF.svg\" width=\"200\">\n                    <p><span class=\"redText\">Bad choice,</span> the bee was friendly.<br>Your bonus pay is unchanged, and remains at $0.34.</p>\n            ","response":0,"trial_type":"html-button-response","trial_index":54,"time_elapsed":279125,"internal_node_id":"0.0-4.0-1.23","subject_id":"5a062680c259f300017656b3","study_id":"6197b3f67c2b5cd3b6d9596a","session_id":"619be31f908569a938d4f68a","condition":"full-information","relevant_dimensions":["wings","legs"],"bee_group":{"antennae":"X","wings":"1","pattern":"X","legs":"M"},"bonus":0.7800000000000007},{"rt":1913,"stimulus":"bees-with-color/bee-A1DM.svg","response":0,"trial_type":"image-button-response","trial_index":55,"time_elapsed":281040,"internal_node_id":"0.0-4.0-0.24","subject_id":"5a062680c259f300017656b3","study_id":"6197b3f67c2b5cd3b6d9596a","session_id":"619be31f908569a938d4f68a","condition":"full-information","relevant_dimensions":["wings","legs"],"bee_group":{"antennae":"X","wings":"1","pattern":"X","legs":"M"},"action":"harvest","summary":"bad-harvest","bonus":0.7800000000000007},{"rt":2106,"stimulus":"\n                    <p><b>Action: <em>harvest</em></b></p>\n                    <p>This is the bee that you just saw.</p>\n                    <img src=\"bees-with-color/bee-A1DM.svg\" width=\"200\">\n                    <p><span class=\"redText\">Bad choice, the bee was angry.</span><br><b>You have been stung!</b><br>Your pay has been decreased by $0.10. Your bonus pay is now $0.24.</p>\n            ","response":0,"trial_type":"html-button-response","trial_index":56,"time_elapsed":283147,"internal_node_id":"0.0-4.0-1.24","subject_id":"5a062680c259f300017656b3","study_id":"6197b3f67c2b5cd3b6d9596a","session_id":"619be31f908569a938d4f68a","condition":"full-information","relevant_dimensions":["wings","legs"],"bee_group":{"antennae":"X","wings":"1","pattern":"X","legs":"M"},"bonus":0.7800000000000007},{"rt":1699,"stimulus":"bees-with-color/bee-B1DF.svg","response":0,"trial_type":"image-button-response","trial_index":57,"time_elapsed":284847,"internal_node_id":"0.0-4.0-0.25","subject_id":"5a062680c259f300017656b3","study_id":"6197b3f67c2b5cd3b6d9596a","session_id":"619be31f908569a938d4f68a","condition":"full-information","relevant_dimensions":["wings","legs"],"bee_group":{"antennae":"X","wings":"1","pattern":"X","legs":"M"},"action":"harvest","summary":"good-harvest","bonus":0.7800000000000007},{"rt":805,"stimulus":"\n                    <p><b>Action: <em>harvest</em></b></p>\n                    <p>This is the bee that you just saw.</p>\n                    <img src=\"bees-with-color/bee-B1DF.svg\" width=\"200\">\n                    <p><span class=\"greenText\"><b>Successful harvest!</b></span><br>Your pay has increased by $0.02. Your bonus pay is now $0.26.</p>\n            ","response":0,"trial_type":"html-button-response","trial_index":58,"time_elapsed":285652,"internal_node_id":"0.0-4.0-1.25","subject_id":"5a062680c259f300017656b3","study_id":"6197b3f67c2b5cd3b6d9596a","session_id":"619be31f908569a938d4f68a","condition":"full-information","relevant_dimensions":["wings","legs"],"bee_group":{"antennae":"X","wings":"1","pattern":"X","legs":"M"},"bonus":0.7800000000000007},{"rt":1153,"stimulus":"bees-with-color/bee-B2DF.svg","response":0,"trial_type":"image-button-response","trial_index":59,"time_elapsed":286806,"internal_node_id":"0.0-4.0-0.26","subject_id":"5a062680c259f300017656b3","study_id":"6197b3f67c2b5cd3b6d9596a","session_id":"619be31f908569a938d4f68a","condition":"full-information","relevant_dimensions":["wings","legs"],"bee_group":{"antennae":"X","wings":"1","pattern":"X","legs":"M"},"action":"harvest","summary":"good-harvest","bonus":0.7800000000000007},{"rt":505,"stimulus":"\n                    <p><b>Action: <em>harvest</em></b></p>\n                    <p>This is the bee that you just saw.</p>\n                    <img src=\"bees-with-color/bee-B2DF.svg\" width=\"200\">\n                    <p><span class=\"greenText\"><b>Successful harvest!</b></span><br>Your pay has increased by $0.02. Your bonus pay is now $0.28.</p>\n            ","response":0,"trial_type":"html-button-response","trial_index":60,"time_elapsed":287311,"internal_node_id":"0.0-4.0-1.26","subject_id":"5a062680c259f300017656b3","study_id":"6197b3f67c2b5cd3b6d9596a","session_id":"619be31f908569a938d4f68a","condition":"full-information","relevant_dimensions":["wings","legs"],"bee_group":{"antennae":"X","wings":"1","pattern":"X","legs":"M"},"bonus":0.7800000000000007},{"rt":793,"stimulus":"bees-with-color/bee-A2SM.svg","response":0,"trial_type":"image-button-response","trial_index":61,"time_elapsed":288105,"internal_node_id":"0.0-4.0-0.27","subject_id":"5a062680c259f300017656b3","study_id":"6197b3f67c2b5cd3b6d9596a","session_id":"619be31f908569a938d4f68a","condition":"full-information","relevant_dimensions":["wings","legs"],"bee_group":{"antennae":"X","wings":"1","pattern":"X","legs":"M"},"action":"harvest","summary":"good-harvest","bonus":0.7800000000000007},{"rt":550,"stimulus":"\n                    <p><b>Action: <em>harvest</em></b></p>\n                    <p>This is the bee that you just saw.</p>\n                    <img src=\"bees-with-color/bee-A2SM.svg\" width=\"200\">\n                    <p><span class=\"greenText\"><b>Successful harvest!</b></span><br>Your pay has increased by $0.02. Your bonus pay is now $0.30.</p>\n            ","response":0,"trial_type":"html-button-response","trial_index":62,"time_elapsed":288657,"internal_node_id":"0.0-4.0-1.27","subject_id":"5a062680c259f300017656b3","study_id":"6197b3f67c2b5cd3b6d9596a","session_id":"619be31f908569a938d4f68a","condition":"full-information","relevant_dimensions":["wings","legs"],"bee_group":{"antennae":"X","wings":"1","pattern":"X","legs":"M"},"bonus":0.7800000000000007},{"rt":1009,"stimulus":"bees-with-color/bee-A1DF.svg","response":1,"trial_type":"image-button-response","trial_index":63,"time_elapsed":289666,"internal_node_id":"0.0-4.0-0.28","subject_id":"5a062680c259f300017656b3","study_id":"6197b3f67c2b5cd3b6d9596a","session_id":"619be31f908569a938d4f68a","condition":"full-information","relevant_dimensions":["wings","legs"],"bee_group":{"antennae":"X","wings":"1","pattern":"X","legs":"M"},"action":"avoid","summary":"bad-avoid","bonus":0.7800000000000007},{"rt":745,"stimulus":"\n                    <p><b>Action: <em>avoid</em></b></p>\n                    <p>This is the bee that you just saw.</p>\n                    <img src=\"bees-with-color/bee-A1DF.svg\" width=\"200\">\n                    <p><span class=\"redText\">Bad choice,</span> the bee was friendly.<br>Your bonus pay is unchanged, and remains at $0.30.</p>\n            ","response":0,"trial_type":"html-button-response","trial_index":64,"time_elapsed":290411,"internal_node_id":"0.0-4.0-1.28","subject_id":"5a062680c259f300017656b3","study_id":"6197b3f67c2b5cd3b6d9596a","session_id":"619be31f908569a938d4f68a","condition":"full-information","relevant_dimensions":["wings","legs"],"bee_group":{"antennae":"X","wings":"1","pattern":"X","legs":"M"},"bonus":0.7800000000000007},{"rt":857,"stimulus":"bees-with-color/bee-B2DM.svg","response":0,"trial_type":"image-button-response","trial_index":65,"time_elapsed":291269,"internal_node_id":"0.0-4.0-0.29","subject_id":"5a062680c259f300017656b3","study_id":"6197b3f67c2b5cd3b6d9596a","session_id":"619be31f908569a938d4f68a","condition":"full-information","relevant_dimensions":["wings","legs"],"bee_group":{"antennae":"X","wings":"1","pattern":"X","legs":"M"},"action":"harvest","summary":"good-harvest","bonus":0.7800000000000007},{"rt":977,"stimulus":"\n                    <p><b>Action: <em>harvest</em></b></p>\n                    <p>This is the bee that you just saw.</p>\n                    <img src=\"bees-with-color/bee-B2DM.svg\" width=\"200\">\n                    <p><span class=\"greenText\"><b>Successful harvest!</b></span><br>Your pay has increased by $0.02. Your bonus pay is now $0.32.</p>\n            ","response":0,"trial_type":"html-button-response","trial_index":66,"time_elapsed":292246,"internal_node_id":"0.0-4.0-1.29","subject_id":"5a062680c259f300017656b3","study_id":"6197b3f67c2b5cd3b6d9596a","session_id":"619be31f908569a938d4f68a","condition":"full-information","relevant_dimensions":["wings","legs"],"bee_group":{"antennae":"X","wings":"1","pattern":"X","legs":"M"},"bonus":0.7800000000000007},{"rt":1932,"stimulus":"bees-with-color/bee-B1SM.svg","response":1,"trial_type":"image-button-response","trial_index":67,"time_elapsed":294179,"internal_node_id":"0.0-4.0-0.30","subject_id":"5a062680c259f300017656b3","study_id":"6197b3f67c2b5cd3b6d9596a","session_id":"619be31f908569a938d4f68a","condition":"full-information","relevant_dimensions":["wings","legs"],"bee_group":{"antennae":"X","wings":"1","pattern":"X","legs":"M"},"action":"avoid","summary":"good-avoid","bonus":0.7800000000000007},{"rt":6299,"stimulus":"\n                    <p><b>Action: <em>avoid</em></b></p>\n                    <p>This is the bee that you just saw.</p>\n                    <img src=\"bees-with-color/bee-B1SM.svg\" width=\"200\">\n                    <p><span class=\"greenText\">Good choice!</span>  This bee would have stung you.<br>Your bonus pay is unchanged, and remains at $0.32.</p>\n            ","response":0,"trial_type":"html-button-response","trial_index":68,"time_elapsed":300479,"internal_node_id":"0.0-4.0-1.30","subject_id":"5a062680c259f300017656b3","study_id":"6197b3f67c2b5cd3b6d9596a","session_id":"619be31f908569a938d4f68a","condition":"full-information","relevant_dimensions":["wings","legs"],"bee_group":{"antennae":"X","wings":"1","pattern":"X","legs":"M"},"bonus":0.7800000000000007},{"rt":969,"stimulus":"bees-with-color/bee-A2SF.svg","response":0,"trial_type":"image-button-response","trial_index":69,"time_elapsed":301449,"internal_node_id":"0.0-4.0-0.31","subject_id":"5a062680c259f300017656b3","study_id":"6197b3f67c2b5cd3b6d9596a","session_id":"619be31f908569a938d4f68a","condition":"full-information","relevant_dimensions":["wings","legs"],"bee_group":{"antennae":"X","wings":"1","pattern":"X","legs":"M"},"action":"harvest","summary":"good-harvest","bonus":0.7800000000000007},{"rt":483,"stimulus":"\n                    <p><b>Action: <em>harvest</em></b></p>\n                    <p>This is the bee that you just saw.</p>\n                    <img src=\"bees-with-color/bee-A2SF.svg\" width=\"200\">\n                    <p><span class=\"greenText\"><b>Successful harvest!</b></span><br>Your pay has increased by $0.02. Your bonus pay is now $0.34.</p>\n            ","response":0,"trial_type":"html-button-response","trial_index":70,"time_elapsed":301933,"internal_node_id":"0.0-4.0-1.31","subject_id":"5a062680c259f300017656b3","study_id":"6197b3f67c2b5cd3b6d9596a","session_id":"619be31f908569a938d4f68a","condition":"full-information","relevant_dimensions":["wings","legs"],"bee_group":{"antennae":"X","wings":"1","pattern":"X","legs":"M"},"bonus":0.7800000000000007},{"rt":1473,"stimulus":"bees-with-color/bee-A1DM.svg","response":1,"trial_type":"image-button-response","trial_index":71,"time_elapsed":303407,"internal_node_id":"0.0-4.0-0.32","subject_id":"5a062680c259f300017656b3","study_id":"6197b3f67c2b5cd3b6d9596a","session_id":"619be31f908569a938d4f68a","condition":"full-information","relevant_dimensions":["wings","legs"],"bee_group":{"antennae":"X","wings":"1","pattern":"X","legs":"M"},"action":"avoid","summary":"good-avoid","bonus":0.7800000000000007},{"rt":4654,"stimulus":"\n                    <p><b>Action: <em>avoid</em></b></p>\n                    <p>This is the bee that you just saw.</p>\n                    <img src=\"bees-with-color/bee-A1DM.svg\" width=\"200\">\n                    <p><span class=\"greenText\">Good choice!</span>  This bee would have stung you.<br>Your bonus pay is unchanged, and remains at $0.34.</p>\n            ","response":0,"trial_type":"html-button-response","trial_index":72,"time_elapsed":308063,"internal_node_id":"0.0-4.0-1.32","subject_id":"5a062680c259f300017656b3","study_id":"6197b3f67c2b5cd3b6d9596a","session_id":"619be31f908569a938d4f68a","condition":"full-information","relevant_dimensions":["wings","legs"],"bee_group":{"antennae":"X","wings":"1","pattern":"X","legs":"M"},"bonus":0.7800000000000007},{"rt":1704,"stimulus":"bees-with-color/bee-A2SM.svg","response":0,"trial_type":"image-button-response","trial_index":73,"time_elapsed":309767,"internal_node_id":"0.0-4.0-0.33","subject_id":"5a062680c259f300017656b3","study_id":"6197b3f67c2b5cd3b6d9596a","session_id":"619be31f908569a938d4f68a","condition":"full-information","relevant_dimensions":["wings","legs"],"bee_group":{"antennae":"X","wings":"1","pattern":"X","legs":"M"},"action":"harvest","summary":"good-harvest","bonus":0.7800000000000007},{"rt":598,"stimulus":"\n                    <p><b>Action: <em>harvest</em></b></p>\n                    <p>This is the bee that you just saw.</p>\n                    <img src=\"bees-with-color/bee-A2SM.svg\" width=\"200\">\n                    <p><span class=\"greenText\"><b>Successful harvest!</b></span><br>Your pay has increased by $0.02. Your bonus pay is now $0.36.</p>\n            ","response":0,"trial_type":"html-button-response","trial_index":74,"time_elapsed":310366,"internal_node_id":"0.0-4.0-1.33","subject_id":"5a062680c259f300017656b3","study_id":"6197b3f67c2b5cd3b6d9596a","session_id":"619be31f908569a938d4f68a","condition":"full-information","relevant_dimensions":["wings","legs"],"bee_group":{"antennae":"X","wings":"1","pattern":"X","legs":"M"},"bonus":0.7800000000000007},{"rt":2377,"stimulus":"bees-with-color/bee-A2DF.svg","response":0,"trial_type":"image-button-response","trial_index":75,"time_elapsed":312744,"internal_node_id":"0.0-4.0-0.34","subject_id":"5a062680c259f300017656b3","study_id":"6197b3f67c2b5cd3b6d9596a","session_id":"619be31f908569a938d4f68a","condition":"full-information","relevant_dimensions":["wings","legs"],"bee_group":{"antennae":"X","wings":"1","pattern":"X","legs":"M"},"action":"harvest","summary":"good-harvest","bonus":0.7800000000000007},{"rt":941,"stimulus":"\n                    <p><b>Action: <em>harvest</em></b></p>\n                    <p>This is the bee that you just saw.</p>\n                    <img src=\"bees-with-color/bee-A2DF.svg\" width=\"200\">\n                    <p><span class=\"greenText\"><b>Successful harvest!</b></span><br>Your pay has increased by $0.02. Your bonus pay is now $0.38.</p>\n            ","response":0,"trial_type":"html-button-response","trial_index":76,"time_elapsed":313685,"internal_node_id":"0.0-4.0-1.34","subject_id":"5a062680c259f300017656b3","study_id":"6197b3f67c2b5cd3b6d9596a","session_id":"619be31f908569a938d4f68a","condition":"full-information","relevant_dimensions":["wings","legs"],"bee_group":{"antennae":"X","wings":"1","pattern":"X","legs":"M"},"bonus":0.7800000000000007},{"rt":1025,"stimulus":"bees-with-color/bee-A2SF.svg","response":0,"trial_type":"image-button-response","trial_index":77,"time_elapsed":314711,"internal_node_id":"0.0-4.0-0.35","subject_id":"5a062680c259f300017656b3","study_id":"6197b3f67c2b5cd3b6d9596a","session_id":"619be31f908569a938d4f68a","condition":"full-information","relevant_dimensions":["wings","legs"],"bee_group":{"antennae":"X","wings":"1","pattern":"X","legs":"M"},"action":"harvest","summary":"good-harvest","bonus":0.7800000000000007},{"rt":539,"stimulus":"\n                    <p><b>Action: <em>harvest</em></b></p>\n                    <p>This is the bee that you just saw.</p>\n                    <img src=\"bees-with-color/bee-A2SF.svg\" width=\"200\">\n                    <p><span class=\"greenText\"><b>Successful harvest!</b></span><br>Your pay has increased by $0.02. Your bonus pay is now $0.40.</p>\n            ","response":0,"trial_type":"html-button-response","trial_index":78,"time_elapsed":315250,"internal_node_id":"0.0-4.0-1.35","subject_id":"5a062680c259f300017656b3","study_id":"6197b3f67c2b5cd3b6d9596a","session_id":"619be31f908569a938d4f68a","condition":"full-information","relevant_dimensions":["wings","legs"],"bee_group":{"antennae":"X","wings":"1","pattern":"X","legs":"M"},"bonus":0.7800000000000007},{"rt":3285,"stimulus":"bees-with-color/bee-B1SF.svg","response":0,"trial_type":"image-button-response","trial_index":79,"time_elapsed":318536,"internal_node_id":"0.0-4.0-0.36","subject_id":"5a062680c259f300017656b3","study_id":"6197b3f67c2b5cd3b6d9596a","session_id":"619be31f908569a938d4f68a","condition":"full-information","relevant_dimensions":["wings","legs"],"bee_group":{"antennae":"X","wings":"1","pattern":"X","legs":"M"},"action":"harvest","summary":"good-harvest","bonus":0.7800000000000007},{"rt":594,"stimulus":"\n                    <p><b>Action: <em>harvest</em></b></p>\n                    <p>This is the bee that you just saw.</p>\n                    <img src=\"bees-with-color/bee-B1SF.svg\" width=\"200\">\n                    <p><span class=\"greenText\"><b>Successful harvest!</b></span><br>Your pay has increased by $0.02. Your bonus pay is now $0.42.</p>\n            ","response":0,"trial_type":"html-button-response","trial_index":80,"time_elapsed":319132,"internal_node_id":"0.0-4.0-1.36","subject_id":"5a062680c259f300017656b3","study_id":"6197b3f67c2b5cd3b6d9596a","session_id":"619be31f908569a938d4f68a","condition":"full-information","relevant_dimensions":["wings","legs"],"bee_group":{"antennae":"X","wings":"1","pattern":"X","legs":"M"},"bonus":0.7800000000000007},{"rt":1970,"stimulus":"bees-with-color/bee-A1DF.svg","response":1,"trial_type":"image-button-response","trial_index":81,"time_elapsed":321103,"internal_node_id":"0.0-4.0-0.37","subject_id":"5a062680c259f300017656b3","study_id":"6197b3f67c2b5cd3b6d9596a","session_id":"619be31f908569a938d4f68a","condition":"full-information","relevant_dimensions":["wings","legs"],"bee_group":{"antennae":"X","wings":"1","pattern":"X","legs":"M"},"action":"avoid","summary":"bad-avoid","bonus":0.7800000000000007},{"rt":755,"stimulus":"\n                    <p><b>Action: <em>avoid</em></b></p>\n                    <p>This is the bee that you just saw.</p>\n                    <img src=\"bees-with-color/bee-A1DF.svg\" width=\"200\">\n                    <p><span class=\"redText\">Bad choice,</span> the bee was friendly.<br>Your bonus pay is unchanged, and remains at $0.42.</p>\n            ","response":0,"trial_type":"html-button-response","trial_index":82,"time_elapsed":321859,"internal_node_id":"0.0-4.0-1.37","subject_id":"5a062680c259f300017656b3","study_id":"6197b3f67c2b5cd3b6d9596a","session_id":"619be31f908569a938d4f68a","condition":"full-information","relevant_dimensions":["wings","legs"],"bee_group":{"antennae":"X","wings":"1","pattern":"X","legs":"M"},"bonus":0.7800000000000007},{"rt":986,"stimulus":"bees-with-color/bee-B2DF.svg","response":0,"trial_type":"image-button-response","trial_index":83,"time_elapsed":322845,"internal_node_id":"0.0-4.0-0.38","subject_id":"5a062680c259f300017656b3","study_id":"6197b3f67c2b5cd3b6d9596a","session_id":"619be31f908569a938d4f68a","condition":"full-information","relevant_dimensions":["wings","legs"],"bee_group":{"antennae":"X","wings":"1","pattern":"X","legs":"M"},"action":"harvest","summary":"good-harvest","bonus":0.7800000000000007},{"rt":611,"stimulus":"\n                    <p><b>Action: <em>harvest</em></b></p>\n                    <p>This is the bee that you just saw.</p>\n                    <img src=\"bees-with-color/bee-B2DF.svg\" width=\"200\">\n                    <p><span class=\"greenText\"><b>Successful harvest!</b></span><br>Your pay has increased by $0.02. Your bonus pay is now $0.44.</p>\n            ","response":0,"trial_type":"html-button-response","trial_index":84,"time_elapsed":323457,"internal_node_id":"0.0-4.0-1.38","subject_id":"5a062680c259f300017656b3","study_id":"6197b3f67c2b5cd3b6d9596a","session_id":"619be31f908569a938d4f68a","condition":"full-information","relevant_dimensions":["wings","legs"],"bee_group":{"antennae":"X","wings":"1","pattern":"X","legs":"M"},"bonus":0.7800000000000007},{"rt":2425,"stimulus":"bees-with-color/bee-B1DM.svg","response":1,"trial_type":"image-button-response","trial_index":85,"time_elapsed":325884,"internal_node_id":"0.0-4.0-0.39","subject_id":"5a062680c259f300017656b3","study_id":"6197b3f67c2b5cd3b6d9596a","session_id":"619be31f908569a938d4f68a","condition":"full-information","relevant_dimensions":["wings","legs"],"bee_group":{"antennae":"X","wings":"1","pattern":"X","legs":"M"},"action":"avoid","summary":"good-avoid","bonus":0.7800000000000007},{"rt":3713,"stimulus":"\n                    <p><b>Action: <em>avoid</em></b></p>\n                    <p>This is the bee that you just saw.</p>\n                    <img src=\"bees-with-color/bee-B1DM.svg\" width=\"200\">\n                    <p><span class=\"greenText\">Good choice!</span>  This bee would have stung you.<br>Your bonus pay is unchanged, and remains at $0.44.</p>\n            ","response":0,"trial_type":"html-button-response","trial_index":86,"time_elapsed":329597,"internal_node_id":"0.0-4.0-1.39","subject_id":"5a062680c259f300017656b3","study_id":"6197b3f67c2b5cd3b6d9596a","session_id":"619be31f908569a938d4f68a","condition":"full-information","relevant_dimensions":["wings","legs"],"bee_group":{"antennae":"X","wings":"1","pattern":"X","legs":"M"},"bonus":0.7800000000000007},{"rt":3972,"stimulus":"bees-with-color/bee-B1SM.svg","response":1,"trial_type":"image-button-response","trial_index":87,"time_elapsed":333570,"internal_node_id":"0.0-4.0-0.40","subject_id":"5a062680c259f300017656b3","study_id":"6197b3f67c2b5cd3b6d9596a","session_id":"619be31f908569a938d4f68a","condition":"full-information","relevant_dimensions":["wings","legs"],"bee_group":{"antennae":"X","wings":"1","pattern":"X","legs":"M"},"action":"avoid","summary":"good-avoid","bonus":0.7800000000000007},{"rt":2348,"stimulus":"\n                    <p><b>Action: <em>avoid</em></b></p>\n                    <p>This is the bee that you just saw.</p>\n                    <img src=\"bees-with-color/bee-B1SM.svg\" width=\"200\">\n                    <p><span class=\"greenText\">Good choice!</span>  This bee would have stung you.<br>Your bonus pay is unchanged, and remains at $0.44.</p>\n            ","response":0,"trial_type":"html-button-response","trial_index":88,"time_elapsed":335918,"internal_node_id":"0.0-4.0-1.40","subject_id":"5a062680c259f300017656b3","study_id":"6197b3f67c2b5cd3b6d9596a","session_id":"619be31f908569a938d4f68a","condition":"full-information","relevant_dimensions":["wings","legs"],"bee_group":{"antennae":"X","wings":"1","pattern":"X","legs":"M"},"bonus":0.7800000000000007},{"rt":1158,"stimulus":"bees-with-color/bee-B2SF.svg","response":0,"trial_type":"image-button-response","trial_index":89,"time_elapsed":337077,"internal_node_id":"0.0-4.0-0.41","subject_id":"5a062680c259f300017656b3","study_id":"6197b3f67c2b5cd3b6d9596a","session_id":"619be31f908569a938d4f68a","condition":"full-information","relevant_dimensions":["wings","legs"],"bee_group":{"antennae":"X","wings":"1","pattern":"X","legs":"M"},"action":"harvest","summary":"good-harvest","bonus":0.7800000000000007},{"rt":564,"stimulus":"\n                    <p><b>Action: <em>harvest</em></b></p>\n                    <p>This is the bee that you just saw.</p>\n                    <img src=\"bees-with-color/bee-B2SF.svg\" width=\"200\">\n                    <p><span class=\"greenText\"><b>Successful harvest!</b></span><br>Your pay has increased by $0.02. Your bonus pay is now $0.46.</p>\n            ","response":0,"trial_type":"html-button-response","trial_index":90,"time_elapsed":337642,"internal_node_id":"0.0-4.0-1.41","subject_id":"5a062680c259f300017656b3","study_id":"6197b3f67c2b5cd3b6d9596a","session_id":"619be31f908569a938d4f68a","condition":"full-information","relevant_dimensions":["wings","legs"],"bee_group":{"antennae":"X","wings":"1","pattern":"X","legs":"M"},"bonus":0.7800000000000007},{"rt":2492,"stimulus":"bees-with-color/bee-A1SM.svg","response":1,"trial_type":"image-button-response","trial_index":91,"time_elapsed":340134,"internal_node_id":"0.0-4.0-0.42","subject_id":"5a062680c259f300017656b3","study_id":"6197b3f67c2b5cd3b6d9596a","session_id":"619be31f908569a938d4f68a","condition":"full-information","relevant_dimensions":["wings","legs"],"bee_group":{"antennae":"X","wings":"1","pattern":"X","legs":"M"},"action":"avoid","summary":"good-avoid","bonus":0.7800000000000007},{"rt":5117,"stimulus":"\n                    <p><b>Action: <em>avoid</em></b></p>\n                    <p>This is the bee that you just saw.</p>\n                    <img src=\"bees-with-color/bee-A1SM.svg\" width=\"200\">\n                    <p><span class=\"greenText\">Good choice!</span>  This bee would have stung you.<br>Your bonus pay is unchanged, and remains at $0.46.</p>\n            ","response":0,"trial_type":"html-button-response","trial_index":92,"time_elapsed":345252,"internal_node_id":"0.0-4.0-1.42","subject_id":"5a062680c259f300017656b3","study_id":"6197b3f67c2b5cd3b6d9596a","session_id":"619be31f908569a938d4f68a","condition":"full-information","relevant_dimensions":["wings","legs"],"bee_group":{"antennae":"X","wings":"1","pattern":"X","legs":"M"},"bonus":0.7800000000000007},{"rt":999,"stimulus":"bees-with-color/bee-B2SM.svg","response":0,"trial_type":"image-button-response","trial_index":93,"time_elapsed":346253,"internal_node_id":"0.0-4.0-0.43","subject_id":"5a062680c259f300017656b3","study_id":"6197b3f67c2b5cd3b6d9596a","session_id":"619be31f908569a938d4f68a","condition":"full-information","relevant_dimensions":["wings","legs"],"bee_group":{"antennae":"X","wings":"1","pattern":"X","legs":"M"},"action":"harvest","summary":"good-harvest","bonus":0.7800000000000007},{"rt":516,"stimulus":"\n                    <p><b>Action: <em>harvest</em></b></p>\n                    <p>This is the bee that you just saw.</p>\n                    <img src=\"bees-with-color/bee-B2SM.svg\" width=\"200\">\n                    <p><span class=\"greenText\"><b>Successful harvest!</b></span><br>Your pay has increased by $0.02. Your bonus pay is now $0.48.</p>\n            ","response":0,"trial_type":"html-button-response","trial_index":94,"time_elapsed":346769,"internal_node_id":"0.0-4.0-1.43","subject_id":"5a062680c259f300017656b3","study_id":"6197b3f67c2b5cd3b6d9596a","session_id":"619be31f908569a938d4f68a","condition":"full-information","relevant_dimensions":["wings","legs"],"bee_group":{"antennae":"X","wings":"1","pattern":"X","legs":"M"},"bonus":0.7800000000000007},{"rt":1155,"stimulus":"bees-with-color/bee-B2DM.svg","response":0,"trial_type":"image-button-response","trial_index":95,"time_elapsed":347926,"internal_node_id":"0.0-4.0-0.44","subject_id":"5a062680c259f300017656b3","study_id":"6197b3f67c2b5cd3b6d9596a","session_id":"619be31f908569a938d4f68a","condition":"full-information","relevant_dimensions":["wings","legs"],"bee_group":{"antennae":"X","wings":"1","pattern":"X","legs":"M"},"action":"harvest","summary":"good-harvest","bonus":0.7800000000000007},{"rt":473,"stimulus":"\n                    <p><b>Action: <em>harvest</em></b></p>\n                    <p>This is the bee that you just saw.</p>\n                    <img src=\"bees-with-color/bee-B2DM.svg\" width=\"200\">\n                    <p><span class=\"greenText\"><b>Successful harvest!</b></span><br>Your pay has increased by $0.02. Your bonus pay is now $0.50.</p>\n            ","response":0,"trial_type":"html-button-response","trial_index":96,"time_elapsed":348399,"internal_node_id":"0.0-4.0-1.44","subject_id":"5a062680c259f300017656b3","study_id":"6197b3f67c2b5cd3b6d9596a","session_id":"619be31f908569a938d4f68a","condition":"full-information","relevant_dimensions":["wings","legs"],"bee_group":{"antennae":"X","wings":"1","pattern":"X","legs":"M"},"bonus":0.7800000000000007},{"rt":2332,"stimulus":"bees-with-color/bee-A1SF.svg","response":0,"trial_type":"image-button-response","trial_index":97,"time_elapsed":350733,"internal_node_id":"0.0-4.0-0.45","subject_id":"5a062680c259f300017656b3","study_id":"6197b3f67c2b5cd3b6d9596a","session_id":"619be31f908569a938d4f68a","condition":"full-information","relevant_dimensions":["wings","legs"],"bee_group":{"antennae":"X","wings":"1","pattern":"X","legs":"M"},"action":"harvest","summary":"good-harvest","bonus":0.7800000000000007},{"rt":824,"stimulus":"\n                    <p><b>Action: <em>harvest</em></b></p>\n                    <p>This is the bee that you just saw.</p>\n                    <img src=\"bees-with-color/bee-A1SF.svg\" width=\"200\">\n                    <p><span class=\"greenText\"><b>Successful harvest!</b></span><br>Your pay has increased by $0.02. Your bonus pay is now $0.52.</p>\n            ","response":0,"trial_type":"html-button-response","trial_index":98,"time_elapsed":351557,"internal_node_id":"0.0-4.0-1.45","subject_id":"5a062680c259f300017656b3","study_id":"6197b3f67c2b5cd3b6d9596a","session_id":"619be31f908569a938d4f68a","condition":"full-information","relevant_dimensions":["wings","legs"],"bee_group":{"antennae":"X","wings":"1","pattern":"X","legs":"M"},"bonus":0.7800000000000007},{"rt":2143,"stimulus":"bees-with-color/bee-B1DF.svg","response":0,"trial_type":"image-button-response","trial_index":99,"time_elapsed":353701,"internal_node_id":"0.0-4.0-0.46","subject_id":"5a062680c259f300017656b3","study_id":"6197b3f67c2b5cd3b6d9596a","session_id":"619be31f908569a938d4f68a","condition":"full-information","relevant_dimensions":["wings","legs"],"bee_group":{"antennae":"X","wings":"1","pattern":"X","legs":"M"},"action":"harvest","summary":"good-harvest","bonus":0.7800000000000007},{"rt":698,"stimulus":"\n                    <p><b>Action: <em>harvest</em></b></p>\n                    <p>This is the bee that you just saw.</p>\n                    <img src=\"bees-with-color/bee-B1DF.svg\" width=\"200\">\n                    <p><span class=\"greenText\"><b>Successful harvest!</b></span><br>Your pay has increased by $0.02. Your bonus pay is now $0.54.</p>\n            ","response":0,"trial_type":"html-button-response","trial_index":100,"time_elapsed":354401,"internal_node_id":"0.0-4.0-1.46","subject_id":"5a062680c259f300017656b3","study_id":"6197b3f67c2b5cd3b6d9596a","session_id":"619be31f908569a938d4f68a","condition":"full-information","relevant_dimensions":["wings","legs"],"bee_group":{"antennae":"X","wings":"1","pattern":"X","legs":"M"},"bonus":0.7800000000000007},{"rt":1323,"stimulus":"bees-with-color/bee-A2DM.svg","response":0,"trial_type":"image-button-response","trial_index":101,"time_elapsed":355726,"internal_node_id":"0.0-4.0-0.47","subject_id":"5a062680c259f300017656b3","study_id":"6197b3f67c2b5cd3b6d9596a","session_id":"619be31f908569a938d4f68a","condition":"full-information","relevant_dimensions":["wings","legs"],"bee_group":{"antennae":"X","wings":"1","pattern":"X","legs":"M"},"action":"harvest","summary":"good-harvest","bonus":0.7800000000000007},{"rt":509,"stimulus":"\n                    <p><b>Action: <em>harvest</em></b></p>\n                    <p>This is the bee that you just saw.</p>\n                    <img src=\"bees-with-color/bee-A2DM.svg\" width=\"200\">\n                    <p><span class=\"greenText\"><b>Successful harvest!</b></span><br>Your pay has increased by $0.02. Your bonus pay is now $0.56.</p>\n            ","response":0,"trial_type":"html-button-response","trial_index":102,"time_elapsed":356235,"internal_node_id":"0.0-4.0-1.47","subject_id":"5a062680c259f300017656b3","study_id":"6197b3f67c2b5cd3b6d9596a","session_id":"619be31f908569a938d4f68a","condition":"full-information","relevant_dimensions":["wings","legs"],"bee_group":{"antennae":"X","wings":"1","pattern":"X","legs":"M"},"bonus":0.7800000000000007},{"rt":1413,"stimulus":"bees-with-color/bee-B2SF.svg","response":0,"trial_type":"image-button-response","trial_index":103,"time_elapsed":357648,"internal_node_id":"0.0-4.0-0.48","subject_id":"5a062680c259f300017656b3","study_id":"6197b3f67c2b5cd3b6d9596a","session_id":"619be31f908569a938d4f68a","condition":"full-information","relevant_dimensions":["wings","legs"],"bee_group":{"antennae":"X","wings":"1","pattern":"X","legs":"M"},"action":"harvest","summary":"good-harvest","bonus":0.7800000000000007},{"rt":391,"stimulus":"\n                    <p><b>Action: <em>harvest</em></b></p>\n                    <p>This is the bee that you just saw.</p>\n                    <img src=\"bees-with-color/bee-B2SF.svg\" width=\"200\">\n                    <p><span class=\"greenText\"><b>Successful harvest!</b></span><br>Your pay has increased by $0.02. Your bonus pay is now $0.58.</p>\n            ","response":0,"trial_type":"html-button-response","trial_index":104,"time_elapsed":358040,"internal_node_id":"0.0-4.0-1.48","subject_id":"5a062680c259f300017656b3","study_id":"6197b3f67c2b5cd3b6d9596a","session_id":"619be31f908569a938d4f68a","condition":"full-information","relevant_dimensions":["wings","legs"],"bee_group":{"antennae":"X","wings":"1","pattern":"X","legs":"M"},"bonus":0.7800000000000007},{"rt":1808,"stimulus":"bees-with-color/bee-A1DF.svg","response":1,"trial_type":"image-button-response","trial_index":105,"time_elapsed":359848,"internal_node_id":"0.0-4.0-0.49","subject_id":"5a062680c259f300017656b3","study_id":"6197b3f67c2b5cd3b6d9596a","session_id":"619be31f908569a938d4f68a","condition":"full-information","relevant_dimensions":["wings","legs"],"bee_group":{"antennae":"X","wings":"1","pattern":"X","legs":"M"},"action":"avoid","summary":"bad-avoid","bonus":0.7800000000000007},{"rt":853,"stimulus":"\n                    <p><b>Action: <em>avoid</em></b></p>\n                    <p>This is the bee that you just saw.</p>\n                    <img src=\"bees-with-color/bee-A1DF.svg\" width=\"200\">\n                    <p><span class=\"redText\">Bad choice,</span> the bee was friendly.<br>Your bonus pay is unchanged, and remains at $0.58.</p>\n            ","response":0,"trial_type":"html-button-response","trial_index":106,"time_elapsed":360702,"internal_node_id":"0.0-4.0-1.49","subject_id":"5a062680c259f300017656b3","study_id":"6197b3f67c2b5cd3b6d9596a","session_id":"619be31f908569a938d4f68a","condition":"full-information","relevant_dimensions":["wings","legs"],"bee_group":{"antennae":"X","wings":"1","pattern":"X","legs":"M"},"bonus":0.7800000000000007},{"rt":863,"stimulus":"bees-with-color/bee-A2SM.svg","response":0,"trial_type":"image-button-response","trial_index":107,"time_elapsed":361566,"internal_node_id":"0.0-4.0-0.50","subject_id":"5a062680c259f300017656b3","study_id":"6197b3f67c2b5cd3b6d9596a","session_id":"619be31f908569a938d4f68a","condition":"full-information","relevant_dimensions":["wings","legs"],"bee_group":{"antennae":"X","wings":"1","pattern":"X","legs":"M"},"action":"harvest","summary":"good-harvest","bonus":0.7800000000000007},{"rt":633,"stimulus":"\n                    <p><b>Action: <em>harvest</em></b></p>\n                    <p>This is the bee that you just saw.</p>\n                    <img src=\"bees-with-color/bee-A2SM.svg\" width=\"200\">\n                    <p><span class=\"greenText\"><b>Successful harvest!</b></span><br>Your pay has increased by $0.02. Your bonus pay is now $0.60.</p>\n            ","response":0,"trial_type":"html-button-response","trial_index":108,"time_elapsed":362200,"internal_node_id":"0.0-4.0-1.50","subject_id":"5a062680c259f300017656b3","study_id":"6197b3f67c2b5cd3b6d9596a","session_id":"619be31f908569a938d4f68a","condition":"full-information","relevant_dimensions":["wings","legs"],"bee_group":{"antennae":"X","wings":"1","pattern":"X","legs":"M"},"bonus":0.7800000000000007},{"rt":821,"stimulus":"bees-with-color/bee-A2SF.svg","response":0,"trial_type":"image-button-response","trial_index":109,"time_elapsed":363022,"internal_node_id":"0.0-4.0-0.51","subject_id":"5a062680c259f300017656b3","study_id":"6197b3f67c2b5cd3b6d9596a","session_id":"619be31f908569a938d4f68a","condition":"full-information","relevant_dimensions":["wings","legs"],"bee_group":{"antennae":"X","wings":"1","pattern":"X","legs":"M"},"action":"harvest","summary":"good-harvest","bonus":0.7800000000000007},{"rt":679,"stimulus":"\n                    <p><b>Action: <em>harvest</em></b></p>\n                    <p>This is the bee that you just saw.</p>\n                    <img src=\"bees-with-color/bee-A2SF.svg\" width=\"200\">\n                    <p><span class=\"greenText\"><b>Successful harvest!</b></span><br>Your pay has increased by $0.02. Your bonus pay is now $0.62.</p>\n            ","response":0,"trial_type":"html-button-response","trial_index":110,"time_elapsed":363703,"internal_node_id":"0.0-4.0-1.51","subject_id":"5a062680c259f300017656b3","study_id":"6197b3f67c2b5cd3b6d9596a","session_id":"619be31f908569a938d4f68a","condition":"full-information","relevant_dimensions":["wings","legs"],"bee_group":{"antennae":"X","wings":"1","pattern":"X","legs":"M"},"bonus":0.7800000000000007},{"rt":2756,"stimulus":"bees-with-color/bee-B2DM.svg","response":0,"trial_type":"image-button-response","trial_index":111,"time_elapsed":366459,"internal_node_id":"0.0-4.0-0.52","subject_id":"5a062680c259f300017656b3","study_id":"6197b3f67c2b5cd3b6d9596a","session_id":"619be31f908569a938d4f68a","condition":"full-information","relevant_dimensions":["wings","legs"],"bee_group":{"antennae":"X","wings":"1","pattern":"X","legs":"M"},"action":"harvest","summary":"good-harvest","bonus":0.7800000000000007},{"rt":495,"stimulus":"\n                    <p><b>Action: <em>harvest</em></b></p>\n                    <p>This is the bee that you just saw.</p>\n                    <img src=\"bees-with-color/bee-B2DM.svg\" width=\"200\">\n                    <p><span class=\"greenText\"><b>Successful harvest!</b></span><br>Your pay has increased by $0.02. Your bonus pay is now $0.64.</p>\n            ","response":0,"trial_type":"html-button-response","trial_index":112,"time_elapsed":366955,"internal_node_id":"0.0-4.0-1.52","subject_id":"5a062680c259f300017656b3","study_id":"6197b3f67c2b5cd3b6d9596a","session_id":"619be31f908569a938d4f68a","condition":"full-information","relevant_dimensions":["wings","legs"],"bee_group":{"antennae":"X","wings":"1","pattern":"X","legs":"M"},"bonus":0.7800000000000007},{"rt":744,"stimulus":"bees-with-color/bee-A2DF.svg","response":0,"trial_type":"image-button-response","trial_index":113,"time_elapsed":367700,"internal_node_id":"0.0-4.0-0.53","subject_id":"5a062680c259f300017656b3","study_id":"6197b3f67c2b5cd3b6d9596a","session_id":"619be31f908569a938d4f68a","condition":"full-information","relevant_dimensions":["wings","legs"],"bee_group":{"antennae":"X","wings":"1","pattern":"X","legs":"M"},"action":"harvest","summary":"good-harvest","bonus":0.7800000000000007},{"rt":386,"stimulus":"\n                    <p><b>Action: <em>harvest</em></b></p>\n                    <p>This is the bee that you just saw.</p>\n                    <img src=\"bees-with-color/bee-A2DF.svg\" width=\"200\">\n                    <p><span class=\"greenText\"><b>Successful harvest!</b></span><br>Your pay has increased by $0.02. Your bonus pay is now $0.66.</p>\n            ","response":0,"trial_type":"html-button-response","trial_index":114,"time_elapsed":368087,"internal_node_id":"0.0-4.0-1.53","subject_id":"5a062680c259f300017656b3","study_id":"6197b3f67c2b5cd3b6d9596a","session_id":"619be31f908569a938d4f68a","condition":"full-information","relevant_dimensions":["wings","legs"],"bee_group":{"antennae":"X","wings":"1","pattern":"X","legs":"M"},"bonus":0.7800000000000007},{"rt":1731,"stimulus":"bees-with-color/bee-A1DM.svg","response":1,"trial_type":"image-button-response","trial_index":115,"time_elapsed":369819,"internal_node_id":"0.0-4.0-0.54","subject_id":"5a062680c259f300017656b3","study_id":"6197b3f67c2b5cd3b6d9596a","session_id":"619be31f908569a938d4f68a","condition":"full-information","relevant_dimensions":["wings","legs"],"bee_group":{"antennae":"X","wings":"1","pattern":"X","legs":"M"},"action":"avoid","summary":"good-avoid","bonus":0.7800000000000007},{"rt":808,"stimulus":"\n                    <p><b>Action: <em>avoid</em></b></p>\n                    <p>This is the bee that you just saw.</p>\n                    <img src=\"bees-with-color/bee-A1DM.svg\" width=\"200\">\n                    <p><span class=\"greenText\">Good choice!</span>  This bee would have stung you.<br>Your bonus pay is unchanged, and remains at $0.66.</p>\n            ","response":0,"trial_type":"html-button-response","trial_index":116,"time_elapsed":370626,"internal_node_id":"0.0-4.0-1.54","subject_id":"5a062680c259f300017656b3","study_id":"6197b3f67c2b5cd3b6d9596a","session_id":"619be31f908569a938d4f68a","condition":"full-information","relevant_dimensions":["wings","legs"],"bee_group":{"antennae":"X","wings":"1","pattern":"X","legs":"M"},"bonus":0.7800000000000007},{"rt":1413,"stimulus":"bees-with-color/bee-A1SM.svg","response":1,"trial_type":"image-button-response","trial_index":117,"time_elapsed":372040,"internal_node_id":"0.0-4.0-0.55","subject_id":"5a062680c259f300017656b3","study_id":"6197b3f67c2b5cd3b6d9596a","session_id":"619be31f908569a938d4f68a","condition":"full-information","relevant_dimensions":["wings","legs"],"bee_group":{"antennae":"X","wings":"1","pattern":"X","legs":"M"},"action":"avoid","summary":"good-avoid","bonus":0.7800000000000007},{"rt":548,"stimulus":"\n                    <p><b>Action: <em>avoid</em></b></p>\n                    <p>This is the bee that you just saw.</p>\n                    <img src=\"bees-with-color/bee-A1SM.svg\" width=\"200\">\n                    <p><span class=\"greenText\">Good choice!</span>  This bee would have stung you.<br>Your bonus pay is unchanged, and remains at $0.66.</p>\n            ","response":0,"trial_type":"html-button-response","trial_index":118,"time_elapsed":372590,"internal_node_id":"0.0-4.0-1.55","subject_id":"5a062680c259f300017656b3","study_id":"6197b3f67c2b5cd3b6d9596a","session_id":"619be31f908569a938d4f68a","condition":"full-information","relevant_dimensions":["wings","legs"],"bee_group":{"antennae":"X","wings":"1","pattern":"X","legs":"M"},"bonus":0.7800000000000007},{"rt":2401,"stimulus":"bees-with-color/bee-A1SF.svg","response":0,"trial_type":"image-button-response","trial_index":119,"time_elapsed":374992,"internal_node_id":"0.0-4.0-0.56","subject_id":"5a062680c259f300017656b3","study_id":"6197b3f67c2b5cd3b6d9596a","session_id":"619be31f908569a938d4f68a","condition":"full-information","relevant_dimensions":["wings","legs"],"bee_group":{"antennae":"X","wings":"1","pattern":"X","legs":"M"},"action":"harvest","summary":"good-harvest","bonus":0.7800000000000007},{"rt":891,"stimulus":"\n                    <p><b>Action: <em>harvest</em></b></p>\n                    <p>This is the bee that you just saw.</p>\n                    <img src=\"bees-with-color/bee-A1SF.svg\" width=\"200\">\n                    <p><span class=\"greenText\"><b>Successful harvest!</b></span><br>Your pay has increased by $0.02. Your bonus pay is now $0.68.</p>\n            ","response":0,"trial_type":"html-button-response","trial_index":120,"time_elapsed":375883,"internal_node_id":"0.0-4.0-1.56","subject_id":"5a062680c259f300017656b3","study_id":"6197b3f67c2b5cd3b6d9596a","session_id":"619be31f908569a938d4f68a","condition":"full-information","relevant_dimensions":["wings","legs"],"bee_group":{"antennae":"X","wings":"1","pattern":"X","legs":"M"},"bonus":0.7800000000000007},{"rt":1610,"stimulus":"bees-with-color/bee-B1DF.svg","response":1,"trial_type":"image-button-response","trial_index":121,"time_elapsed":377494,"internal_node_id":"0.0-4.0-0.57","subject_id":"5a062680c259f300017656b3","study_id":"6197b3f67c2b5cd3b6d9596a","session_id":"619be31f908569a938d4f68a","condition":"full-information","relevant_dimensions":["wings","legs"],"bee_group":{"antennae":"X","wings":"1","pattern":"X","legs":"M"},"action":"avoid","summary":"bad-avoid","bonus":0.7800000000000007},{"rt":849,"stimulus":"\n                    <p><b>Action: <em>avoid</em></b></p>\n                    <p>This is the bee that you just saw.</p>\n                    <img src=\"bees-with-color/bee-B1DF.svg\" width=\"200\">\n                    <p><span class=\"redText\">Bad choice,</span> the bee was friendly.<br>Your bonus pay is unchanged, and remains at $0.68.</p>\n            ","response":0,"trial_type":"html-button-response","trial_index":122,"time_elapsed":378344,"internal_node_id":"0.0-4.0-1.57","subject_id":"5a062680c259f300017656b3","study_id":"6197b3f67c2b5cd3b6d9596a","session_id":"619be31f908569a938d4f68a","condition":"full-information","relevant_dimensions":["wings","legs"],"bee_group":{"antennae":"X","wings":"1","pattern":"X","legs":"M"},"bonus":0.7800000000000007},{"rt":782,"stimulus":"bees-with-color/bee-B2SM.svg","response":0,"trial_type":"image-button-response","trial_index":123,"time_elapsed":379128,"internal_node_id":"0.0-4.0-0.58","subject_id":"5a062680c259f300017656b3","study_id":"6197b3f67c2b5cd3b6d9596a","session_id":"619be31f908569a938d4f68a","condition":"full-information","relevant_dimensions":["wings","legs"],"bee_group":{"antennae":"X","wings":"1","pattern":"X","legs":"M"},"action":"harvest","summary":"good-harvest","bonus":0.7800000000000007},{"rt":477,"stimulus":"\n                    <p><b>Action: <em>harvest</em></b></p>\n                    <p>This is the bee that you just saw.</p>\n                    <img src=\"bees-with-color/bee-B2SM.svg\" width=\"200\">\n                    <p><span class=\"greenText\"><b>Successful harvest!</b></span><br>Your pay has increased by $0.02. Your bonus pay is now $0.70.</p>\n            ","response":0,"trial_type":"html-button-response","trial_index":124,"time_elapsed":379605,"internal_node_id":"0.0-4.0-1.58","subject_id":"5a062680c259f300017656b3","study_id":"6197b3f67c2b5cd3b6d9596a","session_id":"619be31f908569a938d4f68a","condition":"full-information","relevant_dimensions":["wings","legs"],"bee_group":{"antennae":"X","wings":"1","pattern":"X","legs":"M"},"bonus":0.7800000000000007},{"rt":1296,"stimulus":"bees-with-color/bee-B1SF.svg","response":0,"trial_type":"image-button-response","trial_index":125,"time_elapsed":380903,"internal_node_id":"0.0-4.0-0.59","subject_id":"5a062680c259f300017656b3","study_id":"6197b3f67c2b5cd3b6d9596a","session_id":"619be31f908569a938d4f68a","condition":"full-information","relevant_dimensions":["wings","legs"],"bee_group":{"antennae":"X","wings":"1","pattern":"X","legs":"M"},"action":"harvest","summary":"good-harvest","bonus":0.7800000000000007},{"rt":618,"stimulus":"\n                    <p><b>Action: <em>harvest</em></b></p>\n                    <p>This is the bee that you just saw.</p>\n                    <img src=\"bees-with-color/bee-B1SF.svg\" width=\"200\">\n                    <p><span class=\"greenText\"><b>Successful harvest!</b></span><br>Your pay has increased by $0.02. Your bonus pay is now $0.72.</p>\n            ","response":0,"trial_type":"html-button-response","trial_index":126,"time_elapsed":381521,"internal_node_id":"0.0-4.0-1.59","subject_id":"5a062680c259f300017656b3","study_id":"6197b3f67c2b5cd3b6d9596a","session_id":"619be31f908569a938d4f68a","condition":"full-information","relevant_dimensions":["wings","legs"],"bee_group":{"antennae":"X","wings":"1","pattern":"X","legs":"M"},"bonus":0.7800000000000007},{"rt":2015,"stimulus":"bees-with-color/bee-B1DM.svg","response":1,"trial_type":"image-button-response","trial_index":127,"time_elapsed":383537,"internal_node_id":"0.0-4.0-0.60","subject_id":"5a062680c259f300017656b3","study_id":"6197b3f67c2b5cd3b6d9596a","session_id":"619be31f908569a938d4f68a","condition":"full-information","relevant_dimensions":["wings","legs"],"bee_group":{"antennae":"X","wings":"1","pattern":"X","legs":"M"},"action":"avoid","summary":"good-avoid","bonus":0.7800000000000007},{"rt":600,"stimulus":"\n                    <p><b>Action: <em>avoid</em></b></p>\n                    <p>This is the bee that you just saw.</p>\n                    <img src=\"bees-with-color/bee-B1DM.svg\" width=\"200\">\n                    <p><span class=\"greenText\">Good choice!</span>  This bee would have stung you.<br>Your bonus pay is unchanged, and remains at $0.72.</p>\n            ","response":0,"trial_type":"html-button-response","trial_index":128,"time_elapsed":384139,"internal_node_id":"0.0-4.0-1.60","subject_id":"5a062680c259f300017656b3","study_id":"6197b3f67c2b5cd3b6d9596a","session_id":"619be31f908569a938d4f68a","condition":"full-information","relevant_dimensions":["wings","legs"],"bee_group":{"antennae":"X","wings":"1","pattern":"X","legs":"M"},"bonus":0.7800000000000007},{"rt":2390,"stimulus":"bees-with-color/bee-B1SM.svg","response":1,"trial_type":"image-button-response","trial_index":129,"time_elapsed":386529,"internal_node_id":"0.0-4.0-0.61","subject_id":"5a062680c259f300017656b3","study_id":"6197b3f67c2b5cd3b6d9596a","session_id":"619be31f908569a938d4f68a","condition":"full-information","relevant_dimensions":["wings","legs"],"bee_group":{"antennae":"X","wings":"1","pattern":"X","legs":"M"},"action":"avoid","summary":"good-avoid","bonus":0.7800000000000007},{"rt":520,"stimulus":"\n                    <p><b>Action: <em>avoid</em></b></p>\n                    <p>This is the bee that you just saw.</p>\n                    <img src=\"bees-with-color/bee-B1SM.svg\" width=\"200\">\n                    <p><span class=\"greenText\">Good choice!</span>  This bee would have stung you.<br>Your bonus pay is unchanged, and remains at $0.72.</p>\n            ","response":0,"trial_type":"html-button-response","trial_index":130,"time_elapsed":387051,"internal_node_id":"0.0-4.0-1.61","subject_id":"5a062680c259f300017656b3","study_id":"6197b3f67c2b5cd3b6d9596a","session_id":"619be31f908569a938d4f68a","condition":"full-information","relevant_dimensions":["wings","legs"],"bee_group":{"antennae":"X","wings":"1","pattern":"X","legs":"M"},"bonus":0.7800000000000007},{"rt":1709,"stimulus":"bees-with-color/bee-B2DF.svg","response":0,"trial_type":"image-button-response","trial_index":131,"time_elapsed":388760,"internal_node_id":"0.0-4.0-0.62","subject_id":"5a062680c259f300017656b3","study_id":"6197b3f67c2b5cd3b6d9596a","session_id":"619be31f908569a938d4f68a","condition":"full-information","relevant_dimensions":["wings","legs"],"bee_group":{"antennae":"X","wings":"1","pattern":"X","legs":"M"},"action":"harvest","summary":"good-harvest","bonus":0.7800000000000007},{"rt":516,"stimulus":"\n                    <p><b>Action: <em>harvest</em></b></p>\n                    <p>This is the bee that you just saw.</p>\n                    <img src=\"bees-with-color/bee-B2DF.svg\" width=\"200\">\n                    <p><span class=\"greenText\"><b>Successful harvest!</b></span><br>Your pay has increased by $0.02. Your bonus pay is now $0.74.</p>\n            ","response":0,"trial_type":"html-button-response","trial_index":132,"time_elapsed":389278,"internal_node_id":"0.0-4.0-1.62","subject_id":"5a062680c259f300017656b3","study_id":"6197b3f67c2b5cd3b6d9596a","session_id":"619be31f908569a938d4f68a","condition":"full-information","relevant_dimensions":["wings","legs"],"bee_group":{"antennae":"X","wings":"1","pattern":"X","legs":"M"},"bonus":0.7800000000000007},{"rt":1172,"stimulus":"bees-with-color/bee-A2DM.svg","response":0,"trial_type":"image-button-response","trial_index":133,"time_elapsed":390451,"internal_node_id":"0.0-4.0-0.63","subject_id":"5a062680c259f300017656b3","study_id":"6197b3f67c2b5cd3b6d9596a","session_id":"619be31f908569a938d4f68a","condition":"full-information","relevant_dimensions":["wings","legs"],"bee_group":{"antennae":"X","wings":"1","pattern":"X","legs":"M"},"action":"harvest","summary":"good-harvest","bonus":0.7800000000000007},{"rt":1006,"stimulus":"\n                    <p><b>Action: <em>harvest</em></b></p>\n                    <p>This is the bee that you just saw.</p>\n                    <img src=\"bees-with-color/bee-A2DM.svg\" width=\"200\">\n                    <p><span class=\"greenText\"><b>Successful harvest!</b></span><br>Your pay has increased by $0.02. Your bonus pay is now $0.76.</p>\n            ","response":0,"trial_type":"html-button-response","trial_index":134,"time_elapsed":391458,"internal_node_id":"0.0-4.0-1.63","subject_id":"5a062680c259f300017656b3","study_id":"6197b3f67c2b5cd3b6d9596a","session_id":"619be31f908569a938d4f68a","condition":"full-information","relevant_dimensions":["wings","legs"],"bee_group":{"antennae":"X","wings":"1","pattern":"X","legs":"M"},"bonus":0.7800000000000007},{"rt":5834,"stimulus":"You have completed the first part of this experiment.<br><br>You will now begin a shorter second part, in which you will receive no feedback.<br>The same rules regarding bonus pay apply.<br><br>Press any key to begin.","response":"d","trial_type":"html-keyboard-response","trial_index":135,"time_elapsed":397292,"internal_node_id":"0.0-5.0","subject_id":"5a062680c259f300017656b3","study_id":"6197b3f67c2b5cd3b6d9596a","session_id":"619be31f908569a938d4f68a","condition":"full-information","relevant_dimensions":["wings","legs"],"bee_group":{"antennae":"X","wings":"1","pattern":"X","legs":"M"},"bonus":0.7800000000000007},{"rt":5226,"stimulus":"bees-with-color/bee-B1DF.svg","response":0,"trial_type":"image-button-response","trial_index":136,"time_elapsed":402520,"internal_node_id":"0.0-6.0-0.0","subject_id":"5a062680c259f300017656b3","study_id":"6197b3f67c2b5cd3b6d9596a","session_id":"619be31f908569a938d4f68a","condition":"full-information","relevant_dimensions":["wings","legs"],"bee_group":{"antennae":"X","wings":"1","pattern":"X","legs":"M"},"bonus":0.7800000000000007},{"rt":3638,"stimulus":"bees-with-color/bee-B1DM.svg","response":1,"trial_type":"image-button-response","trial_index":137,"time_elapsed":406158,"internal_node_id":"0.0-6.0-0.1","subject_id":"5a062680c259f300017656b3","study_id":"6197b3f67c2b5cd3b6d9596a","session_id":"619be31f908569a938d4f68a","condition":"full-information","relevant_dimensions":["wings","legs"],"bee_group":{"antennae":"X","wings":"1","pattern":"X","legs":"M"},"bonus":0.7800000000000007},{"rt":843,"stimulus":"bees-with-color/bee-A2SF.svg","response":1,"trial_type":"image-button-response","trial_index":138,"time_elapsed":407002,"internal_node_id":"0.0-6.0-0.2","subject_id":"5a062680c259f300017656b3","study_id":"6197b3f67c2b5cd3b6d9596a","session_id":"619be31f908569a938d4f68a","condition":"full-information","relevant_dimensions":["wings","legs"],"bee_group":{"antennae":"X","wings":"1","pattern":"X","legs":"M"},"bonus":0.7800000000000007},{"rt":2497,"stimulus":"bees-with-color/bee-B1SF.svg","response":1,"trial_type":"image-button-response","trial_index":139,"time_elapsed":409501,"internal_node_id":"0.0-6.0-0.3","subject_id":"5a062680c259f300017656b3","study_id":"6197b3f67c2b5cd3b6d9596a","session_id":"619be31f908569a938d4f68a","condition":"full-information","relevant_dimensions":["wings","legs"],"bee_group":{"antennae":"X","wings":"1","pattern":"X","legs":"M"},"bonus":0.7800000000000007},{"rt":168,"stimulus":"bees-with-color/bee-B2DF.svg","response":1,"trial_type":"image-button-response","trial_index":140,"time_elapsed":409669,"internal_node_id":"0.0-6.0-0.4","subject_id":"5a062680c259f300017656b3","study_id":"6197b3f67c2b5cd3b6d9596a","session_id":"619be31f908569a938d4f68a","condition":"full-information","relevant_dimensions":["wings","legs"],"bee_group":{"antennae":"X","wings":"1","pattern":"X","legs":"M"},"bonus":0.7800000000000007},{"rt":158,"stimulus":"bees-with-color/bee-A2DM.svg","response":1,"trial_type":"image-button-response","trial_index":141,"time_elapsed":409828,"internal_node_id":"0.0-6.0-0.5","subject_id":"5a062680c259f300017656b3","study_id":"6197b3f67c2b5cd3b6d9596a","session_id":"619be31f908569a938d4f68a","condition":"full-information","relevant_dimensions":["wings","legs"],"bee_group":{"antennae":"X","wings":"1","pattern":"X","legs":"M"},"bonus":0.7800000000000007},{"rt":163,"stimulus":"bees-with-color/bee-B2SM.svg","response":1,"trial_type":"image-button-response","trial_index":142,"time_elapsed":409991,"internal_node_id":"0.0-6.0-0.6","subject_id":"5a062680c259f300017656b3","study_id":"6197b3f67c2b5cd3b6d9596a","session_id":"619be31f908569a938d4f68a","condition":"full-information","relevant_dimensions":["wings","legs"],"bee_group":{"antennae":"X","wings":"1","pattern":"X","legs":"M"},"bonus":0.7800000000000007},{"rt":171,"stimulus":"bees-with-color/bee-A1SM.svg","response":1,"trial_type":"image-button-response","trial_index":143,"time_elapsed":410164,"internal_node_id":"0.0-6.0-0.7","subject_id":"5a062680c259f300017656b3","study_id":"6197b3f67c2b5cd3b6d9596a","session_id":"619be31f908569a938d4f68a","condition":"full-information","relevant_dimensions":["wings","legs"],"bee_group":{"antennae":"X","wings":"1","pattern":"X","legs":"M"},"bonus":0.7800000000000007},{"rt":170,"stimulus":"bees-with-color/bee-A1SF.svg","response":1,"trial_type":"image-button-response","trial_index":144,"time_elapsed":410336,"internal_node_id":"0.0-6.0-0.8","subject_id":"5a062680c259f300017656b3","study_id":"6197b3f67c2b5cd3b6d9596a","session_id":"619be31f908569a938d4f68a","condition":"full-information","relevant_dimensions":["wings","legs"],"bee_group":{"antennae":"X","wings":"1","pattern":"X","legs":"M"},"bonus":0.7800000000000007},{"rt":185,"stimulus":"bees-with-color/bee-B1SM.svg","response":1,"trial_type":"image-button-response","trial_index":145,"time_elapsed":410522,"internal_node_id":"0.0-6.0-0.9","subject_id":"5a062680c259f300017656b3","study_id":"6197b3f67c2b5cd3b6d9596a","session_id":"619be31f908569a938d4f68a","condition":"full-information","relevant_dimensions":["wings","legs"],"bee_group":{"antennae":"X","wings":"1","pattern":"X","legs":"M"},"bonus":0.7800000000000007},{"rt":5151,"stimulus":"bees-with-color/bee-B2DM.svg","response":1,"trial_type":"image-button-response","trial_index":146,"time_elapsed":415673,"internal_node_id":"0.0-6.0-0.10","subject_id":"5a062680c259f300017656b3","study_id":"6197b3f67c2b5cd3b6d9596a","session_id":"619be31f908569a938d4f68a","condition":"full-information","relevant_dimensions":["wings","legs"],"bee_group":{"antennae":"X","wings":"1","pattern":"X","legs":"M"},"bonus":0.7800000000000007},{"rt":1080,"stimulus":"bees-with-color/bee-B2SF.svg","response":1,"trial_type":"image-button-response","trial_index":147,"time_elapsed":416754,"internal_node_id":"0.0-6.0-0.11","subject_id":"5a062680c259f300017656b3","study_id":"6197b3f67c2b5cd3b6d9596a","session_id":"619be31f908569a938d4f68a","condition":"full-information","relevant_dimensions":["wings","legs"],"bee_group":{"antennae":"X","wings":"1","pattern":"X","legs":"M"},"bonus":0.7800000000000007},{"rt":1068,"stimulus":"bees-with-color/bee-A2DF.svg","response":1,"trial_type":"image-button-response","trial_index":148,"time_elapsed":417823,"internal_node_id":"0.0-6.0-0.12","subject_id":"5a062680c259f300017656b3","study_id":"6197b3f67c2b5cd3b6d9596a","session_id":"619be31f908569a938d4f68a","condition":"full-information","relevant_dimensions":["wings","legs"],"bee_group":{"antennae":"X","wings":"1","pattern":"X","legs":"M"},"bonus":0.7800000000000007},{"rt":1127,"stimulus":"bees-with-color/bee-A2SM.svg","response":1,"trial_type":"image-button-response","trial_index":149,"time_elapsed":418950,"internal_node_id":"0.0-6.0-0.13","subject_id":"5a062680c259f300017656b3","study_id":"6197b3f67c2b5cd3b6d9596a","session_id":"619be31f908569a938d4f68a","condition":"full-information","relevant_dimensions":["wings","legs"],"bee_group":{"antennae":"X","wings":"1","pattern":"X","legs":"M"},"bonus":0.7800000000000007},{"rt":1329,"stimulus":"bees-with-color/bee-A1DF.svg","response":1,"trial_type":"image-button-response","trial_index":150,"time_elapsed":420281,"internal_node_id":"0.0-6.0-0.14","subject_id":"5a062680c259f300017656b3","study_id":"6197b3f67c2b5cd3b6d9596a","session_id":"619be31f908569a938d4f68a","condition":"full-information","relevant_dimensions":["wings","legs"],"bee_group":{"antennae":"X","wings":"1","pattern":"X","legs":"M"},"bonus":0.7800000000000007},{"rt":1597,"stimulus":"bees-with-color/bee-A1DM.svg","response":1,"trial_type":"image-button-response","trial_index":151,"time_elapsed":421878,"internal_node_id":"0.0-6.0-0.15","subject_id":"5a062680c259f300017656b3","study_id":"6197b3f67c2b5cd3b6d9596a","session_id":"619be31f908569a938d4f68a","condition":"full-information","relevant_dimensions":["wings","legs"],"bee_group":{"antennae":"X","wings":"1","pattern":"X","legs":"M"},"bonus":0.7800000000000007},{"rt":2773,"stimulus":"bees-with-color/bee-B2SF.svg","response":1,"trial_type":"image-button-response","trial_index":152,"time_elapsed":424652,"internal_node_id":"0.0-6.0-0.16","subject_id":"5a062680c259f300017656b3","study_id":"6197b3f67c2b5cd3b6d9596a","session_id":"619be31f908569a938d4f68a","condition":"full-information","relevant_dimensions":["wings","legs"],"bee_group":{"antennae":"X","wings":"1","pattern":"X","legs":"M"},"bonus":0.7800000000000007},{"rt":1407,"stimulus":"bees-with-color/bee-A1DM.svg","response":1,"trial_type":"image-button-response","trial_index":153,"time_elapsed":426059,"internal_node_id":"0.0-6.0-0.17","subject_id":"5a062680c259f300017656b3","study_id":"6197b3f67c2b5cd3b6d9596a","session_id":"619be31f908569a938d4f68a","condition":"full-information","relevant_dimensions":["wings","legs"],"bee_group":{"antennae":"X","wings":"1","pattern":"X","legs":"M"},"bonus":0.7800000000000007},{"rt":1207,"stimulus":"bees-with-color/bee-B1SM.svg","response":1,"trial_type":"image-button-response","trial_index":154,"time_elapsed":427267,"internal_node_id":"0.0-6.0-0.18","subject_id":"5a062680c259f300017656b3","study_id":"6197b3f67c2b5cd3b6d9596a","session_id":"619be31f908569a938d4f68a","condition":"full-information","relevant_dimensions":["wings","legs"],"bee_group":{"antennae":"X","wings":"1","pattern":"X","legs":"M"},"bonus":0.7800000000000007},{"rt":1187,"stimulus":"bees-with-color/bee-A2DF.svg","response":1,"trial_type":"image-button-response","trial_index":155,"time_elapsed":428454,"internal_node_id":"0.0-6.0-0.19","subject_id":"5a062680c259f300017656b3","study_id":"6197b3f67c2b5cd3b6d9596a","session_id":"619be31f908569a938d4f68a","condition":"full-information","relevant_dimensions":["wings","legs"],"bee_group":{"antennae":"X","wings":"1","pattern":"X","legs":"M"},"bonus":0.7800000000000007},{"rt":1113,"stimulus":"bees-with-color/bee-B2SM.svg","response":1,"trial_type":"image-button-response","trial_index":156,"time_elapsed":429568,"internal_node_id":"0.0-6.0-0.20","subject_id":"5a062680c259f300017656b3","study_id":"6197b3f67c2b5cd3b6d9596a","session_id":"619be31f908569a938d4f68a","condition":"full-information","relevant_dimensions":["wings","legs"],"bee_group":{"antennae":"X","wings":"1","pattern":"X","legs":"M"},"bonus":0.7800000000000007},{"rt":1375,"stimulus":"bees-with-color/bee-A2DM.svg","response":1,"trial_type":"image-button-response","trial_index":157,"time_elapsed":430944,"internal_node_id":"0.0-6.0-0.21","subject_id":"5a062680c259f300017656b3","study_id":"6197b3f67c2b5cd3b6d9596a","session_id":"619be31f908569a938d4f68a","condition":"full-information","relevant_dimensions":["wings","legs"],"bee_group":{"antennae":"X","wings":"1","pattern":"X","legs":"M"},"bonus":0.7800000000000007},{"rt":1235,"stimulus":"bees-with-color/bee-B1SF.svg","response":1,"trial_type":"image-button-response","trial_index":158,"time_elapsed":432181,"internal_node_id":"0.0-6.0-0.22","subject_id":"5a062680c259f300017656b3","study_id":"6197b3f67c2b5cd3b6d9596a","session_id":"619be31f908569a938d4f68a","condition":"full-information","relevant_dimensions":["wings","legs"],"bee_group":{"antennae":"X","wings":"1","pattern":"X","legs":"M"},"bonus":0.7800000000000007},{"rt":1128,"stimulus":"bees-with-color/bee-B2DM.svg","response":1,"trial_type":"image-button-response","trial_index":159,"time_elapsed":433310,"internal_node_id":"0.0-6.0-0.23","subject_id":"5a062680c259f300017656b3","study_id":"6197b3f67c2b5cd3b6d9596a","session_id":"619be31f908569a938d4f68a","condition":"full-information","relevant_dimensions":["wings","legs"],"bee_group":{"antennae":"X","wings":"1","pattern":"X","legs":"M"},"bonus":0.7800000000000007},{"rt":1114,"stimulus":"bees-with-color/bee-B1DM.svg","response":1,"trial_type":"image-button-response","trial_index":160,"time_elapsed":434426,"internal_node_id":"0.0-6.0-0.24","subject_id":"5a062680c259f300017656b3","study_id":"6197b3f67c2b5cd3b6d9596a","session_id":"619be31f908569a938d4f68a","condition":"full-information","relevant_dimensions":["wings","legs"],"bee_group":{"antennae":"X","wings":"1","pattern":"X","legs":"M"},"bonus":0.7800000000000007},{"rt":1190,"stimulus":"bees-with-color/bee-A1SM.svg","response":1,"trial_type":"image-button-response","trial_index":161,"time_elapsed":435618,"internal_node_id":"0.0-6.0-0.25","subject_id":"5a062680c259f300017656b3","study_id":"6197b3f67c2b5cd3b6d9596a","session_id":"619be31f908569