[{"success":true,"trial_type":"fullscreen","trial_index":0,"time_elapsed":79688,"internal_node_id":"0.0-0.0","subject_id":"5f96d655567cc405047c9346","study_id":"6197b3f67c2b5cd3b6d9596a","session_id":"6197b88f1e673fb8b0520f0d","condition":"full-information","relevant_dimensions":["antennae","legs"],"bee_group":{"antennae":"A","wings":"X","pattern":"X","legs":"F"},"bonus":1.7000000000000013},{"success":true,"timeout":false,"failed_images":[],"failed_audio":[],"failed_video":[],"trial_type":"preload","trial_index":1,"time_elapsed":81312,"internal_node_id":"0.0-1.0","subject_id":"5f96d655567cc405047c9346","study_id":"6197b3f67c2b5cd3b6d9596a","session_id":"6197b88f1e673fb8b0520f0d","condition":"full-information","relevant_dimensions":["antennae","legs"],"bee_group":{"antennae":"A","wings":"X","pattern":"X","legs":"F"},"bonus":1.7000000000000013},{"rt":1651.7999999523163,"stimulus":"Welcome! Press any key to begin.","response":"arrowdown","trial_type":"html-keyboard-response","trial_index":2,"time_elapsed":82965,"internal_node_id":"0.0-2.0","subject_id":"5f96d655567cc405047c9346","study_id":"6197b3f67c2b5cd3b6d9596a","session_id":"6197b88f1e673fb8b0520f0d","condition":"full-information","relevant_dimensions":["antennae","legs"],"bee_group":{"antennae":"A","wings":"X","pattern":"X","legs":"F"},"bonus":1.7000000000000013},{"view_history":[{"page_index":0,"viewing_time":2261},{"page_index":1,"viewing_time":8777},{"page_index":2,"viewing_time":12401.800000071526},{"page_index":3,"viewing_time":10916.899999976158},{"page_index":4,"viewing_time":8247.200000047684},{"page_index":5,"viewing_time":29154},{"page_index":6,"viewing_time":7102.899999976158},{"page_index":7,"viewing_time":7083.699999928474},{"page_index":8,"viewing_time":2179.4000000953674},{"page_index":7,"viewing_time":794.7999999523163},{"page_index":8,"viewing_time":1491.2999999523163},{"page_index":7,"viewing_time":623.9000000953674},{"page_index":8,"viewing_time":638.2999999523163},{"page_index":9,"viewing_time":4296.399999976158},{"page_index":10,"viewing_time":4983.5},{"page_index":9,"viewing_time":282.7000000476837},{"page_index":8,"viewing_time":327.60000002384186},{"page_index":7,"viewing_time":26874.299999952316},{"page_index":8,"viewing_time":1184.7000000476837},{"page_index":9,"viewing_time":1427},{"page_index":10,"viewing_time":833.1999999284744},{"page_index":11,"viewing_time":8081.899999976158},{"page_index":12,"viewing_time":27111.200000047684},{"page_index":13,"viewing_time":877.8999999761581},{"page_index":14,"viewing_time":2683.3000000715256}],"rt":170636.30000007153,"trial_type":"instructions","trial_index":3,"time_elapsed":253603,"internal_node_id":"0.0-3.0-0.0","subject_id":"5f96d655567cc405047c9346","study_id":"6197b3f67c2b5cd3b6d9596a","session_id":"6197b88f1e673fb8b0520f0d","condition":"full-information","relevant_dimensions":["antennae","legs"],"bee_group":{"antennae":"A","wings":"X","pattern":"X","legs":"F"},"bonus":1.7000000000000013},{"rt":7516.800000071526,"response":{"Q0":["Two or six legs","Stripes or spots on body","Single or double wings","Antennae or no antennae"]},"question_order":[0],"trial_type":"survey-multi-select","trial_index":4,"time_elapsed":261126,"internal_node_id":"0.0-3.0-1.0","subject_id":"5f96d655567cc405047c9346","study_id":"6197b3f67c2b5cd3b6d9596a","session_id":"6197b88f1e673fb8b0520f0d","condition":"full-information","relevant_dimensions":["antennae","legs"],"bee_group":{"antennae":"A","wings":"X","pattern":"X","legs":"F"},"correct":true,"bonus":1.7000000000000013},{"rt":20732.899999976158,"response":{"Q1":"No.","Q2":"Based on the four features of the bee.","Q3":"You learn if it was friendly or dangerous, but do not alter your bonus."},"question_order":[0,1,2],"trial_type":"survey-multi-choice","trial_index":5,"time_elapsed":281865,"internal_node_id":"0.0-3.0-2.0","subject_id":"5f96d655567cc405047c9346","study_id":"6197b3f67c2b5cd3b6d9596a","session_id":"6197b88f1e673fb8b0520f0d","condition":"full-information","relevant_dimensions":["antennae","legs"],"bee_group":{"antennae":"A","wings":"X","pattern":"X","legs":"F"},"correct":true,"bonus":1.7000000000000013},{"rt":3512.7999999523163,"stimulus":"<p>Congrats, you got everything right<br>When you're ready, click the button below to continue to the experiment.</p>","response":0,"trial_type":"html-button-response","trial_index":6,"time_elapsed":285382,"internal_node_id":"0.0-3.0-3.0","subject_id":"5f96d655567cc405047c9346","study_id":"6197b3f67c2b5cd3b6d9596a","session_id":"6197b88f1e673fb8b0520f0d","condition":"full-information","relevant_dimensions":["antennae","legs"],"bee_group":{"antennae":"A","wings":"X","pattern":"X","legs":"F"},"bonus":1.7000000000000013},{"rt":25145.899999976158,"stimulus":"bees-with-color/bee-A1DF.svg","response":0,"trial_type":"image-button-response","trial_index":7,"time_elapsed":310530,"internal_node_id":"0.0-4.0-0.0","subject_id":"5f96d655567cc405047c9346","study_id":"6197b3f67c2b5cd3b6d9596a","session_id":"6197b88f1e673fb8b0520f0d","condition":"full-information","relevant_dimensions":["antennae","legs"],"bee_group":{"antennae":"A","wings":"X","pattern":"X","legs":"F"},"action":"harvest","summary":"bad-harvest","bonus":1.7000000000000013},{"rt":14053.100000023842,"stimulus":"\n                    <p><b>Action: <em>harvest</em></b></p>\n                    <p>This is the bee that you just saw.</p>\n                    <img src=\"bees-with-color/bee-A1DF.svg\" width=\"200\">\n                    <p><span class=\"redText\">Bad choice, the bee was angry.</span><br><b>You have been stung!</b><br>Your pay has been decreased by $0.10. Your bonus pay is now $0.44.</p>\n            ","response":0,"trial_type":"html-button-response","trial_index":8,"time_elapsed":324586,"internal_node_id":"0.0-4.0-1.0","subject_id":"5f96d655567cc405047c9346","study_id":"6197b3f67c2b5cd3b6d9596a","session_id":"6197b88f1e673fb8b0520f0d","condition":"full-information","relevant_dimensions":["antennae","legs"],"bee_group":{"antennae":"A","wings":"X","pattern":"X","legs":"F"},"bonus":1.7000000000000013},{"rt":11813.400000095367,"stimulus":"bees-with-color/bee-B1DF.svg","response":0,"trial_type":"image-button-response","trial_index":9,"time_elapsed":336402,"internal_node_id":"0.0-4.0-0.1","subject_id":"5f96d655567cc405047c9346","study_id":"6197b3f67c2b5cd3b6d9596a","session_id":"6197b88f1e673fb8b0520f0d","condition":"full-information","relevant_dimensions":["antennae","legs"],"bee_group":{"antennae":"A","wings":"X","pattern":"X","legs":"F"},"action":"harvest","summary":"good-harvest","bonus":1.7000000000000013},{"rt":25685.799999952316,"stimulus":"\n                    <p><b>Action: <em>harvest</em></b></p>\n                    <p>This is the bee that you just saw.</p>\n                    <img src=\"bees-with-color/bee-B1DF.svg\" width=\"200\">\n                    <p><span class=\"greenText\"><b>Successful harvest!</b></span><br>Your pay has increased by $0.02. Your bonus pay is now $0.46.</p>\n            ","response":0,"trial_type":"html-button-response","trial_index":10,"time_elapsed":362090,"internal_node_id":"0.0-4.0-1.1","subject_id":"5f96d655567cc405047c9346","study_id":"6197b3f67c2b5cd3b6d9596a","session_id":"6197b88f1e673fb8b0520f0d","condition":"full-information","relevant_dimensions":["antennae","legs"],"bee_group":{"antennae":"A","wings":"X","pattern":"X","legs":"F"},"bonus":1.7000000000000013},{"rt":24962.899999976158,"stimulus":"bees-with-color/bee-B1SM.svg","response":1,"trial_type":"image-button-response","trial_index":11,"time_elapsed":387055,"internal_node_id":"0.0-4.0-0.2","subject_id":"5f96d655567cc405047c9346","study_id":"6197b3f67c2b5cd3b6d9596a","session_id":"6197b88f1e673fb8b0520f0d","condition":"full-information","relevant_dimensions":["antennae","legs"],"bee_group":{"antennae":"A","wings":"X","pattern":"X","legs":"F"},"action":"avoid","summary":"bad-avoid","bonus":1.7000000000000013},{"rt":10272.700000047684,"stimulus":"\n                    <p><b>Action: <em>avoid</em></b></p>\n                    <p>This is the bee that you just saw.</p>\n                    <img src=\"bees-with-color/bee-B1SM.svg\" width=\"200\">\n                    <p><span class=\"redText\">Bad choice,</span> the bee was friendly.<br>Your bonus pay is unchanged, and remains at $0.46.</p>\n            ","response":0,"trial_type":"html-button-response","trial_index":12,"time_elapsed":397329,"internal_node_id":"0.0-4.0-1.2","subject_id":"5f96d655567cc405047c9346","study_id":"6197b3f67c2b5cd3b6d9596a","session_id":"6197b88f1e673fb8b0520f0d","condition":"full-information","relevant_dimensions":["antennae","legs"],"bee_group":{"antennae":"A","wings":"X","pattern":"X","legs":"F"},"bonus":1.7000000000000013},{"rt":10730.699999928474,"stimulus":"bees-with-color/bee-A1DM.svg","response":1,"trial_type":"image-button-response","trial_index":13,"time_elapsed":408061,"internal_node_id":"0.0-4.0-0.3","subject_id":"5f96d655567cc405047c9346","study_id":"6197b3f67c2b5cd3b6d9596a","session_id":"6197b88f1e673fb8b0520f0d","condition":"full-information","relevant_dimensions":["antennae","legs"],"bee_group":{"antennae":"A","wings":"X","pattern":"X","legs":"F"},"action":"avoid","summary":"bad-avoid","bonus":1.7000000000000013},{"rt":37646,"stimulus":"\n                    <p><b>Action: <em>avoid</em></b></p>\n                    <p>This is the bee that you just saw.</p>\n                    <img src=\"bees-with-color/bee-A1DM.svg\" width=\"200\">\n                    <p><span class=\"redText\">Bad choice,</span> the bee was friendly.<br>Your bonus pay is unchanged, and remains at $0.46.</p>\n            ","response":0,"trial_type":"html-button-response","trial_index":14,"time_elapsed":445708,"internal_node_id":"0.0-4.0-1.3","subject_id":"5f96d655567cc405047c9346","study_id":"6197b3f67c2b5cd3b6d9596a","session_id":"6197b88f1e673fb8b0520f0d","condition":"full-information","relevant_dimensions":["antennae","legs"],"bee_group":{"antennae":"A","wings":"X","pattern":"X","legs":"F"},"bonus":1.7000000000000013},{"rt":14618.900000095367,"stimulus":"bees-with-color/bee-B2DM.svg","response":1,"trial_type":"image-button-response","trial_index":15,"time_elapsed":460329,"internal_node_id":"0.0-4.0-0.4","subject_id":"5f96d655567cc405047c9346","study_id":"6197b3f67c2b5cd3b6d9596a","session_id":"6197b88f1e673fb8b0520f0d","condition":"full-information","relevant_dimensions":["antennae","legs"],"bee_group":{"antennae":"A","wings":"X","pattern":"X","legs":"F"},"action":"avoid","summary":"bad-avoid","bonus":1.7000000000000013},{"rt":7963.699999928474,"stimulus":"\n                    <p><b>Action: <em>avoid</em></b></p>\n                    <p>This is the bee that you just saw.</p>\n                    <img src=\"bees-with-color/bee-B2DM.svg\" width=\"200\">\n                    <p><span class=\"redText\">Bad choice,</span> the bee was friendly.<br>Your bonus pay is unchanged, and remains at $0.46.</p>\n            ","response":0,"trial_type":"html-button-response","trial_index":16,"time_elapsed":468294,"internal_node_id":"0.0-4.0-1.4","subject_id":"5f96d655567cc405047c9346","study_id":"6197b3f67c2b5cd3b6d9596a","session_id":"6197b88f1e673fb8b0520f0d","condition":"full-information","relevant_dimensions":["antennae","legs"],"bee_group":{"antennae":"A","wings":"X","pattern":"X","legs":"F"},"bonus":1.7000000000000013},{"rt":3856.2999999523163,"stimulus":"bees-with-color/bee-B1DM.svg","response":0,"trial_type":"image-button-response","trial_index":17,"time_elapsed":472152,"internal_node_id":"0.0-4.0-0.5","subject_id":"5f96d655567cc405047c9346","study_id":"6197b3f67c2b5cd3b6d9596a","session_id":"6197b88f1e673fb8b0520f0d","condition":"full-information","relevant_dimensions":["antennae","legs"],"bee_group":{"antennae":"A","wings":"X","pattern":"X","legs":"F"},"action":"harvest","summary":"good-harvest","bonus":1.7000000000000013},{"rt":4259.899999976158,"stimulus":"\n                    <p><b>Action: <em>harvest</em></b></p>\n                    <p>This is the bee that you just saw.</p>\n                    <img src=\"bees-with-color/bee-B1DM.svg\" width=\"200\">\n                    <p><span class=\"greenText\"><b>Successful harvest!</b></span><br>Your pay has increased by $0.02. Your bonus pay is now $0.48.</p>\n            ","response":0,"trial_type":"html-button-response","trial_index":18,"time_elapsed":476414,"internal_node_id":"0.0-4.0-1.5","subject_id":"5f96d655567cc405047c9346","study_id":"6197b3f67c2b5cd3b6d9596a","session_id":"6197b88f1e673fb8b0520f0d","condition":"full-information","relevant_dimensions":["antennae","legs"],"bee_group":{"antennae":"A","wings":"X","pattern":"X","legs":"F"},"bonus":1.7000000000000013},{"rt":1458.8999999761581,"stimulus":"bees-with-color/bee-A1SF.svg","response":1,"trial_type":"image-button-response","trial_index":19,"time_elapsed":477875,"internal_node_id":"0.0-4.0-0.6","subject_id":"5f96d655567cc405047c9346","study_id":"6197b3f67c2b5cd3b6d9596a","session_id":"6197b88f1e673fb8b0520f0d","condition":"full-information","relevant_dimensions":["antennae","legs"],"bee_group":{"antennae":"A","wings":"X","pattern":"X","legs":"F"},"action":"avoid","summary":"good-avoid","bonus":1.7000000000000013},{"rt":6052.5,"stimulus":"\n                    <p><b>Action: <em>avoid</em></b></p>\n                    <p>This is the bee that you just saw.</p>\n                    <img src=\"bees-with-color/bee-A1SF.svg\" width=\"200\">\n                    <p><span class=\"greenText\">Good choice!</span>  This bee would have stung you.<br>Your bonus pay is unchanged, and remains at $0.48.</p>\n            ","response":0,"trial_type":"html-button-response","trial_index":20,"time_elapsed":483929,"internal_node_id":"0.0-4.0-1.6","subject_id":"5f96d655567cc405047c9346","study_id":"6197b3f67c2b5cd3b6d9596a","session_id":"6197b88f1e673fb8b0520f0d","condition":"full-information","relevant_dimensions":["antennae","legs"],"bee_group":{"antennae":"A","wings":"X","pattern":"X","legs":"F"},"bonus":1.7000000000000013},{"rt":1441.6000000238419,"stimulus":"bees-with-color/bee-B2DF.svg","response":0,"trial_type":"image-button-response","trial_index":21,"time_elapsed":485372,"internal_node_id":"0.0-4.0-0.7","subject_id":"5f96d655567cc405047c9346","study_id":"6197b3f67c2b5cd3b6d9596a","session_id":"6197b88f1e673fb8b0520f0d","condition":"full-information","relevant_dimensions":["antennae","legs"],"bee_group":{"antennae":"A","wings":"X","pattern":"X","legs":"F"},"action":"harvest","summary":"good-harvest","bonus":1.7000000000000013},{"rt":954.6000000238419,"stimulus":"\n                    <p><b>Action: <em>harvest</em></b></p>\n                    <p>This is the bee that you just saw.</p>\n                    <img src=\"bees-with-color/bee-B2DF.svg\" width=\"200\">\n                    <p><span class=\"greenText\"><b>Successful harvest!</b></span><br>Your pay has increased by $0.02. Your bonus pay is now $0.50.</p>\n            ","response":0,"trial_type":"html-button-response","trial_index":22,"time_elapsed":486328,"internal_node_id":"0.0-4.0-1.7","subject_id":"5f96d655567cc405047c9346","study_id":"6197b3f67c2b5cd3b6d9596a","session_id":"6197b88f1e673fb8b0520f0d","condition":"full-information","relevant_dimensions":["antennae","legs"],"bee_group":{"antennae":"A","wings":"X","pattern":"X","legs":"F"},"bonus":1.7000000000000013},{"rt":1149.2999999523163,"stimulus":"bees-with-color/bee-B2SM.svg","response":0,"trial_type":"image-button-response","trial_index":23,"time_elapsed":487479,"internal_node_id":"0.0-4.0-0.8","subject_id":"5f96d655567cc405047c9346","study_id":"6197b3f67c2b5cd3b6d9596a","session_id":"6197b88f1e673fb8b0520f0d","condition":"full-information","relevant_dimensions":["antennae","legs"],"bee_group":{"antennae":"A","wings":"X","pattern":"X","legs":"F"},"action":"harvest","summary":"good-harvest","bonus":1.7000000000000013},{"rt":991,"stimulus":"\n                    <p><b>Action: <em>harvest</em></b></p>\n                    <p>This is the bee that you just saw.</p>\n                    <img src=\"bees-with-color/bee-B2SM.svg\" width=\"200\">\n                    <p><span class=\"greenText\"><b>Successful harvest!</b></span><br>Your pay has increased by $0.02. Your bonus pay is now $0.52.</p>\n            ","response":0,"trial_type":"html-button-response","trial_index":24,"time_elapsed":488471,"internal_node_id":"0.0-4.0-1.8","subject_id":"5f96d655567cc405047c9346","study_id":"6197b3f67c2b5cd3b6d9596a","session_id":"6197b88f1e673fb8b0520f0d","condition":"full-information","relevant_dimensions":["antennae","legs"],"bee_group":{"antennae":"A","wings":"X","pattern":"X","legs":"F"},"bonus":1.7000000000000013},{"rt":4796.899999976158,"stimulus":"bees-with-color/bee-B1SF.svg","response":0,"trial_type":"image-button-response","trial_index":25,"time_elapsed":493269,"internal_node_id":"0.0-4.0-0.9","subject_id":"5f96d655567cc405047c9346","study_id":"6197b3f67c2b5cd3b6d9596a","session_id":"6197b88f1e673fb8b0520f0d","condition":"full-information","relevant_dimensions":["antennae","legs"],"bee_group":{"antennae":"A","wings":"X","pattern":"X","legs":"F"},"action":"harvest","summary":"good-harvest","bonus":1.7000000000000013},{"rt":909.8999999761581,"stimulus":"\n                    <p><b>Action: <em>harvest</em></b></p>\n                    <p>This is the bee that you just saw.</p>\n                    <img src=\"bees-with-color/bee-B1SF.svg\" width=\"200\">\n                    <p><span class=\"greenText\"><b>Successful harvest!</b></span><br>Your pay has increased by $0.02. Your bonus pay is now $0.54.</p>\n            ","response":0,"trial_type":"html-button-response","trial_index":26,"time_elapsed":494181,"internal_node_id":"0.0-4.0-1.9","subject_id":"5f96d655567cc405047c9346","study_id":"6197b3f67c2b5cd3b6d9596a","session_id":"6197b88f1e673fb8b0520f0d","condition":"full-information","relevant_dimensions":["antennae","legs"],"bee_group":{"antennae":"A","wings":"X","pattern":"X","legs":"F"},"bonus":1.7000000000000013},{"rt":2524.7999999523163,"stimulus":"bees-with-color/bee-A2SF.svg","response":1,"trial_type":"image-button-response","trial_index":27,"time_elapsed":496707,"internal_node_id":"0.0-4.0-0.10","subject_id":"5f96d655567cc405047c9346","study_id":"6197b3f67c2b5cd3b6d9596a","session_id":"6197b88f1e673fb8b0520f0d","condition":"full-information","relevant_dimensions":["antennae","legs"],"bee_group":{"antennae":"A","wings":"X","pattern":"X","legs":"F"},"action":"avoid","summary":"good-avoid","bonus":1.7000000000000013},{"rt":918.5,"stimulus":"\n                    <p><b>Action: <em>avoid</em></b></p>\n                    <p>This is the bee that you just saw.</p>\n                    <img src=\"bees-with-color/bee-A2SF.svg\" width=\"200\">\n                    <p><span class=\"greenText\">Good choice!</span>  This bee would have stung you.<br>Your bonus pay is unchanged, and remains at $0.54.</p>\n            ","response":0,"trial_type":"html-button-response","trial_index":28,"time_elapsed":497627,"internal_node_id":"0.0-4.0-1.10","subject_id":"5f96d655567cc405047c9346","study_id":"6197b3f67c2b5cd3b6d9596a","session_id":"6197b88f1e673fb8b0520f0d","condition":"full-information","relevant_dimensions":["antennae","legs"],"bee_group":{"antennae":"A","wings":"X","pattern":"X","legs":"F"},"bonus":1.7000000000000013},{"rt":1564.1000000238419,"stimulus":"bees-with-color/bee-A2DM.svg","response":0,"trial_type":"image-button-response","trial_index":29,"time_elapsed":499192,"internal_node_id":"0.0-4.0-0.11","subject_id":"5f96d655567cc405047c9346","study_id":"6197b3f67c2b5cd3b6d9596a","session_id":"6197b88f1e673fb8b0520f0d","condition":"full-information","relevant_dimensions":["antennae","legs"],"bee_group":{"antennae":"A","wings":"X","pattern":"X","legs":"F"},"action":"harvest","summary":"good-harvest","bonus":1.7000000000000013},{"rt":821.8999999761581,"stimulus":"\n                    <p><b>Action: <em>harvest</em></b></p>\n                    <p>This is the bee that you just saw.</p>\n                    <img src=\"bees-with-color/bee-A2DM.svg\" width=\"200\">\n                    <p><span class=\"greenText\"><b>Successful harvest!</b></span><br>Your pay has increased by $0.02. Your bonus pay is now $0.56.</p>\n            ","response":0,"trial_type":"html-button-response","trial_index":30,"time_elapsed":500015,"internal_node_id":"0.0-4.0-1.11","subject_id":"5f96d655567cc405047c9346","study_id":"6197b3f67c2b5cd3b6d9596a","session_id":"6197b88f1e673fb8b0520f0d","condition":"full-information","relevant_dimensions":["antennae","legs"],"bee_group":{"antennae":"A","wings":"X","pattern":"X","legs":"F"},"bonus":1.7000000000000013},{"rt":1043.0999999046326,"stimulus":"bees-with-color/bee-A2SM.svg","response":0,"trial_type":"image-button-response","trial_index":31,"time_elapsed":501060,"internal_node_id":"0.0-4.0-0.12","subject_id":"5f96d655567cc405047c9346","study_id":"6197b3f67c2b5cd3b6d9596a","session_id":"6197b88f1e673fb8b0520f0d","condition":"full-information","relevant_dimensions":["antennae","legs"],"bee_group":{"antennae":"A","wings":"X","pattern":"X","legs":"F"},"action":"harvest","summary":"good-harvest","bonus":1.7000000000000013},{"rt":613.7000000476837,"stimulus":"\n                    <p><b>Action: <em>harvest</em></b></p>\n                    <p>This is the bee that you just saw.</p>\n                    <img src=\"bees-with-color/bee-A2SM.svg\" width=\"200\">\n                    <p><span class=\"greenText\"><b>Successful harvest!</b></span><br>Your pay has increased by $0.02. Your bonus pay is now $0.58.</p>\n            ","response":0,"trial_type":"html-button-response","trial_index":32,"time_elapsed":501674,"internal_node_id":"0.0-4.0-1.12","subject_id":"5f96d655567cc405047c9346","study_id":"6197b3f67c2b5cd3b6d9596a","session_id":"6197b88f1e673fb8b0520f0d","condition":"full-information","relevant_dimensions":["antennae","legs"],"bee_group":{"antennae":"A","wings":"X","pattern":"X","legs":"F"},"bonus":1.7000000000000013},{"rt":1984.3000000715256,"stimulus":"bees-with-color/bee-B2SF.svg","response":0,"trial_type":"image-button-response","trial_index":33,"time_elapsed":503660,"internal_node_id":"0.0-4.0-0.13","subject_id":"5f96d655567cc405047c9346","study_id":"6197b3f67c2b5cd3b6d9596a","session_id":"6197b88f1e673fb8b0520f0d","condition":"full-information","relevant_dimensions":["antennae","legs"],"bee_group":{"antennae":"A","wings":"X","pattern":"X","legs":"F"},"action":"harvest","summary":"good-harvest","bonus":1.7000000000000013},{"rt":513.7000000476837,"stimulus":"\n                    <p><b>Action: <em>harvest</em></b></p>\n                    <p>This is the bee that you just saw.</p>\n                    <img src=\"bees-with-color/bee-B2SF.svg\" width=\"200\">\n                    <p><span class=\"greenText\"><b>Successful harvest!</b></span><br>Your pay has increased by $0.02. Your bonus pay is now $0.60.</p>\n            ","response":0,"trial_type":"html-button-response","trial_index":34,"time_elapsed":504175,"internal_node_id":"0.0-4.0-1.13","subject_id":"5f96d655567cc405047c9346","study_id":"6197b3f67c2b5cd3b6d9596a","session_id":"6197b88f1e673fb8b0520f0d","condition":"full-information","relevant_dimensions":["antennae","legs"],"bee_group":{"antennae":"A","wings":"X","pattern":"X","legs":"F"},"bonus":1.7000000000000013},{"rt":1259.6000000238419,"stimulus":"bees-with-color/bee-A1SM.svg","response":0,"trial_type":"image-button-response","trial_index":35,"time_elapsed":505436,"internal_node_id":"0.0-4.0-0.14","subject_id":"5f96d655567cc405047c9346","study_id":"6197b3f67c2b5cd3b6d9596a","session_id":"6197b88f1e673fb8b0520f0d","condition":"full-information","relevant_dimensions":["antennae","legs"],"bee_group":{"antennae":"A","wings":"X","pattern":"X","legs":"F"},"action":"harvest","summary":"good-harvest","bonus":1.7000000000000013},{"rt":564.0999999046326,"stimulus":"\n                    <p><b>Action: <em>harvest</em></b></p>\n                    <p>This is the bee that you just saw.</p>\n                    <img src=\"bees-with-color/bee-A1SM.svg\" width=\"200\">\n                    <p><span class=\"greenText\"><b>Successful harvest!</b></span><br>Your pay has increased by $0.02. Your bonus pay is now $0.62.</p>\n            ","response":0,"trial_type":"html-button-response","trial_index":36,"time_elapsed":506001,"internal_node_id":"0.0-4.0-1.14","subject_id":"5f96d655567cc405047c9346","study_id":"6197b3f67c2b5cd3b6d9596a","session_id":"6197b88f1e673fb8b0520f0d","condition":"full-information","relevant_dimensions":["antennae","legs"],"bee_group":{"antennae":"A","wings":"X","pattern":"X","legs":"F"},"bonus":1.7000000000000013},{"rt":1193.2000000476837,"stimulus":"bees-with-color/bee-A2DF.svg","response":1,"trial_type":"image-button-response","trial_index":37,"time_elapsed":507195,"internal_node_id":"0.0-4.0-0.15","subject_id":"5f96d655567cc405047c9346","study_id":"6197b3f67c2b5cd3b6d9596a","session_id":"6197b88f1e673fb8b0520f0d","condition":"full-information","relevant_dimensions":["antennae","legs"],"bee_group":{"antennae":"A","wings":"X","pattern":"X","legs":"F"},"action":"avoid","summary":"good-avoid","bonus":1.7000000000000013},{"rt":529.3000000715256,"stimulus":"\n                    <p><b>Action: <em>avoid</em></b></p>\n                    <p>This is the bee that you just saw.</p>\n                    <img src=\"bees-with-color/bee-A2DF.svg\" width=\"200\">\n                    <p><span class=\"greenText\">Good choice!</span>  This bee would have stung you.<br>Your bonus pay is unchanged, and remains at $0.62.</p>\n            ","response":0,"trial_type":"html-button-response","trial_index":38,"time_elapsed":507726,"internal_node_id":"0.0-4.0-1.15","subject_id":"5f96d655567cc405047c9346","study_id":"6197b3f67c2b5cd3b6d9596a","session_id":"6197b88f1e673fb8b0520f0d","condition":"full-information","relevant_dimensions":["antennae","legs"],"bee_group":{"antennae":"A","wings":"X","pattern":"X","legs":"F"},"bonus":1.7000000000000013},{"rt":1346.2000000476837,"stimulus":"bees-with-color/bee-B1DF.svg","response":0,"trial_type":"image-button-response","trial_index":39,"time_elapsed":509073,"internal_node_id":"0.0-4.0-0.16","subject_id":"5f96d655567cc405047c9346","study_id":"6197b3f67c2b5cd3b6d9596a","session_id":"6197b88f1e673fb8b0520f0d","condition":"full-information","relevant_dimensions":["antennae","legs"],"bee_group":{"antennae":"A","wings":"X","pattern":"X","legs":"F"},"action":"harvest","summary":"good-harvest","bonus":1.7000000000000013},{"rt":455.60000002384186,"stimulus":"\n                    <p><b>Action: <em>harvest</em></b></p>\n                    <p>This is the bee that you just saw.</p>\n                    <img src=\"bees-with-color/bee-B1DF.svg\" width=\"200\">\n                    <p><span class=\"greenText\"><b>Successful harvest!</b></span><br>Your pay has increased by $0.02. Your bonus pay is now $0.64.</p>\n            ","response":0,"trial_type":"html-button-response","trial_index":40,"time_elapsed":509530,"internal_node_id":"0.0-4.0-1.16","subject_id":"5f96d655567cc405047c9346","study_id":"6197b3f67c2b5cd3b6d9596a","session_id":"6197b88f1e673fb8b0520f0d","condition":"full-information","relevant_dimensions":["antennae","legs"],"bee_group":{"antennae":"A","wings":"X","pattern":"X","legs":"F"},"bonus":1.7000000000000013},{"rt":2941.2000000476837,"stimulus":"bees-with-color/bee-A1SM.svg","response":0,"trial_type":"image-button-response","trial_index":41,"time_elapsed":512473,"internal_node_id":"0.0-4.0-0.17","subject_id":"5f96d655567cc405047c9346","study_id":"6197b3f67c2b5cd3b6d9596a","session_id":"6197b88f1e673fb8b0520f0d","condition":"full-information","relevant_dimensions":["antennae","legs"],"bee_group":{"antennae":"A","wings":"X","pattern":"X","legs":"F"},"action":"harvest","summary":"good-harvest","bonus":1.7000000000000013},{"rt":505.89999997615814,"stimulus":"\n                    <p><b>Action: <em>harvest</em></b></p>\n                    <p>This is the bee that you just saw.</p>\n                    <img src=\"bees-with-color/bee-A1SM.svg\" width=\"200\">\n                    <p><span class=\"greenText\"><b>Successful harvest!</b></span><br>Your pay has increased by $0.02. Your bonus pay is now $0.66.</p>\n            ","response":0,"trial_type":"html-button-response","trial_index":42,"time_elapsed":512980,"internal_node_id":"0.0-4.0-1.17","subject_id":"5f96d655567cc405047c9346","study_id":"6197b3f67c2b5cd3b6d9596a","session_id":"6197b88f1e673fb8b0520f0d","condition":"full-information","relevant_dimensions":["antennae","legs"],"bee_group":{"antennae":"A","wings":"X","pattern":"X","legs":"F"},"bonus":1.7000000000000013},{"rt":1067.5,"stimulus":"bees-with-color/bee-B2DF.svg","response":0,"trial_type":"image-button-response","trial_index":43,"time_elapsed":514049,"internal_node_id":"0.0-4.0-0.18","subject_id":"5f96d655567cc405047c9346","study_id":"6197b3f67c2b5cd3b6d9596a","session_id":"6197b88f1e673fb8b0520f0d","condition":"full-information","relevant_dimensions":["antennae","legs"],"bee_group":{"antennae":"A","wings":"X","pattern":"X","legs":"F"},"action":"harvest","summary":"good-harvest","bonus":1.7000000000000013},{"rt":466.60000002384186,"stimulus":"\n                    <p><b>Action: <em>harvest</em></b></p>\n                    <p>This is the bee that you just saw.</p>\n                    <img src=\"bees-with-color/bee-B2DF.svg\" width=\"200\">\n                    <p><span class=\"greenText\"><b>Successful harvest!</b></span><br>Your pay has increased by $0.02. Your bonus pay is now $0.68.</p>\n            ","response":0,"trial_type":"html-button-response","trial_index":44,"time_elapsed":514517,"internal_node_id":"0.0-4.0-1.18","subject_id":"5f96d655567cc405047c9346","study_id":"6197b3f67c2b5cd3b6d9596a","session_id":"6197b88f1e673fb8b0520f0d","condition":"full-information","relevant_dimensions":["antennae","legs"],"bee_group":{"antennae":"A","wings":"X","pattern":"X","legs":"F"},"bonus":1.7000000000000013},{"rt":1574.8999999761581,"stimulus":"bees-with-color/bee-B1SF.svg","response":0,"trial_type":"image-button-response","trial_index":45,"time_elapsed":516093,"internal_node_id":"0.0-4.0-0.19","subject_id":"5f96d655567cc405047c9346","study_id":"6197b3f67c2b5cd3b6d9596a","session_id":"6197b88f1e673fb8b0520f0d","condition":"full-information","relevant_dimensions":["antennae","legs"],"bee_group":{"antennae":"A","wings":"X","pattern":"X","legs":"F"},"action":"harvest","summary":"good-harvest","bonus":1.7000000000000013},{"rt":478.2999999523163,"stimulus":"\n                    <p><b>Action: <em>harvest</em></b></p>\n                    <p>This is the bee that you just saw.</p>\n                    <img src=\"bees-with-color/bee-B1SF.svg\" width=\"200\">\n                    <p><span class=\"greenText\"><b>Successful harvest!</b></span><br>Your pay has increased by $0.02. Your bonus pay is now $0.70.</p>\n            ","response":0,"trial_type":"html-button-response","trial_index":46,"time_elapsed":516573,"internal_node_id":"0.0-4.0-1.19","subject_id":"5f96d655567cc405047c9346","study_id":"6197b3f67c2b5cd3b6d9596a","session_id":"6197b88f1e673fb8b0520f0d","condition":"full-information","relevant_dimensions":["antennae","legs"],"bee_group":{"antennae":"A","wings":"X","pattern":"X","legs":"F"},"bonus":1.7000000000000013},{"rt":1060.3000000715256,"stimulus":"bees-with-color/bee-A2SM.svg","response":0,"trial_type":"image-button-response","trial_index":47,"time_elapsed":517634,"internal_node_id":"0.0-4.0-0.20","subject_id":"5f96d655567cc405047c9346","study_id":"6197b3f67c2b5cd3b6d9596a","session_id":"6197b88f1e673fb8b0520f0d","condition":"full-information","relevant_dimensions":["antennae","legs"],"bee_group":{"antennae":"A","wings":"X","pattern":"X","legs":"F"},"action":"harvest","summary":"good-harvest","bonus":1.7000000000000013},{"rt":492.90000009536743,"stimulus":"\n                    <p><b>Action: <em>harvest</em></b></p>\n                    <p>This is the bee that you just saw.</p>\n                    <img src=\"bees-with-color/bee-A2SM.svg\" width=\"200\">\n                    <p><span class=\"greenText\"><b>Successful harvest!</b></span><br>Your pay has increased by $0.02. Your bonus pay is now $0.72.</p>\n            ","response":0,"trial_type":"html-button-response","trial_index":48,"time_elapsed":518129,"internal_node_id":"0.0-4.0-1.20","subject_id":"5f96d655567cc405047c9346","study_id":"6197b3f67c2b5cd3b6d9596a","session_id":"6197b88f1e673fb8b0520f0d","condition":"full-information","relevant_dimensions":["antennae","legs"],"bee_group":{"antennae":"A","wings":"X","pattern":"X","legs":"F"},"bonus":1.7000000000000013},{"rt":1171.6000000238419,"stimulus":"bees-with-color/bee-A1SF.svg","response":1,"trial_type":"image-button-response","trial_index":49,"time_elapsed":519301,"internal_node_id":"0.0-4.0-0.21","subject_id":"5f96d655567cc405047c9346","study_id":"6197b3f67c2b5cd3b6d9596a","session_id":"6197b88f1e673fb8b0520f0d","condition":"full-information","relevant_dimensions":["antennae","legs"],"bee_group":{"antennae":"A","wings":"X","pattern":"X","legs":"F"},"action":"avoid","summary":"good-avoid","bonus":1.7000000000000013},{"rt":538.3999999761581,"stimulus":"\n                    <p><b>Action: <em>avoid</em></b></p>\n                    <p>This is the bee that you just saw.</p>\n                    <img src=\"bees-with-color/bee-A1SF.svg\" width=\"200\">\n                    <p><span class=\"greenText\">Good choice!</span>  This bee would have stung you.<br>Your bonus pay is unchanged, and remains at $0.72.</p>\n            ","response":0,"trial_type":"html-button-response","trial_index":50,"time_elapsed":519841,"internal_node_id":"0.0-4.0-1.21","subject_id":"5f96d655567cc405047c9346","study_id":"6197b3f67c2b5cd3b6d9596a","session_id":"6197b88f1e673fb8b0520f0d","condition":"full-information","relevant_dimensions":["antennae","legs"],"bee_group":{"antennae":"A","wings":"X","pattern":"X","legs":"F"},"bonus":1.7000000000000013},{"rt":1520,"stimulus":"bees-with-color/bee-A2DF.svg","response":1,"trial_type":"image-button-response","trial_index":51,"time_elapsed":521362,"internal_node_id":"0.0-4.0-0.22","subject_id":"5f96d655567cc405047c9346","study_id":"6197b3f67c2b5cd3b6d9596a","session_id":"6197b88f1e673fb8b0520f0d","condition":"full-information","relevant_dimensions":["antennae","legs"],"bee_group":{"antennae":"A","wings":"X","pattern":"X","legs":"F"},"action":"avoid","summary":"good-avoid","bonus":1.7000000000000013},{"rt":480.7000000476837,"stimulus":"\n                    <p><b>Action: <em>avoid</em></b></p>\n                    <p>This is the bee that you just saw.</p>\n                    <img src=\"bees-with-color/bee-A2DF.svg\" width=\"200\">\n                    <p><span class=\"greenText\">Good choice!</span>  This bee would have stung you.<br>Your bonus pay is unchanged, and remains at $0.72.</p>\n            ","response":0,"trial_type":"html-button-response","trial_index":52,"time_elapsed":521844,"internal_node_id":"0.0-4.0-1.22","subject_id":"5f96d655567cc405047c9346","study_id":"6197b3f67c2b5cd3b6d9596a","session_id":"6197b88f1e673fb8b0520f0d","condition":"full-information","relevant_dimensions":["antennae","legs"],"bee_group":{"antennae":"A","wings":"X","pattern":"X","legs":"F"},"bonus":1.7000000000000013},{"rt":1641.7999999523163,"stimulus":"bees-with-color/bee-B2SF.svg","response":0,"trial_type":"image-button-response","trial_index":53,"time_elapsed":523487,"internal_node_id":"0.0-4.0-0.23","subject_id":"5f96d655567cc405047c9346","study_id":"6197b3f67c2b5cd3b6d9596a","session_id":"6197b88f1e673fb8b0520f0d","condition":"full-information","relevant_dimensions":["antennae","legs"],"bee_group":{"antennae":"A","wings":"X","pattern":"X","legs":"F"},"action":"harvest","summary":"good-harvest","bonus":1.7000000000000013},{"rt":883.2999999523163,"stimulus":"\n                    <p><b>Action: <em>harvest</em></b></p>\n                    <p>This is the bee that you just saw.</p>\n                    <img src=\"bees-with-color/bee-B2SF.svg\" width=\"200\">\n                    <p><span class=\"greenText\"><b>Successful harvest!</b></span><br>Your pay has increased by $0.02. Your bonus pay is now $0.74.</p>\n            ","response":0,"trial_type":"html-button-response","trial_index":54,"time_elapsed":524371,"internal_node_id":"0.0-4.0-1.23","subject_id":"5f96d655567cc405047c9346","study_id":"6197b3f67c2b5cd3b6d9596a","session_id":"6197b88f1e673fb8b0520f0d","condition":"full-information","relevant_dimensions":["antennae","legs"],"bee_group":{"antennae":"A","wings":"X","pattern":"X","legs":"F"},"bonus":1.7000000000000013},{"rt":1001.8999999761581,"stimulus":"bees-with-color/bee-B1SM.svg","response":0,"trial_type":"image-button-response","trial_index":55,"time_elapsed":525374,"internal_node_id":"0.0-4.0-0.24","subject_id":"5f96d655567cc405047c9346","study_id":"6197b3f67c2b5cd3b6d9596a","session_id":"6197b88f1e673fb8b0520f0d","condition":"full-information","relevant_dimensions":["antennae","legs"],"bee_group":{"antennae":"A","wings":"X","pattern":"X","legs":"F"},"action":"harvest","summary":"good-harvest","bonus":1.7000000000000013},{"rt":378.8000000715256,"stimulus":"\n                    <p><b>Action: <em>harvest</em></b></p>\n                    <p>This is the bee that you just saw.</p>\n                    <img src=\"bees-with-color/bee-B1SM.svg\" width=\"200\">\n                    <p><span class=\"greenText\"><b>Successful harvest!</b></span><br>Your pay has increased by $0.02. Your bonus pay is now $0.76.</p>\n            ","response":0,"trial_type":"html-button-response","trial_index":56,"time_elapsed":525754,"internal_node_id":"0.0-4.0-1.24","subject_id":"5f96d655567cc405047c9346","study_id":"6197b3f67c2b5cd3b6d9596a","session_id":"6197b88f1e673fb8b0520f0d","condition":"full-information","relevant_dimensions":["antennae","legs"],"bee_group":{"antennae":"A","wings":"X","pattern":"X","legs":"F"},"bonus":1.7000000000000013},{"rt":902.8999999761581,"stimulus":"bees-with-color/bee-A1DM.svg","response":0,"trial_type":"image-button-response","trial_index":57,"time_elapsed":526658,"internal_node_id":"0.0-4.0-0.25","subject_id":"5f96d655567cc405047c9346","study_id":"6197b3f67c2b5cd3b6d9596a","session_id":"6197b88f1e673fb8b0520f0d","condition":"full-information","relevant_dimensions":["antennae","legs"],"bee_group":{"antennae":"A","wings":"X","pattern":"X","legs":"F"},"action":"harvest","summary":"good-harvest","bonus":1.7000000000000013},{"rt":606.6000000238419,"stimulus":"\n                    <p><b>Action: <em>harvest</em></b></p>\n                    <p>This is the bee that you just saw.</p>\n                    <img src=\"bees-with-color/bee-A1DM.svg\" width=\"200\">\n                    <p><span class=\"greenText\"><b>Successful harvest!</b></span><br>Your pay has increased by $0.02. Your bonus pay is now $0.78.</p>\n            ","response":0,"trial_type":"html-button-response","trial_index":58,"time_elapsed":527266,"internal_node_id":"0.0-4.0-1.25","subject_id":"5f96d655567cc405047c9346","study_id":"6197b3f67c2b5cd3b6d9596a","session_id":"6197b88f1e673fb8b0520f0d","condition":"full-information","relevant_dimensions":["antennae","legs"],"bee_group":{"antennae":"A","wings":"X","pattern":"X","legs":"F"},"bonus":1.7000000000000013},{"rt":749.8999999761581,"stimulus":"bees-with-color/bee-B2DM.svg","response":0,"trial_type":"image-button-response","trial_index":59,"time_elapsed":528018,"internal_node_id":"0.0-4.0-0.26","subject_id":"5f96d655567cc405047c9346","study_id":"6197b3f67c2b5cd3b6d9596a","session_id":"6197b88f1e673fb8b0520f0d","condition":"full-information","relevant_dimensions":["antennae","legs"],"bee_group":{"antennae":"A","wings":"X","pattern":"X","legs":"F"},"action":"harvest","summary":"good-harvest","bonus":1.7000000000000013},{"rt":352.60000002384186,"stimulus":"\n                    <p><b>Action: <em>harvest</em></b></p>\n                    <p>This is the bee that you just saw.</p>\n                    <img src=\"bees-with-color/bee-B2DM.svg\" width=\"200\">\n                    <p><span class=\"greenText\"><b>Successful harvest!</b></span><br>Your pay has increased by $0.02. Your bonus pay is now $0.80.</p>\n            ","response":0,"trial_type":"html-button-response","trial_index":60,"time_elapsed":528372,"internal_node_id":"0.0-4.0-1.26","subject_id":"5f96d655567cc405047c9346","study_id":"6197b3f67c2b5cd3b6d9596a","session_id":"6197b88f1e673fb8b0520f0d","condition":"full-information","relevant_dimensions":["antennae","legs"],"bee_group":{"antennae":"A","wings":"X","pattern":"X","legs":"F"},"bonus":1.7000000000000013},{"rt":787.7999999523163,"stimulus":"bees-with-color/bee-B2SM.svg","response":0,"trial_type":"image-button-response","trial_index":61,"time_elapsed":529161,"internal_node_id":"0.0-4.0-0.27","subject_id":"5f96d655567cc405047c9346","study_id":"6197b3f67c2b5cd3b6d9596a","session_id":"6197b88f1e673fb8b0520f0d","condition":"full-information","relevant_dimensions":["antennae","legs"],"bee_group":{"antennae":"A","wings":"X","pattern":"X","legs":"F"},"action":"harvest","summary":"good-harvest","bonus":1.7000000000000013},{"rt":652.6999999284744,"stimulus":"\n                    <p><b>Action: <em>harvest</em></b></p>\n                    <p>This is the bee that you just saw.</p>\n                    <img src=\"bees-with-color/bee-B2SM.svg\" width=\"200\">\n                    <p><span class=\"greenText\"><b>Successful harvest!</b></span><br>Your pay has increased by $0.02. Your bonus pay is now $0.82.</p>\n            ","response":0,"trial_type":"html-button-response","trial_index":62,"time_elapsed":529815,"internal_node_id":"0.0-4.0-1.27","subject_id":"5f96d655567cc405047c9346","study_id":"6197b3f67c2b5cd3b6d9596a","session_id":"6197b88f1e673fb8b0520f0d","condition":"full-information","relevant_dimensions":["antennae","legs"],"bee_group":{"antennae":"A","wings":"X","pattern":"X","legs":"F"},"bonus":1.7000000000000013},{"rt":580.7999999523163,"stimulus":"bees-with-color/bee-A2DM.svg","response":0,"trial_type":"image-button-response","trial_index":63,"time_elapsed":530397,"internal_node_id":"0.0-4.0-0.28","subject_id":"5f96d655567cc405047c9346","study_id":"6197b3f67c2b5cd3b6d9596a","session_id":"6197b88f1e673fb8b0520f0d","condition":"full-information","relevant_dimensions":["antennae","legs"],"bee_group":{"antennae":"A","wings":"X","pattern":"X","legs":"F"},"action":"harvest","summary":"good-harvest","bonus":1.7000000000000013},{"rt":373.6999999284744,"stimulus":"\n                    <p><b>Action: <em>harvest</em></b></p>\n                    <p>This is the bee that you just saw.</p>\n                    <img src=\"bees-with-color/bee-A2DM.svg\" width=\"200\">\n                    <p><span class=\"greenText\"><b>Successful harvest!</b></span><br>Your pay has increased by $0.02. Your bonus pay is now $0.84.</p>\n            ","response":0,"trial_type":"html-button-response","trial_index":64,"time_elapsed":530772,"internal_node_id":"0.0-4.0-1.28","subject_id":"5f96d655567cc405047c9346","study_id":"6197b3f67c2b5cd3b6d9596a","session_id":"6197b88f1e673fb8b0520f0d","condition":"full-information","relevant_dimensions":["antennae","legs"],"bee_group":{"antennae":"A","wings":"X","pattern":"X","legs":"F"},"bonus":1.7000000000000013},{"rt":697.8999999761581,"stimulus":"bees-with-color/bee-B1DM.svg","response":0,"trial_type":"image-button-response","trial_index":65,"time_elapsed":531471,"internal_node_id":"0.0-4.0-0.29","subject_id":"5f96d655567cc405047c9346","study_id":"6197b3f67c2b5cd3b6d9596a","session_id":"6197b88f1e673fb8b0520f0d","condition":"full-information","relevant_dimensions":["antennae","legs"],"bee_group":{"antennae":"A","wings":"X","pattern":"X","legs":"F"},"action":"harvest","summary":"good-harvest","bonus":1.7000000000000013},{"rt":365,"stimulus":"\n                    <p><b>Action: <em>harvest</em></b></p>\n                    <p>This is the bee that you just saw.</p>\n                    <img src=\"bees-with-color/bee-B1DM.svg\" width=\"200\">\n                    <p><span class=\"greenText\"><b>Successful harvest!</b></span><br>Your pay has increased by $0.02. Your bonus pay is now $0.86.</p>\n            ","response":0,"trial_type":"html-button-response","trial_index":66,"time_elapsed":531837,"internal_node_id":"0.0-4.0-1.29","subject_id":"5f96d655567cc405047c9346","study_id":"6197b3f67c2b5cd3b6d9596a","session_id":"6197b88f1e673fb8b0520f0d","condition":"full-information","relevant_dimensions":["antennae","legs"],"bee_group":{"antennae":"A","wings":"X","pattern":"X","legs":"F"},"bonus":1.7000000000000013},{"rt":960.1000000238419,"stimulus":"bees-with-color/bee-A1DF.svg","response":1,"trial_type":"image-button-response","trial_index":67,"time_elapsed":532798,"internal_node_id":"0.0-4.0-0.30","subject_id":"5f96d655567cc405047c9346","study_id":"6197b3f67c2b5cd3b6d9596a","session_id":"6197b88f1e673fb8b0520f0d","condition":"full-information","relevant_dimensions":["antennae","legs"],"bee_group":{"antennae":"A","wings":"X","pattern":"X","legs":"F"},"action":"avoid","summary":"good-avoid","bonus":1.7000000000000013},{"rt":474.7999999523163,"stimulus":"\n                    <p><b>Action: <em>avoid</em></b></p>\n                    <p>This is the bee that you just saw.</p>\n                    <img src=\"bees-with-color/bee-A1DF.svg\" width=\"200\">\n                    <p><span class=\"greenText\">Good choice!</span>  This bee would have stung you.<br>Your bonus pay is unchanged, and remains at $0.86.</p>\n            ","response":0,"trial_type":"html-button-response","trial_index":68,"time_elapsed":533274,"internal_node_id":"0.0-4.0-1.30","subject_id":"5f96d655567cc405047c9346","study_id":"6197b3f67c2b5cd3b6d9596a","session_id":"6197b88f1e673fb8b0520f0d","condition":"full-information","relevant_dimensions":["antennae","legs"],"bee_group":{"antennae":"A","wings":"X","pattern":"X","legs":"F"},"bonus":1.7000000000000013},{"rt":382.60000002384186,"stimulus":"bees-with-color/bee-A2SF.svg","response":0,"trial_type":"image-button-response","trial_index":69,"time_elapsed":533658,"internal_node_id":"0.0-4.0-0.31","subject_id":"5f96d655567cc405047c9346","study_id":"6197b3f67c2b5cd3b6d9596a","session_id":"6197b88f1e673fb8b0520f0d","condition":"full-information","relevant_dimensions":["antennae","legs"],"bee_group":{"antennae":"A","wings":"X","pattern":"X","legs":"F"},"action":"harvest","summary":"bad-harvest","bonus":1.7000000000000013},{"rt":1699.6000000238419,"stimulus":"\n                    <p><b>Action: <em>harvest</em></b></p>\n                    <p>This is the bee that you just saw.</p>\n                    <img src=\"bees-with-color/bee-A2SF.svg\" width=\"200\">\n                    <p><span class=\"redText\">Bad choice, the bee was angry.</span><br><b>You have been stung!</b><br>Your pay has been decreased by $0.10. Your bonus pay is now $0.76.</p>\n            ","response":0,"trial_type":"html-button-response","trial_index":70,"time_elapsed":535359,"internal_node_id":"0.0-4.0-1.31","subject_id":"5f96d655567cc405047c9346","study_id":"6197b3f67c2b5cd3b6d9596a","session_id":"6197b88f1e673fb8b0520f0d","condition":"full-information","relevant_dimensions":["antennae","legs"],"bee_group":{"antennae":"A","wings":"X","pattern":"X","legs":"F"},"bonus":1.7000000000000013},{"rt":2023.5999999046326,"stimulus":"bees-with-color/bee-B2SF.svg","response":0,"trial_type":"image-button-response","trial_index":71,"time_elapsed":537384,"internal_node_id":"0.0-4.0-0.32","subject_id":"5f96d655567cc405047c9346","study_id":"6197b3f67c2b5cd3b6d9596a","session_id":"6197b88f1e673fb8b0520f0d","condition":"full-information","relevant_dimensions":["antennae","legs"],"bee_group":{"antennae":"A","wings":"X","pattern":"X","legs":"F"},"action":"harvest","summary":"good-harvest","bonus":1.7000000000000013},{"rt":716.6999999284744,"stimulus":"\n                    <p><b>Action: <em>harvest</em></b></p>\n                    <p>This is the bee that you just saw.</p>\n                    <img src=\"bees-with-color/bee-B2SF.svg\" width=\"200\">\n                    <p><span class=\"greenText\"><b>Successful harvest!</b></span><br>Your pay has increased by $0.02. Your bonus pay is now $0.78.</p>\n            ","response":0,"trial_type":"html-button-response","trial_index":72,"time_elapsed":538102,"internal_node_id":"0.0-4.0-1.32","subject_id":"5f96d655567cc405047c9346","study_id":"6197b3f67c2b5cd3b6d9596a","session_id":"6197b88f1e673fb8b0520f0d","condition":"full-information","relevant_dimensions":["antennae","legs"],"bee_group":{"antennae":"A","wings":"X","pattern":"X","legs":"F"},"bonus":1.7000000000000013},{"rt":986.6000000238419,"stimulus":"bees-with-color/bee-A1DM.svg","response":0,"trial_type":"image-button-response","trial_index":73,"time_elapsed":539090,"internal_node_id":"0.0-4.0-0.33","subject_id":"5f96d655567cc405047c9346","study_id":"6197b3f67c2b5cd3b6d9596a","session_id":"6197b88f1e673fb8b0520f0d","condition":"full-information","relevant_dimensions":["antennae","legs"],"bee_group":{"antennae":"A","wings":"X","pattern":"X","legs":"F"},"action":"harvest","summary":"good-harvest","bonus":1.7000000000000013},{"rt":528,"stimulus":"\n                    <p><b>Action: <em>harvest</em></b></p>\n                    <p>This is the bee that you just saw.</p>\n                    <img src=\"bees-with-color/bee-A1DM.svg\" width=\"200\">\n                    <p><span class=\"greenText\"><b>Successful harvest!</b></span><br>Your pay has increased by $0.02. Your bonus pay is now $0.80.</p>\n            ","response":0,"trial_type":"html-button-response","trial_index":74,"time_elapsed":539619,"internal_node_id":"0.0-4.0-1.33","subject_id":"5f96d655567cc405047c9346","study_id":"6197b3f67c2b5cd3b6d9596a","session_id":"6197b88f1e673fb8b0520f0d","condition":"full-information","relevant_dimensions":["antennae","legs"],"bee_group":{"antennae":"A","wings":"X","pattern":"X","legs":"F"},"bonus":1.7000000000000013},{"rt":1172.1000000238419,"stimulus":"bees-with-color/bee-B2DF.svg","response":0,"trial_type":"image-button-response","trial_index":75,"time_elapsed":540792,"internal_node_id":"0.0-4.0-0.34","subject_id":"5f96d655567cc405047c9346","study_id":"6197b3f67c2b5cd3b6d9596a","session_id":"6197b88f1e673fb8b0520f0d","condition":"full-information","relevant_dimensions":["antennae","legs"],"bee_group":{"antennae":"A","wings":"X","pattern":"X","legs":"F"},"action":"harvest","summary":"good-harvest","bonus":1.7000000000000013},{"rt":353.8000000715256,"stimulus":"\n                    <p><b>Action: <em>harvest</em></b></p>\n                    <p>This is the bee that you just saw.</p>\n                    <img src=\"bees-with-color/bee-B2DF.svg\" width=\"200\">\n                    <p><span class=\"greenText\"><b>Successful harvest!</b></span><br>Your pay has increased by $0.02. Your bonus pay is now $0.82.</p>\n            ","response":0,"trial_type":"html-button-response","trial_index":76,"time_elapsed":541147,"internal_node_id":"0.0-4.0-1.34","subject_id":"5f96d655567cc405047c9346","study_id":"6197b3f67c2b5cd3b6d9596a","session_id":"6197b88f1e673fb8b0520f0d","condition":"full-information","relevant_dimensions":["antennae","legs"],"bee_group":{"antennae":"A","wings":"X","pattern":"X","legs":"F"},"bonus":1.7000000000000013},{"rt":983.1999999284744,"stimulus":"bees-with-color/bee-A2SF.svg","response":1,"trial_type":"image-button-response","trial_index":77,"time_elapsed":542131,"internal_node_id":"0.0-4.0-0.35","subject_id":"5f96d655567cc405047c9346","study_id":"6197b3f67c2b5cd3b6d9596a","session_id":"6197b88f1e673fb8b0520f0d","condition":"full-information","relevant_dimensions":["antennae","legs"],"bee_group":{"antennae":"A","wings":"X","pattern":"X","legs":"F"},"action":"avoid","summary":"good-avoid","bonus":1.7000000000000013},{"rt":401.7999999523163,"stimulus":"\n                    <p><b>Action: <em>avoid</em></b></p>\n                    <p>This is the bee that you just saw.</p>\n                    <img src=\"bees-with-color/bee-A2SF.svg\" width=\"200\">\n                    <p><span class=\"greenText\">Good choice!</span>  This bee would have stung you.<br>Your bonus pay is unchanged, and remains at $0.82.</p>\n            ","response":0,"trial_type":"html-button-response","trial_index":78,"time_elapsed":542534,"internal_node_id":"0.0-4.0-1.35","subject_id":"5f96d655567cc405047c9346","study_id":"6197b3f67c2b5cd3b6d9596a","session_id":"6197b88f1e673fb8b0520f0d","condition":"full-information","relevant_dimensions":["antennae","legs"],"bee_group":{"antennae":"A","wings":"X","pattern":"X","legs":"F"},"bonus":1.7000000000000013},{"rt":785.2000000476837,"stimulus":"bees-with-color/bee-B1DM.svg","response":0,"trial_type":"image-button-response","trial_index":79,"time_elapsed":543320,"internal_node_id":"0.0-4.0-0.36","subject_id":"5f96d655567cc405047c9346","study_id":"6197b3f67c2b5cd3b6d9596a","session_id":"6197b88f1e673fb8b0520f0d","condition":"full-information","relevant_dimensions":["antennae","legs"],"bee_group":{"antennae":"A","wings":"X","pattern":"X","legs":"F"},"action":"harvest","summary":"good-harvest","bonus":1.7000000000000013},{"rt":337.5,"stimulus":"\n                    <p><b>Action: <em>harvest</em></b></p>\n                    <p>This is the bee that you just saw.</p>\n                    <img src=\"bees-with-color/bee-B1DM.svg\" width=\"200\">\n                    <p><span class=\"greenText\"><b>Successful harvest!</b></span><br>Your pay has increased by $0.02. Your bonus pay is now $0.84.</p>\n            ","response":0,"trial_type":"html-button-response","trial_index":80,"time_elapsed":543659,"internal_node_id":"0.0-4.0-1.36","subject_id":"5f96d655567cc405047c9346","study_id":"6197b3f67c2b5cd3b6d9596a","session_id":"6197b88f1e673fb8b0520f0d","condition":"full-information","relevant_dimensions":["antennae","legs"],"bee_group":{"antennae":"A","wings":"X","pattern":"X","legs":"F"},"bonus":1.7000000000000013},{"rt":946.2000000476837,"stimulus":"bees-with-color/bee-A1SF.svg","response":1,"trial_type":"image-button-response","trial_index":81,"time_elapsed":544606,"internal_node_id":"0.0-4.0-0.37","subject_id":"5f96d655567cc405047c9346","study_id":"6197b3f67c2b5cd3b6d9596a","session_id":"6197b88f1e673fb8b0520f0d","condition":"full-information","relevant_dimensions":["antennae","legs"],"bee_group":{"antennae":"A","wings":"X","pattern":"X","legs":"F"},"action":"avoid","summary":"good-avoid","bonus":1.7000000000000013},{"rt":376.09999990463257,"stimulus":"\n                    <p><b>Action: <em>avoid</em></b></p>\n                    <p>This is the bee that you just saw.</p>\n                    <img src=\"bees-with-color/bee-A1SF.svg\" width=\"200\">\n                    <p><span class=\"greenText\">Good choice!</span>  This bee would have stung you.<br>Your bonus pay is unchanged, and remains at $0.84.</p>\n            ","response":0,"trial_type":"html-button-response","trial_index":82,"time_elapsed":544984,"internal_node_id":"0.0-4.0-1.37","subject_id":"5f96d655567cc405047c9346","study_id":"6197b3f67c2b5cd3b6d9596a","session_id":"6197b88f1e673fb8b0520f0d","condition":"full-information","relevant_dimensions":["antennae","legs"],"bee_group":{"antennae":"A","wings":"X","pattern":"X","legs":"F"},"bonus":1.7000000000000013},{"rt":697.6000000238419,"stimulus":"bees-with-color/bee-B2SM.svg","response":0,"trial_type":"image-button-response","trial_index":83,"time_elapsed":545682,"internal_node_id":"0.0-4.0-0.38","subject_id":"5f96d655567cc405047c9346","study_id":"6197b3f67c2b5cd3b6d9596a","session_id":"6197b88f1e673fb8b0520f0d","condition":"full-information","relevant_dimensions":["antennae","legs"],"bee_group":{"antennae":"A","wings":"X","pattern":"X","legs":"F"},"action":"harvest","summary":"good-harvest","bonus":1.7000000000000013},{"rt":386.89999997615814,"stimulus":"\n                    <p><b>Action: <em>harvest</em></b></p>\n                    <p>This is the bee that you just saw.</p>\n                    <img src=\"bees-with-color/bee-B2SM.svg\" width=\"200\">\n                    <p><span class=\"greenText\"><b>Successful harvest!</b></span><br>Your pay has increased by $0.02. Your bonus pay is now $0.86.</p>\n            ","response":0,"trial_type":"html-button-response","trial_index":84,"time_elapsed":546070,"internal_node_id":"0.0-4.0-1.38","subject_id":"5f96d655567cc405047c9346","study_id":"6197b3f67c2b5cd3b6d9596a","session_id":"6197b88f1e673fb8b0520f0d","condition":"full-information","relevant_dimensions":["antennae","legs"],"bee_group":{"antennae":"A","wings":"X","pattern":"X","legs":"F"},"bonus":1.7000000000000013},{"rt":660.2000000476837,"stimulus":"bees-with-color/bee-B2DM.svg","response":0,"trial_type":"image-button-response","trial_index":85,"time_elapsed":546732,"internal_node_id":"0.0-4.0-0.39","subject_id":"5f96d655567cc405047c9346","study_id":"6197b3f67c2b5cd3b6d9596a","session_id":"6197b88f1e673fb8b0520f0d","condition":"full-information","relevant_dimensions":["antennae","legs"],"bee_group":{"antennae":"A","wings":"X","pattern":"X","legs":"F"},"action":"harvest","summary":"good-harvest","bonus":1.7000000000000013},{"rt":322.39999997615814,"stimulus":"\n                    <p><b>Action: <em>harvest</em></b></p>\n                    <p>This is the bee that you just saw.</p>\n                    <img src=\"bees-with-color/bee-B2DM.svg\" width=\"200\">\n                    <p><span class=\"greenText\"><b>Successful harvest!</b></span><br>Your pay has increased by $0.02. Your bonus pay is now $0.88.</p>\n            ","response":0,"trial_type":"html-button-response","trial_index":86,"time_elapsed":547056,"internal_node_id":"0.0-4.0-1.39","subject_id":"5f96d655567cc405047c9346","study_id":"6197b3f67c2b5cd3b6d9596a","session_id":"6197b88f1e673fb8b0520f0d","condition":"full-information","relevant_dimensions":["antennae","legs"],"bee_group":{"antennae":"A","wings":"X","pattern":"X","legs":"F"},"bonus":1.7000000000000013},{"rt":1258.8999999761581,"stimulus":"bees-with-color/bee-B1DF.svg","response":0,"trial_type":"image-button-response","trial_index":87,"time_elapsed":548316,"internal_node_id":"0.0-4.0-0.40","subject_id":"5f96d655567cc405047c9346","study_id":"6197b3f67c2b5cd3b6d9596a","session_id":"6197b88f1e673fb8b0520f0d","condition":"full-information","relevant_dimensions":["antennae","legs"],"bee_group":{"antennae":"A","wings":"X","pattern":"X","legs":"F"},"action":"harvest","summary":"good-harvest","bonus":1.7000000000000013},{"rt":499.8000000715256,"stimulus":"\n                    <p><b>Action: <em>harvest</em></b></p>\n                    <p>This is the bee that you just saw.</p>\n                    <img src=\"bees-with-color/bee-B1DF.svg\" width=\"200\">\n                    <p><span class=\"greenText\"><b>Successful harvest!</b></span><br>Your pay has increased by $0.02. Your bonus pay is now $0.90.</p>\n            ","response":0,"trial_type":"html-button-response","trial_index":88,"time_elapsed":548817,"internal_node_id":"0.0-4.0-1.40","subject_id":"5f96d655567cc405047c9346","study_id":"6197b3f67c2b5cd3b6d9596a","session_id":"6197b88f1e673fb8b0520f0d","condition":"full-information","relevant_dimensions":["antennae","legs"],"bee_group":{"antennae":"A","wings":"X","pattern":"X","legs":"F"},"bonus":1.7000000000000013},{"rt":912.8999999761581,"stimulus":"bees-with-color/bee-A1DF.svg","response":1,"trial_type":"image-button-response","trial_index":89,"time_elapsed":549731,"internal_node_id":"0.0-4.0-0.41","subject_id":"5f96d655567cc405047c9346","study_id":"6197b3f67c2b5cd3b6d9596a","session_id":"6197b88f1e673fb8b0520f0d","condition":"full-information","relevant_dimensions":["antennae","legs"],"bee_group":{"antennae":"A","wings":"X","pattern":"X","legs":"F"},"action":"avoid","summary":"good-avoid","bonus":1.7000000000000013},{"rt":448.6999999284744,"stimulus":"\n                    <p><b>Action: <em>avoid</em></b></p>\n                    <p>This is the bee that you just saw.</p>\n                    <img src=\"bees-with-color/bee-A1DF.svg\" width=\"200\">\n                    <p><span class=\"greenText\">Good choice!</span>  This bee would have stung you.<br>Your bonus pay is unchanged, and remains at $0.90.</p>\n            ","response":0,"trial_type":"html-button-response","trial_index":90,"time_elapsed":550181,"internal_node_id":"0.0-4.0-1.41","subject_id":"5f96d655567cc405047c9346","study_id":"6197b3f67c2b5cd3b6d9596a","session_id":"6197b88f1e673fb8b0520f0d","condition":"full-information","relevant_dimensions":["antennae","legs"],"bee_group":{"antennae":"A","wings":"X","pattern":"X","legs":"F"},"bonus":1.7000000000000013},{"rt":952.1000000238419,"stimulus":"bees-with-color/bee-A1SM.svg","response":0,"trial_type":"image-button-response","trial_index":91,"time_elapsed":551134,"internal_node_id":"0.0-4.0-0.42","subject_id":"5f96d655567cc405047c9346","study_id":"6197b3f67c2b5cd3b6d9596a","session_id":"6197b88f1e673fb8b0520f0d","condition":"full-information","relevant_dimensions":["antennae","legs"],"bee_group":{"antennae":"A","wings":"X","pattern":"X","legs":"F"},"action":"harvest","summary":"good-harvest","bonus":1.7000000000000013},{"rt":519.5999999046326,"stimulus":"\n                    <p><b>Action: <em>harvest</em></b></p>\n                    <p>This is the bee that you just saw.</p>\n                    <img src=\"bees-with-color/bee-A1SM.svg\" width=\"200\">\n                    <p><span class=\"greenText\"><b>Successful harvest!</b></span><br>Your pay has increased by $0.02. Your bonus pay is now $0.92.</p>\n            ","response":0,"trial_type":"html-button-response","trial_index":92,"time_elapsed":551655,"internal_node_id":"0.0-4.0-1.42","subject_id":"5f96d655567cc405047c9346","study_id":"6197b3f67c2b5cd3b6d9596a","session_id":"6197b88f1e673fb8b0520f0d","condition":"full-information","relevant_dimensions":["antennae","legs"],"bee_group":{"antennae":"A","wings":"X","pattern":"X","legs":"F"},"bonus":1.7000000000000013},{"rt":1187.2000000476837,"stimulus":"bees-with-color/bee-A2DF.svg","response":1,"trial_type":"image-button-response","trial_index":93,"time_elapsed":552843,"internal_node_id":"0.0-4.0-0.43","subject_id":"5f96d655567cc405047c9346","study_id":"6197b3f67c2b5cd3b6d9596a","session_id":"6197b88f1e673fb8b0520f0d","condition":"full-information","relevant_dimensions":["antennae","legs"],"bee_group":{"antennae":"A","wings":"X","pattern":"X","legs":"F"},"action":"avoid","summary":"good-avoid","bonus":1.7000000000000013},{"rt":387.5,"stimulus":"\n                    <p><b>Action: <em>avoid</em></b></p>\n                    <p>This is the bee that you just saw.</p>\n                    <img src=\"bees-with-color/bee-A2DF.svg\" width=\"200\">\n                    <p><span class=\"greenText\">Good choice!</span>  This bee would have stung you.<br>Your bonus pay is unchanged, and remains at $0.92.</p>\n            ","response":0,"trial_type":"html-button-response","trial_index":94,"time_elapsed":553232,"internal_node_id":"0.0-4.0-1.43","subject_id":"5f96d655567cc405047c9346","study_id":"6197b3f67c2b5cd3b6d9596a","session_id":"6197b88f1e673fb8b0520f0d","condition":"full-information","relevant_dimensions":["antennae","legs"],"bee_group":{"antennae":"A","wings":"X","pattern":"X","legs":"F"},"bonus":1.7000000000000013},{"rt":829.6000000238419,"stimulus":"bees-with-color/bee-A2DM.svg","response":0,"trial_type":"image-button-response","trial_index":95,"time_elapsed":554063,"internal_node_id":"0.0-4.0-0.44","subject_id":"5f96d655567cc405047c9346","study_id":"6197b3f67c2b5cd3b6d9596a","session_id":"6197b88f1e673fb8b0520f0d","condition":"full-information","relevant_dimensions":["antennae","legs"],"bee_group":{"antennae":"A","wings":"X","pattern":"X","legs":"F"},"action":"harvest","summary":"good-harvest","bonus":1.7000000000000013},{"rt":384.90000009536743,"stimulus":"\n                    <p><b>Action: <em>harvest</em></b></p>\n                    <p>This is the bee that you just saw.</p>\n                    <img src=\"bees-with-color/bee-A2DM.svg\" width=\"200\">\n                    <p><span class=\"greenText\"><b>Successful harvest!</b></span><br>Your pay has increased by $0.02. Your bonus pay is now $0.94.</p>\n            ","response":0,"trial_type":"html-button-response","trial_index":96,"time_elapsed":554450,"internal_node_id":"0.0-4.0-1.44","subject_id":"5f96d655567cc405047c9346","study_id":"6197b3f67c2b5cd3b6d9596a","session_id":"6197b88f1e673fb8b0520f0d","condition":"full-information","relevant_dimensions":["antennae","legs"],"bee_group":{"antennae":"A","wings":"X","pattern":"X","legs":"F"},"bonus":1.7000000000000013},{"rt":944.8999999761581,"stimulus":"bees-with-color/bee-B1SF.svg","response":0,"trial_type":"image-button-response","trial_index":97,"time_elapsed":555396,"internal_node_id":"0.0-4.0-0.45","subject_id":"5f96d655567cc405047c9346","study_id":"6197b3f67c2b5cd3b6d9596a","session_id":"6197b88f1e673fb8b0520f0d","condition":"full-information","relevant_dimensions":["antennae","legs"],"bee_group":{"antennae":"A","wings":"X","pattern":"X","legs":"F"},"action":"harvest","summary":"good-harvest","bonus":1.7000000000000013},{"rt":331.5,"stimulus":"\n                    <p><b>Action: <em>harvest</em></b></p>\n                    <p>This is the bee that you just saw.</p>\n                    <img src=\"bees-with-color/bee-B1SF.svg\" width=\"200\">\n                    <p><span class=\"greenText\"><b>Successful harvest!</b></span><br>Your pay has increased by $0.02. Your bonus pay is now $0.96.</p>\n            ","response":0,"trial_type":"html-button-response","trial_index":98,"time_elapsed":555729,"internal_node_id":"0.0-4.0-1.45","subject_id":"5f96d655567cc405047c9346","study_id":"6197b3f67c2b5cd3b6d9596a","session_id":"6197b88f1e673fb8b0520f0d","condition":"full-information","relevant_dimensions":["antennae","legs"],"bee_group":{"antennae":"A","wings":"X","pattern":"X","legs":"F"},"bonus":1.7000000000000013},{"rt":1338.7000000476837,"stimulus":"bees-with-color/bee-A2SM.svg","response":0,"trial_type":"image-button-response","trial_index":99,"time_elapsed":557069,"internal_node_id":"0.0-4.0-0.46","subject_id":"5f96d655567cc405047c9346","study_id":"6197b3f67c2b5cd3b6d9596a","session_id":"6197b88f1e673fb8b0520f0d","condition":"full-information","relevant_dimensions":["antennae","legs"],"bee_group":{"antennae":"A","wings":"X","pattern":"X","legs":"F"},"action":"harvest","summary":"good-harvest","bonus":1.7000000000000013},{"rt":363.7999999523163,"stimulus":"\n                    <p><b>Action: <em>harvest</em></b></p>\n                    <p>This is the bee that you just saw.</p>\n                    <img src=\"bees-with-color/bee-A2SM.svg\" width=\"200\">\n                    <p><span class=\"greenText\"><b>Successful harvest!</b></span><br>Your pay has increased by $0.02. Your bonus pay is now $0.98.</p>\n            ","response":0,"trial_type":"html-button-response","trial_index":100,"time_elapsed":557434,"internal_node_id":"0.0-4.0-1.46","subject_id":"5f96d655567cc405047c9346","study_id":"6197b3f67c2b5cd3b6d9596a","session_id":"6197b88f1e673fb8b0520f0d","condition":"full-information","relevant_dimensions":["antennae","legs"],"bee_group":{"antennae":"A","wings":"X","pattern":"X","legs":"F"},"bonus":1.7000000000000013},{"rt":658.1000000238419,"stimulus":"bees-with-color/bee-B1SM.svg","response":0,"trial_type":"image-button-response","trial_index":101,"time_elapsed":558093,"internal_node_id":"0.0-4.0-0.47","subject_id":"5f96d655567cc405047c9346","study_id":"6197b3f67c2b5cd3b6d9596a","session_id":"6197b88f1e673fb8b0520f0d","condition":"full-information","relevant_dimensions":["antennae","legs"],"bee_group":{"antennae":"A","wings":"X","pattern":"X","legs":"F"},"action":"harvest","summary":"good-harvest","bonus":1.7000000000000013},{"rt":325.89999997615814,"stimulus":"\n                    <p><b>Action: <em>harvest</em></b></p>\n                    <p>This is the bee that you just saw.</p>\n                    <img src=\"bees-with-color/bee-B1SM.svg\" width=\"200\">\n                    <p><span class=\"greenText\"><b>Successful harvest!</b></span><br>Your pay has increased by $0.02. Your bonus pay is now $1.00.</p>\n            ","response":0,"trial_type":"html-button-response","trial_index":102,"time_elapsed":558420,"internal_node_id":"0.0-4.0-1.47","subject_id":"5f96d655567cc405047c9346","study_id":"6197b3f67c2b5cd3b6d9596a","session_id":"6197b88f1e673fb8b0520f0d","condition":"full-information","relevant_dimensions":["antennae","legs"],"bee_group":{"antennae":"A","wings":"X","pattern":"X","legs":"F"},"bonus":1.7000000000000013},{"rt":581,"stimulus":"bees-with-color/bee-B1DM.svg","response":0,"trial_type":"image-button-response","trial_index":103,"time_elapsed":559002,"internal_node_id":"0.0-4.0-0.48","subject_id":"5f96d655567cc405047c9346","study_id":"6197b3f67c2b5cd3b6d9596a","session_id":"6197b88f1e673fb8b0520f0d","condition":"full-information","relevant_dimensions":["antennae","legs"],"bee_group":{"antennae":"A","wings":"X","pattern":"X","legs":"F"},"action":"harvest","summary":"good-harvest","bonus":1.7000000000000013},{"rt":320.90000009536743,"stimulus":"\n                    <p><b>Action: <em>harvest</em></b></p>\n                    <p>This is the bee that you just saw.</p>\n                    <img src=\"bees-with-color/bee-B1DM.svg\" width=\"200\">\n                    <p><span class=\"greenText\"><b>Successful harvest!</b></span><br>Your pay has increased by $0.02. Your bonus pay is now $1.02.</p>\n            ","response":0,"trial_type":"html-button-response","trial_index":104,"time_elapsed":559324,"internal_node_id":"0.0-4.0-1.48","subject_id":"5f96d655567cc405047c9346","study_id":"6197b3f67c2b5cd3b6d9596a","session_id":"6197b88f1e673fb8b0520f0d","condition":"full-information","relevant_dimensions":["antennae","legs"],"bee_group":{"antennae":"A","wings":"X","pattern":"X","legs":"F"},"bonus":1.7000000000000013},{"rt":824.2999999523163,"stimulus":"bees-with-color/bee-A1DM.svg","response":0,"trial_type":"image-button-response","trial_index":105,"time_elapsed":560149,"internal_node_id":"0.0-4.0-0.49","subject_id":"5f96d655567cc405047c9346","study_id":"6197b3f67c2b5cd3b6d9596a","session_id":"6197b88f1e673fb8b0520f0d","condition":"full-information","relevant_dimensions":["antennae","legs"],"bee_group":{"antennae":"A","wings":"X","pattern":"X","legs":"F"},"action":"harvest","summary":"good-harvest","bonus":1.7000000000000013},{"rt":350.89999997615814,"stimulus":"\n                    <p><b>Action: <em>harvest</em></b></p>\n                    <p>This is the bee that you just saw.</p>\n                    <img src=\"bees-with-color/bee-A1DM.svg\" width=\"200\">\n                    <p><span class=\"greenText\"><b>Successful harvest!</b></span><br>Your pay has increased by $0.02. Your bonus pay is now $1.04.</p>\n            ","response":0,"trial_type":"html-button-response","trial_index":106,"time_elapsed":560501,"internal_node_id":"0.0-4.0-1.49","subject_id":"5f96d655567cc405047c9346","study_id":"6197b3f67c2b5cd3b6d9596a","session_id":"6197b88f1e673fb8b0520f0d","condition":"full-information","relevant_dimensions":["antennae","legs"],"bee_group":{"antennae":"A","wings":"X","pattern":"X","legs":"F"},"bonus":1.7000000000000013},{"rt":744.8000000715256,"stimulus":"bees-with-color/bee-B2SF.svg","response":0,"trial_type":"image-button-response","trial_index":107,"time_elapsed":561247,"internal_node_id":"0.0-4.0-0.50","subject_id":"5f96d655567cc405047c9346","study_id":"6197b3f67c2b5cd3b6d9596a","session_id":"6197b88f1e673fb8b0520f0d","condition":"full-information","relevant_dimensions":["antennae","legs"],"bee_group":{"antennae":"A","wings":"X","pattern":"X","legs":"F"},"action":"harvest","summary":"good-harvest","bonus":1.7000000000000013},{"rt":969.2000000476837,"stimulus":"\n                    <p><b>Action: <em>harvest</em></b></p>\n                    <p>This is the bee that you just saw.</p>\n                    <img src=\"bees-with-color/bee-B2SF.svg\" width=\"200\">\n                    <p><span class=\"greenText\"><b>Successful harvest!</b></span><br>Your pay has increased by $0.02. Your bonus pay is now $1.06.</p>\n            ","response":0,"trial_type":"html-button-response","trial_index":108,"time_elapsed":562217,"internal_node_id":"0.0-4.0-1.50","subject_id":"5f96d655567cc405047c9346","study_id":"6197b3f67c2b5cd3b6d9596a","session_id":"6197b88f1e673fb8b0520f0d","condition":"full-information","relevant_dimensions":["antennae","legs"],"bee_group":{"antennae":"A","wings":"X","pattern":"X","legs":"F"},"bonus":1.7000000000000013},{"rt":681,"stimulus":"bees-with-color/bee-B1DF.svg","response":0,"trial_type":"image-button-response","trial_index":109,"time_elapsed":562900,"internal_node_id":"0.0-4.0-0.51","subject_id":"5f96d655567cc405047c9346","study_id":"6197b3f67c2b5cd3b6d9596a","session_id":"6197b88f1e673fb8b0520f0d","condition":"full-information","relevant_dimensions":["antennae","legs"],"bee_group":{"antennae":"A","wings":"X","pattern":"X","legs":"F"},"action":"harvest","summary":"good-harvest","bonus":1.7000000000000013},{"rt":320.2000000476837,"stimulus":"\n                    <p><b>Action: <em>harvest</em></b></p>\n                    <p>This is the bee that you just saw.</p>\n                    <img src=\"bees-with-color/bee-B1DF.svg\" width=\"200\">\n                    <p><span class=\"greenText\"><b>Successful harvest!</b></span><br>Your pay has increased by $0.02. Your bonus pay is now $1.08.</p>\n            ","response":0,"trial_type":"html-button-response","trial_index":110,"time_elapsed":563221,"internal_node_id":"0.0-4.0-1.51","subject_id":"5f96d655567cc405047c9346","study_id":"6197b3f67c2b5cd3b6d9596a","session_id":"6197b88f1e673fb8b0520f0d","condition":"full-information","relevant_dimensions":["antennae","legs"],"bee_group":{"antennae":"A","wings":"X","pattern":"X","legs":"F"},"bonus":1.7000000000000013},{"rt":774.5,"stimulus":"bees-with-color/bee-B2SM.svg","response":0,"trial_type":"image-button-response","trial_index":111,"time_elapsed":563997,"internal_node_id":"0.0-4.0-0.52","subject_id":"5f96d655567cc405047c9346","study_id":"6197b3f67c2b5cd3b6d9596a","session_id":"6197b88f1e673fb8b0520f0d","condition":"full-information","relevant_dimensions":["antennae","legs"],"bee_group":{"antennae":"A","wings":"X","pattern":"X","legs":"F"},"action":"harvest","summary":"good-harvest","bonus":1.7000000000000013},{"rt":335.7999999523163,"stimulus":"\n                    <p><b>Action: <em>harvest</em></b></p>\n                    <p>This is the bee that you just saw.</p>\n                    <img src=\"bees-with-color/bee-B2SM.svg\" width=\"200\">\n                    <p><span class=\"greenText\"><b>Successful harvest!</b></span><br>Your pay has increased by $0.02. Your bonus pay is now $1.10.</p>\n            ","response":0,"trial_type":"html-button-response","trial_index":112,"time_elapsed":564334,"internal_node_id":"0.0-4.0-1.52","subject_id":"5f96d655567cc405047c9346","study_id":"6197b3f67c2b5cd3b6d9596a","session_id":"6197b88f1e673fb8b0520f0d","condition":"full-information","relevant_dimensions":["antennae","legs"],"bee_group":{"antennae":"A","wings":"X","pattern":"X","legs":"F"},"bonus":1.7000000000000013},{"rt":1077.7999999523163,"stimulus":"bees-with-color/bee-B2DF.svg","response":0,"trial_type":"image-button-response","trial_index":113,"time_elapsed":565413,"internal_node_id":"0.0-4.0-0.53","subject_id":"5f96d655567cc405047c9346","study_id":"6197b3f67c2b5cd3b6d9596a","session_id":"6197b88f1e673fb8b0520f0d","condition":"full-information","relevant_dimensions":["antennae","legs"],"bee_group":{"antennae":"A","wings":"X","pattern":"X","legs":"F"},"action":"harvest","summary":"good-harvest","bonus":1.7000000000000013},{"rt":657.3999999761581,"stimulus":"\n                    <p><b>Action: <em>harvest</em></b></p>\n                    <p>This is the bee that you just saw.</p>\n                    <img src=\"bees-with-color/bee-B2DF.svg\" width=\"200\">\n                    <p><span class=\"greenText\"><b>Successful harvest!</b></span><br>Your pay has increased by $0.02. Your bonus pay is now $1.12.</p>\n            ","response":0,"trial_type":"html-button-response","trial_index":114,"time_elapsed":566072,"internal_node_id":"0.0-4.0-1.53","subject_id":"5f96d655567cc405047c9346","study_id":"6197b3f67c2b5cd3b6d9596a","session_id":"6197b88f1e673fb8b0520f0d","condition":"full-information","relevant_dimensions":["antennae","legs"],"bee_group":{"antennae":"A","wings":"X","pattern":"X","legs":"F"},"bonus":1.7000000000000013},{"rt":930.1000000238419,"stimulus":"bees-with-color/bee-A1SF.svg","response":1,"trial_type":"image-button-response","trial_index":115,"time_elapsed":567003,"internal_node_id":"0.0-4.0-0.54","subject_id":"5f96d655567cc405047c9346","study_id":"6197b3f67c2b5cd3b6d9596a","session_id":"6197b88f1e673fb8b0520f0d","condition":"full-information","relevant_dimensions":["antennae","legs"],"bee_group":{"antennae":"A","wings":"X","pattern":"X","legs":"F"},"action":"avoid","summary":"good-avoid","bonus":1.7000000000000013},{"rt":367,"stimulus":"\n                    <p><b>Action: <em>avoid</em></b></p>\n                    <p>This is the bee that you just saw.</p>\n                    <img src=\"bees-with-color/bee-A1SF.svg\" width=\"200\">\n                    <p><span class=\"greenText\">Good choice!</span>  This bee would have stung you.<br>Your bonus pay is unchanged, and remains at $1.12.</p>\n            ","response":0,"trial_type":"html-button-response","trial_index":116,"time_elapsed":567371,"internal_node_id":"0.0-4.0-1.54","subject_id":"5f96d655567cc405047c9346","study_id":"6197b3f67c2b5cd3b6d9596a","session_id":"6197b88f1e673fb8b0520f0d","condition":"full-information","relevant_dimensions":["antennae","legs"],"bee_group":{"antennae":"A","wings":"X","pattern":"X","legs":"F"},"bonus":1.7000000000000013},{"rt":1700.8999999761581,"stimulus":"bees-with-color/bee-A2SF.svg","response":1,"trial_type":"image-button-response","trial_index":117,"time_elapsed":569073,"internal_node_id":"0.0-4.0-0.55","subject_id":"5f96d655567cc405047c9346","study_id":"6197b3f67c2b5cd3b6d9596a","session_id":"6197b88f1e673fb8b0520f0d","condition":"full-information","relevant_dimensions":["antennae","legs"],"bee_group":{"antennae":"A","wings":"X","pattern":"X","legs":"F"},"action":"avoid","summary":"good-avoid","bonus":1.7000000000000013},{"rt":530.7999999523163,"stimulus":"\n                    <p><b>Action: <em>avoid</em></b></p>\n                    <p>This is the bee that you just saw.</p>\n                    <img src=\"bees-with-color/bee-A2SF.svg\" width=\"200\">\n                    <p><span class=\"greenText\">Good choice!</span>  This bee would have stung you.<br>Your bonus pay is unchanged, and remains at $1.12.</p>\n            ","response":0,"trial_type":"html-button-response","trial_index":118,"time_elapsed":569605,"internal_node_id":"0.0-4.0-1.55","subject_id":"5f96d655567cc405047c9346","study_id":"6197b3f67c2b5cd3b6d9596a","session_id":"6197b88f1e673fb8b0520f0d","condition":"full-information","relevant_dimensions":["antennae","legs"],"bee_group":{"antennae":"A","wings":"X","pattern":"X","legs":"F"},"bonus":1.7000000000000013},{"rt":1025.8999999761581,"stimulus":"bees-with-color/bee-A2DF.svg","response":1,"trial_type":"image-button-response","trial_index":119,"time_elapsed":570632,"internal_node_id":"0.0-4.0-0.56","subject_id":"5f96d655567cc405047c9346","study_id":"6197b3f67c2b5cd3b6d9596a","session_id":"6197b88f1e673fb8b0520f0d","condition":"full-information","relevant_dimensions":["antennae","legs"],"bee_group":{"antennae":"A","wings":"X","pattern":"X","legs":"F"},"action":"avoid","summary":"good-avoid","bonus":1.7000000000000013},{"rt":351.7000000476837,"stimulus":"\n                    <p><b>Action: <em>avoid</em></b></p>\n                    <p>This is the bee that you just saw.</p>\n                    <img src=\"bees-with-color/bee-A2DF.svg\" width=\"200\">\n                    <p><span class=\"greenText\">Good choice!</span>  This bee would have stung you.<br>Your bonus pay is unchanged, and remains at $1.12.</p>\n            ","response":0,"trial_type":"html-button-response","trial_index":120,"time_elapsed":570985,"internal_node_id":"0.0-4.0-1.56","subject_id":"5f96d655567cc405047c9346","study_id":"6197b3f67c2b5cd3b6d9596a","session_id":"6197b88f1e673fb8b0520f0d","condition":"full-information","relevant_dimensions":["antennae","legs"],"bee_group":{"antennae":"A","wings":"X","pattern":"X","legs":"F"},"bonus":1.7000000000000013},{"rt":718.8000000715256,"stimulus":"bees-with-color/bee-B1SM.svg","response":0,"trial_type":"image-button-response","trial_index":121,"time_elapsed":571705,"internal_node_id":"0.0-4.0-0.57","subject_id":"5f96d655567cc405047c9346","study_id":"6197b3f67c2b5cd3b6d9596a","session_id":"6197b88f1e673fb8b0520f0d","condition":"full-information","relevant_dimensions":["antennae","legs"],"bee_group":{"antennae":"A","wings":"X","pattern":"X","legs":"F"},"action":"harvest","summary":"good-harvest","bonus":1.7000000000000013},{"rt":340.8000000715256,"stimulus":"\n                    <p><b>Action: <em>harvest</em></b></p>\n                    <p>This is the bee that you just saw.</p>\n                    <img src=\"bees-with-color/bee-B1SM.svg\" width=\"200\">\n                    <p><span class=\"greenText\"><b>Successful harvest!</b></span><br>Your pay has increased by $0.02. Your bonus pay is now $1.14.</p>\n            ","response":0,"trial_type":"html-button-response","trial_index":122,"time_elapsed":572047,"internal_node_id":"0.0-4.0-1.57","subject_id":"5f96d655567cc405047c9346","study_id":"6197b3f67c2b5cd3b6d9596a","session_id":"6197b88f1e673fb8b0520f0d","condition":"full-information","relevant_dimensions":["antennae","legs"],"bee_group":{"antennae":"A","wings":"X","pattern":"X","legs":"F"},"bonus":1.7000000000000013},{"rt":4471.200000047684,"stimulus":"bees-with-color/bee-A2SM.svg","response":0,"trial_type":"image-button-response","trial_index":123,"time_elapsed":576520,"internal_node_id":"0.0-4.0-0.58","subject_id":"5f96d655567cc405047c9346","study_id":"6197b3f67c2b5cd3b6d9596a","session_id":"6197b88f1e673fb8b0520f0d","condition":"full-information","relevant_dimensions":["antennae","legs"],"bee_group":{"antennae":"A","wings":"X","pattern":"X","legs":"F"},"action":"harvest","summary":"good-harvest","bonus":1.7000000000000013},{"rt":424.60000002384186,"stimulus":"\n                    <p><b>Action: <em>harvest</em></b></p>\n                    <p>This is the bee that you just saw.</p>\n                    <img src=\"bees-with-color/bee-A2SM.svg\" width=\"200\">\n                    <p><span class=\"greenText\"><b>Successful harvest!</b></span><br>Your pay has increased by $0.02. Your bonus pay is now $1.16.</p>\n            ","response":0,"trial_type":"html-button-response","trial_index":124,"time_elapsed":576946,"internal_node_id":"0.0-4.0-1.58","subject_id":"5f96d655567cc405047c9346","study_id":"6197b3f67c2b5cd3b6d9596a","session_id":"6197b88f1e673fb8b0520f0d","condition":"full-information","relevant_dimensions":["antennae","legs"],"bee_group":{"antennae":"A","wings":"X","pattern":"X","legs":"F"},"bonus":1.7000000000000013},{"rt":636.3000000715256,"stimulus":"bees-with-color/bee-A2DM.svg","response":0,"trial_type":"image-button-response","trial_index":125,"time_elapsed":577584,"internal_node_id":"0.0-4.0-0.59","subject_id":"5f96d655567cc405047c9346","study_id":"6197b3f67c2b5cd3b6d9596a","session_id":"6197b88f1e673fb8b0520f0d","condition":"full-information","relevant_dimensions":["antennae","legs"],"bee_group":{"antennae":"A","wings":"X","pattern":"X","legs":"F"},"action":"harvest","summary":"good-harvest","bonus":1.7000000000000013},{"rt":289.7000000476837,"stimulus":"\n                    <p><b>Action: <em>harvest</em></b></p>\n                    <p>This is the bee that you just saw.</p>\n                    <img src=\"bees-with-color/bee-A2DM.svg\" width=\"200\">\n                    <p><span class=\"greenText\"><b>Successful harvest!</b></span><br>Your pay has increased by $0.02. Your bonus pay is now $1.18.</p>\n            ","response":0,"trial_type":"html-button-response","trial_index":126,"time_elapsed":577875,"internal_node_id":"0.0-4.0-1.59","subject_id":"5f96d655567cc405047c9346","study_id":"6197b3f67c2b5cd3b6d9596a","session_id":"6197b88f1e673fb8b0520f0d","condition":"full-information","relevant_dimensions":["antennae","legs"],"bee_group":{"antennae":"A","wings":"X","pattern":"X","legs":"F"},"bonus":1.7000000000000013},{"rt":825.0999999046326,"stimulus":"bees-with-color/bee-A1DF.svg","response":1,"trial_type":"image-button-response","trial_index":127,"time_elapsed":578701,"internal_node_id":"0.0-4.0-0.60","subject_id":"5f96d655567cc405047c9346","study_id":"6197b3f67c2b5cd3b6d9596a","session_id":"6197b88f1e673fb8b0520f0d","condition":"full-information","relevant_dimensions":["antennae","legs"],"bee_group":{"antennae":"A","wings":"X","pattern":"X","legs":"F"},"action":"avoid","summary":"good-avoid","bonus":1.7000000000000013},{"rt":352.89999997615814,"stimulus":"\n                    <p><b>Action: <em>avoid</em></b></p>\n                    <p>This is the bee that you just saw.</p>\n                    <img src=\"bees-with-color/bee-A1DF.svg\" width=\"200\">\n                    <p><span class=\"greenText\">Good choice!</span>  This bee would have stung you.<br>Your bonus pay is unchanged, and remains at $1.18.</p>\n            ","response":0,"trial_type":"html-button-response","trial_index":128,"time_elapsed":579055,"internal_node_id":"0.0-4.0-1.60","subject_id":"5f96d655567cc405047c9346","study_id":"6197b3f67c2b5cd3b6d9596a","session_id":"6197b88f1e673fb8b0520f0d","condition":"full-information","relevant_dimensions":["antennae","legs"],"bee_group":{"antennae":"A","wings":"X","pattern":"X","legs":"F"},"bonus":1.7000000000000013},{"rt":732,"stimulus":"bees-with-color/bee-B2DM.svg","response":0,"trial_type":"image-button-response","trial_index":129,"time_elapsed":579788,"internal_node_id":"0.0-4.0-0.61","subject_id":"5f96d655567cc405047c9346","study_id":"6197b3f67c2b5cd3b6d9596a","session_id":"6197b88f1e673fb8b0520f0d","condition":"full-information","relevant_dimensions":["antennae","legs"],"bee_group":{"antennae":"A","wings":"X","pattern":"X","legs":"F"},"action":"harvest","summary":"good-harvest","bonus":1.7000000000000013},{"rt":334.7999999523163,"stimulus":"\n                    <p><b>Action: <em>harvest</em></b></p>\n                    <p>This is the bee that you just saw.</p>\n                    <img src=\"bees-with-color/bee-B2DM.svg\" width=\"200\">\n                    <p><span class=\"greenText\"><b>Successful harvest!</b></span><br>Your pay has increased by $0.02. Your bonus pay is now $1.20.</p>\n            ","response":0,"trial_type":"html-button-response","trial_index":130,"time_elapsed":580123,"internal_node_id":"0.0-4.0-1.61","subject_id":"5f96d655567cc405047c9346","study_id":"6197b3f67c2b5cd3b6d9596a","session_id":"6197b88f1e673fb8b0520f0d","condition":"full-information","relevant_dimensions":["antennae","legs"],"bee_group":{"antennae":"A","wings":"X","pattern":"X","legs":"F"},"bonus":1.7000000000000013},{"rt":727.5,"stimulus":"bees-with-color/bee-B1SF.svg","response":0,"trial_type":"image-button-response","trial_index":131,"time_elapsed":580852,"internal_node_id":"0.0-4.0-0.62","subject_id":"5f96d655567cc405047c9346","study_id":"6197b3f67c2b5cd3b6d9596a","session_id":"6197b88f1e673fb8b0520f0d","condition":"full-information","relevant_dimensions":["antennae","legs"],"bee_group":{"antennae":"A","wings":"X","pattern":"X","legs":"F"},"action":"harvest","summary":"good-harvest","bonus":1.7000000000000013},{"rt":246.70000004768372,"stimulus":"\n                    <p><b>Action: <em>harvest</em></b></p>\n                    <p>This is the bee that you just saw.</p>\n                    <img src=\"bees-with-color/bee-B1SF.svg\" width=\"200\">\n                    <p><span class=\"greenText\"><b>Successful harvest!</b></span><br>Your pay has increased by $0.02. Your bonus pay is now $1.22.</p>\n            ","response":0,"trial_type":"html-button-response","trial_index":132,"time_elapsed":581100,"internal_node_id":"0.0-4.0-1.62","subject_id":"5f96d655567cc405047c9346","study_id":"6197b3f67c2b5cd3b6d9596a","session_id":"6197b88f1e673fb8b0520f0d","condition":"full-information","relevant_dimensions":["antennae","legs"],"bee_group":{"antennae":"A","wings":"X","pattern":"X","legs":"F"},"bonus":1.7000000000000013},{"rt":756.1999999284744,"stimulus":"bees-with-color/bee-A1SM.svg","response":0,"trial_type":"image-button-response","trial_index":133,"time_elapsed":581857,"internal_node_id":"0.0-4.0-0.63","subject_id":"5f96d655567cc405047c9346","study_id":"6197b3f67c2b5cd3b6d9596a","session_id":"6197b88f1e673fb8b0520f0d","condition":"full-information","relevant_dimensions":["antennae","legs"],"bee_group":{"antennae":"A","wings":"X","pattern":"X","legs":"F"},"action":"harvest","summary":"good-harvest","bonus":1.7000000000000013},{"rt":233.89999997615814,"stimulus":"\n                    <p><b>Action: <em>harvest</em></b></p>\n                    <p>This is the bee that you just saw.</p>\n                    <img src=\"bees-with-color/bee-A1SM.svg\" width=\"200\">\n                    <p><span class=\"greenText\"><b>Successful harvest!</b></span><br>Your pay has increased by $0.02. Your bonus pay is now $1.24.</p>\n            ","response":0,"trial_type":"html-button-response","trial_index":134,"time_elapsed":582092,"internal_node_id":"0.0-4.0-1.63","subject_id":"5f96d655567cc405047c9346","study_id":"6197b3f67c2b5cd3b6d9596a","session_id":"6197b88f1e673fb8b0520f0d","condition":"full-information","relevant_dimensions":["antennae","legs"],"bee_group":{"antennae":"A","wings":"X","pattern":"X","legs":"F"},"bonus":1.7000000000000013},{"rt":4824,"stimulus":"You have completed the first part of this experiment.<br><br>You will now begin a shorter second part, in which you will receive no feedback.<br>The same rules regarding bonus pay apply.<br><br>Press any key to begin.","response":"arrowdown","trial_type":"html-keyboard-response","trial_index":135,"time_elapsed":586917,"internal_node_id":"0.0-5.0","subject_id":"5f96d655567cc405047c9346","study_id":"6197b3f67c2b5cd3b6d9596a","session_id":"6197b88f1e673fb8b0520f0d","condition":"full-information","relevant_dimensions":["antennae","legs"],"bee_group":{"antennae":"A","wings":"X","pattern":"X","legs":"F"},"bonus":1.7000000000000013},{"rt":7289.200000047684,"stimulus":"bees-with-color/bee-A1DM.svg","response":1,"trial_type":"image-button-response","trial_index":136,"time_elapsed":594227,"internal_node_id":"0.0-6.0-0.0","subject_id":"5f96d655567cc405047c9346","study_id":"6197b3f67c2b5cd3b6d9596a","session_id":"6197b88f1e673fb8b0520f0d","condition":"full-information","relevant_dimensions":["antennae","legs"],"bee_group":{"antennae":"A","wings":"X","pattern":"X","legs":"F"},"bonus":1.7000000000000013},{"rt":10733.799999952316,"stimulus":"bees-with-color/bee-A2DM.svg","response":0,"trial_type":"image-button-response","trial_index":137,"time_elapsed":604963,"internal_node_id":"0.0-6.0-0.1","subject_id":"5f96d655567cc405047c9346","study_id":"6197b3f67c2b5cd3b6d9596a","session_id":"6197b88f1e673fb8b0520f0d","condition":"full-information","relevant_dimensions":["antennae","legs"],"bee_group":{"antennae":"A","wings":"X","pattern":"X","legs":"F"},"bonus":1.7000000000000013},{"rt":1002.7000000476837,"stimulus":"bees-with-color/bee-B1SF.svg","response":0,"trial_type":"image-button-response","trial_index":138,"time_elapsed":605968,"internal_node_id":"0.0-6.0-0.2","subject_id":"5f96d655567cc405047c9346","study_id":"6197b3f67c2b5cd3b6d9596a","session_id":"6197b88f1e673fb8b0520f0d","condition":"full-information","relevant_dimensions":["antennae","legs"],"bee_group":{"antennae":"A","wings":"X","pattern":"X","legs":"F"},"bonus":1.7000000000000013},{"rt":1472.1000000238419,"stimulus":"bees-with-color/bee-A2DF.svg","response":1,"trial_type":"image-button-response","trial_index":139,"time_elapsed":607442,"internal_node_id":"0.0-6.0-0.3","subject_id":"5f96d655567cc405047c9346","study_id":"6197b3f67c2b5cd3b6d9596a","session_id":"6197b88f1e673fb8b0520f0d","condition":"full-information","relevant_dimensions":["antennae","legs"],"bee_group":{"antennae":"A","wings":"X","pattern":"X","legs":"F"},"bonus":1.7000000000000013},{"rt":2756.7999999523163,"stimulus":"bees-with-color/bee-A1DF.svg","response":1,"trial_type":"image-button-response","trial_index":140,"time_elapsed":610200,"internal_node_id":"0.0-6.0-0.4","subject_id":"5f96d655567cc405047c9346","study_id":"6197b3f67c2b5cd3b6d9596a","session_id":"6197b88f1e673fb8b0520f0d","condition":"full-information","relevant_dimensions":["antennae","legs"],"bee_group":{"antennae":"A","wings":"X","pattern":"X","legs":"F"},"bonus":1.7000000000000013},{"rt":2757.1999999284744,"stimulus":"bees-with-color/bee-B2DM.svg","response":0,"trial_type":"image-button-response","trial_index":141,"time_elapsed":612960,"internal_node_id":"0.0-6.0-0.5","subject_id":"5f96d655567cc405047c9346","study_id":"6197b3f67c2b5cd3b6d9596a","session_id":"6197b88f1e673fb8b0520f0d","condition":"full-information","relevant_dimensions":["antennae","legs"],"bee_group":{"antennae":"A","wings":"X","pattern":"X","legs":"F"},"bonus":1.7000000000000013},{"rt":1895.3999999761581,"stimulus":"bees-with-color/bee-B2DF.svg","response":0,"trial_type":"image-button-response","trial_index":142,"time_elapsed":614857,"internal_node_id":"0.0-6.0-0.6","subject_id":"5f96d655567cc405047c9346","study_id":"6197b3f67c2b5cd3b6d9596a","session_id":"6197b88f1e673fb8b0520f0d","condition":"full-information","relevant_dimensions":["antennae","legs"],"bee_group":{"antennae":"A","wings":"X","pattern":"X","legs":"F"},"bonus":1.7000000000000013},{"rt":901.1000000238419,"stimulus":"bees-with-color/bee-B1SM.svg","response":0,"trial_type":"image-button-response","trial_index":143,"time_elapsed":615760,"internal_node_id":"0.0-6.0-0.7","subject_id":"5f96d655567cc405047c9346","study_id":"6197b3f67c2b5cd3b6d9596a","session_id":"6197b88f1e673fb8b0520f0d","condition":"full-information","relevant_dimensions":["antennae","legs"],"bee_group":{"antennae":"A","wings":"X","pattern":"X","legs":"F"},"bonus":1.7000000000000013},{"rt":909.5999999046326,"stimulus":"bees-with-color/bee-A2SF.svg","response":1,"trial_type":"image-button-response","trial_index":144,"time_elapsed":616671,"internal_node_id":"0.0-6.0-0.8","subject_id":"5f96d655567cc405047c9346","study_id":"6197b3f67c2b5cd3b6d9596a","session_id":"6197b88f1e673fb8b0520f0d","condition":"full-information","relevant_dimensions":["antennae","legs"],"bee_group":{"antennae":"A","wings":"X","pattern":"X","legs":"F"},"bonus":1.7000000000000013},{"rt":1132.2000000476837,"stimulus":"bees-with-color/bee-B1DM.svg","response":0,"trial_type":"image-button-response","trial_index":145,"time_elapsed":617805,"internal_node_id":"0.0-6.0-0.9","subject_id":"5f96d655567cc405047c9346","study_id":"6197b3f67c2b5cd3b6d9596a","session_id":"6197b88f1e673fb8b0520f0d","condition":"full-information","relevant_dimensions":["antennae","legs"],"bee_group":{"antennae":"A","wings":"X","pattern":"X","legs":"F"},"bonus":1.7000000000000013},{"rt":2085.2999999523163,"stimulus":"bees-with-color/bee-B1DF.svg","response":0,"trial_type":"image-button-response","trial_index":146,"time_elapsed":619892,"internal_node_id":"0.0-6.0-0.10","subject_id":"5f96d655567cc405047c9346","study_id":"6197b3f67c2b5cd3b6d9596a","session_id":"6197b88f1e673fb8b0520f0d","condition":"full-information","relevant_dimensions":["antennae","legs"],"bee_group":{"antennae":"A","wings":"X","pattern":"X","legs":"F"},"bonus":1.7000000000000013},{"rt":746.7000000476837,"stimulus":"bees-with-color/bee-A2SM.svg","response":0,"trial_type":"image-button-response","trial_index":147,"time_elapsed":620640,"internal_node_id":"0.0-6.0-0.11","subject_id":"5f96d655567cc405047c9346","study_id":"6197b3f67c2b5cd3b6d9596a","session_id":"6197b88f1e673fb8b0520f0d","condition":"full-information","relevant_dimensions":["antennae","legs"],"bee_group":{"antennae":"A","wings":"X","pattern":"X","legs":"F"},"bonus":1.7000000000000013},{"rt":727.3000000715256,"stimulus":"bees-with-color/bee-A1SM.svg","response":0,"trial_type":"image-button-response","trial_index":148,"time_elapsed":621369,"internal_node_id":"0.0-6.0-0.12","subject_id":"5f96d655567cc405047c9346","study_id":"6197b3f67c2b5cd3b6d9596a","session_id":"6197b88f1e673fb8b0520f0d","condition":"full-information","relevant_dimensions":["antennae","legs"],"bee_group":{"antennae":"A","wings":"X","pattern":"X","legs":"F"},"bonus":1.7000000000000013},{"rt":906.2000000476837,"stimulus":"bees-with-color/bee-A1SF.svg","response":1,"trial_type":"image-button-response","trial_index":149,"time_elapsed":622277,"internal_node_id":"0.0-6.0-0.13","subject_id":"5f96d655567cc405047c9346","study_id":"6197b3f67c2b5cd3b6d9596a","session_id":"6197b88f1e673fb8b0520f0d","condition":"full-information","relevant_dimensions":["antennae","legs"],"bee_group":{"antennae":"A","wings":"X","pattern":"X","legs":"F"},"bonus":1.7000000000000013},{"rt":869.1000000238419,"stimulus":"bees-with-color/bee-B2SF.svg","response":0,"trial_type":"image-button-response","trial_index":150,"time_elapsed":623148,"internal_node_id":"0.0-6.0-0.14","subject_id":"5f96d655567cc405047c9346","study_id":"6197b3f67c2b5cd3b6d9596a","session_id":"6197b88f1e673fb8b0520f0d","condition":"full-information","relevant_dimensions":["antennae","legs"],"bee_group":{"antennae":"A","wings":"X","pattern":"X","legs":"F"},"bonus":1.7000000000000013},{"rt":747.6000000238419,"stimulus":"bees-with-color/bee-B2SM.svg","response":0,"trial_type":"image-button-response","trial_index":151,"time_elapsed":623897,"internal_node_id":"0.0-6.0-0.15","subject_id":"5f96d655567cc405047c9346","study_id":"6197b3f67c2b5cd3b6d9596a","session_id":"6197b88f1e673fb8b0520f0d","condition":"full-information","relevant_dimensions":["antennae","legs"],"bee_group":{"antennae":"A","wings":"X","pattern":"X","legs":"F"},"bonus":1.7000000000000013},{"rt":985.8999999761581,"stimulus":"bees-with-color/bee-A2SM.svg","response":0,"trial_type":"image-button-response","trial_index":152,"time_elapsed":624885,"internal_node_id":"0.0-6.0-0.16","subject_id":"5f96d655567cc405047c9346","study_id":"6197b3f67c2b5cd3b6d9596a","session_id":"6197b88f1e673fb8b0520f0d","condition":"full-information","relevant_dimensions":["antennae","legs"],"bee_group":{"antennae":"A","wings":"X","pattern":"X","legs":"F"},"bonus":1.7000000000000013},{"rt":710.7000000476837,"stimulus":"bees-with-color/bee-A1SM.svg","response":0,"trial_type":"image-button-response","trial_index":153,"time_elapsed":625597,"internal_node_id":"0.0-6.0-0.17","subject_id":"5f96d655567cc405047c9346","study_id":"6197b3f67c2b5cd3b6d9596a","session_id":"6197b88f1e673fb8b0520f0d","condition":"full-information","relevant_dimensions":["antennae","legs"],"bee_group":{"antennae":"A","wings":"X","pattern":"X","legs":"F"},"bonus":1.7000000000000013},{"rt":929.8999999761581,"stimulus":"bees-with-color/bee-B2SF.svg","response":0,"trial_type":"image-button-response","trial_index":154,"time_elapsed":626528,"internal_node_id":"0.0-6.0-0.18","subject_id":"5f96d655567cc405047c9346","study_id":"6197b3f67c2b5cd3b6d9596a","session_id":"6197b88f1e673fb8b0520f0d","condition":"full-information","relevant_dimensions":["antennae","legs"],"bee_group":{"antennae":"A","wings":"X","pattern":"X","legs":"F"},"bonus":1.7000000000000013},{"rt":1119.6000000238419,"stimulus":"bees-with-color/bee-A2SF.svg","response":1,"trial_type":"image-button-response","trial_index":155,"time_elapsed":627650,"internal_node_id":"0.0-6.0-0.19","subject_id":"5f96d655567cc405047c9346","study_id":"6197b3f67c2b5cd3b6d9596a","session_id":"6197b88f1e673fb8b0520f0d","condition":"full-information","relevant_dimensions":["antennae","legs"],"bee_group":{"antennae":"A","wings":"X","pattern":"X","legs":"F"},"bonus":1.7000000000000013},{"rt":813.7000000476837,"stimulus":"bees-with-color/bee-A1SF.svg"