[{"success":true,"trial_type":"fullscreen","trial_index":0,"time_elapsed":5082,"internal_node_id":"0.0-0.0","subject_id":"6101897e75ef2469f3584a13","study_id":"6197b3f67c2b5cd3b6d9596a","session_id":"6197b9ee38bfc1bd00b4788c","condition":"contingent","relevant_dimensions":["antennae","pattern"],"bee_group":{"antennae":"B","wings":"X","pattern":"D","legs":"X"},"bonus":1.3600000000000008},{"success":true,"timeout":false,"failed_images":[],"failed_audio":[],"failed_video":[],"trial_type":"preload","trial_index":1,"time_elapsed":6938,"internal_node_id":"0.0-1.0","subject_id":"6101897e75ef2469f3584a13","study_id":"6197b3f67c2b5cd3b6d9596a","session_id":"6197b9ee38bfc1bd00b4788c","condition":"contingent","relevant_dimensions":["antennae","pattern"],"bee_group":{"antennae":"B","wings":"X","pattern":"D","legs":"X"},"bonus":1.3600000000000008},{"rt":82356.29999999999,"stimulus":"Welcome! Press any key to begin.","response":"h","trial_type":"html-keyboard-response","trial_index":2,"time_elapsed":89300,"internal_node_id":"0.0-2.0","subject_id":"6101897e75ef2469f3584a13","study_id":"6197b3f67c2b5cd3b6d9596a","session_id":"6197b9ee38bfc1bd00b4788c","condition":"contingent","relevant_dimensions":["antennae","pattern"],"bee_group":{"antennae":"B","wings":"X","pattern":"D","legs":"X"},"bonus":1.3600000000000008},{"view_history":[{"page_index":0,"viewing_time":50987.59999999998},{"page_index":1,"viewing_time":18975.600000000035},{"page_index":2,"viewing_time":17040},{"page_index":3,"viewing_time":19439.899999999965},{"page_index":4,"viewing_time":8448.299999999988},{"page_index":5,"viewing_time":15043.700000000012},{"page_index":6,"viewing_time":7748.200000000012},{"page_index":7,"viewing_time":6067.900000000023},{"page_index":8,"viewing_time":2836.0999999999767},{"page_index":9,"viewing_time":2216.0999999999767},{"page_index":10,"viewing_time":2648},{"page_index":11,"viewing_time":8919.900000000023},{"page_index":12,"viewing_time":6955.999999999971},{"page_index":13,"viewing_time":931.9000000000233},{"page_index":14,"viewing_time":2520.0999999999767}],"rt":170780.1,"trial_type":"instructions","trial_index":3,"time_elapsed":260082,"internal_node_id":"0.0-3.0-0.0","subject_id":"6101897e75ef2469f3584a13","study_id":"6197b3f67c2b5cd3b6d9596a","session_id":"6197b9ee38bfc1bd00b4788c","condition":"contingent","relevant_dimensions":["antennae","pattern"],"bee_group":{"antennae":"B","wings":"X","pattern":"D","legs":"X"},"bonus":1.3600000000000008},{"rt":13881,"response":{"Q0":["Two or six legs","Stripes or spots on body","Single or double wings","Antennae or no antennae"]},"question_order":[0],"trial_type":"survey-multi-select","trial_index":4,"time_elapsed":273979,"internal_node_id":"0.0-3.0-1.0","subject_id":"6101897e75ef2469f3584a13","study_id":"6197b3f67c2b5cd3b6d9596a","session_id":"6197b9ee38bfc1bd00b4788c","condition":"contingent","relevant_dimensions":["antennae","pattern"],"bee_group":{"antennae":"B","wings":"X","pattern":"D","legs":"X"},"correct":true,"bonus":1.3600000000000008},{"rt":19378.399999999907,"response":{"Q1":"No.","Q2":"Based on the four features of the bee.","Q3":"You do not learn if it was friendly or dangerous, and do not alter your bonus."},"question_order":[0,1,2],"trial_type":"survey-multi-choice","trial_index":5,"time_elapsed":293362,"internal_node_id":"0.0-3.0-2.0","subject_id":"6101897e75ef2469f3584a13","study_id":"6197b3f67c2b5cd3b6d9596a","session_id":"6197b9ee38bfc1bd00b4788c","condition":"contingent","relevant_dimensions":["antennae","pattern"],"bee_group":{"antennae":"B","wings":"X","pattern":"D","legs":"X"},"correct":true,"bonus":1.3600000000000008},{"rt":3356.0999999999767,"stimulus":"<p>Congrats, you got everything right<br>When you're ready, click the button below to continue to the experiment.</p>","response":0,"trial_type":"html-button-response","trial_index":6,"time_elapsed":296722,"internal_node_id":"0.0-3.0-3.0","subject_id":"6101897e75ef2469f3584a13","study_id":"6197b3f67c2b5cd3b6d9596a","session_id":"6197b9ee38bfc1bd00b4788c","condition":"contingent","relevant_dimensions":["antennae","pattern"],"bee_group":{"antennae":"B","wings":"X","pattern":"D","legs":"X"},"bonus":1.3600000000000008},{"rt":1777.5,"stimulus":"bees-with-color/bee-B1SM.svg","response":0,"trial_type":"image-button-response","trial_index":7,"time_elapsed":298506,"internal_node_id":"0.0-4.0-0.0","subject_id":"6101897e75ef2469f3584a13","study_id":"6197b3f67c2b5cd3b6d9596a","session_id":"6197b9ee38bfc1bd00b4788c","condition":"contingent","relevant_dimensions":["antennae","pattern"],"bee_group":{"antennae":"B","wings":"X","pattern":"D","legs":"X"},"action":"harvest","summary":"good-harvest","bonus":1.3600000000000008},{"rt":9218.400000000023,"stimulus":"\n                    <p><b>Action: <em>harvest</em></b></p>\n                    <p>This is the bee that you just saw.</p>\n                    <img src=\"bees-with-color/bee-B1SM.svg\" width=\"200\">\n                    <p><span class=\"greenText\"><b>Successful harvest!</b></span><br>Your pay has increased by $0.02. Your bonus pay is now $0.56.</p>\n            ","response":0,"trial_type":"html-button-response","trial_index":8,"time_elapsed":307729,"internal_node_id":"0.0-4.0-1.0","subject_id":"6101897e75ef2469f3584a13","study_id":"6197b3f67c2b5cd3b6d9596a","session_id":"6197b9ee38bfc1bd00b4788c","condition":"contingent","relevant_dimensions":["antennae","pattern"],"bee_group":{"antennae":"B","wings":"X","pattern":"D","legs":"X"},"bonus":1.3600000000000008},{"rt":3849.8000000000466,"stimulus":"bees-with-color/bee-A1SM.svg","response":1,"trial_type":"image-button-response","trial_index":9,"time_elapsed":311586,"internal_node_id":"0.0-4.0-0.1","subject_id":"6101897e75ef2469f3584a13","study_id":"6197b3f67c2b5cd3b6d9596a","session_id":"6197b9ee38bfc1bd00b4788c","condition":"contingent","relevant_dimensions":["antennae","pattern"],"bee_group":{"antennae":"B","wings":"X","pattern":"D","legs":"X"},"action":"avoid","summary":"bad-avoid","bonus":1.3600000000000008},{"rt":2963.8000000000466,"stimulus":"\n                    <p><b>Action: <em>avoid</em></b></p>\n                    <p>This is the bee that you just saw.</p>\n                    <img src=\"bees-with-color/bee-A1SM.svg\" width=\"200\">\n                    <p><br>Your bonus pay is unchanged, and remains at $0.56.</p>\n            ","response":0,"trial_type":"html-button-response","trial_index":10,"time_elapsed":314553,"internal_node_id":"0.0-4.0-1.1","subject_id":"6101897e75ef2469f3584a13","study_id":"6197b3f67c2b5cd3b6d9596a","session_id":"6197b9ee38bfc1bd00b4788c","condition":"contingent","relevant_dimensions":["antennae","pattern"],"bee_group":{"antennae":"B","wings":"X","pattern":"D","legs":"X"},"bonus":1.3600000000000008},{"rt":5407.900000000023,"stimulus":"bees-with-color/bee-B1DF.svg","response":1,"trial_type":"image-button-response","trial_index":11,"time_elapsed":319966,"internal_node_id":"0.0-4.0-0.2","subject_id":"6101897e75ef2469f3584a13","study_id":"6197b3f67c2b5cd3b6d9596a","session_id":"6197b9ee38bfc1bd00b4788c","condition":"contingent","relevant_dimensions":["antennae","pattern"],"bee_group":{"antennae":"B","wings":"X","pattern":"D","legs":"X"},"action":"avoid","summary":"good-avoid","bonus":1.3600000000000008},{"rt":960.2999999999302,"stimulus":"\n                    <p><b>Action: <em>avoid</em></b></p>\n                    <p>This is the bee that you just saw.</p>\n                    <img src=\"bees-with-color/bee-B1DF.svg\" width=\"200\">\n                    <p><br>Your bonus pay is unchanged, and remains at $0.56.</p>\n            ","response":0,"trial_type":"html-button-response","trial_index":12,"time_elapsed":320929,"internal_node_id":"0.0-4.0-1.2","subject_id":"6101897e75ef2469f3584a13","study_id":"6197b3f67c2b5cd3b6d9596a","session_id":"6197b9ee38bfc1bd00b4788c","condition":"contingent","relevant_dimensions":["antennae","pattern"],"bee_group":{"antennae":"B","wings":"X","pattern":"D","legs":"X"},"bonus":1.3600000000000008},{"rt":1187.9000000000233,"stimulus":"bees-with-color/bee-B2SM.svg","response":0,"trial_type":"image-button-response","trial_index":13,"time_elapsed":322121,"internal_node_id":"0.0-4.0-0.3","subject_id":"6101897e75ef2469f3584a13","study_id":"6197b3f67c2b5cd3b6d9596a","session_id":"6197b9ee38bfc1bd00b4788c","condition":"contingent","relevant_dimensions":["antennae","pattern"],"bee_group":{"antennae":"B","wings":"X","pattern":"D","legs":"X"},"action":"harvest","summary":"good-harvest","bonus":1.3600000000000008},{"rt":6408.20000000007,"stimulus":"\n                    <p><b>Action: <em>harvest</em></b></p>\n                    <p>This is the bee that you just saw.</p>\n                    <img src=\"bees-with-color/bee-B2SM.svg\" width=\"200\">\n                    <p><span class=\"greenText\"><b>Successful harvest!</b></span><br>Your pay has increased by $0.02. Your bonus pay is now $0.58.</p>\n            ","response":0,"trial_type":"html-button-response","trial_index":14,"time_elapsed":328533,"internal_node_id":"0.0-4.0-1.3","subject_id":"6101897e75ef2469f3584a13","study_id":"6197b3f67c2b5cd3b6d9596a","session_id":"6197b9ee38bfc1bd00b4788c","condition":"contingent","relevant_dimensions":["antennae","pattern"],"bee_group":{"antennae":"B","wings":"X","pattern":"D","legs":"X"},"bonus":1.3600000000000008},{"rt":1983.2000000000698,"stimulus":"bees-with-color/bee-A2DF.svg","response":1,"trial_type":"image-button-response","trial_index":15,"time_elapsed":330521,"internal_node_id":"0.0-4.0-0.4","subject_id":"6101897e75ef2469f3584a13","study_id":"6197b3f67c2b5cd3b6d9596a","session_id":"6197b9ee38bfc1bd00b4788c","condition":"contingent","relevant_dimensions":["antennae","pattern"],"bee_group":{"antennae":"B","wings":"X","pattern":"D","legs":"X"},"action":"avoid","summary":"bad-avoid","bonus":1.3600000000000008},{"rt":1084,"stimulus":"\n                    <p><b>Action: <em>avoid</em></b></p>\n                    <p>This is the bee that you just saw.</p>\n                    <img src=\"bees-with-color/bee-A2DF.svg\" width=\"200\">\n                    <p><br>Your bonus pay is unchanged, and remains at $0.58.</p>\n            ","response":0,"trial_type":"html-button-response","trial_index":16,"time_elapsed":331610,"internal_node_id":"0.0-4.0-1.4","subject_id":"6101897e75ef2469f3584a13","study_id":"6197b3f67c2b5cd3b6d9596a","session_id":"6197b9ee38bfc1bd00b4788c","condition":"contingent","relevant_dimensions":["antennae","pattern"],"bee_group":{"antennae":"B","wings":"X","pattern":"D","legs":"X"},"bonus":1.3600000000000008},{"rt":1348.8000000000466,"stimulus":"bees-with-color/bee-A2SM.svg","response":0,"trial_type":"image-button-response","trial_index":17,"time_elapsed":332962,"internal_node_id":"0.0-4.0-0.5","subject_id":"6101897e75ef2469f3584a13","study_id":"6197b3f67c2b5cd3b6d9596a","session_id":"6197b9ee38bfc1bd00b4788c","condition":"contingent","relevant_dimensions":["antennae","pattern"],"bee_group":{"antennae":"B","wings":"X","pattern":"D","legs":"X"},"action":"harvest","summary":"good-harvest","bonus":1.3600000000000008},{"rt":999.7999999999302,"stimulus":"\n                    <p><b>Action: <em>harvest</em></b></p>\n                    <p>This is the bee that you just saw.</p>\n                    <img src=\"bees-with-color/bee-A2SM.svg\" width=\"200\">\n                    <p><span class=\"greenText\"><b>Successful harvest!</b></span><br>Your pay has increased by $0.02. Your bonus pay is now $0.60.</p>\n            ","response":0,"trial_type":"html-button-response","trial_index":18,"time_elapsed":333965,"internal_node_id":"0.0-4.0-1.5","subject_id":"6101897e75ef2469f3584a13","study_id":"6197b3f67c2b5cd3b6d9596a","session_id":"6197b9ee38bfc1bd00b4788c","condition":"contingent","relevant_dimensions":["antennae","pattern"],"bee_group":{"antennae":"B","wings":"X","pattern":"D","legs":"X"},"bonus":1.3600000000000008},{"rt":2665.0999999999767,"stimulus":"bees-with-color/bee-A1DM.svg","response":1,"trial_type":"image-button-response","trial_index":19,"time_elapsed":336634,"internal_node_id":"0.0-4.0-0.6","subject_id":"6101897e75ef2469f3584a13","study_id":"6197b3f67c2b5cd3b6d9596a","session_id":"6197b9ee38bfc1bd00b4788c","condition":"contingent","relevant_dimensions":["antennae","pattern"],"bee_group":{"antennae":"B","wings":"X","pattern":"D","legs":"X"},"action":"avoid","summary":"bad-avoid","bonus":1.3600000000000008},{"rt":867.8000000000466,"stimulus":"\n                    <p><b>Action: <em>avoid</em></b></p>\n                    <p>This is the bee that you just saw.</p>\n                    <img src=\"bees-with-color/bee-A1DM.svg\" width=\"200\">\n                    <p><br>Your bonus pay is unchanged, and remains at $0.60.</p>\n            ","response":0,"trial_type":"html-button-response","trial_index":20,"time_elapsed":337505,"internal_node_id":"0.0-4.0-1.6","subject_id":"6101897e75ef2469f3584a13","study_id":"6197b3f67c2b5cd3b6d9596a","session_id":"6197b9ee38bfc1bd00b4788c","condition":"contingent","relevant_dimensions":["antennae","pattern"],"bee_group":{"antennae":"B","wings":"X","pattern":"D","legs":"X"},"bonus":1.3600000000000008},{"rt":2119.5999999999767,"stimulus":"bees-with-color/bee-B1DM.svg","response":0,"trial_type":"image-button-response","trial_index":21,"time_elapsed":339630,"internal_node_id":"0.0-4.0-0.7","subject_id":"6101897e75ef2469f3584a13","study_id":"6197b3f67c2b5cd3b6d9596a","session_id":"6197b9ee38bfc1bd00b4788c","condition":"contingent","relevant_dimensions":["antennae","pattern"],"bee_group":{"antennae":"B","wings":"X","pattern":"D","legs":"X"},"action":"harvest","summary":"bad-harvest","bonus":1.3600000000000008},{"rt":3407.8000000000466,"stimulus":"\n                    <p><b>Action: <em>harvest</em></b></p>\n                    <p>This is the bee that you just saw.</p>\n                    <img src=\"bees-with-color/bee-B1DM.svg\" width=\"200\">\n                    <p><span class=\"redText\">Bad choice, the bee was angry.</span><br><b>You have been stung!</b><br>Your pay has been decreased by $0.10. Your bonus pay is now $0.50.</p>\n            ","response":0,"trial_type":"html-button-response","trial_index":22,"time_elapsed":343041,"internal_node_id":"0.0-4.0-1.7","subject_id":"6101897e75ef2469f3584a13","study_id":"6197b3f67c2b5cd3b6d9596a","session_id":"6197b9ee38bfc1bd00b4788c","condition":"contingent","relevant_dimensions":["antennae","pattern"],"bee_group":{"antennae":"B","wings":"X","pattern":"D","legs":"X"},"bonus":1.3600000000000008},{"rt":1487.4000000000233,"stimulus":"bees-with-color/bee-B2DM.svg","response":1,"trial_type":"image-button-response","trial_index":23,"time_elapsed":344534,"internal_node_id":"0.0-4.0-0.8","subject_id":"6101897e75ef2469f3584a13","study_id":"6197b3f67c2b5cd3b6d9596a","session_id":"6197b9ee38bfc1bd00b4788c","condition":"contingent","relevant_dimensions":["antennae","pattern"],"bee_group":{"antennae":"B","wings":"X","pattern":"D","legs":"X"},"action":"avoid","summary":"good-avoid","bonus":1.3600000000000008},{"rt":1023.5,"stimulus":"\n                    <p><b>Action: <em>avoid</em></b></p>\n                    <p>This is the bee that you just saw.</p>\n                    <img src=\"bees-with-color/bee-B2DM.svg\" width=\"200\">\n                    <p><br>Your bonus pay is unchanged, and remains at $0.50.</p>\n            ","response":0,"trial_type":"html-button-response","trial_index":24,"time_elapsed":345561,"internal_node_id":"0.0-4.0-1.8","subject_id":"6101897e75ef2469f3584a13","study_id":"6197b3f67c2b5cd3b6d9596a","session_id":"6197b9ee38bfc1bd00b4788c","condition":"contingent","relevant_dimensions":["antennae","pattern"],"bee_group":{"antennae":"B","wings":"X","pattern":"D","legs":"X"},"bonus":1.3600000000000008},{"rt":1525.5,"stimulus":"bees-with-color/bee-B2SF.svg","response":0,"trial_type":"image-button-response","trial_index":25,"time_elapsed":347089,"internal_node_id":"0.0-4.0-0.9","subject_id":"6101897e75ef2469f3584a13","study_id":"6197b3f67c2b5cd3b6d9596a","session_id":"6197b9ee38bfc1bd00b4788c","condition":"contingent","relevant_dimensions":["antennae","pattern"],"bee_group":{"antennae":"B","wings":"X","pattern":"D","legs":"X"},"action":"harvest","summary":"good-harvest","bonus":1.3600000000000008},{"rt":949.1999999999534,"stimulus":"\n                    <p><b>Action: <em>harvest</em></b></p>\n                    <p>This is the bee that you just saw.</p>\n                    <img src=\"bees-with-color/bee-B2SF.svg\" width=\"200\">\n                    <p><span class=\"greenText\"><b>Successful harvest!</b></span><br>Your pay has increased by $0.02. Your bonus pay is now $0.52.</p>\n            ","response":0,"trial_type":"html-button-response","trial_index":26,"time_elapsed":348041,"internal_node_id":"0.0-4.0-1.9","subject_id":"6101897e75ef2469f3584a13","study_id":"6197b3f67c2b5cd3b6d9596a","session_id":"6197b9ee38bfc1bd00b4788c","condition":"contingent","relevant_dimensions":["antennae","pattern"],"bee_group":{"antennae":"B","wings":"X","pattern":"D","legs":"X"},"bonus":1.3600000000000008},{"rt":973.5999999999767,"stimulus":"bees-with-color/bee-B1SF.svg","response":0,"trial_type":"image-button-response","trial_index":27,"time_elapsed":349017,"internal_node_id":"0.0-4.0-0.10","subject_id":"6101897e75ef2469f3584a13","study_id":"6197b3f67c2b5cd3b6d9596a","session_id":"6197b9ee38bfc1bd00b4788c","condition":"contingent","relevant_dimensions":["antennae","pattern"],"bee_group":{"antennae":"B","wings":"X","pattern":"D","legs":"X"},"action":"harvest","summary":"good-harvest","bonus":1.3600000000000008},{"rt":836.8000000000466,"stimulus":"\n                    <p><b>Action: <em>harvest</em></b></p>\n                    <p>This is the bee that you just saw.</p>\n                    <img src=\"bees-with-color/bee-B1SF.svg\" width=\"200\">\n                    <p><span class=\"greenText\"><b>Successful harvest!</b></span><br>Your pay has increased by $0.02. Your bonus pay is now $0.54.</p>\n            ","response":0,"trial_type":"html-button-response","trial_index":28,"time_elapsed":349857,"internal_node_id":"0.0-4.0-1.10","subject_id":"6101897e75ef2469f3584a13","study_id":"6197b3f67c2b5cd3b6d9596a","session_id":"6197b9ee38bfc1bd00b4788c","condition":"contingent","relevant_dimensions":["antennae","pattern"],"bee_group":{"antennae":"B","wings":"X","pattern":"D","legs":"X"},"bonus":1.3600000000000008},{"rt":1013.5,"stimulus":"bees-with-color/bee-B2DF.svg","response":1,"trial_type":"image-button-response","trial_index":29,"time_elapsed":350873,"internal_node_id":"0.0-4.0-0.11","subject_id":"6101897e75ef2469f3584a13","study_id":"6197b3f67c2b5cd3b6d9596a","session_id":"6197b9ee38bfc1bd00b4788c","condition":"contingent","relevant_dimensions":["antennae","pattern"],"bee_group":{"antennae":"B","wings":"X","pattern":"D","legs":"X"},"action":"avoid","summary":"good-avoid","bonus":1.3600000000000008},{"rt":661,"stimulus":"\n                    <p><b>Action: <em>avoid</em></b></p>\n                    <p>This is the bee that you just saw.</p>\n                    <img src=\"bees-with-color/bee-B2DF.svg\" width=\"200\">\n                    <p><br>Your bonus pay is unchanged, and remains at $0.54.</p>\n            ","response":0,"trial_type":"html-button-response","trial_index":30,"time_elapsed":351537,"internal_node_id":"0.0-4.0-1.11","subject_id":"6101897e75ef2469f3584a13","study_id":"6197b3f67c2b5cd3b6d9596a","session_id":"6197b9ee38bfc1bd00b4788c","condition":"contingent","relevant_dimensions":["antennae","pattern"],"bee_group":{"antennae":"B","wings":"X","pattern":"D","legs":"X"},"bonus":1.3600000000000008},{"rt":981.9000000000233,"stimulus":"bees-with-color/bee-A1SF.svg","response":0,"trial_type":"image-button-response","trial_index":31,"time_elapsed":352521,"internal_node_id":"0.0-4.0-0.12","subject_id":"6101897e75ef2469f3584a13","study_id":"6197b3f67c2b5cd3b6d9596a","session_id":"6197b9ee38bfc1bd00b4788c","condition":"contingent","relevant_dimensions":["antennae","pattern"],"bee_group":{"antennae":"B","wings":"X","pattern":"D","legs":"X"},"action":"harvest","summary":"good-harvest","bonus":1.3600000000000008},{"rt":661.2000000000698,"stimulus":"\n                    <p><b>Action: <em>harvest</em></b></p>\n                    <p>This is the bee that you just saw.</p>\n                    <img src=\"bees-with-color/bee-A1SF.svg\" width=\"200\">\n                    <p><span class=\"greenText\"><b>Successful harvest!</b></span><br>Your pay has increased by $0.02. Your bonus pay is now $0.56.</p>\n            ","response":0,"trial_type":"html-button-response","trial_index":32,"time_elapsed":353185,"internal_node_id":"0.0-4.0-1.12","subject_id":"6101897e75ef2469f3584a13","study_id":"6197b3f67c2b5cd3b6d9596a","session_id":"6197b9ee38bfc1bd00b4788c","condition":"contingent","relevant_dimensions":["antennae","pattern"],"bee_group":{"antennae":"B","wings":"X","pattern":"D","legs":"X"},"bonus":1.3600000000000008},{"rt":1193.5999999999767,"stimulus":"bees-with-color/bee-A2SF.svg","response":0,"trial_type":"image-button-response","trial_index":33,"time_elapsed":354381,"internal_node_id":"0.0-4.0-0.13","subject_id":"6101897e75ef2469f3584a13","study_id":"6197b3f67c2b5cd3b6d9596a","session_id":"6197b9ee38bfc1bd00b4788c","condition":"contingent","relevant_dimensions":["antennae","pattern"],"bee_group":{"antennae":"B","wings":"X","pattern":"D","legs":"X"},"action":"harvest","summary":"good-harvest","bonus":1.3600000000000008},{"rt":809,"stimulus":"\n                    <p><b>Action: <em>harvest</em></b></p>\n                    <p>This is the bee that you just saw.</p>\n                    <img src=\"bees-with-color/bee-A2SF.svg\" width=\"200\">\n                    <p><span class=\"greenText\"><b>Successful harvest!</b></span><br>Your pay has increased by $0.02. Your bonus pay is now $0.58.</p>\n            ","response":0,"trial_type":"html-button-response","trial_index":34,"time_elapsed":355193,"internal_node_id":"0.0-4.0-1.13","subject_id":"6101897e75ef2469f3584a13","study_id":"6197b3f67c2b5cd3b6d9596a","session_id":"6197b9ee38bfc1bd00b4788c","condition":"contingent","relevant_dimensions":["antennae","pattern"],"bee_group":{"antennae":"B","wings":"X","pattern":"D","legs":"X"},"bonus":1.3600000000000008},{"rt":1181.3000000000466,"stimulus":"bees-with-color/bee-A2DM.svg","response":1,"trial_type":"image-button-response","trial_index":35,"time_elapsed":356377,"internal_node_id":"0.0-4.0-0.14","subject_id":"6101897e75ef2469f3584a13","study_id":"6197b3f67c2b5cd3b6d9596a","session_id":"6197b9ee38bfc1bd00b4788c","condition":"contingent","relevant_dimensions":["antennae","pattern"],"bee_group":{"antennae":"B","wings":"X","pattern":"D","legs":"X"},"action":"avoid","summary":"bad-avoid","bonus":1.3600000000000008},{"rt":557.3000000000466,"stimulus":"\n                    <p><b>Action: <em>avoid</em></b></p>\n                    <p>This is the bee that you just saw.</p>\n                    <img src=\"bees-with-color/bee-A2DM.svg\" width=\"200\">\n                    <p><br>Your bonus pay is unchanged, and remains at $0.58.</p>\n            ","response":0,"trial_type":"html-button-response","trial_index":36,"time_elapsed":356937,"internal_node_id":"0.0-4.0-1.14","subject_id":"6101897e75ef2469f3584a13","study_id":"6197b3f67c2b5cd3b6d9596a","session_id":"6197b9ee38bfc1bd00b4788c","condition":"contingent","relevant_dimensions":["antennae","pattern"],"bee_group":{"antennae":"B","wings":"X","pattern":"D","legs":"X"},"bonus":1.3600000000000008},{"rt":789.9000000000233,"stimulus":"bees-with-color/bee-A1DF.svg","response":1,"trial_type":"image-button-response","trial_index":37,"time_elapsed":357730,"internal_node_id":"0.0-4.0-0.15","subject_id":"6101897e75ef2469f3584a13","study_id":"6197b3f67c2b5cd3b6d9596a","session_id":"6197b9ee38bfc1bd00b4788c","condition":"contingent","relevant_dimensions":["antennae","pattern"],"bee_group":{"antennae":"B","wings":"X","pattern":"D","legs":"X"},"action":"avoid","summary":"bad-avoid","bonus":1.3600000000000008},{"rt":420.5,"stimulus":"\n                    <p><b>Action: <em>avoid</em></b></p>\n                    <p>This is the bee that you just saw.</p>\n                    <img src=\"bees-with-color/bee-A1DF.svg\" width=\"200\">\n                    <p><br>Your bonus pay is unchanged, and remains at $0.58.</p>\n            ","response":0,"trial_type":"html-button-response","trial_index":38,"time_elapsed":358153,"internal_node_id":"0.0-4.0-1.15","subject_id":"6101897e75ef2469f3584a13","study_id":"6197b3f67c2b5cd3b6d9596a","session_id":"6197b9ee38bfc1bd00b4788c","condition":"contingent","relevant_dimensions":["antennae","pattern"],"bee_group":{"antennae":"B","wings":"X","pattern":"D","legs":"X"},"bonus":1.3600000000000008},{"rt":1013.5,"stimulus":"bees-with-color/bee-B1SM.svg","response":0,"trial_type":"image-button-response","trial_index":39,"time_elapsed":359169,"internal_node_id":"0.0-4.0-0.16","subject_id":"6101897e75ef2469f3584a13","study_id":"6197b3f67c2b5cd3b6d9596a","session_id":"6197b9ee38bfc1bd00b4788c","condition":"contingent","relevant_dimensions":["antennae","pattern"],"bee_group":{"antennae":"B","wings":"X","pattern":"D","legs":"X"},"action":"harvest","summary":"good-harvest","bonus":1.3600000000000008},{"rt":837,"stimulus":"\n                    <p><b>Action: <em>harvest</em></b></p>\n                    <p>This is the bee that you just saw.</p>\n                    <img src=\"bees-with-color/bee-B1SM.svg\" width=\"200\">\n                    <p><span class=\"greenText\"><b>Successful harvest!</b></span><br>Your pay has increased by $0.02. Your bonus pay is now $0.60.</p>\n            ","response":0,"trial_type":"html-button-response","trial_index":40,"time_elapsed":360009,"internal_node_id":"0.0-4.0-1.16","subject_id":"6101897e75ef2469f3584a13","study_id":"6197b3f67c2b5cd3b6d9596a","session_id":"6197b9ee38bfc1bd00b4788c","condition":"contingent","relevant_dimensions":["antennae","pattern"],"bee_group":{"antennae":"B","wings":"X","pattern":"D","legs":"X"},"bonus":1.3600000000000008},{"rt":765.5,"stimulus":"bees-with-color/bee-B1DM.svg","response":1,"trial_type":"image-button-response","trial_index":41,"time_elapsed":360777,"internal_node_id":"0.0-4.0-0.17","subject_id":"6101897e75ef2469f3584a13","study_id":"6197b3f67c2b5cd3b6d9596a","session_id":"6197b9ee38bfc1bd00b4788c","condition":"contingent","relevant_dimensions":["antennae","pattern"],"bee_group":{"antennae":"B","wings":"X","pattern":"D","legs":"X"},"action":"avoid","summary":"good-avoid","bonus":1.3600000000000008},{"rt":460.5,"stimulus":"\n                    <p><b>Action: <em>avoid</em></b></p>\n                    <p>This is the bee that you just saw.</p>\n                    <img src=\"bees-with-color/bee-B1DM.svg\" width=\"200\">\n                    <p><br>Your bonus pay is unchanged, and remains at $0.60.</p>\n            ","response":0,"trial_type":"html-button-response","trial_index":42,"time_elapsed":361241,"internal_node_id":"0.0-4.0-1.17","subject_id":"6101897e75ef2469f3584a13","study_id":"6197b3f67c2b5cd3b6d9596a","session_id":"6197b9ee38bfc1bd00b4788c","condition":"contingent","relevant_dimensions":["antennae","pattern"],"bee_group":{"antennae":"B","wings":"X","pattern":"D","legs":"X"},"bonus":1.3600000000000008},{"rt":765.5999999999767,"stimulus":"bees-with-color/bee-B2SM.svg","response":0,"trial_type":"image-button-response","trial_index":43,"time_elapsed":362009,"internal_node_id":"0.0-4.0-0.18","subject_id":"6101897e75ef2469f3584a13","study_id":"6197b3f67c2b5cd3b6d9596a","session_id":"6197b9ee38bfc1bd00b4788c","condition":"contingent","relevant_dimensions":["antennae","pattern"],"bee_group":{"antennae":"B","wings":"X","pattern":"D","legs":"X"},"action":"harvest","summary":"good-harvest","bonus":1.3600000000000008},{"rt":532.8000000000466,"stimulus":"\n                    <p><b>Action: <em>harvest</em></b></p>\n                    <p>This is the bee that you just saw.</p>\n                    <img src=\"bees-with-color/bee-B2SM.svg\" width=\"200\">\n                    <p><span class=\"greenText\"><b>Successful harvest!</b></span><br>Your pay has increased by $0.02. Your bonus pay is now $0.62.</p>\n            ","response":0,"trial_type":"html-button-response","trial_index":44,"time_elapsed":362545,"internal_node_id":"0.0-4.0-1.18","subject_id":"6101897e75ef2469f3584a13","study_id":"6197b3f67c2b5cd3b6d9596a","session_id":"6197b9ee38bfc1bd00b4788c","condition":"contingent","relevant_dimensions":["antennae","pattern"],"bee_group":{"antennae":"B","wings":"X","pattern":"D","legs":"X"},"bonus":1.3600000000000008},{"rt":829.4000000000233,"stimulus":"bees-with-color/bee-A1DF.svg","response":1,"trial_type":"image-button-response","trial_index":45,"time_elapsed":363377,"internal_node_id":"0.0-4.0-0.19","subject_id":"6101897e75ef2469f3584a13","study_id":"6197b3f67c2b5cd3b6d9596a","session_id":"6197b9ee38bfc1bd00b4788c","condition":"contingent","relevant_dimensions":["antennae","pattern"],"bee_group":{"antennae":"B","wings":"X","pattern":"D","legs":"X"},"action":"avoid","summary":"bad-avoid","bonus":1.3600000000000008},{"rt":444.5999999999767,"stimulus":"\n                    <p><b>Action: <em>avoid</em></b></p>\n                    <p>This is the bee that you just saw.</p>\n                    <img src=\"bees-with-color/bee-A1DF.svg\" width=\"200\">\n                    <p><br>Your bonus pay is unchanged, and remains at $0.62.</p>\n            ","response":0,"trial_type":"html-button-response","trial_index":46,"time_elapsed":363825,"internal_node_id":"0.0-4.0-1.19","subject_id":"6101897e75ef2469f3584a13","study_id":"6197b3f67c2b5cd3b6d9596a","session_id":"6197b9ee38bfc1bd00b4788c","condition":"contingent","relevant_dimensions":["antennae","pattern"],"bee_group":{"antennae":"B","wings":"X","pattern":"D","legs":"X"},"bonus":1.3600000000000008},{"rt":885.4000000000233,"stimulus":"bees-with-color/bee-A2SM.svg","response":0,"trial_type":"image-button-response","trial_index":47,"time_elapsed":364713,"internal_node_id":"0.0-4.0-0.20","subject_id":"6101897e75ef2469f3584a13","study_id":"6197b3f67c2b5cd3b6d9596a","session_id":"6197b9ee38bfc1bd00b4788c","condition":"contingent","relevant_dimensions":["antennae","pattern"],"bee_group":{"antennae":"B","wings":"X","pattern":"D","legs":"X"},"action":"harvest","summary":"good-harvest","bonus":1.3600000000000008},{"rt":516.5999999999767,"stimulus":"\n                    <p><b>Action: <em>harvest</em></b></p>\n                    <p>This is the bee that you just saw.</p>\n                    <img src=\"bees-with-color/bee-A2SM.svg\" width=\"200\">\n                    <p><span class=\"greenText\"><b>Successful harvest!</b></span><br>Your pay has increased by $0.02. Your bonus pay is now $0.64.</p>\n            ","response":0,"trial_type":"html-button-response","trial_index":48,"time_elapsed":365233,"internal_node_id":"0.0-4.0-1.20","subject_id":"6101897e75ef2469f3584a13","study_id":"6197b3f67c2b5cd3b6d9596a","session_id":"6197b9ee38bfc1bd00b4788c","condition":"contingent","relevant_dimensions":["antennae","pattern"],"bee_group":{"antennae":"B","wings":"X","pattern":"D","legs":"X"},"bonus":1.3600000000000008},{"rt":709.6999999999534,"stimulus":"bees-with-color/bee-A2DM.svg","response":1,"trial_type":"image-button-response","trial_index":49,"time_elapsed":365946,"internal_node_id":"0.0-4.0-0.21","subject_id":"6101897e75ef2469f3584a13","study_id":"6197b3f67c2b5cd3b6d9596a","session_id":"6197b9ee38bfc1bd00b4788c","condition":"contingent","relevant_dimensions":["antennae","pattern"],"bee_group":{"antennae":"B","wings":"X","pattern":"D","legs":"X"},"action":"avoid","summary":"bad-avoid","bonus":1.3600000000000008},{"rt":476.29999999993015,"stimulus":"\n                    <p><b>Action: <em>avoid</em></b></p>\n                    <p>This is the bee that you just saw.</p>\n                    <img src=\"bees-with-color/bee-A2DM.svg\" width=\"200\">\n                    <p><br>Your bonus pay is unchanged, and remains at $0.64.</p>\n            ","response":0,"trial_type":"html-button-response","trial_index":50,"time_elapsed":366425,"internal_node_id":"0.0-4.0-1.21","subject_id":"6101897e75ef2469f3584a13","study_id":"6197b3f67c2b5cd3b6d9596a","session_id":"6197b9ee38bfc1bd00b4788c","condition":"contingent","relevant_dimensions":["antennae","pattern"],"bee_group":{"antennae":"B","wings":"X","pattern":"D","legs":"X"},"bonus":1.3600000000000008},{"rt":669.3000000000466,"stimulus":"bees-with-color/bee-A1SF.svg","response":0,"trial_type":"image-button-response","trial_index":51,"time_elapsed":367097,"internal_node_id":"0.0-4.0-0.22","subject_id":"6101897e75ef2469f3584a13","study_id":"6197b3f67c2b5cd3b6d9596a","session_id":"6197b9ee38bfc1bd00b4788c","condition":"contingent","relevant_dimensions":["antennae","pattern"],"bee_group":{"antennae":"B","wings":"X","pattern":"D","legs":"X"},"action":"harvest","summary":"good-harvest","bonus":1.3600000000000008},{"rt":532.7000000000698,"stimulus":"\n                    <p><b>Action: <em>harvest</em></b></p>\n                    <p>This is the bee that you just saw.</p>\n                    <img src=\"bees-with-color/bee-A1SF.svg\" width=\"200\">\n                    <p><span class=\"greenText\"><b>Successful harvest!</b></span><br>Your pay has increased by $0.02. Your bonus pay is now $0.66.</p>\n            ","response":0,"trial_type":"html-button-response","trial_index":52,"time_elapsed":367633,"internal_node_id":"0.0-4.0-1.22","subject_id":"6101897e75ef2469f3584a13","study_id":"6197b3f67c2b5cd3b6d9596a","session_id":"6197b9ee38bfc1bd00b4788c","condition":"contingent","relevant_dimensions":["antennae","pattern"],"bee_group":{"antennae":"B","wings":"X","pattern":"D","legs":"X"},"bonus":1.3600000000000008},{"rt":701.1000000000931,"stimulus":"bees-with-color/bee-B1DF.svg","response":1,"trial_type":"image-button-response","trial_index":53,"time_elapsed":368338,"internal_node_id":"0.0-4.0-0.23","subject_id":"6101897e75ef2469f3584a13","study_id":"6197b3f67c2b5cd3b6d9596a","session_id":"6197b9ee38bfc1bd00b4788c","condition":"contingent","relevant_dimensions":["antennae","pattern"],"bee_group":{"antennae":"B","wings":"X","pattern":"D","legs":"X"},"action":"avoid","summary":"good-avoid","bonus":1.3600000000000008},{"rt":440.39999999990687,"stimulus":"\n                    <p><b>Action: <em>avoid</em></b></p>\n                    <p>This is the bee that you just saw.</p>\n                    <img src=\"bees-with-color/bee-B1DF.svg\" width=\"200\">\n                    <p><br>Your bonus pay is unchanged, and remains at $0.66.</p>\n            ","response":0,"trial_type":"html-button-response","trial_index":54,"time_elapsed":368782,"internal_node_id":"0.0-4.0-1.23","subject_id":"6101897e75ef2469f3584a13","study_id":"6197b3f67c2b5cd3b6d9596a","session_id":"6197b9ee38bfc1bd00b4788c","condition":"contingent","relevant_dimensions":["antennae","pattern"],"bee_group":{"antennae":"B","wings":"X","pattern":"D","legs":"X"},"bonus":1.3600000000000008},{"rt":1048.9000000000233,"stimulus":"bees-with-color/bee-A2SF.svg","response":0,"trial_type":"image-button-response","trial_index":55,"time_elapsed":369833,"internal_node_id":"0.0-4.0-0.24","subject_id":"6101897e75ef2469f3584a13","study_id":"6197b3f67c2b5cd3b6d9596a","session_id":"6197b9ee38bfc1bd00b4788c","condition":"contingent","relevant_dimensions":["antennae","pattern"],"bee_group":{"antennae":"B","wings":"X","pattern":"D","legs":"X"},"action":"harvest","summary":"good-harvest","bonus":1.3600000000000008},{"rt":500.5999999999767,"stimulus":"\n                    <p><b>Action: <em>harvest</em></b></p>\n                    <p>This is the bee that you just saw.</p>\n                    <img src=\"bees-with-color/bee-A2SF.svg\" width=\"200\">\n                    <p><span class=\"greenText\"><b>Successful harvest!</b></span><br>Your pay has increased by $0.02. Your bonus pay is now $0.68.</p>\n            ","response":0,"trial_type":"html-button-response","trial_index":56,"time_elapsed":370337,"internal_node_id":"0.0-4.0-1.24","subject_id":"6101897e75ef2469f3584a13","study_id":"6197b3f67c2b5cd3b6d9596a","session_id":"6197b9ee38bfc1bd00b4788c","condition":"contingent","relevant_dimensions":["antennae","pattern"],"bee_group":{"antennae":"B","wings":"X","pattern":"D","legs":"X"},"bonus":1.3600000000000008},{"rt":709,"stimulus":"bees-with-color/bee-B2DM.svg","response":1,"trial_type":"image-button-response","trial_index":57,"time_elapsed":371049,"internal_node_id":"0.0-4.0-0.25","subject_id":"6101897e75ef2469f3584a13","study_id":"6197b3f67c2b5cd3b6d9596a","session_id":"6197b9ee38bfc1bd00b4788c","condition":"contingent","relevant_dimensions":["antennae","pattern"],"bee_group":{"antennae":"B","wings":"X","pattern":"D","legs":"X"},"action":"avoid","summary":"good-avoid","bonus":1.3600000000000008},{"rt":716.6999999999534,"stimulus":"\n                    <p><b>Action: <em>avoid</em></b></p>\n                    <p>This is the bee that you just saw.</p>\n                    <img src=\"bees-with-color/bee-B2DM.svg\" width=\"200\">\n                    <p><br>Your bonus pay is unchanged, and remains at $0.68.</p>\n            ","response":0,"trial_type":"html-button-response","trial_index":58,"time_elapsed":371769,"internal_node_id":"0.0-4.0-1.25","subject_id":"6101897e75ef2469f3584a13","study_id":"6197b3f67c2b5cd3b6d9596a","session_id":"6197b9ee38bfc1bd00b4788c","condition":"contingent","relevant_dimensions":["antennae","pattern"],"bee_group":{"antennae":"B","wings":"X","pattern":"D","legs":"X"},"bonus":1.3600000000000008},{"rt":492.9000000000233,"stimulus":"bees-with-color/bee-B1SF.svg","response":0,"trial_type":"image-button-response","trial_index":59,"time_elapsed":372265,"internal_node_id":"0.0-4.0-0.26","subject_id":"6101897e75ef2469f3584a13","study_id":"6197b3f67c2b5cd3b6d9596a","session_id":"6197b9ee38bfc1bd00b4788c","condition":"contingent","relevant_dimensions":["antennae","pattern"],"bee_group":{"antennae":"B","wings":"X","pattern":"D","legs":"X"},"action":"harvest","summary":"good-harvest","bonus":1.3600000000000008},{"rt":460.4000000000233,"stimulus":"\n                    <p><b>Action: <em>harvest</em></b></p>\n                    <p>This is the bee that you just saw.</p>\n                    <img src=\"bees-with-color/bee-B1SF.svg\" width=\"200\">\n                    <p><span class=\"greenText\"><b>Successful harvest!</b></span><br>Your pay has increased by $0.02. Your bonus pay is now $0.70.</p>\n            ","response":0,"trial_type":"html-button-response","trial_index":60,"time_elapsed":372729,"internal_node_id":"0.0-4.0-1.26","subject_id":"6101897e75ef2469f3584a13","study_id":"6197b3f67c2b5cd3b6d9596a","session_id":"6197b9ee38bfc1bd00b4788c","condition":"contingent","relevant_dimensions":["antennae","pattern"],"bee_group":{"antennae":"B","wings":"X","pattern":"D","legs":"X"},"bonus":1.3600000000000008},{"rt":412.9000000000233,"stimulus":"bees-with-color/bee-B2SF.svg","response":1,"trial_type":"image-button-response","trial_index":61,"time_elapsed":373145,"internal_node_id":"0.0-4.0-0.27","subject_id":"6101897e75ef2469f3584a13","study_id":"6197b3f67c2b5cd3b6d9596a","session_id":"6197b9ee38bfc1bd00b4788c","condition":"contingent","relevant_dimensions":["antennae","pattern"],"bee_group":{"antennae":"B","wings":"X","pattern":"D","legs":"X"},"action":"avoid","summary":"bad-avoid","bonus":1.3600000000000008},{"rt":516.3999999999069,"stimulus":"\n                    <p><b>Action: <em>avoid</em></b></p>\n                    <p>This is the bee that you just saw.</p>\n                    <img src=\"bees-with-color/bee-B2SF.svg\" width=\"200\">\n                    <p><br>Your bonus pay is unchanged, and remains at $0.70.</p>\n            ","response":0,"trial_type":"html-button-response","trial_index":62,"time_elapsed":373665,"internal_node_id":"0.0-4.0-1.27","subject_id":"6101897e75ef2469f3584a13","study_id":"6197b3f67c2b5cd3b6d9596a","session_id":"6197b9ee38bfc1bd00b4788c","condition":"contingent","relevant_dimensions":["antennae","pattern"],"bee_group":{"antennae":"B","wings":"X","pattern":"D","legs":"X"},"bonus":1.3600000000000008},{"rt":901.2000000000698,"stimulus":"bees-with-color/bee-A1DM.svg","response":0,"trial_type":"image-button-response","trial_index":63,"time_elapsed":374569,"internal_node_id":"0.0-4.0-0.28","subject_id":"6101897e75ef2469f3584a13","study_id":"6197b3f67c2b5cd3b6d9596a","session_id":"6197b9ee38bfc1bd00b4788c","condition":"contingent","relevant_dimensions":["antennae","pattern"],"bee_group":{"antennae":"B","wings":"X","pattern":"D","legs":"X"},"action":"harvest","summary":"good-harvest","bonus":1.3600000000000008},{"rt":868.3000000000466,"stimulus":"\n                    <p><b>Action: <em>harvest</em></b></p>\n                    <p>This is the bee that you just saw.</p>\n                    <img src=\"bees-with-color/bee-A1DM.svg\" width=\"200\">\n                    <p><span class=\"greenText\"><b>Successful harvest!</b></span><br>Your pay has increased by $0.02. Your bonus pay is now $0.72.</p>\n            ","response":0,"trial_type":"html-button-response","trial_index":64,"time_elapsed":375441,"internal_node_id":"0.0-4.0-1.28","subject_id":"6101897e75ef2469f3584a13","study_id":"6197b3f67c2b5cd3b6d9596a","session_id":"6197b9ee38bfc1bd00b4788c","condition":"contingent","relevant_dimensions":["antennae","pattern"],"bee_group":{"antennae":"B","wings":"X","pattern":"D","legs":"X"},"bonus":1.3600000000000008},{"rt":997.0999999999767,"stimulus":"bees-with-color/bee-A1SM.svg","response":0,"trial_type":"image-button-response","trial_index":65,"time_elapsed":376442,"internal_node_id":"0.0-4.0-0.29","subject_id":"6101897e75ef2469f3584a13","study_id":"6197b3f67c2b5cd3b6d9596a","session_id":"6197b9ee38bfc1bd00b4788c","condition":"contingent","relevant_dimensions":["antennae","pattern"],"bee_group":{"antennae":"B","wings":"X","pattern":"D","legs":"X"},"action":"harvest","summary":"good-harvest","bonus":1.3600000000000008},{"rt":540.4000000000233,"stimulus":"\n                    <p><b>Action: <em>harvest</em></b></p>\n                    <p>This is the bee that you just saw.</p>\n                    <img src=\"bees-with-color/bee-A1SM.svg\" width=\"200\">\n                    <p><span class=\"greenText\"><b>Successful harvest!</b></span><br>Your pay has increased by $0.02. Your bonus pay is now $0.74.</p>\n            ","response":0,"trial_type":"html-button-response","trial_index":66,"time_elapsed":376986,"internal_node_id":"0.0-4.0-1.29","subject_id":"6101897e75ef2469f3584a13","study_id":"6197b3f67c2b5cd3b6d9596a","session_id":"6197b9ee38bfc1bd00b4788c","condition":"contingent","relevant_dimensions":["antennae","pattern"],"bee_group":{"antennae":"B","wings":"X","pattern":"D","legs":"X"},"bonus":1.3600000000000008},{"rt":972.3999999999069,"stimulus":"bees-with-color/bee-B2DF.svg","response":1,"trial_type":"image-button-response","trial_index":67,"time_elapsed":377961,"internal_node_id":"0.0-4.0-0.30","subject_id":"6101897e75ef2469f3584a13","study_id":"6197b3f67c2b5cd3b6d9596a","session_id":"6197b9ee38bfc1bd00b4788c","condition":"contingent","relevant_dimensions":["antennae","pattern"],"bee_group":{"antennae":"B","wings":"X","pattern":"D","legs":"X"},"action":"avoid","summary":"good-avoid","bonus":1.3600000000000008},{"rt":460.20000000006985,"stimulus":"\n                    <p><b>Action: <em>avoid</em></b></p>\n                    <p>This is the bee that you just saw.</p>\n                    <img src=\"bees-with-color/bee-B2DF.svg\" width=\"200\">\n                    <p><br>Your bonus pay is unchanged, and remains at $0.74.</p>\n            ","response":0,"trial_type":"html-button-response","trial_index":68,"time_elapsed":378425,"internal_node_id":"0.0-4.0-1.30","subject_id":"6101897e75ef2469f3584a13","study_id":"6197b3f67c2b5cd3b6d9596a","session_id":"6197b9ee38bfc1bd00b4788c","condition":"contingent","relevant_dimensions":["antennae","pattern"],"bee_group":{"antennae":"B","wings":"X","pattern":"D","legs":"X"},"bonus":1.3600000000000008},{"rt":821.5,"stimulus":"bees-with-color/bee-A2DF.svg","response":1,"trial_type":"image-button-response","trial_index":69,"time_elapsed":379249,"internal_node_id":"0.0-4.0-0.31","subject_id":"6101897e75ef2469f3584a13","study_id":"6197b3f67c2b5cd3b6d9596a","session_id":"6197b9ee38bfc1bd00b4788c","condition":"contingent","relevant_dimensions":["antennae","pattern"],"bee_group":{"antennae":"B","wings":"X","pattern":"D","legs":"X"},"action":"avoid","summary":"bad-avoid","bonus":1.3600000000000008},{"rt":877.3000000000466,"stimulus":"\n                    <p><b>Action: <em>avoid</em></b></p>\n                    <p>This is the bee that you just saw.</p>\n                    <img src=\"bees-with-color/bee-A2DF.svg\" width=\"200\">\n                    <p><br>Your bonus pay is unchanged, and remains at $0.74.</p>\n            ","response":0,"trial_type":"html-button-response","trial_index":70,"time_elapsed":380129,"internal_node_id":"0.0-4.0-1.31","subject_id":"6101897e75ef2469f3584a13","study_id":"6197b3f67c2b5cd3b6d9596a","session_id":"6197b9ee38bfc1bd00b4788c","condition":"contingent","relevant_dimensions":["antennae","pattern"],"bee_group":{"antennae":"B","wings":"X","pattern":"D","legs":"X"},"bonus":1.3600000000000008},{"rt":597.5,"stimulus":"bees-with-color/bee-B1SM.svg","response":0,"trial_type":"image-button-response","trial_index":71,"time_elapsed":380729,"internal_node_id":"0.0-4.0-0.32","subject_id":"6101897e75ef2469f3584a13","study_id":"6197b3f67c2b5cd3b6d9596a","session_id":"6197b9ee38bfc1bd00b4788c","condition":"contingent","relevant_dimensions":["antennae","pattern"],"bee_group":{"antennae":"B","wings":"X","pattern":"D","legs":"X"},"action":"harvest","summary":"good-harvest","bonus":1.3600000000000008},{"rt":380.9000000000233,"stimulus":"\n                    <p><b>Action: <em>harvest</em></b></p>\n                    <p>This is the bee that you just saw.</p>\n                    <img src=\"bees-with-color/bee-B1SM.svg\" width=\"200\">\n                    <p><span class=\"greenText\"><b>Successful harvest!</b></span><br>Your pay has increased by $0.02. Your bonus pay is now $0.76.</p>\n            ","response":0,"trial_type":"html-button-response","trial_index":72,"time_elapsed":381113,"internal_node_id":"0.0-4.0-1.32","subject_id":"6101897e75ef2469f3584a13","study_id":"6197b3f67c2b5cd3b6d9596a","session_id":"6197b9ee38bfc1bd00b4788c","condition":"contingent","relevant_dimensions":["antennae","pattern"],"bee_group":{"antennae":"B","wings":"X","pattern":"D","legs":"X"},"bonus":1.3600000000000008},{"rt":661.5999999999767,"stimulus":"bees-with-color/bee-A1SF.svg","response":0,"trial_type":"image-button-response","trial_index":73,"time_elapsed":381777,"internal_node_id":"0.0-4.0-0.33","subject_id":"6101897e75ef2469f3584a13","study_id":"6197b3f67c2b5cd3b6d9596a","session_id":"6197b9ee38bfc1bd00b4788c","condition":"contingent","relevant_dimensions":["antennae","pattern"],"bee_group":{"antennae":"B","wings":"X","pattern":"D","legs":"X"},"action":"harvest","summary":"good-harvest","bonus":1.3600000000000008},{"rt":373.29999999993015,"stimulus":"\n                    <p><b>Action: <em>harvest</em></b></p>\n                    <p>This is the bee that you just saw.</p>\n                    <img src=\"bees-with-color/bee-A1SF.svg\" width=\"200\">\n                    <p><span class=\"greenText\"><b>Successful harvest!</b></span><br>Your pay has increased by $0.02. Your bonus pay is now $0.78.</p>\n            ","response":0,"trial_type":"html-button-response","trial_index":74,"time_elapsed":382153,"internal_node_id":"0.0-4.0-1.33","subject_id":"6101897e75ef2469f3584a13","study_id":"6197b3f67c2b5cd3b6d9596a","session_id":"6197b9ee38bfc1bd00b4788c","condition":"contingent","relevant_dimensions":["antennae","pattern"],"bee_group":{"antennae":"B","wings":"X","pattern":"D","legs":"X"},"bonus":1.3600000000000008},{"rt":917.7000000000698,"stimulus":"bees-with-color/bee-A2DF.svg","response":1,"trial_type":"image-button-response","trial_index":75,"time_elapsed":383073,"internal_node_id":"0.0-4.0-0.34","subject_id":"6101897e75ef2469f3584a13","study_id":"6197b3f67c2b5cd3b6d9596a","session_id":"6197b9ee38bfc1bd00b4788c","condition":"contingent","relevant_dimensions":["antennae","pattern"],"bee_group":{"antennae":"B","wings":"X","pattern":"D","legs":"X"},"action":"avoid","summary":"bad-avoid","bonus":1.3600000000000008},{"rt":589.2000000000698,"stimulus":"\n                    <p><b>Action: <em>avoid</em></b></p>\n                    <p>This is the bee that you just saw.</p>\n                    <img src=\"bees-with-color/bee-A2DF.svg\" width=\"200\">\n                    <p><br>Your bonus pay is unchanged, and remains at $0.78.</p>\n            ","response":0,"trial_type":"html-button-response","trial_index":76,"time_elapsed":383665,"internal_node_id":"0.0-4.0-1.34","subject_id":"6101897e75ef2469f3584a13","study_id":"6197b3f67c2b5cd3b6d9596a","session_id":"6197b9ee38bfc1bd00b4788c","condition":"contingent","relevant_dimensions":["antennae","pattern"],"bee_group":{"antennae":"B","wings":"X","pattern":"D","legs":"X"},"bonus":1.3600000000000008},{"rt":733.5,"stimulus":"bees-with-color/bee-B1DF.svg","response":1,"trial_type":"image-button-response","trial_index":77,"time_elapsed":384401,"internal_node_id":"0.0-4.0-0.35","subject_id":"6101897e75ef2469f3584a13","study_id":"6197b3f67c2b5cd3b6d9596a","session_id":"6197b9ee38bfc1bd00b4788c","condition":"contingent","relevant_dimensions":["antennae","pattern"],"bee_group":{"antennae":"B","wings":"X","pattern":"D","legs":"X"},"action":"avoid","summary":"good-avoid","bonus":1.3600000000000008},{"rt":349,"stimulus":"\n                    <p><b>Action: <em>avoid</em></b></p>\n                    <p>This is the bee that you just saw.</p>\n                    <img src=\"bees-with-color/bee-B1DF.svg\" width=\"200\">\n                    <p><br>Your bonus pay is unchanged, and remains at $0.78.</p>\n            ","response":0,"trial_type":"html-button-response","trial_index":78,"time_elapsed":384753,"internal_node_id":"0.0-4.0-1.35","subject_id":"6101897e75ef2469f3584a13","study_id":"6197b3f67c2b5cd3b6d9596a","session_id":"6197b9ee38bfc1bd00b4788c","condition":"contingent","relevant_dimensions":["antennae","pattern"],"bee_group":{"antennae":"B","wings":"X","pattern":"D","legs":"X"},"bonus":1.3600000000000008},{"rt":629.5,"stimulus":"bees-with-color/bee-A2SF.svg","response":0,"trial_type":"image-button-response","trial_index":79,"time_elapsed":385385,"internal_node_id":"0.0-4.0-0.36","subject_id":"6101897e75ef2469f3584a13","study_id":"6197b3f67c2b5cd3b6d9596a","session_id":"6197b9ee38bfc1bd00b4788c","condition":"contingent","relevant_dimensions":["antennae","pattern"],"bee_group":{"antennae":"B","wings":"X","pattern":"D","legs":"X"},"action":"harvest","summary":"good-harvest","bonus":1.3600000000000008},{"rt":333.20000000006985,"stimulus":"\n                    <p><b>Action: <em>harvest</em></b></p>\n                    <p>This is the bee that you just saw.</p>\n                    <img src=\"bees-with-color/bee-A2SF.svg\" width=\"200\">\n                    <p><span class=\"greenText\"><b>Successful harvest!</b></span><br>Your pay has increased by $0.02. Your bonus pay is now $0.80.</p>\n            ","response":0,"trial_type":"html-button-response","trial_index":80,"time_elapsed":385721,"internal_node_id":"0.0-4.0-1.36","subject_id":"6101897e75ef2469f3584a13","study_id":"6197b3f67c2b5cd3b6d9596a","session_id":"6197b9ee38bfc1bd00b4788c","condition":"contingent","relevant_dimensions":["antennae","pattern"],"bee_group":{"antennae":"B","wings":"X","pattern":"D","legs":"X"},"bonus":1.3600000000000008},{"rt":877.5999999999767,"stimulus":"bees-with-color/bee-B1SF.svg","response":0,"trial_type":"image-button-response","trial_index":81,"time_elapsed":386601,"internal_node_id":"0.0-4.0-0.37","subject_id":"6101897e75ef2469f3584a13","study_id":"6197b3f67c2b5cd3b6d9596a","session_id":"6197b9ee38bfc1bd00b4788c","condition":"contingent","relevant_dimensions":["antennae","pattern"],"bee_group":{"antennae":"B","wings":"X","pattern":"D","legs":"X"},"action":"harvest","summary":"good-harvest","bonus":1.3600000000000008},{"rt":460.69999999995343,"stimulus":"\n                    <p><b>Action: <em>harvest</em></b></p>\n                    <p>This is the bee that you just saw.</p>\n                    <img src=\"bees-with-color/bee-B1SF.svg\" width=\"200\">\n                    <p><span class=\"greenText\"><b>Successful harvest!</b></span><br>Your pay has increased by $0.02. Your bonus pay is now $0.82.</p>\n            ","response":0,"trial_type":"html-button-response","trial_index":82,"time_elapsed":387065,"internal_node_id":"0.0-4.0-1.37","subject_id":"6101897e75ef2469f3584a13","study_id":"6197b3f67c2b5cd3b6d9596a","session_id":"6197b9ee38bfc1bd00b4788c","condition":"contingent","relevant_dimensions":["antennae","pattern"],"bee_group":{"antennae":"B","wings":"X","pattern":"D","legs":"X"},"bonus":1.3600000000000008},{"rt":2405.9000000000233,"stimulus":"bees-with-color/bee-B2SM.svg","response":0,"trial_type":"image-button-response","trial_index":83,"time_elapsed":389473,"internal_node_id":"0.0-4.0-0.38","subject_id":"6101897e75ef2469f3584a13","study_id":"6197b3f67c2b5cd3b6d9596a","session_id":"6197b9ee38bfc1bd00b4788c","condition":"contingent","relevant_dimensions":["antennae","pattern"],"bee_group":{"antennae":"B","wings":"X","pattern":"D","legs":"X"},"action":"harvest","summary":"good-harvest","bonus":1.3600000000000008},{"rt":397,"stimulus":"\n                    <p><b>Action: <em>harvest</em></b></p>\n                    <p>This is the bee that you just saw.</p>\n                    <img src=\"bees-with-color/bee-B2SM.svg\" width=\"200\">\n                    <p><span class=\"greenText\"><b>Successful harvest!</b></span><br>Your pay has increased by $0.02. Your bonus pay is now $0.84.</p>\n            ","response":0,"trial_type":"html-button-response","trial_index":84,"time_elapsed":389873,"internal_node_id":"0.0-4.0-1.38","subject_id":"6101897e75ef2469f3584a13","study_id":"6197b3f67c2b5cd3b6d9596a","session_id":"6197b9ee38bfc1bd00b4788c","condition":"contingent","relevant_dimensions":["antennae","pattern"],"bee_group":{"antennae":"B","wings":"X","pattern":"D","legs":"X"},"bonus":1.3600000000000008},{"rt":709.5999999999767,"stimulus":"bees-with-color/bee-B2DM.svg","response":1,"trial_type":"image-button-response","trial_index":85,"time_elapsed":390585,"internal_node_id":"0.0-4.0-0.39","subject_id":"6101897e75ef2469f3584a13","study_id":"6197b3f67c2b5cd3b6d9596a","session_id":"6197b9ee38bfc1bd00b4788c","condition":"contingent","relevant_dimensions":["antennae","pattern"],"bee_group":{"antennae":"B","wings":"X","pattern":"D","legs":"X"},"action":"avoid","summary":"good-avoid","bonus":1.3600000000000008},{"rt":516.8000000000466,"stimulus":"\n                    <p><b>Action: <em>avoid</em></b></p>\n                    <p>This is the bee that you just saw.</p>\n                    <img src=\"bees-with-color/bee-B2DM.svg\" width=\"200\">\n                    <p><br>Your bonus pay is unchanged, and remains at $0.84.</p>\n            ","response":0,"trial_type":"html-button-response","trial_index":86,"time_elapsed":391105,"internal_node_id":"0.0-4.0-1.39","subject_id":"6101897e75ef2469f3584a13","study_id":"6197b3f67c2b5cd3b6d9596a","session_id":"6197b9ee38bfc1bd00b4788c","condition":"contingent","relevant_dimensions":["antennae","pattern"],"bee_group":{"antennae":"B","wings":"X","pattern":"D","legs":"X"},"bonus":1.3600000000000008},{"rt":733.5999999999767,"stimulus":"bees-with-color/bee-B1DM.svg","response":1,"trial_type":"image-button-response","trial_index":87,"time_elapsed":391841,"internal_node_id":"0.0-4.0-0.40","subject_id":"6101897e75ef2469f3584a13","study_id":"6197b3f67c2b5cd3b6d9596a","session_id":"6197b9ee38bfc1bd00b4788c","condition":"contingent","relevant_dimensions":["antennae","pattern"],"bee_group":{"antennae":"B","wings":"X","pattern":"D","legs":"X"},"action":"avoid","summary":"good-avoid","bonus":1.3600000000000008},{"rt":388.69999999995343,"stimulus":"\n                    <p><b>Action: <em>avoid</em></b></p>\n                    <p>This is the bee that you just saw.</p>\n                    <img src=\"bees-with-color/bee-B1DM.svg\" width=\"200\">\n                    <p><br>Your bonus pay is unchanged, and remains at $0.84.</p>\n            ","response":0,"trial_type":"html-button-response","trial_index":88,"time_elapsed":392233,"internal_node_id":"0.0-4.0-1.40","subject_id":"6101897e75ef2469f3584a13","study_id":"6197b3f67c2b5cd3b6d9596a","session_id":"6197b9ee38bfc1bd00b4788c","condition":"contingent","relevant_dimensions":["antennae","pattern"],"bee_group":{"antennae":"B","wings":"X","pattern":"D","legs":"X"},"bonus":1.3600000000000008},{"rt":709.6999999999534,"stimulus":"bees-with-color/bee-A2DM.svg","response":1,"trial_type":"image-button-response","trial_index":89,"time_elapsed":392945,"internal_node_id":"0.0-4.0-0.41","subject_id":"6101897e75ef2469f3584a13","study_id":"6197b3f67c2b5cd3b6d9596a","session_id":"6197b9ee38bfc1bd00b4788c","condition":"contingent","relevant_dimensions":["antennae","pattern"],"bee_group":{"antennae":"B","wings":"X","pattern":"D","legs":"X"},"action":"avoid","summary":"bad-avoid","bonus":1.3600000000000008},{"rt":676.7999999999302,"stimulus":"\n                    <p><b>Action: <em>avoid</em></b></p>\n                    <p>This is the bee that you just saw.</p>\n                    <img src=\"bees-with-color/bee-A2DM.svg\" width=\"200\">\n                    <p><br>Your bonus pay is unchanged, and remains at $0.84.</p>\n            ","response":0,"trial_type":"html-button-response","trial_index":90,"time_elapsed":393626,"internal_node_id":"0.0-4.0-1.41","subject_id":"6101897e75ef2469f3584a13","study_id":"6197b3f67c2b5cd3b6d9596a","session_id":"6197b9ee38bfc1bd00b4788c","condition":"contingent","relevant_dimensions":["antennae","pattern"],"bee_group":{"antennae":"B","wings":"X","pattern":"D","legs":"X"},"bonus":1.3600000000000008},{"rt":869.0999999999767,"stimulus":"bees-with-color/bee-A1SM.svg","response":0,"trial_type":"image-button-response","trial_index":91,"time_elapsed":394497,"internal_node_id":"0.0-4.0-0.42","subject_id":"6101897e75ef2469f3584a13","study_id":"6197b3f67c2b5cd3b6d9596a","session_id":"6197b9ee38bfc1bd00b4788c","condition":"contingent","relevant_dimensions":["antennae","pattern"],"bee_group":{"antennae":"B","wings":"X","pattern":"D","legs":"X"},"action":"harvest","summary":"good-harvest","bonus":1.3600000000000008},{"rt":468.69999999995343,"stimulus":"\n                    <p><b>Action: <em>harvest</em></b></p>\n                    <p>This is the bee that you just saw.</p>\n                    <img src=\"bees-with-color/bee-A1SM.svg\" width=\"200\">\n                    <p><span class=\"greenText\"><b>Successful harvest!</b></span><br>Your pay has increased by $0.02. Your bonus pay is now $0.86.</p>\n            ","response":0,"trial_type":"html-button-response","trial_index":92,"time_elapsed":394969,"internal_node_id":"0.0-4.0-1.42","subject_id":"6101897e75ef2469f3584a13","study_id":"6197b3f67c2b5cd3b6d9596a","session_id":"6197b9ee38bfc1bd00b4788c","condition":"contingent","relevant_dimensions":["antennae","pattern"],"bee_group":{"antennae":"B","wings":"X","pattern":"D","legs":"X"},"bonus":1.3600000000000008},{"rt":669.4000000000233,"stimulus":"bees-with-color/bee-B2SF.svg","response":0,"trial_type":"image-button-response","trial_index":93,"time_elapsed":395641,"internal_node_id":"0.0-4.0-0.43","subject_id":"6101897e75ef2469f3584a13","study_id":"6197b3f67c2b5cd3b6d9596a","session_id":"6197b9ee38bfc1bd00b4788c","condition":"contingent","relevant_dimensions":["antennae","pattern"],"bee_group":{"antennae":"B","wings":"X","pattern":"D","legs":"X"},"action":"harvest","summary":"good-harvest","bonus":1.3600000000000008},{"rt":436.9000000000233,"stimulus":"\n                    <p><b>Action: <em>harvest</em></b></p>\n                    <p>This is the bee that you just saw.</p>\n                    <img src=\"bees-with-color/bee-B2SF.svg\" width=\"200\">\n                    <p><span class=\"greenText\"><b>Successful harvest!</b></span><br>Your pay has increased by $0.02. Your bonus pay is now $0.88.</p>\n            ","response":0,"trial_type":"html-button-response","trial_index":94,"time_elapsed":396081,"internal_node_id":"0.0-4.0-1.43","subject_id":"6101897e75ef2469f3584a13","study_id":"6197b3f67c2b5cd3b6d9596a","session_id":"6197b9ee38bfc1bd00b4788c","condition":"contingent","relevant_dimensions":["antennae","pattern"],"bee_group":{"antennae":"B","wings":"X","pattern":"D","legs":"X"},"bonus":1.3600000000000008},{"rt":749,"stimulus":"bees-with-color/bee-B2DF.svg","response":1,"trial_type":"image-button-response","trial_index":95,"time_elapsed":396833,"internal_node_id":"0.0-4.0-0.44","subject_id":"6101897e75ef2469f3584a13","study_id":"6197b3f67c2b5cd3b6d9596a","session_id":"6197b9ee38bfc1bd00b4788c","condition":"contingent","relevant_dimensions":["antennae","pattern"],"bee_group":{"antennae":"B","wings":"X","pattern":"D","legs":"X"},"action":"avoid","summary":"good-avoid","bonus":1.3600000000000008},{"rt":452.80000000004657,"stimulus":"\n                    <p><b>Action: <em>avoid</em></b></p>\n                    <p>This is the bee that you just saw.</p>\n                    <img src=\"bees-with-color/bee-B2DF.svg\" width=\"200\">\n                    <p><br>Your bonus pay is unchanged, and remains at $0.88.</p>\n            ","response":0,"trial_type":"html-button-response","trial_index":96,"time_elapsed":397289,"internal_node_id":"0.0-4.0-1.44","subject_id":"6101897e75ef2469f3584a13","study_id":"6197b3f67c2b5cd3b6d9596a","session_id":"6197b9ee38bfc1bd00b4788c","condition":"contingent","relevant_dimensions":["antennae","pattern"],"bee_group":{"antennae":"B","wings":"X","pattern":"D","legs":"X"},"bonus":1.3600000000000008},{"rt":741.5999999999767,"stimulus":"bees-with-color/bee-A2SM.svg","response":0,"trial_type":"image-button-response","trial_index":97,"time_elapsed":398033,"internal_node_id":"0.0-4.0-0.45","subject_id":"6101897e75ef2469f3584a13","study_id":"6197b3f67c2b5cd3b6d9596a","session_id":"6197b9ee38bfc1bd00b4788c","condition":"contingent","relevant_dimensions":["antennae","pattern"],"bee_group":{"antennae":"B","wings":"X","pattern":"D","legs":"X"},"action":"harvest","summary":"good-harvest","bonus":1.3600000000000008},{"rt":972.4000000000233,"stimulus":"\n                    <p><b>Action: <em>harvest</em></b></p>\n                    <p>This is the bee that you just saw.</p>\n                    <img src=\"bees-with-color/bee-A2SM.svg\" width=\"200\">\n                    <p><span class=\"greenText\"><b>Successful harvest!</b></span><br>Your pay has increased by $0.02. Your bonus pay is now $0.90.</p>\n            ","response":0,"trial_type":"html-button-response","trial_index":98,"time_elapsed":399009,"internal_node_id":"0.0-4.0-1.45","subject_id":"6101897e75ef2469f3584a13","study_id":"6197b3f67c2b5cd3b6d9596a","session_id":"6197b9ee38bfc1bd00b4788c","condition":"contingent","relevant_dimensions":["antennae","pattern"],"bee_group":{"antennae":"B","wings":"X","pattern":"D","legs":"X"},"bonus":1.3600000000000008},{"rt":965.0999999999767,"stimulus":"bees-with-color/bee-A1DF.svg","response":1,"trial_type":"image-button-response","trial_index":99,"time_elapsed":399977,"internal_node_id":"0.0-4.0-0.46","subject_id":"6101897e75ef2469f3584a13","study_id":"6197b3f67c2b5cd3b6d9596a","session_id":"6197b9ee38bfc1bd00b4788c","condition":"contingent","relevant_dimensions":["antennae","pattern"],"bee_group":{"antennae":"B","wings":"X","pattern":"D","legs":"X"},"action":"avoid","summary":"bad-avoid","bonus":1.3600000000000008},{"rt":1341.0999999999767,"stimulus":"\n                    <p><b>Action: <em>avoid</em></b></p>\n                    <p>This is the bee that you just saw.</p>\n                    <img src=\"bees-with-color/bee-A1DF.svg\" width=\"200\">\n                    <p><br>Your bonus pay is unchanged, and remains at $0.90.</p>\n            ","response":0,"trial_type":"html-button-response","trial_index":100,"time_elapsed":401321,"internal_node_id":"0.0-4.0-1.46","subject_id":"6101897e75ef2469f3584a13","study_id":"6197b3f67c2b5cd3b6d9596a","session_id":"6197b9ee38bfc1bd00b4788c","condition":"contingent","relevant_dimensions":["antennae","pattern"],"bee_group":{"antennae":"B","wings":"X","pattern":"D","legs":"X"},"bonus":1.3600000000000008},{"rt":965,"stimulus":"bees-with-color/bee-A1DM.svg","response":1,"trial_type":"image-button-response","trial_index":101,"time_elapsed":402290,"internal_node_id":"0.0-4.0-0.47","subject_id":"6101897e75ef2469f3584a13","study_id":"6197b3f67c2b5cd3b6d9596a","session_id":"6197b9ee38bfc1bd00b4788c","condition":"contingent","relevant_dimensions":["antennae","pattern"],"bee_group":{"antennae":"B","wings":"X","pattern":"D","legs":"X"},"action":"avoid","summary":"bad-avoid","bonus":1.3600000000000008},{"rt":619.8000000000466,"stimulus":"\n                    <p><b>Action: <em>avoid</em></b></p>\n                    <p>This is the bee that you just saw.</p>\n                    <img src=\"bees-with-color/bee-A1DM.svg\" width=\"200\">\n                    <p><br>Your bonus pay is unchanged, and remains at $0.90.</p>\n            ","response":0,"trial_type":"html-button-response","trial_index":102,"time_elapsed":402913,"internal_node_id":"0.0-4.0-1.47","subject_id":"6101897e75ef2469f3584a13","study_id":"6197b3f67c2b5cd3b6d9596a","session_id":"6197b9ee38bfc1bd00b4788c","condition":"contingent","relevant_dimensions":["antennae","pattern"],"bee_group":{"antennae":"B","wings":"X","pattern":"D","legs":"X"},"bonus":1.3600000000000008},{"rt":869.5,"stimulus":"bees-with-color/bee-B1DM.svg","response":1,"trial_type":"image-button-response","trial_index":103,"time_elapsed":403786,"internal_node_id":"0.0-4.0-0.48","subject_id":"6101897e75ef2469f3584a13","study_id":"6197b3f67c2b5cd3b6d9596a","session_id":"6197b9ee38bfc1bd00b4788c","condition":"contingent","relevant_dimensions":["antennae","pattern"],"bee_group":{"antennae":"B","wings":"X","pattern":"D","legs":"X"},"action":"avoid","summary":"good-avoid","bonus":1.3600000000000008},{"rt":820.4000000000233,"stimulus":"\n                    <p><b>Action: <em>avoid</em></b></p>\n                    <p>This is the bee that you just saw.</p>\n                    <img src=\"bees-with-color/bee-B1DM.svg\" width=\"200\">\n                    <p><br>Your bonus pay is unchanged, and remains at $0.90.</p>\n            ","response":0,"trial_type":"html-button-response","trial_index":104,"time_elapsed":404609,"internal_node_id":"0.0-4.0-1.48","subject_id":"6101897e75ef2469f3584a13","study_id":"6197b3f67c2b5cd3b6d9596a","session_id":"6197b9ee38bfc1bd00b4788c","condition":"contingent","relevant_dimensions":["antennae","pattern"],"bee_group":{"antennae":"B","wings":"X","pattern":"D","legs":"X"},"bonus":1.3600000000000008},{"rt":661.0999999999767,"stimulus":"bees-with-color/bee-B2DF.svg","response":1,"trial_type":"image-button-response","trial_index":105,"time_elapsed":405273,"internal_node_id":"0.0-4.0-0.49","subject_id":"6101897e75ef2469f3584a13","study_id":"6197b3f67c2b5cd3b6d9596a","session_id":"6197b9ee38bfc1bd00b4788c","condition":"contingent","relevant_dimensions":["antennae","pattern"],"bee_group":{"antennae":"B","wings":"X","pattern":"D","legs":"X"},"action":"avoid","summary":"good-avoid","bonus":1.3600000000000008},{"rt":424.5999999999767,"stimulus":"\n                    <p><b>Action: <em>avoid</em></b></p>\n                    <p>This is the bee that you just saw.</p>\n                    <img src=\"bees-with-color/bee-B2DF.svg\" width=\"200\">\n                    <p><br>Your bonus pay is unchanged, and remains at $0.90.</p>\n            ","response":0,"trial_type":"html-button-response","trial_index":106,"time_elapsed":405702,"internal_node_id":"0.0-4.0-1.49","subject_id":"6101897e75ef2469f3584a13","study_id":"6197b3f67c2b5cd3b6d9596a","session_id":"6197b9ee38bfc1bd00b4788c","condition":"contingent","relevant_dimensions":["antennae","pattern"],"bee_group":{"antennae":"B","wings":"X","pattern":"D","legs":"X"},"bonus":1.3600000000000008},{"rt":808.6999999999534,"stimulus":"bees-with-color/bee-A1SF.svg","response":0,"trial_type":"image-button-response","trial_index":107,"time_elapsed":406514,"internal_node_id":"0.0-4.0-0.50","subject_id":"6101897e75ef2469f3584a13","study_id":"6197b3f67c2b5cd3b6d9596a","session_id":"6197b9ee38bfc1bd00b4788c","condition":"contingent","relevant_dimensions":["antennae","pattern"],"bee_group":{"antennae":"B","wings":"X","pattern":"D","legs":"X"},"action":"harvest","summary":"good-harvest","bonus":1.3600000000000008},{"rt":340.4000000000233,"stimulus":"\n                    <p><b>Action: <em>harvest</em></b></p>\n                    <p>This is the bee that you just saw.</p>\n                    <img src=\"bees-with-color/bee-A1SF.svg\" width=\"200\">\n                    <p><span class=\"greenText\"><b>Successful harvest!</b></span><br>Your pay has increased by $0.02. Your bonus pay is now $0.92.</p>\n            ","response":0,"trial_type":"html-button-response","trial_index":108,"time_elapsed":406857,"internal_node_id":"0.0-4.0-1.50","subject_id":"6101897e75ef2469f3584a13","study_id":"6197b3f67c2b5cd3b6d9596a","session_id":"6197b9ee38bfc1bd00b4788c","condition":"contingent","relevant_dimensions":["antennae","pattern"],"bee_group":{"antennae":"B","wings":"X","pattern":"D","legs":"X"},"bonus":1.3600000000000008},{"rt":540.9000000000233,"stimulus":"bees-with-color/bee-B2SF.svg","response":0,"trial_type":"image-button-response","trial_index":109,"time_elapsed":407401,"internal_node_id":"0.0-4.0-0.51","subject_id":"6101897e75ef2469f3584a13","study_id":"6197b3f67c2b5cd3b6d9596a","session_id":"6197b9ee38bfc1bd00b4788c","condition":"contingent","relevant_dimensions":["antennae","pattern"],"bee_group":{"antennae":"B","wings":"X","pattern":"D","legs":"X"},"action":"harvest","summary":"good-harvest","bonus":1.3600000000000008},{"rt":300.5999999999767,"stimulus":"\n                    <p><b>Action: <em>harvest</em></b></p>\n                    <p>This is the bee that you just saw.</p>\n                    <img src=\"bees-with-color/bee-B2SF.svg\" width=\"200\">\n                    <p><span class=\"greenText\"><b>Successful harvest!</b></span><br>Your pay has increased by $0.02. Your bonus pay is now $0.94.</p>\n            ","response":0,"trial_type":"html-button-response","trial_index":110,"time_elapsed":407706,"internal_node_id":"0.0-4.0-1.51","subject_id":"6101897e75ef2469f3584a13","study_id":"6197b3f67c2b5cd3b6d9596a","session_id":"6197b9ee38bfc1bd00b4788c","condition":"contingent","relevant_dimensions":["antennae","pattern"],"bee_group":{"antennae":"B","wings":"X","pattern":"D","legs":"X"},"bonus":1.3600000000000008},{"rt":604.5,"stimulus":"bees-with-color/bee-B2SM.svg","response":0,"trial_type":"image-button-response","trial_index":111,"time_elapsed":408314,"internal_node_id":"0.0-4.0-0.52","subject_id":"6101897e75ef2469f3584a13","study_id":"6197b3f67c2b5cd3b6d9596a","session_id":"6197b9ee38bfc1bd00b4788c","condition":"contingent","relevant_dimensions":["antennae","pattern"],"bee_group":{"antennae":"B","wings":"X","pattern":"D","legs":"X"},"action":"harvest","summary":"good-harvest","bonus":1.3600000000000008},{"rt":284.4000000000233,"stimulus":"\n                    <p><b>Action: <em>harvest</em></b></p>\n                    <p>This is the bee that you just saw.</p>\n                    <img src=\"bees-with-color/bee-B2SM.svg\" width=\"200\">\n                    <p><span class=\"greenText\"><b>Successful harvest!</b></span><br>Your pay has increased by $0.02. Your bonus pay is now $0.96.</p>\n            ","response":0,"trial_type":"html-button-response","trial_index":112,"time_elapsed":408601,"internal_node_id":"0.0-4.0-1.52","subject_id":"6101897e75ef2469f3584a13","study_id":"6197b3f67c2b5cd3b6d9596a","session_id":"6197b9ee38bfc1bd00b4788c","condition":"contingent","relevant_dimensions":["antennae","pattern"],"bee_group":{"antennae":"B","wings":"X","pattern":"D","legs":"X"},"bonus":1.3600000000000008},{"rt":836.9000000000233,"stimulus":"bees-with-color/bee-A2DM.svg","response":1,"trial_type":"image-button-response","trial_index":113,"time_elapsed":409441,"internal_node_id":"0.0-4.0-0.53","subject_id":"6101897e75ef2469f3584a13","study_id":"6197b3f67c2b5cd3b6d9596a","session_id":"6197b9ee38bfc1bd00b4788c","condition":"contingent","relevant_dimensions":["antennae","pattern"],"bee_group":{"antennae":"B","wings":"X","pattern":"D","legs":"X"},"action":"avoid","summary":"bad-avoid","bonus":1.3600000000000008},{"rt":317.30000000004657,"stimulus":"\n                    <p><b>Action: <em>avoid</em></b></p>\n                    <p>This is the bee that you just saw.</p>\n                    <img src=\"bees-with-color/bee-A2DM.svg\" width=\"200\">\n                    <p><br>Your bonus pay is unchanged, and remains at $0.96.</p>\n            ","response":0,"trial_type":"html-button-response","trial_index":114,"time_elapsed":409761,"internal_node_id":"0.0-4.0-1.53","subject_id":"6101897e75ef2469f3584a13","study_id":"6197b3f67c2b5cd3b6d9596a","session_id":"6197b9ee38bfc1bd00b4788c","condition":"contingent","relevant_dimensions":["antennae","pattern"],"bee_group":{"antennae":"B","wings":"X","pattern":"D","legs":"X"},"bonus":1.3600000000000008},{"rt":757.5999999999767,"stimulus":"bees-with-color/bee-A1DM.svg","response":1,"trial_type":"image-button-response","trial_index":115,"time_elapsed":410521,"internal_node_id":"0.0-4.0-0.54","subject_id":"6101897e75ef2469f3584a13","study_id":"6197b3f67c2b5cd3b6d9596a","session_id":"6197b9ee38bfc1bd00b4788c","condition":"contingent","relevant_dimensions":["antennae","pattern"],"bee_group":{"antennae":"B","wings":"X","pattern":"D","legs":"X"},"action":"avoid","summary":"bad-avoid","bonus":1.3600000000000008},{"rt":301.4000000000233,"stimulus":"\n                    <p><b>Action: <em>avoid</em></b></p>\n                    <p>This is the bee that you just saw.</p>\n                    <img src=\"bees-with-color/bee-A1DM.svg\" width=\"200\">\n                    <p><br>Your bonus pay is unchanged, and remains at $0.96.</p>\n            ","response":0,"trial_type":"html-button-response","trial_index":116,"time_elapsed":410825,"internal_node_id":"0.0-4.0-1.54","subject_id":"6101897e75ef2469f3584a13","study_id":"6197b3f67c2b5cd3b6d9596a","session_id":"6197b9ee38bfc1bd00b4788c","condition":"contingent","relevant_dimensions":["antennae","pattern"],"bee_group":{"antennae":"B","wings":"X","pattern":"D","legs":"X"},"bonus":1.3600000000000008},{"rt":878,"stimulus":"bees-with-color/bee-A2SM.svg","response":0,"trial_type":"image-button-response","trial_index":117,"time_elapsed":411705,"internal_node_id":"0.0-4.0-0.55","subject_id":"6101897e75ef2469f3584a13","study_id":"6197b3f67c2b5cd3b6d9596a","session_id":"6197b9ee38bfc1bd00b4788c","condition":"contingent","relevant_dimensions":["antennae","pattern"],"bee_group":{"antennae":"B","wings":"X","pattern":"D","legs":"X"},"action":"harvest","summary":"good-harvest","bonus":1.3600000000000008},{"rt":340.9000000000233,"stimulus":"\n                    <p><b>Action: <em>harvest</em></b></p>\n                    <p>This is the bee that you just saw.</p>\n                    <img src=\"bees-with-color/bee-A2SM.svg\" width=\"200\">\n                    <p><span class=\"greenText\"><b>Successful harvest!</b></span><br>Your pay has increased by $0.02. Your bonus pay is now $0.98.</p>\n            ","response":0,"trial_type":"html-button-response","trial_index":118,"time_elapsed":412049,"internal_node_id":"0.0-4.0-1.55","subject_id":"6101897e75ef2469f3584a13","study_id":"6197b3f67c2b5cd3b6d9596a","session_id":"6197b9ee38bfc1bd00b4788c","condition":"contingent","relevant_dimensions":["antennae","pattern"],"bee_group":{"antennae":"B","wings":"X","pattern":"D","legs":"X"},"bonus":1.3600000000000008},{"rt":797.7000000000698,"stimulus":"bees-with-color/bee-B1SM.svg","response":0,"trial_type":"image-button-response","trial_index":119,"time_elapsed":412849,"internal_node_id":"0.0-4.0-0.56","subject_id":"6101897e75ef2469f3584a13","study_id":"6197b3f67c2b5cd3b6d9596a","session_id":"6197b9ee38bfc1bd00b4788c","condition":"contingent","relevant_dimensions":["antennae","pattern"],"bee_group":{"antennae":"B","wings":"X","pattern":"D","legs":"X"},"action":"harvest","summary":"good-harvest","bonus":1.3600000000000008},{"rt":669.8000000000466,"stimulus":"\n                    <p><b>Action: <em>harvest</em></b></p>\n                    <p>This is the bee that you just saw.</p>\n                    <img src=\"bees-with-color/bee-B1SM.svg\" width=\"200\">\n                    <p><span class=\"greenText\"><b>Successful harvest!</b></span><br>Your pay has increased by $0.02. Your bonus pay is now $1.00.</p>\n            ","response":0,"trial_type":"html-button-response","trial_index":120,"time_elapsed":413522,"internal_node_id":"0.0-4.0-1.56","subject_id":"6101897e75ef2469f3584a13","study_id":"6197b3f67c2b5cd3b6d9596a","session_id":"6197b9ee38bfc1bd00b4788c","condition":"contingent","relevant_dimensions":["antennae","pattern"],"bee_group":{"antennae":"B","wings":"X","pattern":"D","legs":"X"},"bonus":1.3600000000000008},{"rt":717.4000000000233,"stimulus":"bees-with-color/bee-A1DF.svg","response":1,"trial_type":"image-button-response","trial_index":121,"time_elapsed":414241,"internal_node_id":"0.0-4.0-0.57","subject_id":"6101897e75ef2469f3584a13","study_id":"6197b3f67c2b5cd3b6d9596a","session_id":"6197b9ee38bfc1bd00b4788c","condition":"contingent","relevant_dimensions":["antennae","pattern"],"bee_group":{"antennae":"B","wings":"X","pattern":"D","legs":"X"},"action":"avoid","summary":"bad-avoid","bonus":1.3600000000000008},{"rt":692.8999999999069,"stimulus":"\n                    <p><b>Action: <em>avoid</em></b></p>\n                    <p>This is the bee that you just saw.</p>\n                    <img src=\"bees-with-color/bee-A1DF.svg\" width=\"200\">\n                    <p><br>Your bonus pay is unchanged, and remains at $1.00.</p>\n            ","response":0,"trial_type":"html-button-response","trial_index":122,"time_elapsed":414937,"internal_node_id":"0.0-4.0-1.57","subject_id":"6101897e75ef2469f3584a13","study_id":"6197b3f67c2b5cd3b6d9596a","session_id":"6197b9ee38bfc1bd00b4788c","condition":"contingent","relevant_dimensions":["antennae","pattern"],"bee_group":{"antennae":"B","wings":"X","pattern":"D","legs":"X"},"bonus":1.3600000000000008},{"rt":2641.5999999999767,"stimulus":"bees-with-color/bee-A2DF.svg","response":1,"trial_type":"image-button-response","trial_index":123,"time_elapsed":417581,"internal_node_id":"0.0-4.0-0.58","subject_id":"6101897e75ef2469f3584a13","study_id":"6197b3f67c2b5cd3b6d9596a","session_id":"6197b9ee38bfc1bd00b4788c","condition":"contingent","relevant_dimensions":["antennae","pattern"],"bee_group":{"antennae":"B","wings":"X","pattern":"D","legs":"X"},"action":"avoid","summary":"bad-avoid","bonus":1.3600000000000008},{"rt":601.5,"stimulus":"\n                    <p><b>Action: <em>avoid</em></b></p>\n                    <p>This is the bee that you just saw.</p>\n                    <img src=\"bees-with-color/bee-A2DF.svg\" width=\"200\">\n                    <p><br>Your bonus pay is unchanged, and remains at $1.00.</p>\n            ","response":0,"trial_type":"html-button-response","trial_index":124,"time_elapsed":418185,"internal_node_id":"0.0-4.0-1.58","subject_id":"6101897e75ef2469f3584a13","study_id":"6197b3f67c2b5cd3b6d9596a","session_id":"6197b9ee38bfc1bd00b4788c","condition":"contingent","relevant_dimensions":["antennae","pattern"],"bee_group":{"antennae":"B","wings":"X","pattern":"D","legs":"X"},"bonus":1.3600000000000008},{"rt":1061.3000000000466,"stimulus":"bees-with-color/bee-B2DM.svg","response":1,"trial_type":"image-button-response","trial_index":125,"time_elapsed":419249,"internal_node_id":"0.0-4.0-0.59","subject_id":"6101897e75ef2469f3584a13","study_id":"6197b3f67c2b5cd3b6d9596a","session_id":"6197b9ee38bfc1bd00b4788c","condition":"contingent","relevant_dimensions":["antennae","pattern"],"bee_group":{"antennae":"B","wings":"X","pattern":"D","legs":"X"},"action":"avoid","summary":"good-avoid","bonus":1.3600000000000008},{"rt":525.5,"stimulus":"\n                    <p><b>Action: <em>avoid</em></b></p>\n                    <p>This is the bee that you just saw.</p>\n                    <img src=\"bees-with-color/bee-B2DM.svg\" width=\"200\">\n                    <p><br>Your bonus pay is unchanged, and remains at $1.00.</p>\n            ","response":0,"trial_type":"html-button-response","trial_index":126,"time_elapsed":419777,"internal_node_id":"0.0-4.0-1.59","subject_id":"6101897e75ef2469f3584a13","study_id":"6197b3f67c2b5cd3b6d9596a","session_id":"6197b9ee38bfc1bd00b4788c","condition":"contingent","relevant_dimensions":["antennae","pattern"],"bee_group":{"antennae":"B","wings":"X","pattern":"D","legs":"X"},"bonus":1.3600000000000008},{"rt":765.0999999999767,"stimulus":"bees-with-color/bee-A2SF.svg","response":0,"trial_type":"image-button-response","trial_index":127,"time_elapsed":420545,"internal_node_id":"0.0-4.0-0.60","subject_id":"6101897e75ef2469f3584a13","study_id":"6197b3f67c2b5cd3b6d9596a","session_id":"6197b9ee38bfc1bd00b4788c","condition":"contingent","relevant_dimensions":["antennae","pattern"],"bee_group":{"antennae":"B","wings":"X","pattern":"D","legs":"X"},"action":"harvest","summary":"good-harvest","bonus":1.3600000000000008},{"rt":556.8000000000466,"stimulus":"\n                    <p><b>Action: <em>harvest</em></b></p>\n                    <p>This is the bee that you just saw.</p>\n                    <img src=\"bees-with-color/bee-A2SF.svg\" width=\"200\">\n                    <p><span class=\"greenText\"><b>Successful harvest!</b></span><br>Your pay has increased by $0.02. Your bonus pay is now $1.02.</p>\n            ","response":0,"trial_type":"html-button-response","trial_index":128,"time_elapsed":421105,"internal_node_id":"0.0-4.0-1.60","subject_id":"6101897e75ef2469f3584a13","study_id":"6197b3f67c2b5cd3b6d9596a","session_id":"6197b9ee38bfc1bd00b4788c","condition":"contingent","relevant_dimensions":["antennae","pattern"],"bee_group":{"antennae":"B","wings":"X","pattern":"D","legs":"X"},"bonus":1.3600000000000008},{"rt":969.6000000000931,"stimulus":"bees-with-color/bee-B1SF.svg","response":0,"trial_type":"image-button-response","trial_index":129,"time_elapsed":422077,"internal_node_id":"0.0-4.0-0.61","subject_id":"6101897e75ef2469f3584a13","study_id":"6197b3f67c2b5cd3b6d9596a","session_id":"6197b9ee38bfc1bd00b4788c","condition":"contingent","relevant_dimensions":["antennae","pattern"],"bee_group":{"antennae":"B","wings":"X","pattern":"D","legs":"X"},"action":"harvest","summary":"good-harvest","bonus":1.3600000000000008},{"rt":401.0999999999767,"stimulus":"\n                    <p><b>Action: <em>harvest</em></b></p>\n                    <p>This is the bee that you just saw.</p>\n                    <img src=\"bees-with-color/bee-B1SF.svg\" width=\"200\">\n                    <p><span class=\"greenText\"><b>Successful harvest!</b></span><br>Your pay has increased by $0.02. Your bonus pay is now $1.04.</p>\n            ","response":0,"trial_type":"html-button-response","trial_index":130,"time_elapsed":422481,"internal_node_id":"0.0-4.0-1.61","subject_id":"6101897e75ef2469f3584a13","study_id":"6197b3f67c2b5cd3b6d9596a","session_id":"6197b9ee38bfc1bd00b4788c","condition":"contingent","relevant_dimensions":["antennae","pattern"],"bee_group":{"antennae":"B","wings":"X","pattern":"D","legs":"X"},"bonus":1.3600000000000008},{"rt":581.1999999999534,"stimulus":"bees-with-color/bee-A1SM.svg","response":0,"trial_type":"image-button-response","trial_index":131,"time_elapsed":423065,"internal_node_id":"0.0-4.0-0.62","subject_id":"6101897e75ef2469f3584a13","study_id":"6197b3f67c2b5cd3b6d9596a","session_id":"6197b9ee38bfc1bd00b4788c","condition":"contingent","relevant_dimensions":["antennae","pattern"],"bee_group":{"antennae":"B","wings":"X","pattern":"D","legs":"X"},"action":"harvest","summary":"good-harvest","bonus":1.3600000000000008},{"rt":429,"stimulus":"\n                    <p><b>Action: <em>harvest</em></b></p>\n                    <p>This is the bee that you just saw.</p>\n                    <img src=\"bees-with-color/bee-A1SM.svg\" width=\"200\">\n                    <p><span class=\"greenText\"><b>Successful harvest!</b></span><br>Your pay has increased by $0.02. Your bonus pay is now $1.06.</p>\n            ","response":0,"trial_type":"html-button-response","trial_index":132,"time_elapsed":423497,"internal_node_id":"0.0-4.0-1.62","subject_id":"6101897e75ef2469f3584a13","study_id":"6197b3f67c2b5cd3b6d9596a","session_id":"6197b9ee38bfc1bd00b4788c","condition":"contingent","relevant_dimensions":["antennae","pattern"],"bee_group":{"antennae":"B","wings":"X","pattern":"D","legs":"X"},"bonus":1.3600000000000008},{"rt":749.4000000000233,"stimulus":"bees-with-color/bee-B1DF.svg","response":1,"trial_type":"image-button-response","trial_index":133,"time_elapsed":424249,"internal_node_id":"0.0-4.0-0.63","subject_id":"6101897e75ef2469f3584a13","study_id":"6197b3f67c2b5cd3b6d9596a","session_id":"6197b9ee38bfc1bd00b4788c","condition":"contingent","relevant_dimensions":["antennae","pattern"],"bee_group":{"antennae":"B","wings":"X","pattern":"D","legs":"X"},"action":"avoid","summary":"good-avoid","bonus":1.3600000000000008},{"rt":437,"stimulus":"\n                    <p><b>Action: <em>avoid</em></b></p>\n                    <p>This is the bee that you just saw.</p>\n                    <img src=\"bees-with-color/bee-B1DF.svg\" width=\"200\">\n                    <p><br>Your bonus pay is unchanged, and remains at $1.06.</p>\n            ","response":0,"trial_type":"html-button-response","trial_index":134,"time_elapsed":424689,"internal_node_id":"0.0-4.0-1.63","subject_id":"6101897e75ef2469f3584a13","study_id":"6197b3f67c2b5cd3b6d9596a","session_id":"6197b9ee38bfc1bd00b4788c","condition":"contingent","relevant_dimensions":["antennae","pattern"],"bee_group":{"antennae":"B","wings":"X","pattern":"D","legs":"X"},"bonus":1.3600000000000008},{"rt":9352.699999999953,"stimulus":"You have completed the first part of this experiment.<br><br>You will now begin a shorter second part, in which you will receive no feedback.<br>The same rules regarding bonus pay apply.<br><br>Press any key to begin.","response":"c","trial_type":"html-keyboard-response","trial_index":135,"time_elapsed":434045,"internal_node_id":"0.0-5.0","subject_id":"6101897e75ef2469f3584a13","study_id":"6197b3f67c2b5cd3b6d9596a","session_id":"6197b9ee38bfc1bd00b4788c","condition":"contingent","relevant_dimensions":["antennae","pattern"],"bee_group":{"antennae":"B","wings":"X","pattern":"D","legs":"X"},"bonus":1.3600000000000008},{"rt":4178.099999999977,"stimulus":"bees-with-color/bee-B1SM.svg","response":0,"trial_type":"image-button-response","trial_index":136,"time_elapsed":438241,"internal_node_id":"0.0-6.0-0.0","subject_id":"6101897e75ef2469f3584a13","study_id":"6197b3f67c2b5cd3b6d9596a","session_id":"6197b9ee38bfc1bd00b4788c","condition":"contingent","relevant_dimensions":["antennae","pattern"],"bee_group":{"antennae":"B","wings":"X","pattern":"D","legs":"X"},"bonus":1.3600000000000008},{"rt":994,"stimulus":"bees-with-color/bee-A1DM.svg","response":1,"trial_type":"image-button-response","trial_index":137,"time_elapsed":439241,"internal_node_id":"0.0-6.0-0.1","subject_id":"6101897e75ef2469f3584a13","study_id":"6197b3f67c2b5cd3b6d9596a","session_id":"6197b9ee38bfc1bd00b4788c","condition":"contingent","relevant_dimensions":["antennae","pattern"],"bee_group":{"antennae":"B","wings":"X","pattern":"D","legs":"X"},"bonus":1.3600000000000008},{"rt":683.5999999999767,"stimulus":"bees-with-color/bee-B2DF.svg","response":1,"trial_type":"image-button-response","trial_index":138,"time_elapsed":439929,"internal_node_id":"0.0-6.0-0.2","subject_id":"6101897e75ef2469f3584a13","study_id":"6197b3f67c2b5cd3b6d9596a","session_id":"6197b9ee38bfc1bd00b4788c","condition":"contingent","relevant_dimensions":["antennae","pattern"],"bee_group":{"antennae":"B","wings":"X","pattern":"D","legs":"X"},"bonus":1.3600000000000008},{"rt":651.1999999999534,"stimulus":"bees-with-color/bee-A2SM.svg","response":0,"trial_type":"image-button-response","trial_index":139,"time_elapsed":440585,"internal_node_id":"0.0-6.0-0.3","subject_id":"6101897e75ef2469f3584a13","study_id":"6197b3f67c2b5cd3b6d9596a","session_id":"6197b9ee38bfc1bd00b4788c","condition":"contingent","relevant_dimensions":["antennae","pattern"],"bee_group":{"antennae":"B","wings":"X","pattern":"D","legs":"X"},"bonus":1.3600000000000008},{"rt":603.3999999999069,"stimulus":"bees-with-color/bee-B2DM.svg","response":1,"trial_type":"image-button-response","trial_index":140,"time_elapsed":441193,"internal_node_id":"0.0-6.0-0.4","subject_id":"6101897e75ef2469f3584a13","study_id":"6197b3f67c2b5cd3b6d9596a","session_id":"6197b9ee38bfc1bd00b4788c","condition":"contingent","relevant_dimensions":["antennae","pattern"],"bee_group":{"antennae":"B","wings":"X","pattern":"D","legs":"X"},"bonus":1.3600000000000008},{"rt":587.2999999999302,"stimulus":"bees-with-color/bee-A1SF.svg","response":0,"trial_type":"image-button-response","trial_index":141,"time_elapsed":441785,"internal_node_id":"0.0-6.0-0.5","subject_id":"6101897e75ef2469f3584a13","study_id":"6197b3f67c2b5cd3b6d9596a","session_id":"6197b9ee38bfc1bd00b4788c","condition":"contingent","relevant_dimensions":["antennae","pattern"],"bee_group":{"antennae":"B","wings":"X","pattern":"D","legs":"X"},"bonus":1.3600000000000008},{"rt":800,"stimulus":"bees-with-color/bee-B2SF.svg","response":0,"trial_type":"image-button-response","trial_index":142,"time_elapsed":442589,"internal_node_id":"0.0-6.0-0.6","subject_id":"6101897e75ef2469f3584a13","study_id":"6197b3f67c2b5cd3b6d9596a","session_id":"6197b9ee38bfc1bd00b4788c","condition":"contingent","relevant_dimensions":["antennae","pattern"],"bee_group":{"antennae":"B","wings":"X","pattern":"D","legs":"X"},"bonus":1.3600000000000008},{"rt":719.2000000000698,"stimulus":"bees-with-color/bee-B2SM.svg","response":0,"trial_type":"image-button-response","trial_index":143,"time_elapsed":443313,"internal_node_id":"0.0-6.0-0.7","subject_id":"6101897e75ef2469f3584a13","study_id":"6197b3f67c2b5cd3b6d9596a","session_id":"6197b9ee38bfc1bd00b4788c","condition":"contingent","relevant_dimensions":["antennae","pattern"],"bee_group":{"antennae":"B","wings":"X","pattern":"D","legs":"X"},"bonus":1.3600000000000008},{"rt":611.5,"stimulus":"bees-with-color/bee-A2DM.svg","response":1,"trial_type":"image-button-response","trial_index":144,"time_elapsed":443929,"internal_node_id":"0.0-6.0-0.8","subject_id":"6101897e75ef2469f3584a13","study_id":"6197b3f67c2b5cd3b6d9596a","session_id":"6197b9ee38bfc1bd00b4788c","condition":"contingent","relevant_dimensions":["antennae","pattern"],"bee_group":{"antennae":"B","wings":"X","pattern":"D","legs":"X"},"bonus":1.3600000000000008},{"rt":691.6999999999534,"stimulus":"bees-with-color/bee-B1SF.svg","response":0,"trial_type":"image-button-response","trial_index":145,"time_elapsed":444625,"internal_node_id":"0.0-6.0-0.9","subject_id":"6101897e75ef2469f3584a13","study_id":"6197b3f67c2b5cd3b6d9596a","session_id":"6197b9ee38bfc1bd00b4788c","condition":"contingent","relevant_dimensions":["antennae","pattern"],"bee_group":{"antennae":"B","wings":"X","pattern":"D","legs":"X"},"bonus":1.3600000000000008},{"rt":795.8000000000466,"stimulus":"bees-with-color/bee-A2SF.svg","response":0,"trial_type":"image-button-response","trial_index":146,"time_elapsed":445425,"internal_node_id":"0.0-6.0-0.10","subject_id":"6101897e75ef2469f3584a13","study_id":"6197b3f67c2b5cd3b6d9596a","session_id":"6197b9ee38bfc1bd00b4788c","condition":"contingent","relevant_dimensions":["antennae","pattern"],"bee_group":{"antennae":"B","wings":"X","pattern":"D","legs":"X"},"bonus":1.3600000000000008},{"rt":611.3999999999069,"stimulus":"bees-with-color/bee-B1DF.svg","response":1,"trial_type":"image-button-response","trial_index":147,"time_elapsed":446041,"internal_node_id":"0.0-6.0-0.11","subject_id":"6101897e75ef2469f3584a13","study_id":"6197b3f67c2b5cd3b6d9596a","session_id":"6197b9ee38bfc1bd00b4788c","condition":"contingent","relevant_dimensions":["antennae","pattern"],"bee_group":{"antennae":"B","wings":"X","pattern":"D","legs":"X"},"bonus":1.3600000000000008},{"rt":820.3000000000466,"stimulus":"bees-with-color/bee-A1DF.svg","response":1,"trial_type":"image-button-response","trial_index":148,"time_elapsed":446865,"internal_node_id":"0.0-6.0-0.12","subject_id":"6101897e75ef2469f3584a13","study_id":"6197b3f67c2b5cd3b6d9596a","session_id":"6197b9ee38bfc1bd00b4788c","condition":"contingent","relevant_dimensions":["antennae","pattern"],"bee_group":{"antennae":"B","wings":"X","pattern":"D","legs":"X"},"bonus":1.3600000000000008},{"rt":452.0999999999767,"stimulus":"bees-with-color/bee-B1DM.svg","response":1,"trial_type":"image-button-response","trial_index":149,"time_elapsed":447321,"internal_node_id":"0.0-6.0-0.13","subject_id":"6101897e75ef2469f3584a13","study_id":"6197b3f67c2b5cd3b6d9596a","session_id":"6197b9ee38bfc1bd00b4788c","condition":"contingent","relevant_dimensions":["antennae","pattern"],"bee_group":{"antennae":"B","wings":"X","pattern":"D","legs":"X"},"bonus":1.3600000000000008},{"rt":1067.8000000000466,"stimulus":"bees-with-color/bee-A1SM.svg","response":0,"trial_type":"image-button-response","trial_index":150,"time_elapsed":448393,"internal_node_id":"0.0-6.0-0.14","subject_id":"6101897e75ef2469f3584a13","study_id":"6197b3f67c2b5cd3b6d9596a","session_id":"6197b9ee38bfc1bd00b4788c","condition":"contingent","relevant_dimensions":["antennae","pattern"],"bee_group":{"antennae":"B","wings":"X","pattern":"D","legs":"X"},"bonus":1.3600000000000008},{"rt":516.1000000000931,"stimulus":"bees-with-color/bee-A2DF.svg","response":1,"trial_type":"image-button-response","trial_index":151,"time_elapsed":448913,"internal_node_id":"0.0-6.0-0.15","subject_id":"6101897e75ef2469f3584a13","study_id":"6197b3f67c2b5cd3b6d9596a","session_id":"6197b9ee38bfc1bd00b4788c","condition":"contingent","relevant_dimensions":["antennae","pattern"],"bee_group":{"antennae":"B","wings":"X","pattern":"D","legs":"X"},"bonus":1.3600000000000008},{"rt":812.9000000000233,"stimulus":"bees-with-color/bee-A1DM.svg","response":1,"trial_type":"image-button-response","trial_index":152,"time_elapsed":449729,"internal_node_id":"0.0-6.0-0.16","subject_id":"6101897e75ef2469f3584a13","study_id":"6197b3f67c2b5cd3b6d9596a","session_id":"6197b9ee38bfc1bd00b4788c","condition":"contingent","relevant_dimensions":["antennae","pattern"],"bee_group":{"antennae":"B","wings":"X","pattern":"D","legs":"X"},"bonus":1.3600000000000008},{"rt":604.9000000000233,"stimulus":"bees-with-color/bee-B1DF.svg","response":1,"trial_type":"image-button-response","trial_index":153,"time_elapsed":450337,"internal_node_id":"0.0-6.0-0.17","subject_id":"6101897e75ef2469f3584a13","study_id":"6197b3f67c2b5cd3b6d9596a","session_id":"6197b9ee38bfc1bd00b4788c","condition":"contingent","relevant_dimensions":["antennae","pattern"],"bee_group":{"antennae":"B","wings":"X","pattern":"D","legs":"X"},"bonus":1.3600000000000008},{"rt":476.60000000009313,"stimulus":"bees-with-color/bee-B2DM.svg","response":1,"trial_type":"image-button-response","trial_index":154,"time_elapsed":450817,"internal_node_id":"0.0-6.0-0.18","subject_id":"6101897e75ef2469f3584a13","study_id":"6197b3f67c2b5cd3b6d9596a","session_id":"6197b9ee38bfc1bd00b4788c","condition":"contingent","relevant_dimensions":["antennae","pattern"],"bee_group":{"antennae":"B","wings":"X","pattern":"D","legs":"X"},"bonus":1.3600000000000008},{"rt":452.19999999995343,"stimulus":"bees-with-color/bee-A1DF.svg","response":1,"trial_type":"image-button-response","trial_index":155,"time_elapsed":451273,"internal_node_id":"0.0-6.0-0.19","subject_id":"6101897e75ef2469f3584a13","study_id":"6197b3f67c2b5cd3b6d9596a","session_id":"6197b9ee38bfc1bd00b4788c","condition":"contingent","relevant_dimensions":["antennae","pattern"],"bee_group":{"antennae":"B","wings":"X","pattern":"D","legs":"X"},"bonus":1.3600000000000008},{"rt":829.0999999999767,"stimulus":"bees-with-color/bee-A2SM.svg","response":0,"trial_type":"image-button-response","trial_index":156,"time_elapsed":452105,"internal_node_id":"0.0-6.0-0.20","subject_id":"6101897e75ef2469f3584a13","study_id":"6197b3f67c2b5cd3b6d9596a","session_id":"6197b9ee38bfc1bd00b4788c","condition":"contingent","relevant_dimensions":["antennae","pattern"],"bee_group":{"antennae":"B","wings":"X","pattern":"D","legs":"X"},"bonus":1.3600000000000008},{"rt":708.7000000000698,"stimulus":"bees-with-color/bee-B2SM.svg","response":0,"trial_type":"image-button-response","trial_index":157,"time_elapsed":452817,"internal_node_id":"0.0-6.0-0.21","subject_id":"6101897e75ef2469f3584a13","study_id":"6197b3f67c2b5cd3b6d9596a","session_id":"6197b9ee38bfc1bd00b4788c","condition":"contingent","relevant_dimensions":["antennae","pattern"],"bee_group":{"antennae":"B","wings":"X","pattern":"D","legs":"X"},"bonus":1.3600000000000008},{"rt":948.6000000000931,"stimulus":"bees-with-color/bee-A1SF.svg","response":0,"trial_type":"image-button-response","trial_index":158,"time_elapsed":453769,"internal_node_id":"0.0-6.0-0.22","subject_id":"6101897e75ef2469f3584a13","study_id":"6197b3f67c2b5cd3b6d9596a","session_id":"6197b9ee38bfc1bd00b4788c","condition":"contingent","relevant_dimensions":["antennae","pattern"],"bee_group":{"antennae":"B","wings":"X","pattern":"D","legs":"X"},"bonus":1.3600000000000008},{"rt":800.5,"stimulus":"bees-with-color/bee-A2DM.svg","response":1,"trial_type":"image-button-response","trial_index":159,"time_elapsed":454573,"internal_node_id":"0.0-6.0-0.23","subject_id":"6101897e75ef2469f3584a13","study_id":"6197b3f67c2b5cd3b6d9596a","session_id":"6197b9ee38bfc1bd00b4788c","condition":"contingent","relevant_dimensions":["antennae","pattern"],"bee_group":{"antennae":"B","wings":"X","pattern":"D","legs":"X"},"bonus":1.3600000000000008},{"rt":624.6999999999534,"stimulus":"bees-with-color/bee-A1SM.svg","response":0,"trial_type":"image-button-response","trial_index":160,"time_elapsed":455201,"internal_node_id":"0.0-6.0-0.24","subject_id":"6101897e75ef2469f3584a13","study_id":"6197b3f67c2b5cd3b6d9596a","session_id":"6197b9ee38bfc1bd00b4788c","condition":"contingent","relevant_dimensions":["antennae","pattern"],"bee_group":{"antennae":"B","wings":"X","pattern":"D","legs":"X"},"bonus":1.3600000000000008},{"rt":820.4000000000233,"stimulus":"bees-with-color/bee-B1SF.svg","response":0,"trial_type":"image-button-response","trial_index":161,"time_elapsed":456025,"internal_node_id":"0.0-6.0-0.25","subject_id":"6101897e75ef2469f3584a13","study_id":"6197b3f67c2b5cd3b6d9596a","session_id":"6197b9ee38bfc1bd00b4788c","condition":"contingent","relevant_dimensions":["antennae","pattern"],"bee_group":{"antennae":"B","wings":"X","pattern":"D","legs":"X"},"bonus":1.3600000000000008},{"rt":644.8000000000466,"stimulus":"bees-with-color/bee-B2DF.svg","response":1,"trial_type":"image-button-response","trial_index":162,"time_elapsed":456673,"internal_node_id":"0.0-6.0-0.26","subject_id":"6101897e75ef2469f3584a13","study_id":"6197b3f67c2b5cd3b6d9596a","session_id":"6197b9ee38bfc1bd00b4788c","condition":"contingent","relevant_dimensions":["antennae","pattern"],"bee_group":{"antennae":"B","wings":"X","pattern":"D","legs":"X"},"bonus":1.3600000000000008},{"rt":772.4000000000233,"stimulus":"bees-with-color/bee-B1DM.svg","response":1,"trial_type":"image-button-response","trial_index":163,"time_elapsed":457449,"internal_node_id":"0.0-6.0-0.27","subject_id":"6101897e75ef2469f3584a13","study_id":"6197b3f67c2b5cd3b6d9596a","session_id":"6197b9ee38bfc1bd00b4788c","condition":"contingent","relevant_dimensions":["antennae","pattern"],"bee_group":{"antenna