[{"success":true,"trial_type":"fullscreen","trial_index":0,"time_elapsed":3936,"internal_node_id":"0.0-0.0","subject_id":"5f8a2e665c8bdc0df255fdb8","study_id":"6197b3f67c2b5cd3b6d9596a","session_id":"6197b5ae11888c40ce41ab46","condition":"full-information","relevant_dimensions":["wings","legs"],"bee_group":{"antennae":"X","wings":"1","pattern":"X","legs":"M"},"bonus":0.04000000000000001},{"success":true,"timeout":false,"failed_images":[],"failed_audio":[],"failed_video":[],"trial_type":"preload","trial_index":1,"time_elapsed":5891,"internal_node_id":"0.0-1.0","subject_id":"5f8a2e665c8bdc0df255fdb8","study_id":"6197b3f67c2b5cd3b6d9596a","session_id":"6197b5ae11888c40ce41ab46","condition":"full-information","relevant_dimensions":["wings","legs"],"bee_group":{"antennae":"X","wings":"1","pattern":"X","legs":"M"},"bonus":0.04000000000000001},{"rt":2502.600000000093,"stimulus":"Welcome! Press any key to begin.","response":"h","trial_type":"html-keyboard-response","trial_index":2,"time_elapsed":8394,"internal_node_id":"0.0-2.0","subject_id":"5f8a2e665c8bdc0df255fdb8","study_id":"6197b3f67c2b5cd3b6d9596a","session_id":"6197b5ae11888c40ce41ab46","condition":"full-information","relevant_dimensions":["wings","legs"],"bee_group":{"antennae":"X","wings":"1","pattern":"X","legs":"M"},"bonus":0.04000000000000001},{"view_history":[{"page_index":0,"viewing_time":5932.699999999721},{"page_index":1,"viewing_time":13758.80000000028},{"page_index":2,"viewing_time":13880},{"page_index":3,"viewing_time":18430.899999999907},{"page_index":4,"viewing_time":9394.799999999814},{"page_index":5,"viewing_time":8502.100000000093},{"page_index":6,"viewing_time":10259},{"page_index":7,"viewing_time":5491},{"page_index":8,"viewing_time":3951},{"page_index":9,"viewing_time":2939},{"page_index":10,"viewing_time":2222.100000000093},{"page_index":11,"viewing_time":10993.799999999814},{"page_index":12,"viewing_time":9753.100000000093},{"page_index":13,"viewing_time":1288.8999999999069},{"page_index":14,"viewing_time":2770.9000000003725}],"rt":119568.5,"trial_type":"instructions","trial_index":3,"time_elapsed":127963,"internal_node_id":"0.0-3.0-0.0","subject_id":"5f8a2e665c8bdc0df255fdb8","study_id":"6197b3f67c2b5cd3b6d9596a","session_id":"6197b5ae11888c40ce41ab46","condition":"full-information","relevant_dimensions":["wings","legs"],"bee_group":{"antennae":"X","wings":"1","pattern":"X","legs":"M"},"bonus":0.04000000000000001},{"rt":14090.299999999814,"response":{"Q0":["Two or six legs","Stripes or spots on body","Single or double wings","Antennae or no antennae"]},"question_order":[0],"trial_type":"survey-multi-select","trial_index":4,"time_elapsed":142057,"internal_node_id":"0.0-3.0-1.0","subject_id":"5f8a2e665c8bdc0df255fdb8","study_id":"6197b3f67c2b5cd3b6d9596a","session_id":"6197b5ae11888c40ce41ab46","condition":"full-information","relevant_dimensions":["wings","legs"],"bee_group":{"antennae":"X","wings":"1","pattern":"X","legs":"M"},"correct":true,"bonus":0.04000000000000001},{"rt":21585.899999999907,"response":{"Q1":"No.","Q2":"Based on the four features of the bee.","Q3":"You learn if it was friendly or dangerous, but do not alter your bonus."},"question_order":[0,1,2],"trial_type":"survey-multi-choice","trial_index":5,"time_elapsed":163644,"internal_node_id":"0.0-3.0-2.0","subject_id":"5f8a2e665c8bdc0df255fdb8","study_id":"6197b3f67c2b5cd3b6d9596a","session_id":"6197b5ae11888c40ce41ab46","condition":"full-information","relevant_dimensions":["wings","legs"],"bee_group":{"antennae":"X","wings":"1","pattern":"X","legs":"M"},"correct":true,"bonus":0.04000000000000001},{"rt":3605.399999999907,"stimulus":"<p>Congrats, you got everything right<br>When you're ready, click the button below to continue to the experiment.</p>","response":0,"trial_type":"html-button-response","trial_index":6,"time_elapsed":167251,"internal_node_id":"0.0-3.0-3.0","subject_id":"5f8a2e665c8bdc0df255fdb8","study_id":"6197b3f67c2b5cd3b6d9596a","session_id":"6197b5ae11888c40ce41ab46","condition":"full-information","relevant_dimensions":["wings","legs"],"bee_group":{"antennae":"X","wings":"1","pattern":"X","legs":"M"},"bonus":0.04000000000000001},{"rt":4745.5999999996275,"stimulus":"bees-with-color/bee-A1DM.svg","response":1,"trial_type":"image-button-response","trial_index":7,"time_elapsed":171999,"internal_node_id":"0.0-4.0-0.0","subject_id":"5f8a2e665c8bdc0df255fdb8","study_id":"6197b3f67c2b5cd3b6d9596a","session_id":"6197b5ae11888c40ce41ab46","condition":"full-information","relevant_dimensions":["wings","legs"],"bee_group":{"antennae":"X","wings":"1","pattern":"X","legs":"M"},"action":"avoid","summary":"good-avoid","bonus":0.04000000000000001},{"rt":8884.700000000186,"stimulus":"\n                    <p><b>Action: <em>avoid</em></b></p>\n                    <p>This is the bee that you just saw.</p>\n                    <img src=\"bees-with-color/bee-A1DM.svg\" width=\"200\">\n                    <p><span class=\"greenText\">Good choice!</span>  This bee would have stung you.<br>Your bonus pay is unchanged, and remains at $0.54.</p>\n            ","response":0,"trial_type":"html-button-response","trial_index":8,"time_elapsed":180886,"internal_node_id":"0.0-4.0-1.0","subject_id":"5f8a2e665c8bdc0df255fdb8","study_id":"6197b3f67c2b5cd3b6d9596a","session_id":"6197b5ae11888c40ce41ab46","condition":"full-information","relevant_dimensions":["wings","legs"],"bee_group":{"antennae":"X","wings":"1","pattern":"X","legs":"M"},"bonus":0.04000000000000001},{"rt":1836.1000000000931,"stimulus":"bees-with-color/bee-A2DM.svg","response":1,"trial_type":"image-button-response","trial_index":9,"time_elapsed":182724,"internal_node_id":"0.0-4.0-0.1","subject_id":"5f8a2e665c8bdc0df255fdb8","study_id":"6197b3f67c2b5cd3b6d9596a","session_id":"6197b5ae11888c40ce41ab46","condition":"full-information","relevant_dimensions":["wings","legs"],"bee_group":{"antennae":"X","wings":"1","pattern":"X","legs":"M"},"action":"avoid","summary":"bad-avoid","bonus":0.04000000000000001},{"rt":7320.299999999814,"stimulus":"\n                    <p><b>Action: <em>avoid</em></b></p>\n                    <p>This is the bee that you just saw.</p>\n                    <img src=\"bees-with-color/bee-A2DM.svg\" width=\"200\">\n                    <p><span class=\"redText\">Bad choice,</span> the bee was friendly.<br>Your bonus pay is unchanged, and remains at $0.54.</p>\n            ","response":0,"trial_type":"html-button-response","trial_index":10,"time_elapsed":190046,"internal_node_id":"0.0-4.0-1.1","subject_id":"5f8a2e665c8bdc0df255fdb8","study_id":"6197b3f67c2b5cd3b6d9596a","session_id":"6197b5ae11888c40ce41ab46","condition":"full-information","relevant_dimensions":["wings","legs"],"bee_group":{"antennae":"X","wings":"1","pattern":"X","legs":"M"},"bonus":0.04000000000000001},{"rt":4858.4000000003725,"stimulus":"bees-with-color/bee-A1DF.svg","response":0,"trial_type":"image-button-response","trial_index":11,"time_elapsed":194906,"internal_node_id":"0.0-4.0-0.2","subject_id":"5f8a2e665c8bdc0df255fdb8","study_id":"6197b3f67c2b5cd3b6d9596a","session_id":"6197b5ae11888c40ce41ab46","condition":"full-information","relevant_dimensions":["wings","legs"],"bee_group":{"antennae":"X","wings":"1","pattern":"X","legs":"M"},"action":"harvest","summary":"good-harvest","bonus":0.04000000000000001},{"rt":2020.7000000001863,"stimulus":"\n                    <p><b>Action: <em>harvest</em></b></p>\n                    <p>This is the bee that you just saw.</p>\n                    <img src=\"bees-with-color/bee-A1DF.svg\" width=\"200\">\n                    <p><span class=\"greenText\"><b>Successful harvest!</b></span><br>Your pay has increased by $0.02. Your bonus pay is now $0.56.</p>\n            ","response":0,"trial_type":"html-button-response","trial_index":12,"time_elapsed":196928,"internal_node_id":"0.0-4.0-1.2","subject_id":"5f8a2e665c8bdc0df255fdb8","study_id":"6197b3f67c2b5cd3b6d9596a","session_id":"6197b5ae11888c40ce41ab46","condition":"full-information","relevant_dimensions":["wings","legs"],"bee_group":{"antennae":"X","wings":"1","pattern":"X","legs":"M"},"bonus":0.04000000000000001},{"rt":2611.7000000001863,"stimulus":"bees-with-color/bee-B2SM.svg","response":0,"trial_type":"image-button-response","trial_index":13,"time_elapsed":199541,"internal_node_id":"0.0-4.0-0.3","subject_id":"5f8a2e665c8bdc0df255fdb8","study_id":"6197b3f67c2b5cd3b6d9596a","session_id":"6197b5ae11888c40ce41ab46","condition":"full-information","relevant_dimensions":["wings","legs"],"bee_group":{"antennae":"X","wings":"1","pattern":"X","legs":"M"},"action":"harvest","summary":"good-harvest","bonus":0.04000000000000001},{"rt":1136.5999999996275,"stimulus":"\n                    <p><b>Action: <em>harvest</em></b></p>\n                    <p>This is the bee that you just saw.</p>\n                    <img src=\"bees-with-color/bee-B2SM.svg\" width=\"200\">\n                    <p><span class=\"greenText\"><b>Successful harvest!</b></span><br>Your pay has increased by $0.02. Your bonus pay is now $0.58.</p>\n            ","response":0,"trial_type":"html-button-response","trial_index":14,"time_elapsed":200679,"internal_node_id":"0.0-4.0-1.3","subject_id":"5f8a2e665c8bdc0df255fdb8","study_id":"6197b3f67c2b5cd3b6d9596a","session_id":"6197b5ae11888c40ce41ab46","condition":"full-information","relevant_dimensions":["wings","legs"],"bee_group":{"antennae":"X","wings":"1","pattern":"X","legs":"M"},"bonus":0.04000000000000001},{"rt":1217.3999999999069,"stimulus":"bees-with-color/bee-A2SM.svg","response":0,"trial_type":"image-button-response","trial_index":15,"time_elapsed":201898,"internal_node_id":"0.0-4.0-0.4","subject_id":"5f8a2e665c8bdc0df255fdb8","study_id":"6197b3f67c2b5cd3b6d9596a","session_id":"6197b5ae11888c40ce41ab46","condition":"full-information","relevant_dimensions":["wings","legs"],"bee_group":{"antennae":"X","wings":"1","pattern":"X","legs":"M"},"action":"harvest","summary":"good-harvest","bonus":0.04000000000000001},{"rt":858.7000000001863,"stimulus":"\n                    <p><b>Action: <em>harvest</em></b></p>\n                    <p>This is the bee that you just saw.</p>\n                    <img src=\"bees-with-color/bee-A2SM.svg\" width=\"200\">\n                    <p><span class=\"greenText\"><b>Successful harvest!</b></span><br>Your pay has increased by $0.02. Your bonus pay is now $0.60.</p>\n            ","response":0,"trial_type":"html-button-response","trial_index":16,"time_elapsed":202758,"internal_node_id":"0.0-4.0-1.4","subject_id":"5f8a2e665c8bdc0df255fdb8","study_id":"6197b3f67c2b5cd3b6d9596a","session_id":"6197b5ae11888c40ce41ab46","condition":"full-information","relevant_dimensions":["wings","legs"],"bee_group":{"antennae":"X","wings":"1","pattern":"X","legs":"M"},"bonus":0.04000000000000001},{"rt":1373,"stimulus":"bees-with-color/bee-B1DF.svg","response":0,"trial_type":"image-button-response","trial_index":17,"time_elapsed":204132,"internal_node_id":"0.0-4.0-0.5","subject_id":"5f8a2e665c8bdc0df255fdb8","study_id":"6197b3f67c2b5cd3b6d9596a","session_id":"6197b5ae11888c40ce41ab46","condition":"full-information","relevant_dimensions":["wings","legs"],"bee_group":{"antennae":"X","wings":"1","pattern":"X","legs":"M"},"action":"harvest","summary":"good-harvest","bonus":0.04000000000000001},{"rt":942.7000000001863,"stimulus":"\n                    <p><b>Action: <em>harvest</em></b></p>\n                    <p>This is the bee that you just saw.</p>\n                    <img src=\"bees-with-color/bee-B1DF.svg\" width=\"200\">\n                    <p><span class=\"greenText\"><b>Successful harvest!</b></span><br>Your pay has increased by $0.02. Your bonus pay is now $0.62.</p>\n            ","response":0,"trial_type":"html-button-response","trial_index":18,"time_elapsed":205076,"internal_node_id":"0.0-4.0-1.5","subject_id":"5f8a2e665c8bdc0df255fdb8","study_id":"6197b3f67c2b5cd3b6d9596a","session_id":"6197b5ae11888c40ce41ab46","condition":"full-information","relevant_dimensions":["wings","legs"],"bee_group":{"antennae":"X","wings":"1","pattern":"X","legs":"M"},"bonus":0.04000000000000001},{"rt":2079.7000000001863,"stimulus":"bees-with-color/bee-B1SM.svg","response":0,"trial_type":"image-button-response","trial_index":19,"time_elapsed":207157,"internal_node_id":"0.0-4.0-0.6","subject_id":"5f8a2e665c8bdc0df255fdb8","study_id":"6197b3f67c2b5cd3b6d9596a","session_id":"6197b5ae11888c40ce41ab46","condition":"full-information","relevant_dimensions":["wings","legs"],"bee_group":{"antennae":"X","wings":"1","pattern":"X","legs":"M"},"action":"harvest","summary":"bad-harvest","bonus":0.04000000000000001},{"rt":6890.9000000003725,"stimulus":"\n                    <p><b>Action: <em>harvest</em></b></p>\n                    <p>This is the bee that you just saw.</p>\n                    <img src=\"bees-with-color/bee-B1SM.svg\" width=\"200\">\n                    <p><span class=\"redText\">Bad choice, the bee was angry.</span><br><b>You have been stung!</b><br>Your pay has been decreased by $0.10. Your bonus pay is now $0.52.</p>\n            ","response":0,"trial_type":"html-button-response","trial_index":20,"time_elapsed":214049,"internal_node_id":"0.0-4.0-1.6","subject_id":"5f8a2e665c8bdc0df255fdb8","study_id":"6197b3f67c2b5cd3b6d9596a","session_id":"6197b5ae11888c40ce41ab46","condition":"full-information","relevant_dimensions":["wings","legs"],"bee_group":{"antennae":"X","wings":"1","pattern":"X","legs":"M"},"bonus":0.04000000000000001},{"rt":1917.6000000000931,"stimulus":"bees-with-color/bee-A2DF.svg","response":0,"trial_type":"image-button-response","trial_index":21,"time_elapsed":215969,"internal_node_id":"0.0-4.0-0.7","subject_id":"5f8a2e665c8bdc0df255fdb8","study_id":"6197b3f67c2b5cd3b6d9596a","session_id":"6197b5ae11888c40ce41ab46","condition":"full-information","relevant_dimensions":["wings","legs"],"bee_group":{"antennae":"X","wings":"1","pattern":"X","legs":"M"},"action":"harvest","summary":"good-harvest","bonus":0.04000000000000001},{"rt":874.4000000003725,"stimulus":"\n                    <p><b>Action: <em>harvest</em></b></p>\n                    <p>This is the bee that you just saw.</p>\n                    <img src=\"bees-with-color/bee-A2DF.svg\" width=\"200\">\n                    <p><span class=\"greenText\"><b>Successful harvest!</b></span><br>Your pay has increased by $0.02. Your bonus pay is now $0.54.</p>\n            ","response":0,"trial_type":"html-button-response","trial_index":22,"time_elapsed":216844,"internal_node_id":"0.0-4.0-1.7","subject_id":"5f8a2e665c8bdc0df255fdb8","study_id":"6197b3f67c2b5cd3b6d9596a","session_id":"6197b5ae11888c40ce41ab46","condition":"full-information","relevant_dimensions":["wings","legs"],"bee_group":{"antennae":"X","wings":"1","pattern":"X","legs":"M"},"bonus":0.04000000000000001},{"rt":2309,"stimulus":"bees-with-color/bee-B2SF.svg","response":1,"trial_type":"image-button-response","trial_index":23,"time_elapsed":219155,"internal_node_id":"0.0-4.0-0.8","subject_id":"5f8a2e665c8bdc0df255fdb8","study_id":"6197b3f67c2b5cd3b6d9596a","session_id":"6197b5ae11888c40ce41ab46","condition":"full-information","relevant_dimensions":["wings","legs"],"bee_group":{"antennae":"X","wings":"1","pattern":"X","legs":"M"},"action":"avoid","summary":"bad-avoid","bonus":0.04000000000000001},{"rt":1293.8000000002794,"stimulus":"\n                    <p><b>Action: <em>avoid</em></b></p>\n                    <p>This is the bee that you just saw.</p>\n                    <img src=\"bees-with-color/bee-B2SF.svg\" width=\"200\">\n                    <p><span class=\"redText\">Bad choice,</span> the bee was friendly.<br>Your bonus pay is unchanged, and remains at $0.54.</p>\n            ","response":0,"trial_type":"html-button-response","trial_index":24,"time_elapsed":220450,"internal_node_id":"0.0-4.0-1.8","subject_id":"5f8a2e665c8bdc0df255fdb8","study_id":"6197b3f67c2b5cd3b6d9596a","session_id":"6197b5ae11888c40ce41ab46","condition":"full-information","relevant_dimensions":["wings","legs"],"bee_group":{"antennae":"X","wings":"1","pattern":"X","legs":"M"},"bonus":0.04000000000000001},{"rt":1676.6000000000931,"stimulus":"bees-with-color/bee-A2SF.svg","response":1,"trial_type":"image-button-response","trial_index":25,"time_elapsed":222128,"internal_node_id":"0.0-4.0-0.9","subject_id":"5f8a2e665c8bdc0df255fdb8","study_id":"6197b3f67c2b5cd3b6d9596a","session_id":"6197b5ae11888c40ce41ab46","condition":"full-information","relevant_dimensions":["wings","legs"],"bee_group":{"antennae":"X","wings":"1","pattern":"X","legs":"M"},"action":"avoid","summary":"bad-avoid","bonus":0.04000000000000001},{"rt":798.5,"stimulus":"\n                    <p><b>Action: <em>avoid</em></b></p>\n                    <p>This is the bee that you just saw.</p>\n                    <img src=\"bees-with-color/bee-A2SF.svg\" width=\"200\">\n                    <p><span class=\"redText\">Bad choice,</span> the bee was friendly.<br>Your bonus pay is unchanged, and remains at $0.54.</p>\n            ","response":0,"trial_type":"html-button-response","trial_index":26,"time_elapsed":222928,"internal_node_id":"0.0-4.0-1.9","subject_id":"5f8a2e665c8bdc0df255fdb8","study_id":"6197b3f67c2b5cd3b6d9596a","session_id":"6197b5ae11888c40ce41ab46","condition":"full-information","relevant_dimensions":["wings","legs"],"bee_group":{"antennae":"X","wings":"1","pattern":"X","legs":"M"},"bonus":0.04000000000000001},{"rt":2493.7999999998137,"stimulus":"bees-with-color/bee-B1DM.svg","response":0,"trial_type":"image-button-response","trial_index":27,"time_elapsed":225423,"internal_node_id":"0.0-4.0-0.10","subject_id":"5f8a2e665c8bdc0df255fdb8","study_id":"6197b3f67c2b5cd3b6d9596a","session_id":"6197b5ae11888c40ce41ab46","condition":"full-information","relevant_dimensions":["wings","legs"],"bee_group":{"antennae":"X","wings":"1","pattern":"X","legs":"M"},"action":"harvest","summary":"bad-harvest","bonus":0.04000000000000001},{"rt":886.6000000000931,"stimulus":"\n                    <p><b>Action: <em>harvest</em></b></p>\n                    <p>This is the bee that you just saw.</p>\n                    <img src=\"bees-with-color/bee-B1DM.svg\" width=\"200\">\n                    <p><span class=\"redText\">Bad choice, the bee was angry.</span><br><b>You have been stung!</b><br>Your pay has been decreased by $0.10. Your bonus pay is now $0.44.</p>\n            ","response":0,"trial_type":"html-button-response","trial_index":28,"time_elapsed":226311,"internal_node_id":"0.0-4.0-1.10","subject_id":"5f8a2e665c8bdc0df255fdb8","study_id":"6197b3f67c2b5cd3b6d9596a","session_id":"6197b5ae11888c40ce41ab46","condition":"full-information","relevant_dimensions":["wings","legs"],"bee_group":{"antennae":"X","wings":"1","pattern":"X","legs":"M"},"bonus":0.04000000000000001},{"rt":1442.7000000001863,"stimulus":"bees-with-color/bee-B2DM.svg","response":0,"trial_type":"image-button-response","trial_index":29,"time_elapsed":227755,"internal_node_id":"0.0-4.0-0.11","subject_id":"5f8a2e665c8bdc0df255fdb8","study_id":"6197b3f67c2b5cd3b6d9596a","session_id":"6197b5ae11888c40ce41ab46","condition":"full-information","relevant_dimensions":["wings","legs"],"bee_group":{"antennae":"X","wings":"1","pattern":"X","legs":"M"},"action":"harvest","summary":"good-harvest","bonus":0.04000000000000001},{"rt":731,"stimulus":"\n                    <p><b>Action: <em>harvest</em></b></p>\n                    <p>This is the bee that you just saw.</p>\n                    <img src=\"bees-with-color/bee-B2DM.svg\" width=\"200\">\n                    <p><span class=\"greenText\"><b>Successful harvest!</b></span><br>Your pay has increased by $0.02. Your bonus pay is now $0.46.</p>\n            ","response":0,"trial_type":"html-button-response","trial_index":30,"time_elapsed":228488,"internal_node_id":"0.0-4.0-1.11","subject_id":"5f8a2e665c8bdc0df255fdb8","study_id":"6197b3f67c2b5cd3b6d9596a","session_id":"6197b5ae11888c40ce41ab46","condition":"full-information","relevant_dimensions":["wings","legs"],"bee_group":{"antennae":"X","wings":"1","pattern":"X","legs":"M"},"bonus":0.04000000000000001},{"rt":590.3999999999069,"stimulus":"bees-with-color/bee-B2DF.svg","response":0,"trial_type":"image-button-response","trial_index":31,"time_elapsed":229079,"internal_node_id":"0.0-4.0-0.12","subject_id":"5f8a2e665c8bdc0df255fdb8","study_id":"6197b3f67c2b5cd3b6d9596a","session_id":"6197b5ae11888c40ce41ab46","condition":"full-information","relevant_dimensions":["wings","legs"],"bee_group":{"antennae":"X","wings":"1","pattern":"X","legs":"M"},"action":"harvest","summary":"good-harvest","bonus":0.04000000000000001},{"rt":702.4000000003725,"stimulus":"\n                    <p><b>Action: <em>harvest</em></b></p>\n                    <p>This is the bee that you just saw.</p>\n                    <img src=\"bees-with-color/bee-B2DF.svg\" width=\"200\">\n                    <p><span class=\"greenText\"><b>Successful harvest!</b></span><br>Your pay has increased by $0.02. Your bonus pay is now $0.48.</p>\n            ","response":0,"trial_type":"html-button-response","trial_index":32,"time_elapsed":229783,"internal_node_id":"0.0-4.0-1.12","subject_id":"5f8a2e665c8bdc0df255fdb8","study_id":"6197b3f67c2b5cd3b6d9596a","session_id":"6197b5ae11888c40ce41ab46","condition":"full-information","relevant_dimensions":["wings","legs"],"bee_group":{"antennae":"X","wings":"1","pattern":"X","legs":"M"},"bonus":0.04000000000000001},{"rt":616,"stimulus":"bees-with-color/bee-B1SF.svg","response":0,"trial_type":"image-button-response","trial_index":33,"time_elapsed":230400,"internal_node_id":"0.0-4.0-0.13","subject_id":"5f8a2e665c8bdc0df255fdb8","study_id":"6197b3f67c2b5cd3b6d9596a","session_id":"6197b5ae11888c40ce41ab46","condition":"full-information","relevant_dimensions":["wings","legs"],"bee_group":{"antennae":"X","wings":"1","pattern":"X","legs":"M"},"action":"harvest","summary":"good-harvest","bonus":0.04000000000000001},{"rt":674.6000000000931,"stimulus":"\n                    <p><b>Action: <em>harvest</em></b></p>\n                    <p>This is the bee that you just saw.</p>\n                    <img src=\"bees-with-color/bee-B1SF.svg\" width=\"200\">\n                    <p><span class=\"greenText\"><b>Successful harvest!</b></span><br>Your pay has increased by $0.02. Your bonus pay is now $0.50.</p>\n            ","response":0,"trial_type":"html-button-response","trial_index":34,"time_elapsed":231076,"internal_node_id":"0.0-4.0-1.13","subject_id":"5f8a2e665c8bdc0df255fdb8","study_id":"6197b3f67c2b5cd3b6d9596a","session_id":"6197b5ae11888c40ce41ab46","condition":"full-information","relevant_dimensions":["wings","legs"],"bee_group":{"antennae":"X","wings":"1","pattern":"X","legs":"M"},"bonus":0.04000000000000001},{"rt":621,"stimulus":"bees-with-color/bee-A1SM.svg","response":0,"trial_type":"image-button-response","trial_index":35,"time_elapsed":231698,"internal_node_id":"0.0-4.0-0.14","subject_id":"5f8a2e665c8bdc0df255fdb8","study_id":"6197b3f67c2b5cd3b6d9596a","session_id":"6197b5ae11888c40ce41ab46","condition":"full-information","relevant_dimensions":["wings","legs"],"bee_group":{"antennae":"X","wings":"1","pattern":"X","legs":"M"},"action":"harvest","summary":"bad-harvest","bonus":0.04000000000000001},{"rt":893.2999999998137,"stimulus":"\n                    <p><b>Action: <em>harvest</em></b></p>\n                    <p>This is the bee that you just saw.</p>\n                    <img src=\"bees-with-color/bee-A1SM.svg\" width=\"200\">\n                    <p><span class=\"redText\">Bad choice, the bee was angry.</span><br><b>You have been stung!</b><br>Your pay has been decreased by $0.10. Your bonus pay is now $0.40.</p>\n            ","response":0,"trial_type":"html-button-response","trial_index":36,"time_elapsed":232593,"internal_node_id":"0.0-4.0-1.14","subject_id":"5f8a2e665c8bdc0df255fdb8","study_id":"6197b3f67c2b5cd3b6d9596a","session_id":"6197b5ae11888c40ce41ab46","condition":"full-information","relevant_dimensions":["wings","legs"],"bee_group":{"antennae":"X","wings":"1","pattern":"X","legs":"M"},"bonus":0.04000000000000001},{"rt":841.1000000000931,"stimulus":"bees-with-color/bee-A1SF.svg","response":0,"trial_type":"image-button-response","trial_index":37,"time_elapsed":233435,"internal_node_id":"0.0-4.0-0.15","subject_id":"5f8a2e665c8bdc0df255fdb8","study_id":"6197b3f67c2b5cd3b6d9596a","session_id":"6197b5ae11888c40ce41ab46","condition":"full-information","relevant_dimensions":["wings","legs"],"bee_group":{"antennae":"X","wings":"1","pattern":"X","legs":"M"},"action":"harvest","summary":"good-harvest","bonus":0.04000000000000001},{"rt":520.5,"stimulus":"\n                    <p><b>Action: <em>harvest</em></b></p>\n                    <p>This is the bee that you just saw.</p>\n                    <img src=\"bees-with-color/bee-A1SF.svg\" width=\"200\">\n                    <p><span class=\"greenText\"><b>Successful harvest!</b></span><br>Your pay has increased by $0.02. Your bonus pay is now $0.42.</p>\n            ","response":0,"trial_type":"html-button-response","trial_index":38,"time_elapsed":233957,"internal_node_id":"0.0-4.0-1.15","subject_id":"5f8a2e665c8bdc0df255fdb8","study_id":"6197b3f67c2b5cd3b6d9596a","session_id":"6197b5ae11888c40ce41ab46","condition":"full-information","relevant_dimensions":["wings","legs"],"bee_group":{"antennae":"X","wings":"1","pattern":"X","legs":"M"},"bonus":0.04000000000000001},{"rt":409.20000000018626,"stimulus":"bees-with-color/bee-B2SM.svg","response":0,"trial_type":"image-button-response","trial_index":39,"time_elapsed":234367,"internal_node_id":"0.0-4.0-0.16","subject_id":"5f8a2e665c8bdc0df255fdb8","study_id":"6197b3f67c2b5cd3b6d9596a","session_id":"6197b5ae11888c40ce41ab46","condition":"full-information","relevant_dimensions":["wings","legs"],"bee_group":{"antennae":"X","wings":"1","pattern":"X","legs":"M"},"action":"harvest","summary":"good-harvest","bonus":0.04000000000000001},{"rt":594.7999999998137,"stimulus":"\n                    <p><b>Action: <em>harvest</em></b></p>\n                    <p>This is the bee that you just saw.</p>\n                    <img src=\"bees-with-color/bee-B2SM.svg\" width=\"200\">\n                    <p><span class=\"greenText\"><b>Successful harvest!</b></span><br>Your pay has increased by $0.02. Your bonus pay is now $0.44.</p>\n            ","response":0,"trial_type":"html-button-response","trial_index":40,"time_elapsed":234963,"internal_node_id":"0.0-4.0-1.16","subject_id":"5f8a2e665c8bdc0df255fdb8","study_id":"6197b3f67c2b5cd3b6d9596a","session_id":"6197b5ae11888c40ce41ab46","condition":"full-information","relevant_dimensions":["wings","legs"],"bee_group":{"antennae":"X","wings":"1","pattern":"X","legs":"M"},"bonus":0.04000000000000001},{"rt":504.10000000009313,"stimulus":"bees-with-color/bee-B2SF.svg","response":0,"trial_type":"image-button-response","trial_index":41,"time_elapsed":235468,"internal_node_id":"0.0-4.0-0.17","subject_id":"5f8a2e665c8bdc0df255fdb8","study_id":"6197b3f67c2b5cd3b6d9596a","session_id":"6197b5ae11888c40ce41ab46","condition":"full-information","relevant_dimensions":["wings","legs"],"bee_group":{"antennae":"X","wings":"1","pattern":"X","legs":"M"},"action":"harvest","summary":"good-harvest","bonus":0.04000000000000001},{"rt":800.6000000000931,"stimulus":"\n                    <p><b>Action: <em>harvest</em></b></p>\n                    <p>This is the bee that you just saw.</p>\n                    <img src=\"bees-with-color/bee-B2SF.svg\" width=\"200\">\n                    <p><span class=\"greenText\"><b>Successful harvest!</b></span><br>Your pay has increased by $0.02. Your bonus pay is now $0.46.</p>\n            ","response":0,"trial_type":"html-button-response","trial_index":42,"time_elapsed":236270,"internal_node_id":"0.0-4.0-1.17","subject_id":"5f8a2e665c8bdc0df255fdb8","study_id":"6197b3f67c2b5cd3b6d9596a","session_id":"6197b5ae11888c40ce41ab46","condition":"full-information","relevant_dimensions":["wings","legs"],"bee_group":{"antennae":"X","wings":"1","pattern":"X","legs":"M"},"bonus":0.04000000000000001},{"rt":1182.8999999999069,"stimulus":"bees-with-color/bee-B1SF.svg","response":0,"trial_type":"image-button-response","trial_index":43,"time_elapsed":237454,"internal_node_id":"0.0-4.0-0.18","subject_id":"5f8a2e665c8bdc0df255fdb8","study_id":"6197b3f67c2b5cd3b6d9596a","session_id":"6197b5ae11888c40ce41ab46","condition":"full-information","relevant_dimensions":["wings","legs"],"bee_group":{"antennae":"X","wings":"1","pattern":"X","legs":"M"},"action":"harvest","summary":"good-harvest","bonus":0.04000000000000001},{"rt":466.10000000009313,"stimulus":"\n                    <p><b>Action: <em>harvest</em></b></p>\n                    <p>This is the bee that you just saw.</p>\n                    <img src=\"bees-with-color/bee-B1SF.svg\" width=\"200\">\n                    <p><span class=\"greenText\"><b>Successful harvest!</b></span><br>Your pay has increased by $0.02. Your bonus pay is now $0.48.</p>\n            ","response":0,"trial_type":"html-button-response","trial_index":44,"time_elapsed":237921,"internal_node_id":"0.0-4.0-1.18","subject_id":"5f8a2e665c8bdc0df255fdb8","study_id":"6197b3f67c2b5cd3b6d9596a","session_id":"6197b5ae11888c40ce41ab46","condition":"full-information","relevant_dimensions":["wings","legs"],"bee_group":{"antennae":"X","wings":"1","pattern":"X","legs":"M"},"bonus":0.04000000000000001},{"rt":1613,"stimulus":"bees-with-color/bee-A1SM.svg","response":0,"trial_type":"image-button-response","trial_index":45,"time_elapsed":239535,"internal_node_id":"0.0-4.0-0.19","subject_id":"5f8a2e665c8bdc0df255fdb8","study_id":"6197b3f67c2b5cd3b6d9596a","session_id":"6197b5ae11888c40ce41ab46","condition":"full-information","relevant_dimensions":["wings","legs"],"bee_group":{"antennae":"X","wings":"1","pattern":"X","legs":"M"},"action":"harvest","summary":"bad-harvest","bonus":0.04000000000000001},{"rt":653.7999999998137,"stimulus":"\n                    <p><b>Action: <em>harvest</em></b></p>\n                    <p>This is the bee that you just saw.</p>\n                    <img src=\"bees-with-color/bee-A1SM.svg\" width=\"200\">\n                    <p><span class=\"redText\">Bad choice, the bee was angry.</span><br><b>You have been stung!</b><br>Your pay has been decreased by $0.10. Your bonus pay is now $0.38.</p>\n            ","response":0,"trial_type":"html-button-response","trial_index":46,"time_elapsed":240190,"internal_node_id":"0.0-4.0-1.19","subject_id":"5f8a2e665c8bdc0df255fdb8","study_id":"6197b3f67c2b5cd3b6d9596a","session_id":"6197b5ae11888c40ce41ab46","condition":"full-information","relevant_dimensions":["wings","legs"],"bee_group":{"antennae":"X","wings":"1","pattern":"X","legs":"M"},"bonus":0.04000000000000001},{"rt":627.7000000001863,"stimulus":"bees-with-color/bee-B1DF.svg","response":0,"trial_type":"image-button-response","trial_index":47,"time_elapsed":240819,"internal_node_id":"0.0-4.0-0.20","subject_id":"5f8a2e665c8bdc0df255fdb8","study_id":"6197b3f67c2b5cd3b6d9596a","session_id":"6197b5ae11888c40ce41ab46","condition":"full-information","relevant_dimensions":["wings","legs"],"bee_group":{"antennae":"X","wings":"1","pattern":"X","legs":"M"},"action":"harvest","summary":"good-harvest","bonus":0.04000000000000001},{"rt":498.79999999981374,"stimulus":"\n                    <p><b>Action: <em>harvest</em></b></p>\n                    <p>This is the bee that you just saw.</p>\n                    <img src=\"bees-with-color/bee-B1DF.svg\" width=\"200\">\n                    <p><span class=\"greenText\"><b>Successful harvest!</b></span><br>Your pay has increased by $0.02. Your bonus pay is now $0.40.</p>\n            ","response":0,"trial_type":"html-button-response","trial_index":48,"time_elapsed":241319,"internal_node_id":"0.0-4.0-1.20","subject_id":"5f8a2e665c8bdc0df255fdb8","study_id":"6197b3f67c2b5cd3b6d9596a","session_id":"6197b5ae11888c40ce41ab46","condition":"full-information","relevant_dimensions":["wings","legs"],"bee_group":{"antennae":"X","wings":"1","pattern":"X","legs":"M"},"bonus":0.04000000000000001},{"rt":479,"stimulus":"bees-with-color/bee-B2DM.svg","response":0,"trial_type":"image-button-response","trial_index":49,"time_elapsed":241799,"internal_node_id":"0.0-4.0-0.21","subject_id":"5f8a2e665c8bdc0df255fdb8","study_id":"6197b3f67c2b5cd3b6d9596a","session_id":"6197b5ae11888c40ce41ab46","condition":"full-information","relevant_dimensions":["wings","legs"],"bee_group":{"antennae":"X","wings":"1","pattern":"X","legs":"M"},"action":"harvest","summary":"good-harvest","bonus":0.04000000000000001},{"rt":459.5,"stimulus":"\n                    <p><b>Action: <em>harvest</em></b></p>\n                    <p>This is the bee that you just saw.</p>\n                    <img src=\"bees-with-color/bee-B2DM.svg\" width=\"200\">\n                    <p><span class=\"greenText\"><b>Successful harvest!</b></span><br>Your pay has increased by $0.02. Your bonus pay is now $0.42.</p>\n            ","response":0,"trial_type":"html-button-response","trial_index":50,"time_elapsed":242260,"internal_node_id":"0.0-4.0-1.21","subject_id":"5f8a2e665c8bdc0df255fdb8","study_id":"6197b3f67c2b5cd3b6d9596a","session_id":"6197b5ae11888c40ce41ab46","condition":"full-information","relevant_dimensions":["wings","legs"],"bee_group":{"antennae":"X","wings":"1","pattern":"X","legs":"M"},"bonus":0.04000000000000001},{"rt":703.1000000000931,"stimulus":"bees-with-color/bee-B2DF.svg","response":0,"trial_type":"image-button-response","trial_index":51,"time_elapsed":242964,"internal_node_id":"0.0-4.0-0.22","subject_id":"5f8a2e665c8bdc0df255fdb8","study_id":"6197b3f67c2b5cd3b6d9596a","session_id":"6197b5ae11888c40ce41ab46","condition":"full-information","relevant_dimensions":["wings","legs"],"bee_group":{"antennae":"X","wings":"1","pattern":"X","legs":"M"},"action":"harvest","summary":"good-harvest","bonus":0.04000000000000001},{"rt":453.79999999981374,"stimulus":"\n                    <p><b>Action: <em>harvest</em></b></p>\n                    <p>This is the bee that you just saw.</p>\n                    <img src=\"bees-with-color/bee-B2DF.svg\" width=\"200\">\n                    <p><span class=\"greenText\"><b>Successful harvest!</b></span><br>Your pay has increased by $0.02. Your bonus pay is now $0.44.</p>\n            ","response":0,"trial_type":"html-button-response","trial_index":52,"time_elapsed":243419,"internal_node_id":"0.0-4.0-1.22","subject_id":"5f8a2e665c8bdc0df255fdb8","study_id":"6197b3f67c2b5cd3b6d9596a","session_id":"6197b5ae11888c40ce41ab46","condition":"full-information","relevant_dimensions":["wings","legs"],"bee_group":{"antennae":"X","wings":"1","pattern":"X","legs":"M"},"bonus":0.04000000000000001},{"rt":437,"stimulus":"bees-with-color/bee-A1DM.svg","response":0,"trial_type":"image-button-response","trial_index":53,"time_elapsed":243857,"internal_node_id":"0.0-4.0-0.23","subject_id":"5f8a2e665c8bdc0df255fdb8","study_id":"6197b3f67c2b5cd3b6d9596a","session_id":"6197b5ae11888c40ce41ab46","condition":"full-information","relevant_dimensions":["wings","legs"],"bee_group":{"antennae":"X","wings":"1","pattern":"X","legs":"M"},"action":"harvest","summary":"bad-harvest","bonus":0.04000000000000001},{"rt":516.2999999998137,"stimulus":"\n                    <p><b>Action: <em>harvest</em></b></p>\n                    <p>This is the bee that you just saw.</p>\n                    <img src=\"bees-with-color/bee-A1DM.svg\" width=\"200\">\n                    <p><span class=\"redText\">Bad choice, the bee was angry.</span><br><b>You have been stung!</b><br>Your pay has been decreased by $0.10. Your bonus pay is now $0.34.</p>\n            ","response":0,"trial_type":"html-button-response","trial_index":54,"time_elapsed":244375,"internal_node_id":"0.0-4.0-1.23","subject_id":"5f8a2e665c8bdc0df255fdb8","study_id":"6197b3f67c2b5cd3b6d9596a","session_id":"6197b5ae11888c40ce41ab46","condition":"full-information","relevant_dimensions":["wings","legs"],"bee_group":{"antennae":"X","wings":"1","pattern":"X","legs":"M"},"bonus":0.04000000000000001},{"rt":364,"stimulus":"bees-with-color/bee-A2SF.svg","response":0,"trial_type":"image-button-response","trial_index":55,"time_elapsed":244740,"internal_node_id":"0.0-4.0-0.24","subject_id":"5f8a2e665c8bdc0df255fdb8","study_id":"6197b3f67c2b5cd3b6d9596a","session_id":"6197b5ae11888c40ce41ab46","condition":"full-information","relevant_dimensions":["wings","legs"],"bee_group":{"antennae":"X","wings":"1","pattern":"X","legs":"M"},"action":"harvest","summary":"good-harvest","bonus":0.04000000000000001},{"rt":783.7000000001863,"stimulus":"\n                    <p><b>Action: <em>harvest</em></b></p>\n                    <p>This is the bee that you just saw.</p>\n                    <img src=\"bees-with-color/bee-A2SF.svg\" width=\"200\">\n                    <p><span class=\"greenText\"><b>Successful harvest!</b></span><br>Your pay has increased by $0.02. Your bonus pay is now $0.36.</p>\n            ","response":0,"trial_type":"html-button-response","trial_index":56,"time_elapsed":245525,"internal_node_id":"0.0-4.0-1.24","subject_id":"5f8a2e665c8bdc0df255fdb8","study_id":"6197b3f67c2b5cd3b6d9596a","session_id":"6197b5ae11888c40ce41ab46","condition":"full-information","relevant_dimensions":["wings","legs"],"bee_group":{"antennae":"X","wings":"1","pattern":"X","legs":"M"},"bonus":0.04000000000000001},{"rt":500.10000000009313,"stimulus":"bees-with-color/bee-A2DF.svg","response":0,"trial_type":"image-button-response","trial_index":57,"time_elapsed":246026,"internal_node_id":"0.0-4.0-0.25","subject_id":"5f8a2e665c8bdc0df255fdb8","study_id":"6197b3f67c2b5cd3b6d9596a","session_id":"6197b5ae11888c40ce41ab46","condition":"full-information","relevant_dimensions":["wings","legs"],"bee_group":{"antennae":"X","wings":"1","pattern":"X","legs":"M"},"action":"harvest","summary":"good-harvest","bonus":0.04000000000000001},{"rt":605.5,"stimulus":"\n                    <p><b>Action: <em>harvest</em></b></p>\n                    <p>This is the bee that you just saw.</p>\n                    <img src=\"bees-with-color/bee-A2DF.svg\" width=\"200\">\n                    <p><span class=\"greenText\"><b>Successful harvest!</b></span><br>Your pay has increased by $0.02. Your bonus pay is now $0.38.</p>\n            ","response":0,"trial_type":"html-button-response","trial_index":58,"time_elapsed":246633,"internal_node_id":"0.0-4.0-1.25","subject_id":"5f8a2e665c8bdc0df255fdb8","study_id":"6197b3f67c2b5cd3b6d9596a","session_id":"6197b5ae11888c40ce41ab46","condition":"full-information","relevant_dimensions":["wings","legs"],"bee_group":{"antennae":"X","wings":"1","pattern":"X","legs":"M"},"bonus":0.04000000000000001},{"rt":646,"stimulus":"bees-with-color/bee-A2DM.svg","response":0,"trial_type":"image-button-response","trial_index":59,"time_elapsed":247280,"internal_node_id":"0.0-4.0-0.26","subject_id":"5f8a2e665c8bdc0df255fdb8","study_id":"6197b3f67c2b5cd3b6d9596a","session_id":"6197b5ae11888c40ce41ab46","condition":"full-information","relevant_dimensions":["wings","legs"],"bee_group":{"antennae":"X","wings":"1","pattern":"X","legs":"M"},"action":"harvest","summary":"good-harvest","bonus":0.04000000000000001},{"rt":621,"stimulus":"\n                    <p><b>Action: <em>harvest</em></b></p>\n                    <p>This is the bee that you just saw.</p>\n                    <img src=\"bees-with-color/bee-A2DM.svg\" width=\"200\">\n                    <p><span class=\"greenText\"><b>Successful harvest!</b></span><br>Your pay has increased by $0.02. Your bonus pay is now $0.40.</p>\n            ","response":0,"trial_type":"html-button-response","trial_index":60,"time_elapsed":247903,"internal_node_id":"0.0-4.0-1.26","subject_id":"5f8a2e665c8bdc0df255fdb8","study_id":"6197b3f67c2b5cd3b6d9596a","session_id":"6197b5ae11888c40ce41ab46","condition":"full-information","relevant_dimensions":["wings","legs"],"bee_group":{"antennae":"X","wings":"1","pattern":"X","legs":"M"},"bonus":0.04000000000000001},{"rt":506.39999999990687,"stimulus":"bees-with-color/bee-A1SF.svg","response":0,"trial_type":"image-button-response","trial_index":61,"time_elapsed":248410,"internal_node_id":"0.0-4.0-0.27","subject_id":"5f8a2e665c8bdc0df255fdb8","study_id":"6197b3f67c2b5cd3b6d9596a","session_id":"6197b5ae11888c40ce41ab46","condition":"full-information","relevant_dimensions":["wings","legs"],"bee_group":{"antennae":"X","wings":"1","pattern":"X","legs":"M"},"action":"harvest","summary":"good-harvest","bonus":0.04000000000000001},{"rt":575.5,"stimulus":"\n                    <p><b>Action: <em>harvest</em></b></p>\n                    <p>This is the bee that you just saw.</p>\n                    <img src=\"bees-with-color/bee-A1SF.svg\" width=\"200\">\n                    <p><span class=\"greenText\"><b>Successful harvest!</b></span><br>Your pay has increased by $0.02. Your bonus pay is now $0.42.</p>\n            ","response":0,"trial_type":"html-button-response","trial_index":62,"time_elapsed":248987,"internal_node_id":"0.0-4.0-1.27","subject_id":"5f8a2e665c8bdc0df255fdb8","study_id":"6197b3f67c2b5cd3b6d9596a","session_id":"6197b5ae11888c40ce41ab46","condition":"full-information","relevant_dimensions":["wings","legs"],"bee_group":{"antennae":"X","wings":"1","pattern":"X","legs":"M"},"bonus":0.04000000000000001},{"rt":566,"stimulus":"bees-with-color/bee-A2SM.svg","response":0,"trial_type":"image-button-response","trial_index":63,"time_elapsed":249554,"internal_node_id":"0.0-4.0-0.28","subject_id":"5f8a2e665c8bdc0df255fdb8","study_id":"6197b3f67c2b5cd3b6d9596a","session_id":"6197b5ae11888c40ce41ab46","condition":"full-information","relevant_dimensions":["wings","legs"],"bee_group":{"antennae":"X","wings":"1","pattern":"X","legs":"M"},"action":"harvest","summary":"good-harvest","bonus":0.04000000000000001},{"rt":582.3999999999069,"stimulus":"\n                    <p><b>Action: <em>harvest</em></b></p>\n                    <p>This is the bee that you just saw.</p>\n                    <img src=\"bees-with-color/bee-A2SM.svg\" width=\"200\">\n                    <p><span class=\"greenText\"><b>Successful harvest!</b></span><br>Your pay has increased by $0.02. Your bonus pay is now $0.44.</p>\n            ","response":0,"trial_type":"html-button-response","trial_index":64,"time_elapsed":250138,"internal_node_id":"0.0-4.0-1.28","subject_id":"5f8a2e665c8bdc0df255fdb8","study_id":"6197b3f67c2b5cd3b6d9596a","session_id":"6197b5ae11888c40ce41ab46","condition":"full-information","relevant_dimensions":["wings","legs"],"bee_group":{"antennae":"X","wings":"1","pattern":"X","legs":"M"},"bonus":0.04000000000000001},{"rt":526.1000000000931,"stimulus":"bees-with-color/bee-B1SM.svg","response":0,"trial_type":"image-button-response","trial_index":65,"time_elapsed":250665,"internal_node_id":"0.0-4.0-0.29","subject_id":"5f8a2e665c8bdc0df255fdb8","study_id":"6197b3f67c2b5cd3b6d9596a","session_id":"6197b5ae11888c40ce41ab46","condition":"full-information","relevant_dimensions":["wings","legs"],"bee_group":{"antennae":"X","wings":"1","pattern":"X","legs":"M"},"action":"harvest","summary":"bad-harvest","bonus":0.04000000000000001},{"rt":488.39999999990687,"stimulus":"\n                    <p><b>Action: <em>harvest</em></b></p>\n                    <p>This is the bee that you just saw.</p>\n                    <img src=\"bees-with-color/bee-B1SM.svg\" width=\"200\">\n                    <p><span class=\"redText\">Bad choice, the bee was angry.</span><br><b>You have been stung!</b><br>Your pay has been decreased by $0.10. Your bonus pay is now $0.34.</p>\n            ","response":0,"trial_type":"html-button-response","trial_index":66,"time_elapsed":251155,"internal_node_id":"0.0-4.0-1.29","subject_id":"5f8a2e665c8bdc0df255fdb8","study_id":"6197b3f67c2b5cd3b6d9596a","session_id":"6197b5ae11888c40ce41ab46","condition":"full-information","relevant_dimensions":["wings","legs"],"bee_group":{"antennae":"X","wings":"1","pattern":"X","legs":"M"},"bonus":0.04000000000000001},{"rt":465.10000000009313,"stimulus":"bees-with-color/bee-A1DF.svg","response":0,"trial_type":"image-button-response","trial_index":67,"time_elapsed":251621,"internal_node_id":"0.0-4.0-0.30","subject_id":"5f8a2e665c8bdc0df255fdb8","study_id":"6197b3f67c2b5cd3b6d9596a","session_id":"6197b5ae11888c40ce41ab46","condition":"full-information","relevant_dimensions":["wings","legs"],"bee_group":{"antennae":"X","wings":"1","pattern":"X","legs":"M"},"action":"harvest","summary":"good-harvest","bonus":0.04000000000000001},{"rt":492.89999999990687,"stimulus":"\n                    <p><b>Action: <em>harvest</em></b></p>\n                    <p>This is the bee that you just saw.</p>\n                    <img src=\"bees-with-color/bee-A1DF.svg\" width=\"200\">\n                    <p><span class=\"greenText\"><b>Successful harvest!</b></span><br>Your pay has increased by $0.02. Your bonus pay is now $0.36.</p>\n            ","response":0,"trial_type":"html-button-response","trial_index":68,"time_elapsed":252115,"internal_node_id":"0.0-4.0-1.30","subject_id":"5f8a2e665c8bdc0df255fdb8","study_id":"6197b3f67c2b5cd3b6d9596a","session_id":"6197b5ae11888c40ce41ab46","condition":"full-information","relevant_dimensions":["wings","legs"],"bee_group":{"antennae":"X","wings":"1","pattern":"X","legs":"M"},"bonus":0.04000000000000001},{"rt":467.10000000009313,"stimulus":"bees-with-color/bee-B1DM.svg","response":0,"trial_type":"image-button-response","trial_index":69,"time_elapsed":252583,"internal_node_id":"0.0-4.0-0.31","subject_id":"5f8a2e665c8bdc0df255fdb8","study_id":"6197b3f67c2b5cd3b6d9596a","session_id":"6197b5ae11888c40ce41ab46","condition":"full-information","relevant_dimensions":["wings","legs"],"bee_group":{"antennae":"X","wings":"1","pattern":"X","legs":"M"},"action":"harvest","summary":"bad-harvest","bonus":0.04000000000000001},{"rt":556.5,"stimulus":"\n                    <p><b>Action: <em>harvest</em></b></p>\n                    <p>This is the bee that you just saw.</p>\n                    <img src=\"bees-with-color/bee-B1DM.svg\" width=\"200\">\n                    <p><span class=\"redText\">Bad choice, the bee was angry.</span><br><b>You have been stung!</b><br>Your pay has been decreased by $0.10. Your bonus pay is now $0.26.</p>\n            ","response":0,"trial_type":"html-button-response","trial_index":70,"time_elapsed":253141,"internal_node_id":"0.0-4.0-1.31","subject_id":"5f8a2e665c8bdc0df255fdb8","study_id":"6197b3f67c2b5cd3b6d9596a","session_id":"6197b5ae11888c40ce41ab46","condition":"full-information","relevant_dimensions":["wings","legs"],"bee_group":{"antennae":"X","wings":"1","pattern":"X","legs":"M"},"bonus":0.04000000000000001},{"rt":423.1999999997206,"stimulus":"bees-with-color/bee-A2SF.svg","response":0,"trial_type":"image-button-response","trial_index":71,"time_elapsed":253565,"internal_node_id":"0.0-4.0-0.32","subject_id":"5f8a2e665c8bdc0df255fdb8","study_id":"6197b3f67c2b5cd3b6d9596a","session_id":"6197b5ae11888c40ce41ab46","condition":"full-information","relevant_dimensions":["wings","legs"],"bee_group":{"antennae":"X","wings":"1","pattern":"X","legs":"M"},"action":"harvest","summary":"good-harvest","bonus":0.04000000000000001},{"rt":438.70000000018626,"stimulus":"\n                    <p><b>Action: <em>harvest</em></b></p>\n                    <p>This is the bee that you just saw.</p>\n                    <img src=\"bees-with-color/bee-A2SF.svg\" width=\"200\">\n                    <p><span class=\"greenText\"><b>Successful harvest!</b></span><br>Your pay has increased by $0.02. Your bonus pay is now $0.28.</p>\n            ","response":0,"trial_type":"html-button-response","trial_index":72,"time_elapsed":254005,"internal_node_id":"0.0-4.0-1.32","subject_id":"5f8a2e665c8bdc0df255fdb8","study_id":"6197b3f67c2b5cd3b6d9596a","session_id":"6197b5ae11888c40ce41ab46","condition":"full-information","relevant_dimensions":["wings","legs"],"bee_group":{"antennae":"X","wings":"1","pattern":"X","legs":"M"},"bonus":0.04000000000000001},{"rt":447.59999999962747,"stimulus":"bees-with-color/bee-B2DF.svg","response":0,"trial_type":"image-button-response","trial_index":73,"time_elapsed":254454,"internal_node_id":"0.0-4.0-0.33","subject_id":"5f8a2e665c8bdc0df255fdb8","study_id":"6197b3f67c2b5cd3b6d9596a","session_id":"6197b5ae11888c40ce41ab46","condition":"full-information","relevant_dimensions":["wings","legs"],"bee_group":{"antennae":"X","wings":"1","pattern":"X","legs":"M"},"action":"harvest","summary":"good-harvest","bonus":0.04000000000000001},{"rt":422.5,"stimulus":"\n                    <p><b>Action: <em>harvest</em></b></p>\n                    <p>This is the bee that you just saw.</p>\n                    <img src=\"bees-with-color/bee-B2DF.svg\" width=\"200\">\n                    <p><span class=\"greenText\"><b>Successful harvest!</b></span><br>Your pay has increased by $0.02. Your bonus pay is now $0.30.</p>\n            ","response":0,"trial_type":"html-button-response","trial_index":74,"time_elapsed":254877,"internal_node_id":"0.0-4.0-1.33","subject_id":"5f8a2e665c8bdc0df255fdb8","study_id":"6197b3f67c2b5cd3b6d9596a","session_id":"6197b5ae11888c40ce41ab46","condition":"full-information","relevant_dimensions":["wings","legs"],"bee_group":{"antennae":"X","wings":"1","pattern":"X","legs":"M"},"bonus":0.04000000000000001},{"rt":418.60000000009313,"stimulus":"bees-with-color/bee-B2SF.svg","response":0,"trial_type":"image-button-response","trial_index":75,"time_elapsed":255297,"internal_node_id":"0.0-4.0-0.34","subject_id":"5f8a2e665c8bdc0df255fdb8","study_id":"6197b3f67c2b5cd3b6d9596a","session_id":"6197b5ae11888c40ce41ab46","condition":"full-information","relevant_dimensions":["wings","legs"],"bee_group":{"antennae":"X","wings":"1","pattern":"X","legs":"M"},"action":"harvest","summary":"good-harvest","bonus":0.04000000000000001},{"rt":401.70000000018626,"stimulus":"\n                    <p><b>Action: <em>harvest</em></b></p>\n                    <p>This is the bee that you just saw.</p>\n                    <img src=\"bees-with-color/bee-B2SF.svg\" width=\"200\">\n                    <p><span class=\"greenText\"><b>Successful harvest!</b></span><br>Your pay has increased by $0.02. Your bonus pay is now $0.32.</p>\n            ","response":0,"trial_type":"html-button-response","trial_index":76,"time_elapsed":255700,"internal_node_id":"0.0-4.0-1.34","subject_id":"5f8a2e665c8bdc0df255fdb8","study_id":"6197b3f67c2b5cd3b6d9596a","session_id":"6197b5ae11888c40ce41ab46","condition":"full-information","relevant_dimensions":["wings","legs"],"bee_group":{"antennae":"X","wings":"1","pattern":"X","legs":"M"},"bonus":0.04000000000000001},{"rt":426.89999999990687,"stimulus":"bees-with-color/bee-B1SM.svg","response":0,"trial_type":"image-button-response","trial_index":77,"time_elapsed":256128,"internal_node_id":"0.0-4.0-0.35","subject_id":"5f8a2e665c8bdc0df255fdb8","study_id":"6197b3f67c2b5cd3b6d9596a","session_id":"6197b5ae11888c40ce41ab46","condition":"full-information","relevant_dimensions":["wings","legs"],"bee_group":{"antennae":"X","wings":"1","pattern":"X","legs":"M"},"action":"harvest","summary":"bad-harvest","bonus":0.04000000000000001},{"rt":862.6000000000931,"stimulus":"\n                    <p><b>Action: <em>harvest</em></b></p>\n                    <p>This is the bee that you just saw.</p>\n                    <img src=\"bees-with-color/bee-B1SM.svg\" width=\"200\">\n                    <p><span class=\"redText\">Bad choice, the bee was angry.</span><br><b>You have been stung!</b><br>Your pay has been decreased by $0.10. Your bonus pay is now $0.22.</p>\n            ","response":0,"trial_type":"html-button-response","trial_index":78,"time_elapsed":256992,"internal_node_id":"0.0-4.0-1.35","subject_id":"5f8a2e665c8bdc0df255fdb8","study_id":"6197b3f67c2b5cd3b6d9596a","session_id":"6197b5ae11888c40ce41ab46","condition":"full-information","relevant_dimensions":["wings","legs"],"bee_group":{"antennae":"X","wings":"1","pattern":"X","legs":"M"},"bonus":0.04000000000000001},{"rt":420,"stimulus":"bees-with-color/bee-A2SM.svg","response":0,"trial_type":"image-button-response","trial_index":79,"time_elapsed":257413,"internal_node_id":"0.0-4.0-0.36","subject_id":"5f8a2e665c8bdc0df255fdb8","study_id":"6197b3f67c2b5cd3b6d9596a","session_id":"6197b5ae11888c40ce41ab46","condition":"full-information","relevant_dimensions":["wings","legs"],"bee_group":{"antennae":"X","wings":"1","pattern":"X","legs":"M"},"action":"harvest","summary":"good-harvest","bonus":0.04000000000000001},{"rt":424.5,"stimulus":"\n                    <p><b>Action: <em>harvest</em></b></p>\n                    <p>This is the bee that you just saw.</p>\n                    <img src=\"bees-with-color/bee-A2SM.svg\" width=\"200\">\n                    <p><span class=\"greenText\"><b>Successful harvest!</b></span><br>Your pay has increased by $0.02. Your bonus pay is now $0.24.</p>\n            ","response":0,"trial_type":"html-button-response","trial_index":80,"time_elapsed":257839,"internal_node_id":"0.0-4.0-1.36","subject_id":"5f8a2e665c8bdc0df255fdb8","study_id":"6197b3f67c2b5cd3b6d9596a","session_id":"6197b5ae11888c40ce41ab46","condition":"full-information","relevant_dimensions":["wings","legs"],"bee_group":{"antennae":"X","wings":"1","pattern":"X","legs":"M"},"bonus":0.04000000000000001},{"rt":415.89999999990687,"stimulus":"bees-with-color/bee-B1SF.svg","response":0,"trial_type":"image-button-response","trial_index":81,"time_elapsed":258256,"internal_node_id":"0.0-4.0-0.37","subject_id":"5f8a2e665c8bdc0df255fdb8","study_id":"6197b3f67c2b5cd3b6d9596a","session_id":"6197b5ae11888c40ce41ab46","condition":"full-information","relevant_dimensions":["wings","legs"],"bee_group":{"antennae":"X","wings":"1","pattern":"X","legs":"M"},"action":"harvest","summary":"good-harvest","bonus":0.04000000000000001},{"rt":442.89999999990687,"stimulus":"\n                    <p><b>Action: <em>harvest</em></b></p>\n                    <p>This is the bee that you just saw.</p>\n                    <img src=\"bees-with-color/bee-B1SF.svg\" width=\"200\">\n                    <p><span class=\"greenText\"><b>Successful harvest!</b></span><br>Your pay has increased by $0.02. Your bonus pay is now $0.26.</p>\n            ","response":0,"trial_type":"html-button-response","trial_index":82,"time_elapsed":258700,"internal_node_id":"0.0-4.0-1.37","subject_id":"5f8a2e665c8bdc0df255fdb8","study_id":"6197b3f67c2b5cd3b6d9596a","session_id":"6197b5ae11888c40ce41ab46","condition":"full-information","relevant_dimensions":["wings","legs"],"bee_group":{"antennae":"X","wings":"1","pattern":"X","legs":"M"},"bonus":0.04000000000000001},{"rt":424.79999999981374,"stimulus":"bees-with-color/bee-A1DM.svg","response":0,"trial_type":"image-button-response","trial_index":83,"time_elapsed":259126,"internal_node_id":"0.0-4.0-0.38","subject_id":"5f8a2e665c8bdc0df255fdb8","study_id":"6197b3f67c2b5cd3b6d9596a","session_id":"6197b5ae11888c40ce41ab46","condition":"full-information","relevant_dimensions":["wings","legs"],"bee_group":{"antennae":"X","wings":"1","pattern":"X","legs":"M"},"action":"harvest","summary":"bad-harvest","bonus":0.04000000000000001},{"rt":443.89999999990687,"stimulus":"\n                    <p><b>Action: <em>harvest</em></b></p>\n                    <p>This is the bee that you just saw.</p>\n                    <img src=\"bees-with-color/bee-A1DM.svg\" width=\"200\">\n                    <p><span class=\"redText\">Bad choice, the bee was angry.</span><br><b>You have been stung!</b><br>Your pay has been decreased by $0.10. Your bonus pay is now $0.16.</p>\n            ","response":0,"trial_type":"html-button-response","trial_index":84,"time_elapsed":259571,"internal_node_id":"0.0-4.0-1.38","subject_id":"5f8a2e665c8bdc0df255fdb8","study_id":"6197b3f67c2b5cd3b6d9596a","session_id":"6197b5ae11888c40ce41ab46","condition":"full-information","relevant_dimensions":["wings","legs"],"bee_group":{"antennae":"X","wings":"1","pattern":"X","legs":"M"},"bonus":0.04000000000000001},{"rt":428.6999999997206,"stimulus":"bees-with-color/bee-B2DM.svg","response":0,"trial_type":"image-button-response","trial_index":85,"time_elapsed":260001,"internal_node_id":"0.0-4.0-0.39","subject_id":"5f8a2e665c8bdc0df255fdb8","study_id":"6197b3f67c2b5cd3b6d9596a","session_id":"6197b5ae11888c40ce41ab46","condition":"full-information","relevant_dimensions":["wings","legs"],"bee_group":{"antennae":"X","wings":"1","pattern":"X","legs":"M"},"action":"harvest","summary":"good-harvest","bonus":0.04000000000000001},{"rt":407.89999999990687,"stimulus":"\n                    <p><b>Action: <em>harvest</em></b></p>\n                    <p>This is the bee that you just saw.</p>\n                    <img src=\"bees-with-color/bee-B2DM.svg\" width=\"200\">\n                    <p><span class=\"greenText\"><b>Successful harvest!</b></span><br>Your pay has increased by $0.02. Your bonus pay is now $0.18.</p>\n            ","response":0,"trial_type":"html-button-response","trial_index":86,"time_elapsed":260410,"internal_node_id":"0.0-4.0-1.39","subject_id":"5f8a2e665c8bdc0df255fdb8","study_id":"6197b3f67c2b5cd3b6d9596a","session_id":"6197b5ae11888c40ce41ab46","condition":"full-information","relevant_dimensions":["wings","legs"],"bee_group":{"antennae":"X","wings":"1","pattern":"X","legs":"M"},"bonus":0.04000000000000001},{"rt":408,"stimulus":"bees-with-color/bee-A1SM.svg","response":0,"trial_type":"image-button-response","trial_index":87,"time_elapsed":260819,"internal_node_id":"0.0-4.0-0.40","subject_id":"5f8a2e665c8bdc0df255fdb8","study_id":"6197b3f67c2b5cd3b6d9596a","session_id":"6197b5ae11888c40ce41ab46","condition":"full-information","relevant_dimensions":["wings","legs"],"bee_group":{"antennae":"X","wings":"1","pattern":"X","legs":"M"},"action":"harvest","summary":"bad-harvest","bonus":0.04000000000000001},{"rt":449.1999999997206,"stimulus":"\n                    <p><b>Action: <em>harvest</em></b></p>\n                    <p>This is the bee that you just saw.</p>\n                    <img src=\"bees-with-color/bee-A1SM.svg\" width=\"200\">\n                    <p><span class=\"redText\">Bad choice, the bee was angry.</span><br><b>You have been stung!</b><br>Your pay has been decreased by $0.10. Your bonus pay is now $0.08.</p>\n            ","response":0,"trial_type":"html-button-response","trial_index":88,"time_elapsed":261269,"internal_node_id":"0.0-4.0-1.40","subject_id":"5f8a2e665c8bdc0df255fdb8","study_id":"6197b3f67c2b5cd3b6d9596a","session_id":"6197b5ae11888c40ce41ab46","condition":"full-information","relevant_dimensions":["wings","legs"],"bee_group":{"antennae":"X","wings":"1","pattern":"X","legs":"M"},"bonus":0.04000000000000001},{"rt":481.39999999990687,"stimulus":"bees-with-color/bee-B2SM.svg","response":0,"trial_type":"image-button-response","trial_index":89,"time_elapsed":261752,"internal_node_id":"0.0-4.0-0.41","subject_id":"5f8a2e665c8bdc0df255fdb8","study_id":"6197b3f67c2b5cd3b6d9596a","session_id":"6197b5ae11888c40ce41ab46","condition":"full-information","relevant_dimensions":["wings","legs"],"bee_group":{"antennae":"X","wings":"1","pattern":"X","legs":"M"},"action":"harvest","summary":"good-harvest","bonus":0.04000000000000001},{"rt":378.60000000009313,"stimulus":"\n                    <p><b>Action: <em>harvest</em></b></p>\n                    <p>This is the bee that you just saw.</p>\n                    <img src=\"bees-with-color/bee-B2SM.svg\" width=\"200\">\n                    <p><span class=\"greenText\"><b>Successful harvest!</b></span><br>Your pay has increased by $0.02. Your bonus pay is now $0.10.</p>\n            ","response":0,"trial_type":"html-button-response","trial_index":90,"time_elapsed":262132,"internal_node_id":"0.0-4.0-1.41","subject_id":"5f8a2e665c8bdc0df255fdb8","study_id":"6197b3f67c2b5cd3b6d9596a","session_id":"6197b5ae11888c40ce41ab46","condition":"full-information","relevant_dimensions":["wings","legs"],"bee_group":{"antennae":"X","wings":"1","pattern":"X","legs":"M"},"bonus":0.04000000000000001},{"rt":436,"stimulus":"bees-with-color/bee-B1DF.svg","response":0,"trial_type":"image-button-response","trial_index":91,"time_elapsed":262569,"internal_node_id":"0.0-4.0-0.42","subject_id":"5f8a2e665c8bdc0df255fdb8","study_id":"6197b3f67c2b5cd3b6d9596a","session_id":"6197b5ae11888c40ce41ab46","condition":"full-information","relevant_dimensions":["wings","legs"],"bee_group":{"antennae":"X","wings":"1","pattern":"X","legs":"M"},"action":"harvest","summary":"good-harvest","bonus":0.04000000000000001},{"rt":396.79999999981374,"stimulus":"\n                    <p><b>Action: <em>harvest</em></b></p>\n                    <p>This is the bee that you just saw.</p>\n                    <img src=\"bees-with-color/bee-B1DF.svg\" width=\"200\">\n                    <p><span class=\"greenText\"><b>Successful harvest!</b></span><br>Your pay has increased by $0.02. Your bonus pay is now $0.12.</p>\n            ","response":0,"trial_type":"html-button-response","trial_index":92,"time_elapsed":262967,"internal_node_id":"0.0-4.0-1.42","subject_id":"5f8a2e665c8bdc0df255fdb8","study_id":"6197b3f67c2b5cd3b6d9596a","session_id":"6197b5ae11888c40ce41ab46","condition":"full-information","relevant_dimensions":["wings","legs"],"bee_group":{"antennae":"X","wings":"1","pattern":"X","legs":"M"},"bonus":0.04000000000000001},{"rt":461.10000000009313,"stimulus":"bees-with-color/bee-B1DM.svg","response":0,"trial_type":"image-button-response","trial_index":93,"time_elapsed":263429,"internal_node_id":"0.0-4.0-0.43","subject_id":"5f8a2e665c8bdc0df255fdb8","study_id":"6197b3f67c2b5cd3b6d9596a","session_id":"6197b5ae11888c40ce41ab46","condition":"full-information","relevant_dimensions":["wings","legs"],"bee_group":{"antennae":"X","wings":"1","pattern":"X","legs":"M"},"action":"harvest","summary":"bad-harvest","bonus":0.04000000000000001},{"rt":418.60000000009313,"stimulus":"\n                    <p><b>Action: <em>harvest</em></b></p>\n                    <p>This is the bee that you just saw.</p>\n                    <img src=\"bees-with-color/bee-B1DM.svg\" width=\"200\">\n                    <p><span class=\"redText\">Bad choice, the bee was angry.</span><br><b>You have been stung!</b><br>Your pay has been decreased by $0.10. Your bonus pay is now $0.02.</p>\n            ","response":0,"trial_type":"html-button-response","trial_index":94,"time_elapsed":263849,"internal_node_id":"0.0-4.0-1.43","subject_id":"5f8a2e665c8bdc0df255fdb8","study_id":"6197b3f67c2b5cd3b6d9596a","session_id":"6197b5ae11888c40ce41ab46","condition":"full-information","relevant_dimensions":["wings","legs"],"bee_group":{"antennae":"X","wings":"1","pattern":"X","legs":"M"},"bonus":0.04000000000000001},{"rt":416.29999999981374,"stimulus":"bees-with-color/bee-A1SF.svg","response":0,"trial_type":"image-button-response","trial_index":95,"time_elapsed":264266,"internal_node_id":"0.0-4.0-0.44","subject_id":"5f8a2e665c8bdc0df255fdb8","study_id":"6197b3f67c2b5cd3b6d9596a","session_id":"6197b5ae11888c40ce41ab46","condition":"full-information","relevant_dimensions":["wings","legs"],"bee_group":{"antennae":"X","wings":"1","pattern":"X","legs":"M"},"action":"harvest","summary":"good-harvest","bonus":0.04000000000000001},{"rt":401.60000000009313,"stimulus":"\n                    <p><b>Action: <em>harvest</em></b></p>\n                    <p>This is the bee that you just saw.</p>\n                    <img src=\"bees-with-color/bee-A1SF.svg\" width=\"200\">\n                    <p><span class=\"greenText\"><b>Successful harvest!</b></span><br>Your pay has increased by $0.02. Your bonus pay is now $0.04.</p>\n            ","response":0,"trial_type":"html-button-response","trial_index":96,"time_elapsed":264669,"internal_node_id":"0.0-4.0-1.44","subject_id":"5f8a2e665c8bdc0df255fdb8","study_id":"6197b3f67c2b5cd3b6d9596a","session_id":"6197b5ae11888c40ce41ab46","condition":"full-information","relevant_dimensions":["wings","legs"],"bee_group":{"antennae":"X","wings":"1","pattern":"X","legs":"M"},"bonus":0.04000000000000001},{"rt":399.79999999981374,"stimulus":"bees-with-color/bee-A2DM.svg","response":0,"trial_type":"image-button-response","trial_index":97,"time_elapsed":265070,"internal_node_id":"0.0-4.0-0.45","subject_id":"5f8a2e665c8bdc0df255fdb8","study_id":"6197b3f67c2b5cd3b6d9596a","session_id":"6197b5ae11888c40ce41ab46","condition":"full-information","relevant_dimensions":["wings","legs"],"bee_group":{"antennae":"X","wings":"1","pattern":"X","legs":"M"},"action":"harvest","summary":"good-harvest","bonus":0.04000000000000001},{"rt":452.79999999981374,"stimulus":"\n                    <p><b>Action: <em>harvest</em></b></p>\n                    <p>This is the bee that you just saw.</p>\n                    <img src=\"bees-with-color/bee-A2DM.svg\" width=\"200\">\n                    <p><span class=\"greenText\"><b>Successful harvest!</b></span><br>Your pay has increased by $0.02. Your bonus pay is now $0.06.</p>\n            ","response":0,"trial_type":"html-button-response","trial_index":98,"time_elapsed":265524,"internal_node_id":"0.0-4.0-1.45","subject_id":"5f8a2e665c8bdc0df255fdb8","study_id":"6197b3f67c2b5cd3b6d9596a","session_id":"6197b5ae11888c40ce41ab46","condition":"full-information","relevant_dimensions":["wings","legs"],"bee_group":{"antennae":"X","wings":"1","pattern":"X","legs":"M"},"bonus":0.04000000000000001},{"rt":405.10000000009313,"stimulus":"bees-with-color/bee-A1DF.svg","response":0,"trial_type":"image-button-response","trial_index":99,"time_elapsed":265930,"internal_node_id":"0.0-4.0-0.46","subject_id":"5f8a2e665c8bdc0df255fdb8","study_id":"6197b3f67c2b5cd3b6d9596a","session_id":"6197b5ae11888c40ce41ab46","condition":"full-information","relevant_dimensions":["wings","legs"],"bee_group":{"antennae":"X","wings":"1","pattern":"X","legs":"M"},"action":"harvest","summary":"good-harvest","bonus":0.04000000000000001},{"rt":422.60000000009313,"stimulus":"\n                    <p><b>Action: <em>harvest</em></b></p>\n                    <p>This is the bee that you just saw.</p>\n                    <img src=\"bees-with-color/bee-A1DF.svg\" width=\"200\">\n                    <p><span class=\"greenText\"><b>Successful harvest!</b></span><br>Your pay has increased by $0.02. Your bonus pay is now $0.08.</p>\n            ","response":0,"trial_type":"html-button-response","trial_index":100,"time_elapsed":266354,"internal_node_id":"0.0-4.0-1.46","subject_id":"5f8a2e665c8bdc0df255fdb8","study_id":"6197b3f67c2b5cd3b6d9596a","session_id":"6197b5ae11888c40ce41ab46","condition":"full-information","relevant_dimensions":["wings","legs"],"bee_group":{"antennae":"X","wings":"1","pattern":"X","legs":"M"},"bonus":0.04000000000000001},{"rt":411.20000000018626,"stimulus":"bees-with-color/bee-A2DF.svg","response":0,"trial_type":"image-button-response","trial_index":101,"time_elapsed":266766,"internal_node_id":"0.0-4.0-0.47","subject_id":"5f8a2e665c8bdc0df255fdb8","study_id":"6197b3f67c2b5cd3b6d9596a","session_id":"6197b5ae11888c40ce41ab46","condition":"full-information","relevant_dimensions":["wings","legs"],"bee_group":{"antennae":"X","wings":"1","pattern":"X","legs":"M"},"action":"harvest","summary":"good-harvest","bonus":0.04000000000000001},{"rt":379.20000000018626,"stimulus":"\n                    <p><b>Action: <em>harvest</em></b></p>\n                    <p>This is the bee that you just saw.</p>\n                    <img src=\"bees-with-color/bee-A2DF.svg\" width=\"200\">\n                    <p><span class=\"greenText\"><b>Successful harvest!</b></span><br>Your pay has increased by $0.02. Your bonus pay is now $0.10.</p>\n            ","response":0,"trial_type":"html-button-response","trial_index":102,"time_elapsed":267146,"internal_node_id":"0.0-4.0-1.47","subject_id":"5f8a2e665c8bdc0df255fdb8","study_id":"6197b3f67c2b5cd3b6d9596a","session_id":"6197b5ae11888c40ce41ab46","condition":"full-information","relevant_dimensions":["wings","legs"],"bee_group":{"antennae":"X","wings":"1","pattern":"X","legs":"M"},"bonus":0.04000000000000001},{"rt":643.7999999998137,"stimulus":"bees-with-color/bee-A1SF.svg","response":0,"trial_type":"image-button-response","trial_index":103,"time_elapsed":267791,"internal_node_id":"0.0-4.0-0.48","subject_id":"5f8a2e665c8bdc0df255fdb8","study_id":"6197b3f67c2b5cd3b6d9596a","session_id":"6197b5ae11888c40ce41ab46","condition":"full-information","relevant_dimensions":["wings","legs"],"bee_group":{"antennae":"X","wings":"1","pattern":"X","legs":"M"},"action":"harvest","summary":"good-harvest","bonus":0.04000000000000001},{"rt":403.89999999990687,"stimulus":"\n                    <p><b>Action: <em>harvest</em></b></p>\n                    <p>This is the bee that you just saw.</p>\n                    <img src=\"bees-with-color/bee-A1SF.svg\" width=\"200\">\n                    <p><span class=\"greenText\"><b>Successful harvest!</b></span><br>Your pay has increased by $0.02. Your bonus pay is now $0.12.</p>\n            ","response":0,"trial_type":"html-button-response","trial_index":104,"time_elapsed":268196,"internal_node_id":"0.0-4.0-1.48","subject_id":"5f8a2e665c8bdc0df255fdb8","study_id":"6197b3f67c2b5cd3b6d9596a","session_id":"6197b5ae11888c40ce41ab46","condition":"full-information","relevant_dimensions":["wings","legs"],"bee_group":{"antennae":"X","wings":"1","pattern":"X","legs":"M"},"bonus":0.04000000000000001},{"rt":518.8999999999069,"stimulus":"bees-with-color/bee-A1DM.svg","response":0,"trial_type":"image-button-response","trial_index":105,"time_elapsed":268716,"internal_node_id":"0.0-4.0-0.49","subject_id":"5f8a2e665c8bdc0df255fdb8","study_id":"6197b3f67c2b5cd3b6d9596a","session_id":"6197b5ae11888c40ce41ab46","condition":"full-information","relevant_dimensions":["wings","legs"],"bee_group":{"antennae":"X","wings":"1","pattern":"X","legs":"M"},"action":"harvest","summary":"bad-harvest","bonus":0.04000000000000001},{"rt":739.1999999997206,"stimulus":"\n                    <p><b>Action: <em>harvest</em></b></p>\n                    <p>This is the bee that you just saw.</p>\n                    <img src=\"bees-with-color/bee-A1DM.svg\" width=\"200\">\n                    <p><span class=\"redText\">Bad choice, the bee was angry.</span><br><b>You have been stung!</b><br>Your pay has been decreased by $0.10. Your bonus pay is now $0.02.</p>\n            ","response":0,"trial_type":"html-button-response","trial_index":106,"time_elapsed":269457,"internal_node_id":"0.0-4.0-1.49","subject_id":"5f8a2e665c8bdc0df255fdb8","study_id":"6197b3f67c2b5cd3b6d9596a","session_id":"6197b5ae11888c40ce41ab46","condition":"full-information","relevant_dimensions":["wings","legs"],"bee_group":{"antennae":"X","wings":"1","pattern":"X","legs":"M"},"bonus":0.04000000000000001},{"rt":386.10000000009313,"stimulus":"bees-with-color/bee-A2SM.svg","response":0,"trial_type":"image-button-response","trial_index":107,"time_elapsed":269844,"internal_node_id":"0.0-4.0-0.50","subject_id":"5f8a2e665c8bdc0df255fdb8","study_id":"6197b3f67c2b5cd3b6d9596a","session_id":"6197b5ae11888c40ce41ab46","condition":"full-information","relevant_dimensions":["wings","legs"],"bee_group":{"antennae":"X","wings":"1","pattern":"X","legs":"M"},"action":"harvest","summary":"good-harvest","bonus":0.04000000000000001},{"rt":363.70000000018626,"stimulus":"\n                    <p><b>Action: <em>harvest</em></b></p>\n                    <p>This is the bee that you just saw.</p>\n                    <img src=\"bees-with-color/bee-A2SM.svg\" width=\"200\">\n                    <p><span class=\"greenText\"><b>Successful harvest!</b></span><br>Your pay has increased by $0.02. Your bonus pay is now $0.04.</p>\n            ","response":0,"trial_type":"html-button-response","trial_index":108,"time_elapsed":270209,"internal_node_id":"0.0-4.0-1.50","subject_id":"5f8a2e665c8bdc0df255fdb8","study_id":"6197b3f67c2b5cd3b6d9596a","session_id":"6197b5ae11888c40ce41ab46","condition":"full-information","relevant_dimensions":["wings","legs"],"bee_group":{"antennae":"X","wings":"1","pattern":"X","legs":"M"},"bonus":0.04000000000000001},{"rt":938.7999999998137,"stimulus":"bees-with-color/bee-B2SM.svg","response":0,"trial_type":"image-button-response","trial_index":109,"time_elapsed":271149,"internal_node_id":"0.0-4.0-0.51","subject_id":"5f8a2e665c8bdc0df255fdb8","study_id":"6197b3f67c2b5cd3b6d9596a","session_id":"6197b5ae11888c40ce41ab46","condition":"full-information","relevant_dimensions":["wings","legs"],"bee_group":{"antennae":"X","wings":"1","pattern":"X","legs":"M"},"action":"harvest","summary":"good-harvest","bonus":0.04000000000000001},{"rt":425.59999999962747,"stimulus":"\n                    <p><b>Action: <em>harvest</em></b></p>\n                    <p>This is the bee that you just saw.</p>\n                    <img src=\"bees-with-color/bee-B2SM.svg\" width=\"200\">\n                    <p><span class=\"greenText\"><b>Successful harvest!</b></span><br>Your pay has increased by $0.02. Your bonus pay is now $0.06.</p>\n            ","response":0,"trial_type":"html-button-response","trial_index":110,"time_elapsed":271576,"internal_node_id":"0.0-4.0-1.51","subject_id":"5f8a2e665c8bdc0df255fdb8","study_id":"6197b3f67c2b5cd3b6d9596a","session_id":"6197b5ae11888c40ce41ab46","condition":"full-information","relevant_dimensions":["wings","legs"],"bee_group":{"antennae":"X","wings":"1","pattern":"X","legs":"M"},"bonus":0.04000000000000001},{"rt":470.89999999990687,"stimulus":"bees-with-color/bee-A2SF.svg","response":0,"trial_type":"image-button-response","trial_index":111,"time_elapsed":272048,"internal_node_id":"0.0-4.0-0.52","subject_id":"5f8a2e665c8bdc0df255fdb8","study_id":"6197b3f67c2b5cd3b6d9596a","session_id":"6197b5ae11888c40ce41ab46","condition":"full-information","relevant_dimensions":["wings","legs"],"bee_group":{"antennae":"X","wings":"1","pattern":"X","legs":"M"},"action":"harvest","summary":"good-harvest","bonus":0.04000000000000001},{"rt":534.7999999998137,"stimulus":"\n                    <p><b>Action: <em>harvest</em></b></p>\n                    <p>This is the bee that you just saw.</p>\n                    <img src=\"bees-with-color/bee-A2SF.svg\" width=\"200\">\n                    <p><span class=\"greenText\"><b>Successful harvest!</b></span><br>Your pay has increased by $0.02. Your bonus pay is now $0.08.</p>\n            ","response":0,"trial_type":"html-button-response","trial_index":112,"time_elapsed":272584,"internal_node_id":"0.0-4.0-1.52","subject_id":"5f8a2e665c8bdc0df255fdb8","study_id":"6197b3f67c2b5cd3b6d9596a","session_id":"6197b5ae11888c40ce41ab46","condition":"full-information","relevant_dimensions":["wings","legs"],"bee_group":{"antennae":"X","wings":"1","pattern":"X","legs":"M"},"bonus":0.04000000000000001},{"rt":683.1000000000931,"stimulus":"bees-with-color/bee-A1DF.svg","response":0,"trial_type":"image-button-response","trial_index":113,"time_elapsed":273268,"internal_node_id":"0.0-4.0-0.53","subject_id":"5f8a2e665c8bdc0df255fdb8","study_id":"6197b3f67c2b5cd3b6d9596a","session_id":"6197b5ae11888c40ce41ab46","condition":"full-information","relevant_dimensions":["wings","legs"],"bee_group":{"antennae":"X","wings":"1","pattern":"X","legs":"M"},"action":"harvest","summary":"good-harvest","bonus":0.04000000000000001},{"rt":468,"stimulus":"\n                    <p><b>Action: <em>harvest</em></b></p>\n                    <p>This is the bee that you just saw.</p>\n                    <img src=\"bees-with-color/bee-A1DF.svg\" width=\"200\">\n                    <p><span class=\"greenText\"><b>Successful harvest!</b></span><br>Your pay has increased by $0.02. Your bonus pay is now $0.10.</p>\n            ","response":0,"trial_type":"html-button-response","trial_index":114,"time_elapsed":273737,"internal_node_id":"0.0-4.0-1.53","subject_id":"5f8a2e665c8bdc0df255fdb8","study_id":"6197b3f67c2b5cd3b6d9596a","session_id":"6197b5ae11888c40ce41ab46","condition":"full-information","relevant_dimensions":["wings","legs"],"bee_group":{"antennae":"X","wings":"1","pattern":"X","legs":"M"},"bonus":0.04000000000000001},{"rt":409,"stimulus":"bees-with-color/bee-B1DM.svg","response":0,"trial_type":"image-button-response","trial_index":115,"time_elapsed":274147,"internal_node_id":"0.0-4.0-0.54","subject_id":"5f8a2e665c8bdc0df255fdb8","study_id":"6197b3f67c2b5cd3b6d9596a","session_id":"6197b5ae11888c40ce41ab46","condition":"full-information","relevant_dimensions":["wings","legs"],"bee_group":{"antennae":"X","wings":"1","pattern":"X","legs":"M"},"action":"harvest","summary":"bad-harvest","bonus":0.04000000000000001},{"rt":884.7000000001863,"stimulus":"\n                    <p><b>Action: <em>harvest</em></b></p>\n                    <p>This is the bee that you just saw.</p>\n                    <img src=\"bees-with-color/bee-B1DM.svg\" width=\"200\">\n                    <p><span class=\"redText\">Bad choice, the bee was angry.</span><br><b>You have been stung!</b><br>Your pay has been decreased by $0.10. Your bonus pay is now $0.00.</p>\n            ","response":0,"trial_type":"html-button-response","trial_index":116,"time_elapsed":275033,"internal_node_id":"0.0-4.0-1.54","subject_id":"5f8a2e665c8bdc0df255fdb8","study_id":"6197b3f67c2b5cd3b6d9596a","session_id":"6197b5ae11888c40ce41ab46","condition":"full-information","relevant_dimensions":["wings","legs"],"bee_group":{"antennae":"X","wings":"1","pattern":"X","legs":"M"},"bonus":0.04000000000000001},{"rt":462.79999999981374,"stimulus":"bees-with-color/bee-A2DF.svg","response":0,"trial_type":"image-button-response","trial_index":117,"time_elapsed":275497,"internal_node_id":"0.0-4.0-0.55","subject_id":"5f8a2e665c8bdc0df255fdb8","study_id":"6197b3f67c2b5cd3b6d9596a","session_id":"6197b5ae11888c40ce41ab46","condition":"full-information","relevant_dimensions":["wings","legs"],"bee_group":{"antennae":"X","wings":"1","pattern":"X","legs":"M"},"action":"harvest","summary":"good-harvest","bonus":0.04000000000000001},{"rt":403.89999999990687,"stimulus":"\n                    <p><b>Action: <em>harvest</em></b></p>\n                    <p>This is the bee that you just saw.</p>\n                    <img src=\"bees-with-color/bee-A2DF.svg\" width=\"200\">\n                    <p><span class=\"greenText\"><b>Successful harvest!</b></span><br>Your pay has increased by $0.02. Your bonus pay is now $0.02.</p>\n            ","response":0,"trial_type":"html-button-response","trial_index":118,"time_elapsed":275902,"internal_node_id":"0.0-4.0-1.55","subject_id":"5f8a2e665c8bdc0df255fdb8","study_id":"6197b3f67c2b5cd3b6d9596a","session_id":"6197b5ae11888c40ce41ab46","condition":"full-information","relevant_dimensions":["wings","legs"],"bee_group":{"antennae":"X","wings":"1","pattern":"X","legs":"M"},"bonus":0.04000000000000001},{"rt":737.6999999997206,"stimulus":"bees-with-color/bee-B2SF.svg","response":0,"trial_type":"image-button-response","trial_index":119,"time_elapsed":276641,"internal_node_id":"0.0-4.0-0.56","subject_id":"5f8a2e665c8bdc0df255fdb8","study_id":"6197b3f67c2b5cd3b6d9596a","session_id":"6197b5ae11888c40ce41ab46","condition":"full-information","relevant_dimensions":["wings","legs"],"bee_group":{"antennae":"X","wings":"1","pattern":"X","legs":"M"},"action":"harvest","summary":"good-harvest","bonus":0.04000000000000001},{"rt":559.7000000001863,"stimulus":"\n                    <p><b>Action: <em>harvest</em></b></p>\n                    <p>This is the bee that you just saw.</p>\n                    <img src=\"bees-with-color/bee-B2SF.svg\" width=\"200\">\n                    <p><span class=\"greenText\"><b>Successful harvest!</b></span><br>Your pay has increased by $0.02. Your bonus pay is now $0.04.</p>\n            ","response":0,"trial_type":"html-button-response","trial_index":120,"time_elapsed":277202,"internal_node_id":"0.0-4.0-1.56","subject_id":"5f8a2e665c8bdc0df255fdb8","study_id":"6197b3f67c2b5cd3b6d9596a","session_id":"6197b5ae11888c40ce41ab46","condition":"full-information","relevant_dimensions":["wings","legs"],"bee_group":{"antennae":"X","wings":"1","pattern":"X","legs":"M"},"bonus":0.04000000000000001},{"rt":357.79999999981374,"stimulus":"bees-with-color/bee-B2DM.svg","response":0,"trial_type":"image-button-response","trial_index":121,"time_elapsed":277561,"internal_node_id":"0.0-4.0-0.57","subject_id":"5f8a2e665c8bdc0df255fdb8","study_id":"6197b3f67c2b5cd3b6d9596a","session_id":"6197b5ae11888c40ce41ab46","condition":"full-information","relevant_dimensions":["wings","legs"],"bee_group":{"antennae":"X","wings":"1","pattern":"X","legs":"M"},"action":"harvest","summary":"good-harvest","bonus":0.04000000000000001},{"rt":483.29999999981374,"stimulus":"\n                    <p><b>Action: <em>harvest</em></b></p>\n                    <p>This is the bee that you just saw.</p>\n                    <img src=\"bees-with-color/bee-B2DM.svg\" width=\"200\">\n                    <p><span class=\"greenText\"><b>Successful harvest!</b></span><br>Your pay has increased by $0.02. Your bonus pay is now $0.06.</p>\n            ","response":0,"trial_type":"html-button-response","trial_index":122,"time_elapsed":278046,"internal_node_id":"0.0-4.0-1.57","subject_id":"5f8a2e665c8bdc0df255fdb8","study_id":"6197b3f67c2b5cd3b6d9596a","session_id":"6197b5ae11888c40ce41ab46","condition":"full-information","relevant_dimensions":["wings","legs"],"bee_group":{"antennae":"X","wings":"1","pattern":"X","legs":"M"},"bonus":0.04000000000000001},{"rt":1139.8999999999069,"stimulus":"bees-with-color/bee-A1SM.svg","response":0,"trial_type":"image-button-response","trial_index":123,"time_elapsed":279187,"internal_node_id":"0.0-4.0-0.58","subject_id":"5f8a2e665c8bdc0df255fdb8","study_id":"6197b3f67c2b5cd3b6d9596a","session_id":"6197b5ae11888c40ce41ab46","condition":"full-information","relevant_dimensions":["wings","legs"],"bee_group":{"antennae":"X","wings":"1","pattern":"X","legs":"M"},"action":"harvest","summary":"bad-harvest","bonus":0.04000000000000001},{"rt":1413.5,"stimulus":"\n                    <p><b>Action: <em>harvest</em></b></p>\n                    <p>This is the bee that you just saw.</p>\n                    <img src=\"bees-with-color/bee-A1SM.svg\" width=\"200\">\n                    <p><span class=\"redText\">Bad choice, the bee was angry.</span><br><b>You have been stung!</b><br>Your pay has been decreased by $0.10. Your bonus pay is now $0.00.</p>\n            ","response":0,"trial_type":"html-button-response","trial_index":124,"time_elapsed":280601,"internal_node_id":"0.0-4.0-1.58","subject_id":"5f8a2e665c8bdc0df255fdb8","study_id":"6197b3f67c2b5cd3b6d9596a","session_id":"6197b5ae11888c40ce41ab46","condition":"full-information","relevant_dimensions":["wings","legs"],"bee_group":{"antennae":"X","wings":"1","pattern":"X","legs":"M"},"bonus":0.04000000000000001},{"rt":590.8999999999069,"stimulus":"bees-with-color/bee-A2DM.svg","response":0,"trial_type":"image-button-response","trial_index":125,"time_elapsed":281193,"internal_node_id":"0.0-4.0-0.59","subject_id":"5f8a2e665c8bdc0df255fdb8","study_id":"6197b3f67c2b5cd3b6d9596a","session_id":"6197b5ae11888c40ce41ab46","condition":"full-information","relevant_dimensions":["wings","legs"],"bee_group":{"antennae":"X","wings":"1","pattern":"X","legs":"M"},"action":"harvest","summary":"good-harvest","bonus":0.04000000000000001},{"rt":396,"stimulus":"\n                    <p><b>Action: <em>harvest</em></b></p>\n                    <p>This is the bee that you just saw.</p>\n                    <img src=\"bees-with-color/bee-A2DM.svg\" width=\"200\">\n                    <p><span class=\"greenText\"><b>Successful harvest!</b></span><br>Your pay has increased by $0.02. Your bonus pay is now $0.02.</p>\n            ","response":0,"trial_type":"html-button-response","trial_index":126,"time_elapsed":281591,"internal_node_id":"0.0-4.0-1.59","subject_id":"5f8a2e665c8bdc0df255fdb8","study_id":"6197b3f67c2b5cd3b6d9596a","session_id":"6197b5ae11888c40ce41ab46","condition":"full-information","relevant_dimensions":["wings","legs"],"bee_group":{"antennae":"X","wings":"1","pattern":"X","legs":"M"},"bonus":0.04000000000000001},{"rt":375.5,"stimulus":"bees-with-color/bee-B1DF.svg","response":0,"trial_type":"image-button-response","trial_index":127,"time_elapsed":281968,"internal_node_id":"0.0-4.0-0.60","subject_id":"5f8a2e665c8bdc0df255fdb8","study_id":"6197b3f67c2b5cd3b6d9596a","session_id":"6197b5ae11888c40ce41ab46","condition":"full-information","relevant_dimensions":["wings","legs"],"bee_group":{"antennae":"X","wings":"1","pattern":"X","legs":"M"},"action":"harvest","summary":"good-harvest","bonus":0.04000000000000001},{"rt":404.79999999981374,"stimulus":"\n                    <p><b>Action: <em>harvest</em></b></p>\n                    <p>This is the bee that you just saw.</p>\n                    <img src=\"bees-with-color/bee-B1DF.svg\" width=\"200\">\n                    <p><span class=\"greenText\"><b>Successful harvest!</b></span><br>Your pay has increased by $0.02. Your bonus pay is now $0.04.</p>\n            ","response":0,"trial_type":"html-button-response","trial_index":128,"time_elapsed":282376,"internal_node_id":"0.0-4.0-1.60","subject_id":"5f8a2e665c8bdc0df255fdb8","study_id":"6197b3f67c2b5cd3b6d9596a","session_id":"6197b5ae11888c40ce41ab46","condition":"full-information","relevant_dimensions":["wings","legs"],"bee_group":{"antennae":"X","wings":"1","pattern":"X","legs":"M"},"bonus":0.04000000000000001},{"rt":416.70000000018626,"stimulus":"bees-with-color/bee-B1SF.svg","response":0,"trial_type":"image-button-response","trial_index":129,"time_elapsed":282793,"internal_node_id":"0.0-4.0-0.61","subject_id":"5f8a2e665c8bdc0df255fdb8","study_id":"6197b3f67c2b5cd3b6d9596a","session_id":"6197b5ae11888c40ce41ab46","condition":"full-information","relevant_dimensions":["wings","legs"],"bee_group":{"antennae":"X","wings":"1","pattern":"X","legs":"M"},"action":"harvest","summary":"good-harvest","bonus":0.04000000000000001},{"rt":1374.1000000000931,"stimulus":"\n                    <p><b>Action: <em>harvest</em></b></p>\n                    <p>This is the bee that you just saw.</p>\n                    <img src=\"bees-with-color/bee-B1SF.svg\" width=\"200\">\n                    <p><span class=\"greenText\"><b>Successful harvest!</b></span><br>Your pay has increased by $0.02. Your bonus pay is now $0.06.</p>\n            ","response":0,"trial_type":"html-button-response","trial_index":130,"time_elapsed":284169,"internal_node_id":"0.0-4.0-1.61","subject_id":"5f8a2e665c8bdc0df255fdb8","study_id":"6197b3f67c2b5cd3b6d9596a","session_id":"6197b5ae11888c40ce41ab46","condition":"full-information","relevant_dimensions":["wings","legs"],"bee_group":{"antennae":"X","wings":"1","pattern":"X","legs":"M"},"bonus":0.04000000000000001},{"rt":376.79999999981374,"stimulus":"bees-with-color/bee-B1SM.svg","response":0,"trial_type":"image-button-response","trial_index":131,"time_elapsed":284546,"internal_node_id":"0.0-4.0-0.62","subject_id":"5f8a2e665c8bdc0df255fdb8","study_id":"6197b3f67c2b5cd3b6d9596a","session_id":"6197b5ae11888c40ce41ab46","condition":"full-information","relevant_dimensions":["wings","legs"],"bee_group":{"antennae":"X","wings":"1","pattern":"X","legs":"M"},"action":"harvest","summary":"bad-harvest","bonus":0.04000000000000001},{"rt":1053.7999999998137,"stimulus":"\n                    <p><b>Action: <em>harvest</em></b></p>\n                    <p>This is the bee that you just saw.</p>\n                    <img src=\"bees-with-color/bee-B1SM.svg\" width=\"200\">\n                    <p><span class=\"redText\">Bad choice, the bee was angry.</span><br><b>You have been stung!</b><br>Your pay has been decreased by $0.10. Your bonus pay is now $0.00.</p>\n            ","response":0,"trial_type":"html-button-response","trial_index":132,"time_elapsed":285601,"internal_node_id":"0.0-4.0-1.62","subject_id":"5f8a2e665c8bdc0df255fdb8","study_id":"6197b3f67c2b5cd3b6d9596a","session_id":"6197b5ae11888c40ce41ab46","condition":"full-information","relevant_dimensions":["wings","legs"],"bee_group":{"antennae":"X","wings":"1","pattern":"X","legs":"M"},"bonus":0.04000000000000001},{"rt":556.5,"stimulus":"bees-with-color/bee-B2DF.svg","response":0,"trial_type":"image-button-response","trial_index":133,"time_elapsed":286159,"internal_node_id":"0.0-4.0-0.63","subject_id":"5f8a2e665c8bdc0df255fdb8","study_id":"6197b3f67c2b5cd3b6d9596a","session_id":"6197b5ae11888c40ce41ab46","condition":"full-information","relevant_dimensions":["wings","legs"],"bee_group":{"antennae":"X","wings":"1","pattern":"X","legs":"M"},"action":"harvest","summary":"good-harvest","bonus":0.04000000000000001},{"rt":629.1999999997206,"stimulus":"\n                    <p><b>Action: <em>harvest</em></b></p>\n                    <p>This is the bee that you just saw.</p>\n                    <img src=\"bees-with-color/bee-B2DF.svg\" width=\"200\">\n                    <p><span class=\"greenText\"><b>Successful harvest!</b></span><br>Your pay has increased by $0.02. Your bonus pay is now $0.02.</p>\n            ","response":0,"trial_type":"html-button-response","trial_index":134,"time_elapsed":286789,"internal_node_id":"0.0-4.0-1.63","subject_id":"5f8a2e665c8bdc0df255fdb8","study_id":"6197b3f67c2b5cd3b6d9596a","session_id":"6197b5ae11888c40ce41ab46","condition":"full-information","relevant_dimensions":["wings","legs"],"bee_group":{"antennae":"X","wings":"1","pattern":"X","legs":"M"},"bonus":0.04000000000000001},{"rt":10549.100000000093,"stimulus":"You have completed the first part of this experiment.<br><br>You will now begin a shorter second part, in which you will receive no feedback.<br>The same rules regarding bonus pay apply.<br><br>Press any key to begin.","response":"j","trial_type":"html-keyboard-response","trial_index":135,"time_elapsed":297339,"internal_node_id":"0.0-5.0","subject_id":"5f8a2e665c8bdc0df255fdb8","study_id":"6197b3f67c2b5cd3b6d9596a","session_id":"6197b5ae11888c40ce41ab46","condition":"full-information","relevant_dimensions":["wings","legs"],"bee_group":{"antennae":"X","wings":"1","pattern":"X","legs":"M"},"bonus":0.04000000000000001},{"rt":1909.6000000000931,"stimulus":"bees-with-color/bee-A1SF.svg","response":0,"trial_type":"image-button-response","trial_index":136,"time_elapsed":299259,"internal_node_id":"0.0-6.0-0.0","subject_id":"5f8a2e665c8bdc0df255fdb8","study_id":"6197b3f67c2b5cd3b6d9596a","session_id":"6197b5ae11888c40ce41ab46","condition":"full-information","relevant_dimensions":["wings","legs"],"bee_group":{"antennae":"X","wings":"1","pattern":"X","legs":"M"},"bonus":0.04000000000000001},{"rt":6017.299999999814,"stimulus":"bees-with-color/bee-B1SM.svg","response":0,"trial_type":"image-button-response","trial_index":137,"time_elapsed":305278,"internal_node_id":"0.0-6.0-0.1","subject_id":"5f8a2e665c8bdc0df255fdb8","study_id":"6197b3f67c2b5cd3b6d9596a","session_id":"6197b5ae11888c40ce41ab46","condition":"full-information","relevant_dimensions":["wings","legs"],"bee_group":{"antennae":"X","wings":"1","pattern":"X","legs":"M"},"bonus":0.04000000000000001},{"rt":1126,"stimulus":"bees-with-color/bee-A2DM.svg","response":1,"trial_type":"image-button-response","trial_index":138,"time_elapsed":306406,"internal_node_id":"0.0-6.0-0.2","subject_id":"5f8a2e665c8bdc0df255fdb8","study_id":"6197b3f67c2b5cd3b6d9596a","session_id":"6197b5ae11888c40ce41ab46","condition":"full-information","relevant_dimensions":["wings","legs"],"bee_group":{"antennae":"X","wings":"1","pattern":"X","legs":"M"},"bonus":0.04000000000000001},{"rt":417.1999999997206,"stimulus":"bees-with-color/bee-B2DM.svg","response":0,"trial_type":"image-button-response","trial_index":139,"time_elapsed":306824,"internal_node_id":"0.0-6.0-0.3","subject_id":"5f8a2e665c8bdc0df255fdb8","study_id":"6197b3f67c2b5cd3b6d9596a","session_id":"6197b5ae11888c40ce41ab46","condition":"full-information","relevant_dimensions":["wings","legs"],"bee_group":{"antennae":"X","wings":"1","pattern":"X","legs":"M"},"bonus":0.04000000000000001},{"rt":482.29999999981374,"stimulus":"bees-with-color/bee-A1SM.svg","response":1,"trial_type":"image-button-response","trial_index":140,"time_elapsed":307309,"internal_node_id":"0.0-6.0-0.4","subject_id":"5f8a2e665c8bdc0df255fdb8","study_id":"6197b3f67c2b5cd3b6d9596a","session_id":"6197b5ae11888c40ce41ab46","condition":"full-information","relevant_dimensions":["wings","legs"],"bee_group":{"antennae":"X","wings":"1","pattern":"X","legs":"M"},"bonus":0.04000000000000001},{"rt":702,"stimulus":"bees-with-color/bee-B1DF.svg","response":0,"trial_type":"image-button-response","trial_index":141,"time_elapsed":308012,"internal_node_id":"0.0-6.0-0.5","subject_id":"5f8a2e665c8bdc0df255fdb8","study_id":"6197b3f67c2b5cd3b6d9596a","session_id":"6197b5ae11888c40ce41ab46","condition":"full-information","relevant_dimensions":["wings","legs"],"bee_group":{"antennae":"X","wings":"1","pattern":"X","legs":"M"},"bonus":0.04000000000000001},{"rt":770.2000000001863,"stimulus":"bees-with-color/bee-A2SM.svg","response":0,"trial_type":"image-button-response","trial_index":142,"time_elapsed":308785,"internal_node_id":"0.0-6.0-0.6","subject_id":"5f8a2e665c8bdc0df255fdb8","study_id":"6197b3f67c2b5cd3b6d9596a","session_id":"6197b5ae11888c40ce41ab46","condition":"full-information","relevant_dimensions":["wings","legs"],"bee_group":{"antennae":"X","wings":"1","pattern":"X","legs":"M"},"bonus":0.04000000000000001},{"rt":373.39999999990687,"stimulus":"bees-with-color/bee-A2SF.svg","response":1,"trial_type":"image-button-response","trial_index":143,"time_elapsed":309160,"internal_node_id":"0.0-6.0-0.7","subject_id":"5f8a2e665c8bdc0df255fdb8","study_id":"6197b3f67c2b5cd3b6d9596a","session_id":"6197b5ae11888c40ce41ab46","condition":"full-information","relevant_dimensions":["wings","legs"],"bee_group":{"antennae":"X","wings":"1","pattern":"X","legs":"M"},"bonus":0.04000000000000001},{"rt":437.29999999981374,"stimulus":"bees-with-color/bee-B1SF.svg","response":0,"trial_type":"image-button-response","trial_index":144,"time_elapsed":309598,"internal_node_id":"0.0-6.0-0.8","subject_id":"5f8a2e665c8bdc0df255fdb8","study_id":"6197b3f67c2b5cd3b6d9596a","session_id":"6197b5ae11888c40ce41ab46","condition":"full-information","relevant_dimensions":["wings","legs"],"bee_group":{"antennae":"X","wings":"1","pattern":"X","legs":"M"},"bonus":0.04000000000000001},{"rt":504.3000000002794,"stimulus":"bees-with-color/bee-A1DM.svg","response":0,"trial_type":"image-button-response","trial_index":145,"time_elapsed":310104,"internal_node_id":"0.0-6.0-0.9","subject_id":"5f8a2e665c8bdc0df255fdb8","study_id":"6197b3f67c2b5cd3b6d9596a","session_id":"6197b5ae11888c40ce41ab46","condition":"full-information","relevant_dimensions":["wings","legs"],"bee_group":{"antennae":"X","wings":"1","pattern":"X","legs":"M"},"bonus":0.04000000000000001},{"rt":526.7999999998137,"stimulus":"bees-with-color/bee-B2SF.svg","response":0,"trial_type":"image-button-response","trial_index":146,"time_elapsed":310632,"internal_node_id":"0.0-6.0-0.10","subject_id":"5f8a2e665c8bdc0df255fdb8","study_id":"6197b3f67c2b5cd3b6d9596a","session_id":"6197b5ae11888c40ce41ab46","condition":"full-information","relevant_dimensions":["wings","legs"],"bee_group":{"antennae":"X","wings":"1","pattern":"X","legs":"M"},"bonus":0.04000000000000001},{"rt":392.5,"stimulus":"bees-with-color/bee-B2DF.svg","response":1,"trial_type":"image-button-response","trial_index":147,"time_elapsed":311026,"internal_node_id":"0.0-6.0-0.11","subject_id":"5f8a2e665c8bdc0df255fdb8","study_id":"6197b3f67c2b5cd3b6d9596a","session_id":"6197b5ae11888c40ce41ab46","condition":"full-information","relevant_dimensions":["wings","legs"],"bee_group":{"antennae":"X","wings":"1","pattern":"X","legs":"M"},"bonus":0.04000000000000001},{"rt":383.1999999997206,"stimulus":"bees-with-color/bee-B2SM.svg","response":0,"trial_type":"image-button-response","trial_index":148,"time_elapsed":311411,"internal_node_id":"0.0-6.0-0.12","subject_id":"5f8a2e665c8bdc0df255fdb8","study_id":"6197b3f67c2b5cd3b6d9596a","session_id":"6197b5ae11888c40ce41ab46","condition":"full-information","relevant_dimensions":["wings","legs"],"bee_group":{"antennae":"X","wings":"1","pattern":"X","legs":"M"},"bonus":0.04000000000000001},{"rt":308.60000000009313,"stimulus":"bees-with-color/bee-A2DF.svg","response":0,"trial_type":"image-button-response","trial_index":149,"time_elapsed":311722,"internal_node_id":"0.0-6.0-0.13","subject_id":"5f8a2e665c8bdc0df255fdb8","study_id":"6197b3f67c2b5cd3b6d9596a","session_id":"6197b5ae11888c40ce41ab46","condition":"full-information","relevant_dimensions":["wings","legs"],"bee_group":{"antennae":"X","wings":"1","pattern":"X","legs":"M"},"bonus":0.04000000000000001},{"rt":170.5,"stimulus":"bees-with-color/bee-A1DF.svg","response":0,"trial_type":"image-button-response","trial_index":150,"time_elapsed":311893,"internal_node_id":"0.0-6.0-0.14","subject_id":"5f8a2e665c8bdc0df255fdb8","study_id":"6197b3f67c2b5cd3b6d9596a","session_id":"6197b5ae11888c40ce41ab46","condition":"full-information","relevant_dimensions":["wings","legs"],"bee_group":{"antennae":"X","wings":"1","pattern":"X","legs":"M"},"bonus":0.04000000000000001},{"rt":170.5,"stimulus":"bees-with-color/bee-B1DM.svg","response":0,"trial_type":"image-button-response","trial_index":151,"time_elapsed":312065,"internal_node_id":"0.0-6.0-0.15","subject_id":"5f8a2e665c8bdc0df255fdb8","study_id":"6197b3f67c2b5cd3b6d9596a","session_id":"6197b5ae11888c40ce41ab46","condition":"full-information","relevant_dimensions":["wings","legs"],"bee_group":{"antennae":"X","wings":"1","pattern":"X","legs":"M"},"bonus":0.04000000000000001},{"rt":450.79999999981374,"stimulus":"bees-with-color/bee-B2SM.svg","response":1,"trial_type":"image-button-response","trial_index":152,"time_elapsed":312518,"internal_node_id":"0.0-6.0-0.16","subject_id":"5f8a2e665c8bdc0df255fdb8","study_id":"6197b3f67c2b5cd3b6d9596a","session_id":"6197b5ae11888c40ce41ab46","condition":"full-information","relevant_dimensions":["wings","legs"],"bee_group":{"antennae":"X","wings":"1","pattern":"X","legs":"M"},"bonus":0.04000000000000001},{"rt":330,"stimulus":"bees-with-color/bee-B2SF.svg","response":0,"trial_type":"image-button-response","trial_index":153,"time_elapsed":312849,"internal_node_id":"0.0-6.0-0.17","subject_id":"5f8a2e665c8bdc0df255fdb8","study_id":"6197b3f67c2b5cd3b6d9596a","session_id":"6197b5ae11888c40ce41ab46","condition":"full-information","relevant_dimensions":["wings","legs"],"bee_group":{"antennae":"X","wings":"1","pattern":"X","legs":"M"},"bonus":0.04000000000000001},{"rt":186.1999999997206,"stimulus":"bees-with-color/bee-A1SF.svg","response":0,"trial_type":"image-button-response","trial_index":154,"time_elapsed":313036,"internal_node_id":"0.0-6.0-0.18","subject_id":"5f8a2e665c8bdc0df255fdb8","study_id":"6197b3f67c2b5cd3b6d9596a","session_id":"6197b5ae11888c40ce41ab46","condition":"full-information","relevant_dimensions":["wings","legs"],"bee_group":{"antennae":"X","wings":"1","pattern":"X","legs":"M"},"bonus":0.04000000000000001},{"rt":163.79999999981374,"stimulus":"bees-with-color/bee-B1DM.svg","response":0,"trial_type":"image-button-response","trial_index":155,"time_elapsed":313201,"internal_node_id":"0.0-6.0-0.19","subject_id":"5f8a2e665c8bdc0df255fdb8","study_id":"6197b3f67c2b5cd3b6d9596a","session_id":"6197b5ae11888c40ce41ab46","condition":"full-information","relevant_dimensions":["wings","legs"],"bee_group":{"antennae":"X","wings":"1","pattern":"X","legs":"M"},"bonus":0.04000000000000001},{"rt":148.5,"stimulus":"bees-with-color/bee-A1SM.svg","response":0,"trial_type":"image-button-response","trial_index":156,"time_elapsed":313351,"internal_node_id":"0.0-6.0-0.20","subject_id":"5f8a2e665c8bdc0df255fdb8","study_id":"6197b3f67c2b5cd3b6d9596a","session_id":"6197b5ae11888c40ce41ab46","condition":"full-information","relevant_dimensions":["wings","legs"],"bee_group":{"antennae":"X","wings":"1","pattern":"X","legs":"M"},"bonus":0.04000000000000001},{"rt":413.79999999981374,"stimulus":"bees-with-color/bee-A2SF.svg","response":1,"trial_type":"image-button-response","trial_index":157,"time_elapsed":313766,"internal_node_id":"0.0-6.0-0.21","subject_