[{"success":true,"trial_type":"fullscreen","trial_index":0,"time_elapsed":4150,"internal_node_id":"0.0-0.0","subject_id":"616edaf87d202e3878676a2f","study_id":"6197b3f67c2b5cd3b6d9596a","session_id":"6197b59b8858b5c72ad37015","condition":"full-information","relevant_dimensions":["wings","legs"],"bee_group":{"antennae":"X","wings":"1","pattern":"X","legs":"F"},"bonus":1.6800000000000013},{"success":true,"timeout":false,"failed_images":[],"failed_audio":[],"failed_video":[],"trial_type":"preload","trial_index":1,"time_elapsed":5561,"internal_node_id":"0.0-1.0","subject_id":"616edaf87d202e3878676a2f","study_id":"6197b3f67c2b5cd3b6d9596a","session_id":"6197b59b8858b5c72ad37015","condition":"full-information","relevant_dimensions":["wings","legs"],"bee_group":{"antennae":"X","wings":"1","pattern":"X","legs":"F"},"bonus":1.6800000000000013},{"rt":1564.3999999761581,"stimulus":"Welcome! Press any key to begin.","response":" ","trial_type":"html-keyboard-response","trial_index":2,"time_elapsed":7126,"internal_node_id":"0.0-2.0","subject_id":"616edaf87d202e3878676a2f","study_id":"6197b3f67c2b5cd3b6d9596a","session_id":"6197b59b8858b5c72ad37015","condition":"full-information","relevant_dimensions":["wings","legs"],"bee_group":{"antennae":"X","wings":"1","pattern":"X","legs":"F"},"bonus":1.6800000000000013},{"view_history":[{"page_index":0,"viewing_time":22154.5},{"page_index":1,"viewing_time":13333.800000011921},{"page_index":2,"viewing_time":9854.099999964237},{"page_index":3,"viewing_time":32649},{"page_index":4,"viewing_time":6850.400000035763},{"page_index":5,"viewing_time":5000.699999988079},{"page_index":6,"viewing_time":8238.199999988079},{"page_index":7,"viewing_time":36907.19999998808},{"page_index":8,"viewing_time":9548.300000011921},{"page_index":9,"viewing_time":10519.5},{"page_index":10,"viewing_time":8065.400000035763},{"page_index":11,"viewing_time":17307},{"page_index":12,"viewing_time":8804.099999964237},{"page_index":13,"viewing_time":2338},{"page_index":14,"viewing_time":3419.600000023842}],"rt":194990.10000002384,"trial_type":"instructions","trial_index":3,"time_elapsed":202116,"internal_node_id":"0.0-3.0-0.0","subject_id":"616edaf87d202e3878676a2f","study_id":"6197b3f67c2b5cd3b6d9596a","session_id":"6197b59b8858b5c72ad37015","condition":"full-information","relevant_dimensions":["wings","legs"],"bee_group":{"antennae":"X","wings":"1","pattern":"X","legs":"F"},"bonus":1.6800000000000013},{"rt":16104.700000047684,"response":{"Q0":["Two or six legs","Stripes or spots on body","Single or double wings","Antennae or no antennae"]},"question_order":[0],"trial_type":"survey-multi-select","trial_index":4,"time_elapsed":218223,"internal_node_id":"0.0-3.0-1.0","subject_id":"616edaf87d202e3878676a2f","study_id":"6197b3f67c2b5cd3b6d9596a","session_id":"6197b59b8858b5c72ad37015","condition":"full-information","relevant_dimensions":["wings","legs"],"bee_group":{"antennae":"X","wings":"1","pattern":"X","legs":"F"},"correct":true,"bonus":1.6800000000000013},{"rt":18560.200000047684,"response":{"Q1":"No.","Q2":"Based on the four features of the bee.","Q3":"You learn if it was friendly or dangerous, but do not alter your bonus."},"question_order":[0,1,2],"trial_type":"survey-multi-choice","trial_index":5,"time_elapsed":236786,"internal_node_id":"0.0-3.0-2.0","subject_id":"616edaf87d202e3878676a2f","study_id":"6197b3f67c2b5cd3b6d9596a","session_id":"6197b59b8858b5c72ad37015","condition":"full-information","relevant_dimensions":["wings","legs"],"bee_group":{"antennae":"X","wings":"1","pattern":"X","legs":"F"},"correct":true,"bonus":1.6800000000000013},{"rt":3155.800000011921,"stimulus":"<p>Congrats, you got everything right<br>When you're ready, click the button below to continue to the experiment.</p>","response":0,"trial_type":"html-button-response","trial_index":6,"time_elapsed":239945,"internal_node_id":"0.0-3.0-3.0","subject_id":"616edaf87d202e3878676a2f","study_id":"6197b3f67c2b5cd3b6d9596a","session_id":"6197b59b8858b5c72ad37015","condition":"full-information","relevant_dimensions":["wings","legs"],"bee_group":{"antennae":"X","wings":"1","pattern":"X","legs":"F"},"bonus":1.6800000000000013},{"rt":5437.600000023842,"stimulus":"bees-with-color/bee-B1DM.svg","response":1,"trial_type":"image-button-response","trial_index":7,"time_elapsed":245384,"internal_node_id":"0.0-4.0-0.0","subject_id":"616edaf87d202e3878676a2f","study_id":"6197b3f67c2b5cd3b6d9596a","session_id":"6197b59b8858b5c72ad37015","condition":"full-information","relevant_dimensions":["wings","legs"],"bee_group":{"antennae":"X","wings":"1","pattern":"X","legs":"F"},"action":"avoid","summary":"bad-avoid","bonus":1.6800000000000013},{"rt":33187.30000001192,"stimulus":"\n                    <p><b>Action: <em>avoid</em></b></p>\n                    <p>This is the bee that you just saw.</p>\n                    <img src=\"bees-with-color/bee-B1DM.svg\" width=\"200\">\n                    <p><span class=\"redText\">Bad choice,</span> the bee was friendly.<br>Your bonus pay is unchanged, and remains at $0.54.</p>\n            ","response":0,"trial_type":"html-button-response","trial_index":8,"time_elapsed":278573,"internal_node_id":"0.0-4.0-1.0","subject_id":"616edaf87d202e3878676a2f","study_id":"6197b3f67c2b5cd3b6d9596a","session_id":"6197b59b8858b5c72ad37015","condition":"full-information","relevant_dimensions":["wings","legs"],"bee_group":{"antennae":"X","wings":"1","pattern":"X","legs":"F"},"bonus":1.6800000000000013},{"rt":2831,"stimulus":"bees-with-color/bee-B1SF.svg","response":1,"trial_type":"image-button-response","trial_index":9,"time_elapsed":281406,"internal_node_id":"0.0-4.0-0.1","subject_id":"616edaf87d202e3878676a2f","study_id":"6197b3f67c2b5cd3b6d9596a","session_id":"6197b59b8858b5c72ad37015","condition":"full-information","relevant_dimensions":["wings","legs"],"bee_group":{"antennae":"X","wings":"1","pattern":"X","legs":"F"},"action":"avoid","summary":"good-avoid","bonus":1.6800000000000013},{"rt":34416.09999996424,"stimulus":"\n                    <p><b>Action: <em>avoid</em></b></p>\n                    <p>This is the bee that you just saw.</p>\n                    <img src=\"bees-with-color/bee-B1SF.svg\" width=\"200\">\n                    <p><span class=\"greenText\">Good choice!</span>  This bee would have stung you.<br>Your bonus pay is unchanged, and remains at $0.54.</p>\n            ","response":0,"trial_type":"html-button-response","trial_index":10,"time_elapsed":315823,"internal_node_id":"0.0-4.0-1.1","subject_id":"616edaf87d202e3878676a2f","study_id":"6197b3f67c2b5cd3b6d9596a","session_id":"6197b59b8858b5c72ad37015","condition":"full-information","relevant_dimensions":["wings","legs"],"bee_group":{"antennae":"X","wings":"1","pattern":"X","legs":"F"},"bonus":1.6800000000000013},{"rt":2908.800000011921,"stimulus":"bees-with-color/bee-B2SF.svg","response":0,"trial_type":"image-button-response","trial_index":11,"time_elapsed":318733,"internal_node_id":"0.0-4.0-0.2","subject_id":"616edaf87d202e3878676a2f","study_id":"6197b3f67c2b5cd3b6d9596a","session_id":"6197b59b8858b5c72ad37015","condition":"full-information","relevant_dimensions":["wings","legs"],"bee_group":{"antennae":"X","wings":"1","pattern":"X","legs":"F"},"action":"harvest","summary":"good-harvest","bonus":1.6800000000000013},{"rt":10868.699999988079,"stimulus":"\n                    <p><b>Action: <em>harvest</em></b></p>\n                    <p>This is the bee that you just saw.</p>\n                    <img src=\"bees-with-color/bee-B2SF.svg\" width=\"200\">\n                    <p><span class=\"greenText\"><b>Successful harvest!</b></span><br>Your pay has increased by $0.02. Your bonus pay is now $0.56.</p>\n            ","response":0,"trial_type":"html-button-response","trial_index":12,"time_elapsed":329603,"internal_node_id":"0.0-4.0-1.2","subject_id":"616edaf87d202e3878676a2f","study_id":"6197b3f67c2b5cd3b6d9596a","session_id":"6197b59b8858b5c72ad37015","condition":"full-information","relevant_dimensions":["wings","legs"],"bee_group":{"antennae":"X","wings":"1","pattern":"X","legs":"F"},"bonus":1.6800000000000013},{"rt":6783.699999988079,"stimulus":"bees-with-color/bee-A2DM.svg","response":0,"trial_type":"image-button-response","trial_index":13,"time_elapsed":336388,"internal_node_id":"0.0-4.0-0.3","subject_id":"616edaf87d202e3878676a2f","study_id":"6197b3f67c2b5cd3b6d9596a","session_id":"6197b59b8858b5c72ad37015","condition":"full-information","relevant_dimensions":["wings","legs"],"bee_group":{"antennae":"X","wings":"1","pattern":"X","legs":"F"},"action":"harvest","summary":"good-harvest","bonus":1.6800000000000013},{"rt":2495.100000023842,"stimulus":"\n                    <p><b>Action: <em>harvest</em></b></p>\n                    <p>This is the bee that you just saw.</p>\n                    <img src=\"bees-with-color/bee-A2DM.svg\" width=\"200\">\n                    <p><span class=\"greenText\"><b>Successful harvest!</b></span><br>Your pay has increased by $0.02. Your bonus pay is now $0.58.</p>\n            ","response":0,"trial_type":"html-button-response","trial_index":14,"time_elapsed":338885,"internal_node_id":"0.0-4.0-1.3","subject_id":"616edaf87d202e3878676a2f","study_id":"6197b3f67c2b5cd3b6d9596a","session_id":"6197b59b8858b5c72ad37015","condition":"full-information","relevant_dimensions":["wings","legs"],"bee_group":{"antennae":"X","wings":"1","pattern":"X","legs":"F"},"bonus":1.6800000000000013},{"rt":3508.2000000476837,"stimulus":"bees-with-color/bee-A1SM.svg","response":1,"trial_type":"image-button-response","trial_index":15,"time_elapsed":342394,"internal_node_id":"0.0-4.0-0.4","subject_id":"616edaf87d202e3878676a2f","study_id":"6197b3f67c2b5cd3b6d9596a","session_id":"6197b59b8858b5c72ad37015","condition":"full-information","relevant_dimensions":["wings","legs"],"bee_group":{"antennae":"X","wings":"1","pattern":"X","legs":"F"},"action":"avoid","summary":"bad-avoid","bonus":1.6800000000000013},{"rt":4049.099999964237,"stimulus":"\n                    <p><b>Action: <em>avoid</em></b></p>\n                    <p>This is the bee that you just saw.</p>\n                    <img src=\"bees-with-color/bee-A1SM.svg\" width=\"200\">\n                    <p><span class=\"redText\">Bad choice,</span> the bee was friendly.<br>Your bonus pay is unchanged, and remains at $0.58.</p>\n            ","response":0,"trial_type":"html-button-response","trial_index":16,"time_elapsed":346445,"internal_node_id":"0.0-4.0-1.4","subject_id":"616edaf87d202e3878676a2f","study_id":"6197b3f67c2b5cd3b6d9596a","session_id":"6197b59b8858b5c72ad37015","condition":"full-information","relevant_dimensions":["wings","legs"],"bee_group":{"antennae":"X","wings":"1","pattern":"X","legs":"F"},"bonus":1.6800000000000013},{"rt":4096.300000011921,"stimulus":"bees-with-color/bee-A2DF.svg","response":1,"trial_type":"image-button-response","trial_index":17,"time_elapsed":350542,"internal_node_id":"0.0-4.0-0.5","subject_id":"616edaf87d202e3878676a2f","study_id":"6197b3f67c2b5cd3b6d9596a","session_id":"6197b59b8858b5c72ad37015","condition":"full-information","relevant_dimensions":["wings","legs"],"bee_group":{"antennae":"X","wings":"1","pattern":"X","legs":"F"},"action":"avoid","summary":"bad-avoid","bonus":1.6800000000000013},{"rt":2180.300000011921,"stimulus":"\n                    <p><b>Action: <em>avoid</em></b></p>\n                    <p>This is the bee that you just saw.</p>\n                    <img src=\"bees-with-color/bee-A2DF.svg\" width=\"200\">\n                    <p><span class=\"redText\">Bad choice,</span> the bee was friendly.<br>Your bonus pay is unchanged, and remains at $0.58.</p>\n            ","response":0,"trial_type":"html-button-response","trial_index":18,"time_elapsed":352724,"internal_node_id":"0.0-4.0-1.5","subject_id":"616edaf87d202e3878676a2f","study_id":"6197b3f67c2b5cd3b6d9596a","session_id":"6197b59b8858b5c72ad37015","condition":"full-information","relevant_dimensions":["wings","legs"],"bee_group":{"antennae":"X","wings":"1","pattern":"X","legs":"F"},"bonus":1.6800000000000013},{"rt":4460.5,"stimulus":"bees-with-color/bee-B1SM.svg","response":0,"trial_type":"image-button-response","trial_index":19,"time_elapsed":357186,"internal_node_id":"0.0-4.0-0.6","subject_id":"616edaf87d202e3878676a2f","study_id":"6197b3f67c2b5cd3b6d9596a","session_id":"6197b59b8858b5c72ad37015","condition":"full-information","relevant_dimensions":["wings","legs"],"bee_group":{"antennae":"X","wings":"1","pattern":"X","legs":"F"},"action":"harvest","summary":"good-harvest","bonus":1.6800000000000013},{"rt":3234.599999964237,"stimulus":"\n                    <p><b>Action: <em>harvest</em></b></p>\n                    <p>This is the bee that you just saw.</p>\n                    <img src=\"bees-with-color/bee-B1SM.svg\" width=\"200\">\n                    <p><span class=\"greenText\"><b>Successful harvest!</b></span><br>Your pay has increased by $0.02. Your bonus pay is now $0.60.</p>\n            ","response":0,"trial_type":"html-button-response","trial_index":20,"time_elapsed":360421,"internal_node_id":"0.0-4.0-1.6","subject_id":"616edaf87d202e3878676a2f","study_id":"6197b3f67c2b5cd3b6d9596a","session_id":"6197b59b8858b5c72ad37015","condition":"full-information","relevant_dimensions":["wings","legs"],"bee_group":{"antennae":"X","wings":"1","pattern":"X","legs":"F"},"bonus":1.6800000000000013},{"rt":2275.300000011921,"stimulus":"bees-with-color/bee-A1DF.svg","response":1,"trial_type":"image-button-response","trial_index":21,"time_elapsed":362698,"internal_node_id":"0.0-4.0-0.7","subject_id":"616edaf87d202e3878676a2f","study_id":"6197b3f67c2b5cd3b6d9596a","session_id":"6197b59b8858b5c72ad37015","condition":"full-information","relevant_dimensions":["wings","legs"],"bee_group":{"antennae":"X","wings":"1","pattern":"X","legs":"F"},"action":"avoid","summary":"good-avoid","bonus":1.6800000000000013},{"rt":2524.900000035763,"stimulus":"\n                    <p><b>Action: <em>avoid</em></b></p>\n                    <p>This is the bee that you just saw.</p>\n                    <img src=\"bees-with-color/bee-A1DF.svg\" width=\"200\">\n                    <p><span class=\"greenText\">Good choice!</span>  This bee would have stung you.<br>Your bonus pay is unchanged, and remains at $0.60.</p>\n            ","response":0,"trial_type":"html-button-response","trial_index":22,"time_elapsed":365224,"internal_node_id":"0.0-4.0-1.7","subject_id":"616edaf87d202e3878676a2f","study_id":"6197b3f67c2b5cd3b6d9596a","session_id":"6197b59b8858b5c72ad37015","condition":"full-information","relevant_dimensions":["wings","legs"],"bee_group":{"antennae":"X","wings":"1","pattern":"X","legs":"F"},"bonus":1.6800000000000013},{"rt":4393.599999964237,"stimulus":"bees-with-color/bee-A1SF.svg","response":0,"trial_type":"image-button-response","trial_index":23,"time_elapsed":369619,"internal_node_id":"0.0-4.0-0.8","subject_id":"616edaf87d202e3878676a2f","study_id":"6197b3f67c2b5cd3b6d9596a","session_id":"6197b59b8858b5c72ad37015","condition":"full-information","relevant_dimensions":["wings","legs"],"bee_group":{"antennae":"X","wings":"1","pattern":"X","legs":"F"},"action":"harvest","summary":"bad-harvest","bonus":1.6800000000000013},{"rt":10678.400000035763,"stimulus":"\n                    <p><b>Action: <em>harvest</em></b></p>\n                    <p>This is the bee that you just saw.</p>\n                    <img src=\"bees-with-color/bee-A1SF.svg\" width=\"200\">\n                    <p><span class=\"redText\">Bad choice, the bee was angry.</span><br><b>You have been stung!</b><br>Your pay has been decreased by $0.10. Your bonus pay is now $0.50.</p>\n            ","response":0,"trial_type":"html-button-response","trial_index":24,"time_elapsed":380298,"internal_node_id":"0.0-4.0-1.8","subject_id":"616edaf87d202e3878676a2f","study_id":"6197b3f67c2b5cd3b6d9596a","session_id":"6197b59b8858b5c72ad37015","condition":"full-information","relevant_dimensions":["wings","legs"],"bee_group":{"antennae":"X","wings":"1","pattern":"X","legs":"F"},"bonus":1.6800000000000013},{"rt":2715.600000023842,"stimulus":"bees-with-color/bee-A2SM.svg","response":0,"trial_type":"image-button-response","trial_index":25,"time_elapsed":383015,"internal_node_id":"0.0-4.0-0.9","subject_id":"616edaf87d202e3878676a2f","study_id":"6197b3f67c2b5cd3b6d9596a","session_id":"6197b59b8858b5c72ad37015","condition":"full-information","relevant_dimensions":["wings","legs"],"bee_group":{"antennae":"X","wings":"1","pattern":"X","legs":"F"},"action":"harvest","summary":"good-harvest","bonus":1.6800000000000013},{"rt":1788.2000000476837,"stimulus":"\n                    <p><b>Action: <em>harvest</em></b></p>\n                    <p>This is the bee that you just saw.</p>\n                    <img src=\"bees-with-color/bee-A2SM.svg\" width=\"200\">\n                    <p><span class=\"greenText\"><b>Successful harvest!</b></span><br>Your pay has increased by $0.02. Your bonus pay is now $0.52.</p>\n            ","response":0,"trial_type":"html-button-response","trial_index":26,"time_elapsed":384805,"internal_node_id":"0.0-4.0-1.9","subject_id":"616edaf87d202e3878676a2f","study_id":"6197b3f67c2b5cd3b6d9596a","session_id":"6197b59b8858b5c72ad37015","condition":"full-information","relevant_dimensions":["wings","legs"],"bee_group":{"antennae":"X","wings":"1","pattern":"X","legs":"F"},"bonus":1.6800000000000013},{"rt":1810.8999999761581,"stimulus":"bees-with-color/bee-B2DM.svg","response":0,"trial_type":"image-button-response","trial_index":27,"time_elapsed":386616,"internal_node_id":"0.0-4.0-0.10","subject_id":"616edaf87d202e3878676a2f","study_id":"6197b3f67c2b5cd3b6d9596a","session_id":"6197b59b8858b5c72ad37015","condition":"full-information","relevant_dimensions":["wings","legs"],"bee_group":{"antennae":"X","wings":"1","pattern":"X","legs":"F"},"action":"harvest","summary":"good-harvest","bonus":1.6800000000000013},{"rt":1481,"stimulus":"\n                    <p><b>Action: <em>harvest</em></b></p>\n                    <p>This is the bee that you just saw.</p>\n                    <img src=\"bees-with-color/bee-B2DM.svg\" width=\"200\">\n                    <p><span class=\"greenText\"><b>Successful harvest!</b></span><br>Your pay has increased by $0.02. Your bonus pay is now $0.54.</p>\n            ","response":0,"trial_type":"html-button-response","trial_index":28,"time_elapsed":388098,"internal_node_id":"0.0-4.0-1.10","subject_id":"616edaf87d202e3878676a2f","study_id":"6197b3f67c2b5cd3b6d9596a","session_id":"6197b59b8858b5c72ad37015","condition":"full-information","relevant_dimensions":["wings","legs"],"bee_group":{"antennae":"X","wings":"1","pattern":"X","legs":"F"},"bonus":1.6800000000000013},{"rt":2598.5,"stimulus":"bees-with-color/bee-A1DM.svg","response":0,"trial_type":"image-button-response","trial_index":29,"time_elapsed":390698,"internal_node_id":"0.0-4.0-0.11","subject_id":"616edaf87d202e3878676a2f","study_id":"6197b3f67c2b5cd3b6d9596a","session_id":"6197b59b8858b5c72ad37015","condition":"full-information","relevant_dimensions":["wings","legs"],"bee_group":{"antennae":"X","wings":"1","pattern":"X","legs":"F"},"action":"harvest","summary":"good-harvest","bonus":1.6800000000000013},{"rt":1744.699999988079,"stimulus":"\n                    <p><b>Action: <em>harvest</em></b></p>\n                    <p>This is the bee that you just saw.</p>\n                    <img src=\"bees-with-color/bee-A1DM.svg\" width=\"200\">\n                    <p><span class=\"greenText\"><b>Successful harvest!</b></span><br>Your pay has increased by $0.02. Your bonus pay is now $0.56.</p>\n            ","response":0,"trial_type":"html-button-response","trial_index":30,"time_elapsed":392443,"internal_node_id":"0.0-4.0-1.11","subject_id":"616edaf87d202e3878676a2f","study_id":"6197b3f67c2b5cd3b6d9596a","session_id":"6197b59b8858b5c72ad37015","condition":"full-information","relevant_dimensions":["wings","legs"],"bee_group":{"antennae":"X","wings":"1","pattern":"X","legs":"F"},"bonus":1.6800000000000013},{"rt":2556.800000011921,"stimulus":"bees-with-color/bee-B2DF.svg","response":1,"trial_type":"image-button-response","trial_index":31,"time_elapsed":395001,"internal_node_id":"0.0-4.0-0.12","subject_id":"616edaf87d202e3878676a2f","study_id":"6197b3f67c2b5cd3b6d9596a","session_id":"6197b59b8858b5c72ad37015","condition":"full-information","relevant_dimensions":["wings","legs"],"bee_group":{"antennae":"X","wings":"1","pattern":"X","legs":"F"},"action":"avoid","summary":"bad-avoid","bonus":1.6800000000000013},{"rt":1606.300000011921,"stimulus":"\n                    <p><b>Action: <em>avoid</em></b></p>\n                    <p>This is the bee that you just saw.</p>\n                    <img src=\"bees-with-color/bee-B2DF.svg\" width=\"200\">\n                    <p><span class=\"redText\">Bad choice,</span> the bee was friendly.<br>Your bonus pay is unchanged, and remains at $0.56.</p>\n            ","response":0,"trial_type":"html-button-response","trial_index":32,"time_elapsed":396608,"internal_node_id":"0.0-4.0-1.12","subject_id":"616edaf87d202e3878676a2f","study_id":"6197b3f67c2b5cd3b6d9596a","session_id":"6197b59b8858b5c72ad37015","condition":"full-information","relevant_dimensions":["wings","legs"],"bee_group":{"antennae":"X","wings":"1","pattern":"X","legs":"F"},"bonus":1.6800000000000013},{"rt":2292.900000035763,"stimulus":"bees-with-color/bee-B2SM.svg","response":0,"trial_type":"image-button-response","trial_index":33,"time_elapsed":398903,"internal_node_id":"0.0-4.0-0.13","subject_id":"616edaf87d202e3878676a2f","study_id":"6197b3f67c2b5cd3b6d9596a","session_id":"6197b59b8858b5c72ad37015","condition":"full-information","relevant_dimensions":["wings","legs"],"bee_group":{"antennae":"X","wings":"1","pattern":"X","legs":"F"},"action":"harvest","summary":"good-harvest","bonus":1.6800000000000013},{"rt":1541.8999999761581,"stimulus":"\n                    <p><b>Action: <em>harvest</em></b></p>\n                    <p>This is the bee that you just saw.</p>\n                    <img src=\"bees-with-color/bee-B2SM.svg\" width=\"200\">\n                    <p><span class=\"greenText\"><b>Successful harvest!</b></span><br>Your pay has increased by $0.02. Your bonus pay is now $0.58.</p>\n            ","response":0,"trial_type":"html-button-response","trial_index":34,"time_elapsed":400446,"internal_node_id":"0.0-4.0-1.13","subject_id":"616edaf87d202e3878676a2f","study_id":"6197b3f67c2b5cd3b6d9596a","session_id":"6197b59b8858b5c72ad37015","condition":"full-information","relevant_dimensions":["wings","legs"],"bee_group":{"antennae":"X","wings":"1","pattern":"X","legs":"F"},"bonus":1.6800000000000013},{"rt":1733,"stimulus":"bees-with-color/bee-B1DF.svg","response":0,"trial_type":"image-button-response","trial_index":35,"time_elapsed":402180,"internal_node_id":"0.0-4.0-0.14","subject_id":"616edaf87d202e3878676a2f","study_id":"6197b3f67c2b5cd3b6d9596a","session_id":"6197b59b8858b5c72ad37015","condition":"full-information","relevant_dimensions":["wings","legs"],"bee_group":{"antennae":"X","wings":"1","pattern":"X","legs":"F"},"action":"harvest","summary":"bad-harvest","bonus":1.6800000000000013},{"rt":25608.69999998808,"stimulus":"\n                    <p><b>Action: <em>harvest</em></b></p>\n                    <p>This is the bee that you just saw.</p>\n                    <img src=\"bees-with-color/bee-B1DF.svg\" width=\"200\">\n                    <p><span class=\"redText\">Bad choice, the bee was angry.</span><br><b>You have been stung!</b><br>Your pay has been decreased by $0.10. Your bonus pay is now $0.48.</p>\n            ","response":0,"trial_type":"html-button-response","trial_index":36,"time_elapsed":427789,"internal_node_id":"0.0-4.0-1.14","subject_id":"616edaf87d202e3878676a2f","study_id":"6197b3f67c2b5cd3b6d9596a","session_id":"6197b59b8858b5c72ad37015","condition":"full-information","relevant_dimensions":["wings","legs"],"bee_group":{"antennae":"X","wings":"1","pattern":"X","legs":"F"},"bonus":1.6800000000000013},{"rt":1603.4000000357628,"stimulus":"bees-with-color/bee-A2SF.svg","response":0,"trial_type":"image-button-response","trial_index":37,"time_elapsed":429394,"internal_node_id":"0.0-4.0-0.15","subject_id":"616edaf87d202e3878676a2f","study_id":"6197b3f67c2b5cd3b6d9596a","session_id":"6197b59b8858b5c72ad37015","condition":"full-information","relevant_dimensions":["wings","legs"],"bee_group":{"antennae":"X","wings":"1","pattern":"X","legs":"F"},"action":"harvest","summary":"good-harvest","bonus":1.6800000000000013},{"rt":1361.199999988079,"stimulus":"\n                    <p><b>Action: <em>harvest</em></b></p>\n                    <p>This is the bee that you just saw.</p>\n                    <img src=\"bees-with-color/bee-A2SF.svg\" width=\"200\">\n                    <p><span class=\"greenText\"><b>Successful harvest!</b></span><br>Your pay has increased by $0.02. Your bonus pay is now $0.50.</p>\n            ","response":0,"trial_type":"html-button-response","trial_index":38,"time_elapsed":430756,"internal_node_id":"0.0-4.0-1.15","subject_id":"616edaf87d202e3878676a2f","study_id":"6197b3f67c2b5cd3b6d9596a","session_id":"6197b59b8858b5c72ad37015","condition":"full-information","relevant_dimensions":["wings","legs"],"bee_group":{"antennae":"X","wings":"1","pattern":"X","legs":"F"},"bonus":1.6800000000000013},{"rt":1483.8999999761581,"stimulus":"bees-with-color/bee-A2SF.svg","response":0,"trial_type":"image-button-response","trial_index":39,"time_elapsed":432241,"internal_node_id":"0.0-4.0-0.16","subject_id":"616edaf87d202e3878676a2f","study_id":"6197b3f67c2b5cd3b6d9596a","session_id":"6197b59b8858b5c72ad37015","condition":"full-information","relevant_dimensions":["wings","legs"],"bee_group":{"antennae":"X","wings":"1","pattern":"X","legs":"F"},"action":"harvest","summary":"good-harvest","bonus":1.6800000000000013},{"rt":1377.5999999642372,"stimulus":"\n                    <p><b>Action: <em>harvest</em></b></p>\n                    <p>This is the bee that you just saw.</p>\n                    <img src=\"bees-with-color/bee-A2SF.svg\" width=\"200\">\n                    <p><span class=\"greenText\"><b>Successful harvest!</b></span><br>Your pay has increased by $0.02. Your bonus pay is now $0.52.</p>\n            ","response":0,"trial_type":"html-button-response","trial_index":40,"time_elapsed":433619,"internal_node_id":"0.0-4.0-1.16","subject_id":"616edaf87d202e3878676a2f","study_id":"6197b3f67c2b5cd3b6d9596a","session_id":"6197b59b8858b5c72ad37015","condition":"full-information","relevant_dimensions":["wings","legs"],"bee_group":{"antennae":"X","wings":"1","pattern":"X","legs":"F"},"bonus":1.6800000000000013},{"rt":5907.099999964237,"stimulus":"bees-with-color/bee-A1SF.svg","response":1,"trial_type":"image-button-response","trial_index":41,"time_elapsed":439527,"internal_node_id":"0.0-4.0-0.17","subject_id":"616edaf87d202e3878676a2f","study_id":"6197b3f67c2b5cd3b6d9596a","session_id":"6197b59b8858b5c72ad37015","condition":"full-information","relevant_dimensions":["wings","legs"],"bee_group":{"antennae":"X","wings":"1","pattern":"X","legs":"F"},"action":"avoid","summary":"good-avoid","bonus":1.6800000000000013},{"rt":1357.199999988079,"stimulus":"\n                    <p><b>Action: <em>avoid</em></b></p>\n                    <p>This is the bee that you just saw.</p>\n                    <img src=\"bees-with-color/bee-A1SF.svg\" width=\"200\">\n                    <p><span class=\"greenText\">Good choice!</span>  This bee would have stung you.<br>Your bonus pay is unchanged, and remains at $0.52.</p>\n            ","response":0,"trial_type":"html-button-response","trial_index":42,"time_elapsed":440885,"internal_node_id":"0.0-4.0-1.17","subject_id":"616edaf87d202e3878676a2f","study_id":"6197b3f67c2b5cd3b6d9596a","session_id":"6197b59b8858b5c72ad37015","condition":"full-information","relevant_dimensions":["wings","legs"],"bee_group":{"antennae":"X","wings":"1","pattern":"X","legs":"F"},"bonus":1.6800000000000013},{"rt":1560.800000011921,"stimulus":"bees-with-color/bee-B2DM.svg","response":0,"trial_type":"image-button-response","trial_index":43,"time_elapsed":442447,"internal_node_id":"0.0-4.0-0.18","subject_id":"616edaf87d202e3878676a2f","study_id":"6197b3f67c2b5cd3b6d9596a","session_id":"6197b59b8858b5c72ad37015","condition":"full-information","relevant_dimensions":["wings","legs"],"bee_group":{"antennae":"X","wings":"1","pattern":"X","legs":"F"},"action":"harvest","summary":"good-harvest","bonus":1.6800000000000013},{"rt":1304.800000011921,"stimulus":"\n                    <p><b>Action: <em>harvest</em></b></p>\n                    <p>This is the bee that you just saw.</p>\n                    <img src=\"bees-with-color/bee-B2DM.svg\" width=\"200\">\n                    <p><span class=\"greenText\"><b>Successful harvest!</b></span><br>Your pay has increased by $0.02. Your bonus pay is now $0.54.</p>\n            ","response":0,"trial_type":"html-button-response","trial_index":44,"time_elapsed":443753,"internal_node_id":"0.0-4.0-1.18","subject_id":"616edaf87d202e3878676a2f","study_id":"6197b3f67c2b5cd3b6d9596a","session_id":"6197b59b8858b5c72ad37015","condition":"full-information","relevant_dimensions":["wings","legs"],"bee_group":{"antennae":"X","wings":"1","pattern":"X","legs":"F"},"bonus":1.6800000000000013},{"rt":2173.399999976158,"stimulus":"bees-with-color/bee-B2SM.svg","response":0,"trial_type":"image-button-response","trial_index":45,"time_elapsed":445927,"internal_node_id":"0.0-4.0-0.19","subject_id":"616edaf87d202e3878676a2f","study_id":"6197b3f67c2b5cd3b6d9596a","session_id":"6197b59b8858b5c72ad37015","condition":"full-information","relevant_dimensions":["wings","legs"],"bee_group":{"antennae":"X","wings":"1","pattern":"X","legs":"F"},"action":"harvest","summary":"good-harvest","bonus":1.6800000000000013},{"rt":1266.800000011921,"stimulus":"\n                    <p><b>Action: <em>harvest</em></b></p>\n                    <p>This is the bee that you just saw.</p>\n                    <img src=\"bees-with-color/bee-B2SM.svg\" width=\"200\">\n                    <p><span class=\"greenText\"><b>Successful harvest!</b></span><br>Your pay has increased by $0.02. Your bonus pay is now $0.56.</p>\n            ","response":0,"trial_type":"html-button-response","trial_index":46,"time_elapsed":447195,"internal_node_id":"0.0-4.0-1.19","subject_id":"616edaf87d202e3878676a2f","study_id":"6197b3f67c2b5cd3b6d9596a","session_id":"6197b59b8858b5c72ad37015","condition":"full-information","relevant_dimensions":["wings","legs"],"bee_group":{"antennae":"X","wings":"1","pattern":"X","legs":"F"},"bonus":1.6800000000000013},{"rt":3958.300000011921,"stimulus":"bees-with-color/bee-A2DF.svg","response":0,"trial_type":"image-button-response","trial_index":47,"time_elapsed":451154,"internal_node_id":"0.0-4.0-0.20","subject_id":"616edaf87d202e3878676a2f","study_id":"6197b3f67c2b5cd3b6d9596a","session_id":"6197b59b8858b5c72ad37015","condition":"full-information","relevant_dimensions":["wings","legs"],"bee_group":{"antennae":"X","wings":"1","pattern":"X","legs":"F"},"action":"harvest","summary":"good-harvest","bonus":1.6800000000000013},{"rt":1266.0999999642372,"stimulus":"\n                    <p><b>Action: <em>harvest</em></b></p>\n                    <p>This is the bee that you just saw.</p>\n                    <img src=\"bees-with-color/bee-A2DF.svg\" width=\"200\">\n                    <p><span class=\"greenText\"><b>Successful harvest!</b></span><br>Your pay has increased by $0.02. Your bonus pay is now $0.58.</p>\n            ","response":0,"trial_type":"html-button-response","trial_index":48,"time_elapsed":452422,"internal_node_id":"0.0-4.0-1.20","subject_id":"616edaf87d202e3878676a2f","study_id":"6197b3f67c2b5cd3b6d9596a","session_id":"6197b59b8858b5c72ad37015","condition":"full-information","relevant_dimensions":["wings","legs"],"bee_group":{"antennae":"X","wings":"1","pattern":"X","legs":"F"},"bonus":1.6800000000000013},{"rt":1968.800000011921,"stimulus":"bees-with-color/bee-B1SF.svg","response":1,"trial_type":"image-button-response","trial_index":49,"time_elapsed":454391,"internal_node_id":"0.0-4.0-0.21","subject_id":"616edaf87d202e3878676a2f","study_id":"6197b3f67c2b5cd3b6d9596a","session_id":"6197b59b8858b5c72ad37015","condition":"full-information","relevant_dimensions":["wings","legs"],"bee_group":{"antennae":"X","wings":"1","pattern":"X","legs":"F"},"action":"avoid","summary":"good-avoid","bonus":1.6800000000000013},{"rt":1434.5999999642372,"stimulus":"\n                    <p><b>Action: <em>avoid</em></b></p>\n                    <p>This is the bee that you just saw.</p>\n                    <img src=\"bees-with-color/bee-B1SF.svg\" width=\"200\">\n                    <p><span class=\"greenText\">Good choice!</span>  This bee would have stung you.<br>Your bonus pay is unchanged, and remains at $0.58.</p>\n            ","response":0,"trial_type":"html-button-response","trial_index":50,"time_elapsed":455827,"internal_node_id":"0.0-4.0-1.21","subject_id":"616edaf87d202e3878676a2f","study_id":"6197b3f67c2b5cd3b6d9596a","session_id":"6197b59b8858b5c72ad37015","condition":"full-information","relevant_dimensions":["wings","legs"],"bee_group":{"antennae":"X","wings":"1","pattern":"X","legs":"F"},"bonus":1.6800000000000013},{"rt":1605.0999999642372,"stimulus":"bees-with-color/bee-A2SM.svg","response":0,"trial_type":"image-button-response","trial_index":51,"time_elapsed":457433,"internal_node_id":"0.0-4.0-0.22","subject_id":"616edaf87d202e3878676a2f","study_id":"6197b3f67c2b5cd3b6d9596a","session_id":"6197b59b8858b5c72ad37015","condition":"full-information","relevant_dimensions":["wings","legs"],"bee_group":{"antennae":"X","wings":"1","pattern":"X","legs":"F"},"action":"harvest","summary":"good-harvest","bonus":1.6800000000000013},{"rt":1546.300000011921,"stimulus":"\n                    <p><b>Action: <em>harvest</em></b></p>\n                    <p>This is the bee that you just saw.</p>\n                    <img src=\"bees-with-color/bee-A2SM.svg\" width=\"200\">\n                    <p><span class=\"greenText\"><b>Successful harvest!</b></span><br>Your pay has increased by $0.02. Your bonus pay is now $0.60.</p>\n            ","response":0,"trial_type":"html-button-response","trial_index":52,"time_elapsed":458980,"internal_node_id":"0.0-4.0-1.22","subject_id":"616edaf87d202e3878676a2f","study_id":"6197b3f67c2b5cd3b6d9596a","session_id":"6197b59b8858b5c72ad37015","condition":"full-information","relevant_dimensions":["wings","legs"],"bee_group":{"antennae":"X","wings":"1","pattern":"X","legs":"F"},"bonus":1.6800000000000013},{"rt":3119.899999976158,"stimulus":"bees-with-color/bee-A1DM.svg","response":1,"trial_type":"image-button-response","trial_index":53,"time_elapsed":462102,"internal_node_id":"0.0-4.0-0.23","subject_id":"616edaf87d202e3878676a2f","study_id":"6197b3f67c2b5cd3b6d9596a","session_id":"6197b59b8858b5c72ad37015","condition":"full-information","relevant_dimensions":["wings","legs"],"bee_group":{"antennae":"X","wings":"1","pattern":"X","legs":"F"},"action":"avoid","summary":"bad-avoid","bonus":1.6800000000000013},{"rt":1777.3999999761581,"stimulus":"\n                    <p><b>Action: <em>avoid</em></b></p>\n                    <p>This is the bee that you just saw.</p>\n                    <img src=\"bees-with-color/bee-A1DM.svg\" width=\"200\">\n                    <p><span class=\"redText\">Bad choice,</span> the bee was friendly.<br>Your bonus pay is unchanged, and remains at $0.60.</p>\n            ","response":0,"trial_type":"html-button-response","trial_index":54,"time_elapsed":463880,"internal_node_id":"0.0-4.0-1.23","subject_id":"616edaf87d202e3878676a2f","study_id":"6197b3f67c2b5cd3b6d9596a","session_id":"6197b59b8858b5c72ad37015","condition":"full-information","relevant_dimensions":["wings","legs"],"bee_group":{"antennae":"X","wings":"1","pattern":"X","legs":"F"},"bonus":1.6800000000000013},{"rt":2099.5,"stimulus":"bees-with-color/bee-A1DF.svg","response":1,"trial_type":"image-button-response","trial_index":55,"time_elapsed":465981,"internal_node_id":"0.0-4.0-0.24","subject_id":"616edaf87d202e3878676a2f","study_id":"6197b3f67c2b5cd3b6d9596a","session_id":"6197b59b8858b5c72ad37015","condition":"full-information","relevant_dimensions":["wings","legs"],"bee_group":{"antennae":"X","wings":"1","pattern":"X","legs":"F"},"action":"avoid","summary":"good-avoid","bonus":1.6800000000000013},{"rt":1371.5999999642372,"stimulus":"\n                    <p><b>Action: <em>avoid</em></b></p>\n                    <p>This is the bee that you just saw.</p>\n                    <img src=\"bees-with-color/bee-A1DF.svg\" width=\"200\">\n                    <p><span class=\"greenText\">Good choice!</span>  This bee would have stung you.<br>Your bonus pay is unchanged, and remains at $0.60.</p>\n            ","response":0,"trial_type":"html-button-response","trial_index":56,"time_elapsed":467353,"internal_node_id":"0.0-4.0-1.24","subject_id":"616edaf87d202e3878676a2f","study_id":"6197b3f67c2b5cd3b6d9596a","session_id":"6197b59b8858b5c72ad37015","condition":"full-information","relevant_dimensions":["wings","legs"],"bee_group":{"antennae":"X","wings":"1","pattern":"X","legs":"F"},"bonus":1.6800000000000013},{"rt":1937.699999988079,"stimulus":"bees-with-color/bee-B1DF.svg","response":1,"trial_type":"image-button-response","trial_index":57,"time_elapsed":469292,"internal_node_id":"0.0-4.0-0.25","subject_id":"616edaf87d202e3878676a2f","study_id":"6197b3f67c2b5cd3b6d9596a","session_id":"6197b59b8858b5c72ad37015","condition":"full-information","relevant_dimensions":["wings","legs"],"bee_group":{"antennae":"X","wings":"1","pattern":"X","legs":"F"},"action":"avoid","summary":"good-avoid","bonus":1.6800000000000013},{"rt":1534.3999999761581,"stimulus":"\n                    <p><b>Action: <em>avoid</em></b></p>\n                    <p>This is the bee that you just saw.</p>\n                    <img src=\"bees-with-color/bee-B1DF.svg\" width=\"200\">\n                    <p><span class=\"greenText\">Good choice!</span>  This bee would have stung you.<br>Your bonus pay is unchanged, and remains at $0.60.</p>\n            ","response":0,"trial_type":"html-button-response","trial_index":58,"time_elapsed":470828,"internal_node_id":"0.0-4.0-1.25","subject_id":"616edaf87d202e3878676a2f","study_id":"6197b3f67c2b5cd3b6d9596a","session_id":"6197b59b8858b5c72ad37015","condition":"full-information","relevant_dimensions":["wings","legs"],"bee_group":{"antennae":"X","wings":"1","pattern":"X","legs":"F"},"bonus":1.6800000000000013},{"rt":5358,"stimulus":"bees-with-color/bee-B1SM.svg","response":0,"trial_type":"image-button-response","trial_index":59,"time_elapsed":476187,"internal_node_id":"0.0-4.0-0.26","subject_id":"616edaf87d202e3878676a2f","study_id":"6197b3f67c2b5cd3b6d9596a","session_id":"6197b59b8858b5c72ad37015","condition":"full-information","relevant_dimensions":["wings","legs"],"bee_group":{"antennae":"X","wings":"1","pattern":"X","legs":"F"},"action":"harvest","summary":"good-harvest","bonus":1.6800000000000013},{"rt":1281.2000000476837,"stimulus":"\n                    <p><b>Action: <em>harvest</em></b></p>\n                    <p>This is the bee that you just saw.</p>\n                    <img src=\"bees-with-color/bee-B1SM.svg\" width=\"200\">\n                    <p><span class=\"greenText\"><b>Successful harvest!</b></span><br>Your pay has increased by $0.02. Your bonus pay is now $0.62.</p>\n            ","response":0,"trial_type":"html-button-response","trial_index":60,"time_elapsed":477469,"internal_node_id":"0.0-4.0-1.26","subject_id":"616edaf87d202e3878676a2f","study_id":"6197b3f67c2b5cd3b6d9596a","session_id":"6197b59b8858b5c72ad37015","condition":"full-information","relevant_dimensions":["wings","legs"],"bee_group":{"antennae":"X","wings":"1","pattern":"X","legs":"F"},"bonus":1.6800000000000013},{"rt":2194.300000011921,"stimulus":"bees-with-color/bee-B2SF.svg","response":0,"trial_type":"image-button-response","trial_index":61,"time_elapsed":479665,"internal_node_id":"0.0-4.0-0.27","subject_id":"616edaf87d202e3878676a2f","study_id":"6197b3f67c2b5cd3b6d9596a","session_id":"6197b59b8858b5c72ad37015","condition":"full-information","relevant_dimensions":["wings","legs"],"bee_group":{"antennae":"X","wings":"1","pattern":"X","legs":"F"},"action":"harvest","summary":"good-harvest","bonus":1.6800000000000013},{"rt":1703.1000000238419,"stimulus":"\n                    <p><b>Action: <em>harvest</em></b></p>\n                    <p>This is the bee that you just saw.</p>\n                    <img src=\"bees-with-color/bee-B2SF.svg\" width=\"200\">\n                    <p><span class=\"greenText\"><b>Successful harvest!</b></span><br>Your pay has increased by $0.02. Your bonus pay is now $0.64.</p>\n            ","response":0,"trial_type":"html-button-response","trial_index":62,"time_elapsed":481369,"internal_node_id":"0.0-4.0-1.27","subject_id":"616edaf87d202e3878676a2f","study_id":"6197b3f67c2b5cd3b6d9596a","session_id":"6197b59b8858b5c72ad37015","condition":"full-information","relevant_dimensions":["wings","legs"],"bee_group":{"antennae":"X","wings":"1","pattern":"X","legs":"F"},"bonus":1.6800000000000013},{"rt":2935.600000023842,"stimulus":"bees-with-color/bee-B1DM.svg","response":0,"trial_type":"image-button-response","trial_index":63,"time_elapsed":484306,"internal_node_id":"0.0-4.0-0.28","subject_id":"616edaf87d202e3878676a2f","study_id":"6197b3f67c2b5cd3b6d9596a","session_id":"6197b59b8858b5c72ad37015","condition":"full-information","relevant_dimensions":["wings","legs"],"bee_group":{"antennae":"X","wings":"1","pattern":"X","legs":"F"},"action":"harvest","summary":"good-harvest","bonus":1.6800000000000013},{"rt":1220.2000000476837,"stimulus":"\n                    <p><b>Action: <em>harvest</em></b></p>\n                    <p>This is the bee that you just saw.</p>\n                    <img src=\"bees-with-color/bee-B1DM.svg\" width=\"200\">\n                    <p><span class=\"greenText\"><b>Successful harvest!</b></span><br>Your pay has increased by $0.02. Your bonus pay is now $0.66.</p>\n            ","response":0,"trial_type":"html-button-response","trial_index":64,"time_elapsed":485527,"internal_node_id":"0.0-4.0-1.28","subject_id":"616edaf87d202e3878676a2f","study_id":"6197b3f67c2b5cd3b6d9596a","session_id":"6197b59b8858b5c72ad37015","condition":"full-information","relevant_dimensions":["wings","legs"],"bee_group":{"antennae":"X","wings":"1","pattern":"X","legs":"F"},"bonus":1.6800000000000013},{"rt":2972.800000011921,"stimulus":"bees-with-color/bee-B2DF.svg","response":0,"trial_type":"image-button-response","trial_index":65,"time_elapsed":488501,"internal_node_id":"0.0-4.0-0.29","subject_id":"616edaf87d202e3878676a2f","study_id":"6197b3f67c2b5cd3b6d9596a","session_id":"6197b59b8858b5c72ad37015","condition":"full-information","relevant_dimensions":["wings","legs"],"bee_group":{"antennae":"X","wings":"1","pattern":"X","legs":"F"},"action":"harvest","summary":"good-harvest","bonus":1.6800000000000013},{"rt":1221.5999999642372,"stimulus":"\n                    <p><b>Action: <em>harvest</em></b></p>\n                    <p>This is the bee that you just saw.</p>\n                    <img src=\"bees-with-color/bee-B2DF.svg\" width=\"200\">\n                    <p><span class=\"greenText\"><b>Successful harvest!</b></span><br>Your pay has increased by $0.02. Your bonus pay is now $0.68.</p>\n            ","response":0,"trial_type":"html-button-response","trial_index":66,"time_elapsed":489724,"internal_node_id":"0.0-4.0-1.29","subject_id":"616edaf87d202e3878676a2f","study_id":"6197b3f67c2b5cd3b6d9596a","session_id":"6197b59b8858b5c72ad37015","condition":"full-information","relevant_dimensions":["wings","legs"],"bee_group":{"antennae":"X","wings":"1","pattern":"X","legs":"F"},"bonus":1.6800000000000013},{"rt":2516.5,"stimulus":"bees-with-color/bee-A1SM.svg","response":0,"trial_type":"image-button-response","trial_index":67,"time_elapsed":492242,"internal_node_id":"0.0-4.0-0.30","subject_id":"616edaf87d202e3878676a2f","study_id":"6197b3f67c2b5cd3b6d9596a","session_id":"6197b59b8858b5c72ad37015","condition":"full-information","relevant_dimensions":["wings","legs"],"bee_group":{"antennae":"X","wings":"1","pattern":"X","legs":"F"},"action":"harvest","summary":"good-harvest","bonus":1.6800000000000013},{"rt":1223,"stimulus":"\n                    <p><b>Action: <em>harvest</em></b></p>\n                    <p>This is the bee that you just saw.</p>\n                    <img src=\"bees-with-color/bee-A1SM.svg\" width=\"200\">\n                    <p><span class=\"greenText\"><b>Successful harvest!</b></span><br>Your pay has increased by $0.02. Your bonus pay is now $0.70.</p>\n            ","response":0,"trial_type":"html-button-response","trial_index":68,"time_elapsed":493466,"internal_node_id":"0.0-4.0-1.30","subject_id":"616edaf87d202e3878676a2f","study_id":"6197b3f67c2b5cd3b6d9596a","session_id":"6197b59b8858b5c72ad37015","condition":"full-information","relevant_dimensions":["wings","legs"],"bee_group":{"antennae":"X","wings":"1","pattern":"X","legs":"F"},"bonus":1.6800000000000013},{"rt":3059.100000023842,"stimulus":"bees-with-color/bee-A2DM.svg","response":0,"trial_type":"image-button-response","trial_index":69,"time_elapsed":496526,"internal_node_id":"0.0-4.0-0.31","subject_id":"616edaf87d202e3878676a2f","study_id":"6197b3f67c2b5cd3b6d9596a","session_id":"6197b59b8858b5c72ad37015","condition":"full-information","relevant_dimensions":["wings","legs"],"bee_group":{"antennae":"X","wings":"1","pattern":"X","legs":"F"},"action":"harvest","summary":"good-harvest","bonus":1.6800000000000013},{"rt":1247.300000011921,"stimulus":"\n                    <p><b>Action: <em>harvest</em></b></p>\n                    <p>This is the bee that you just saw.</p>\n                    <img src=\"bees-with-color/bee-A2DM.svg\" width=\"200\">\n                    <p><span class=\"greenText\"><b>Successful harvest!</b></span><br>Your pay has increased by $0.02. Your bonus pay is now $0.72.</p>\n            ","response":0,"trial_type":"html-button-response","trial_index":70,"time_elapsed":497775,"internal_node_id":"0.0-4.0-1.31","subject_id":"616edaf87d202e3878676a2f","study_id":"6197b3f67c2b5cd3b6d9596a","session_id":"6197b59b8858b5c72ad37015","condition":"full-information","relevant_dimensions":["wings","legs"],"bee_group":{"antennae":"X","wings":"1","pattern":"X","legs":"F"},"bonus":1.6800000000000013},{"rt":2604.600000023842,"stimulus":"bees-with-color/bee-A2DF.svg","response":0,"trial_type":"image-button-response","trial_index":71,"time_elapsed":500380,"internal_node_id":"0.0-4.0-0.32","subject_id":"616edaf87d202e3878676a2f","study_id":"6197b3f67c2b5cd3b6d9596a","session_id":"6197b59b8858b5c72ad37015","condition":"full-information","relevant_dimensions":["wings","legs"],"bee_group":{"antennae":"X","wings":"1","pattern":"X","legs":"F"},"action":"harvest","summary":"good-harvest","bonus":1.6800000000000013},{"rt":1222.7999999523163,"stimulus":"\n                    <p><b>Action: <em>harvest</em></b></p>\n                    <p>This is the bee that you just saw.</p>\n                    <img src=\"bees-with-color/bee-A2DF.svg\" width=\"200\">\n                    <p><span class=\"greenText\"><b>Successful harvest!</b></span><br>Your pay has increased by $0.02. Your bonus pay is now $0.74.</p>\n            ","response":0,"trial_type":"html-button-response","trial_index":72,"time_elapsed":501604,"internal_node_id":"0.0-4.0-1.32","subject_id":"616edaf87d202e3878676a2f","study_id":"6197b3f67c2b5cd3b6d9596a","session_id":"6197b59b8858b5c72ad37015","condition":"full-information","relevant_dimensions":["wings","legs"],"bee_group":{"antennae":"X","wings":"1","pattern":"X","legs":"F"},"bonus":1.6800000000000013},{"rt":1794.8999999761581,"stimulus":"bees-with-color/bee-B1SM.svg","response":0,"trial_type":"image-button-response","trial_index":73,"time_elapsed":503400,"internal_node_id":"0.0-4.0-0.33","subject_id":"616edaf87d202e3878676a2f","study_id":"6197b3f67c2b5cd3b6d9596a","session_id":"6197b59b8858b5c72ad37015","condition":"full-information","relevant_dimensions":["wings","legs"],"bee_group":{"antennae":"X","wings":"1","pattern":"X","legs":"F"},"action":"harvest","summary":"good-harvest","bonus":1.6800000000000013},{"rt":1831.199999988079,"stimulus":"\n                    <p><b>Action: <em>harvest</em></b></p>\n                    <p>This is the bee that you just saw.</p>\n                    <img src=\"bees-with-color/bee-B1SM.svg\" width=\"200\">\n                    <p><span class=\"greenText\"><b>Successful harvest!</b></span><br>Your pay has increased by $0.02. Your bonus pay is now $0.76.</p>\n            ","response":0,"trial_type":"html-button-response","trial_index":74,"time_elapsed":505233,"internal_node_id":"0.0-4.0-1.33","subject_id":"616edaf87d202e3878676a2f","study_id":"6197b3f67c2b5cd3b6d9596a","session_id":"6197b59b8858b5c72ad37015","condition":"full-information","relevant_dimensions":["wings","legs"],"bee_group":{"antennae":"X","wings":"1","pattern":"X","legs":"F"},"bonus":1.6800000000000013},{"rt":3429.399999976158,"stimulus":"bees-with-color/bee-B1DF.svg","response":1,"trial_type":"image-button-response","trial_index":75,"time_elapsed":508663,"internal_node_id":"0.0-4.0-0.34","subject_id":"616edaf87d202e3878676a2f","study_id":"6197b3f67c2b5cd3b6d9596a","session_id":"6197b59b8858b5c72ad37015","condition":"full-information","relevant_dimensions":["wings","legs"],"bee_group":{"antennae":"X","wings":"1","pattern":"X","legs":"F"},"action":"avoid","summary":"good-avoid","bonus":1.6800000000000013},{"rt":1232.699999988079,"stimulus":"\n                    <p><b>Action: <em>avoid</em></b></p>\n                    <p>This is the bee that you just saw.</p>\n                    <img src=\"bees-with-color/bee-B1DF.svg\" width=\"200\">\n                    <p><span class=\"greenText\">Good choice!</span>  This bee would have stung you.<br>Your bonus pay is unchanged, and remains at $0.76.</p>\n            ","response":0,"trial_type":"html-button-response","trial_index":76,"time_elapsed":509897,"internal_node_id":"0.0-4.0-1.34","subject_id":"616edaf87d202e3878676a2f","study_id":"6197b3f67c2b5cd3b6d9596a","session_id":"6197b59b8858b5c72ad37015","condition":"full-information","relevant_dimensions":["wings","legs"],"bee_group":{"antennae":"X","wings":"1","pattern":"X","legs":"F"},"bonus":1.6800000000000013},{"rt":4571.199999988079,"stimulus":"bees-with-color/bee-A1SF.svg","response":1,"trial_type":"image-button-response","trial_index":77,"time_elapsed":514469,"internal_node_id":"0.0-4.0-0.35","subject_id":"616edaf87d202e3878676a2f","study_id":"6197b3f67c2b5cd3b6d9596a","session_id":"6197b59b8858b5c72ad37015","condition":"full-information","relevant_dimensions":["wings","legs"],"bee_group":{"antennae":"X","wings":"1","pattern":"X","legs":"F"},"action":"avoid","summary":"good-avoid","bonus":1.6800000000000013},{"rt":1298.4000000357628,"stimulus":"\n                    <p><b>Action: <em>avoid</em></b></p>\n                    <p>This is the bee that you just saw.</p>\n                    <img src=\"bees-with-color/bee-A1SF.svg\" width=\"200\">\n                    <p><span class=\"greenText\">Good choice!</span>  This bee would have stung you.<br>Your bonus pay is unchanged, and remains at $0.76.</p>\n            ","response":0,"trial_type":"html-button-response","trial_index":78,"time_elapsed":515768,"internal_node_id":"0.0-4.0-1.35","subject_id":"616edaf87d202e3878676a2f","study_id":"6197b3f67c2b5cd3b6d9596a","session_id":"6197b59b8858b5c72ad37015","condition":"full-information","relevant_dimensions":["wings","legs"],"bee_group":{"antennae":"X","wings":"1","pattern":"X","legs":"F"},"bonus":1.6800000000000013},{"rt":2176.199999988079,"stimulus":"bees-with-color/bee-B1DM.svg","response":0,"trial_type":"image-button-response","trial_index":79,"time_elapsed":517946,"internal_node_id":"0.0-4.0-0.36","subject_id":"616edaf87d202e3878676a2f","study_id":"6197b3f67c2b5cd3b6d9596a","session_id":"6197b59b8858b5c72ad37015","condition":"full-information","relevant_dimensions":["wings","legs"],"bee_group":{"antennae":"X","wings":"1","pattern":"X","legs":"F"},"action":"harvest","summary":"good-harvest","bonus":1.6800000000000013},{"rt":1094.0999999642372,"stimulus":"\n                    <p><b>Action: <em>harvest</em></b></p>\n                    <p>This is the bee that you just saw.</p>\n                    <img src=\"bees-with-color/bee-B1DM.svg\" width=\"200\">\n                    <p><span class=\"greenText\"><b>Successful harvest!</b></span><br>Your pay has increased by $0.02. Your bonus pay is now $0.78.</p>\n            ","response":0,"trial_type":"html-button-response","trial_index":80,"time_elapsed":519041,"internal_node_id":"0.0-4.0-1.36","subject_id":"616edaf87d202e3878676a2f","study_id":"6197b3f67c2b5cd3b6d9596a","session_id":"6197b59b8858b5c72ad37015","condition":"full-information","relevant_dimensions":["wings","legs"],"bee_group":{"antennae":"X","wings":"1","pattern":"X","legs":"F"},"bonus":1.6800000000000013},{"rt":1253.5,"stimulus":"bees-with-color/bee-B2SM.svg","response":0,"trial_type":"image-button-response","trial_index":81,"time_elapsed":520295,"internal_node_id":"0.0-4.0-0.37","subject_id":"616edaf87d202e3878676a2f","study_id":"6197b3f67c2b5cd3b6d9596a","session_id":"6197b59b8858b5c72ad37015","condition":"full-information","relevant_dimensions":["wings","legs"],"bee_group":{"antennae":"X","wings":"1","pattern":"X","legs":"F"},"action":"harvest","summary":"good-harvest","bonus":1.6800000000000013},{"rt":1068,"stimulus":"\n                    <p><b>Action: <em>harvest</em></b></p>\n                    <p>This is the bee that you just saw.</p>\n                    <img src=\"bees-with-color/bee-B2SM.svg\" width=\"200\">\n                    <p><span class=\"greenText\"><b>Successful harvest!</b></span><br>Your pay has increased by $0.02. Your bonus pay is now $0.80.</p>\n            ","response":0,"trial_type":"html-button-response","trial_index":82,"time_elapsed":521364,"internal_node_id":"0.0-4.0-1.37","subject_id":"616edaf87d202e3878676a2f","study_id":"6197b3f67c2b5cd3b6d9596a","session_id":"6197b59b8858b5c72ad37015","condition":"full-information","relevant_dimensions":["wings","legs"],"bee_group":{"antennae":"X","wings":"1","pattern":"X","legs":"F"},"bonus":1.6800000000000013},{"rt":2582.5,"stimulus":"bees-with-color/bee-A2SF.svg","response":0,"trial_type":"image-button-response","trial_index":83,"time_elapsed":523948,"internal_node_id":"0.0-4.0-0.38","subject_id":"616edaf87d202e3878676a2f","study_id":"6197b3f67c2b5cd3b6d9596a","session_id":"6197b59b8858b5c72ad37015","condition":"full-information","relevant_dimensions":["wings","legs"],"bee_group":{"antennae":"X","wings":"1","pattern":"X","legs":"F"},"action":"harvest","summary":"good-harvest","bonus":1.6800000000000013},{"rt":1086.9000000357628,"stimulus":"\n                    <p><b>Action: <em>harvest</em></b></p>\n                    <p>This is the bee that you just saw.</p>\n                    <img src=\"bees-with-color/bee-A2SF.svg\" width=\"200\">\n                    <p><span class=\"greenText\"><b>Successful harvest!</b></span><br>Your pay has increased by $0.02. Your bonus pay is now $0.82.</p>\n            ","response":0,"trial_type":"html-button-response","trial_index":84,"time_elapsed":525036,"internal_node_id":"0.0-4.0-1.38","subject_id":"616edaf87d202e3878676a2f","study_id":"6197b3f67c2b5cd3b6d9596a","session_id":"6197b59b8858b5c72ad37015","condition":"full-information","relevant_dimensions":["wings","legs"],"bee_group":{"antennae":"X","wings":"1","pattern":"X","legs":"F"},"bonus":1.6800000000000013},{"rt":2379.100000023842,"stimulus":"bees-with-color/bee-B2DM.svg","response":0,"trial_type":"image-button-response","trial_index":85,"time_elapsed":527416,"internal_node_id":"0.0-4.0-0.39","subject_id":"616edaf87d202e3878676a2f","study_id":"6197b3f67c2b5cd3b6d9596a","session_id":"6197b59b8858b5c72ad37015","condition":"full-information","relevant_dimensions":["wings","legs"],"bee_group":{"antennae":"X","wings":"1","pattern":"X","legs":"F"},"action":"harvest","summary":"good-harvest","bonus":1.6800000000000013},{"rt":1202.4000000357628,"stimulus":"\n                    <p><b>Action: <em>harvest</em></b></p>\n                    <p>This is the bee that you just saw.</p>\n                    <img src=\"bees-with-color/bee-B2DM.svg\" width=\"200\">\n                    <p><span class=\"greenText\"><b>Successful harvest!</b></span><br>Your pay has increased by $0.02. Your bonus pay is now $0.84.</p>\n            ","response":0,"trial_type":"html-button-response","trial_index":86,"time_elapsed":528619,"internal_node_id":"0.0-4.0-1.39","subject_id":"616edaf87d202e3878676a2f","study_id":"6197b3f67c2b5cd3b6d9596a","session_id":"6197b59b8858b5c72ad37015","condition":"full-information","relevant_dimensions":["wings","legs"],"bee_group":{"antennae":"X","wings":"1","pattern":"X","legs":"F"},"bonus":1.6800000000000013},{"rt":1464.2000000476837,"stimulus":"bees-with-color/bee-A1DM.svg","response":0,"trial_type":"image-button-response","trial_index":87,"time_elapsed":530084,"internal_node_id":"0.0-4.0-0.40","subject_id":"616edaf87d202e3878676a2f","study_id":"6197b3f67c2b5cd3b6d9596a","session_id":"6197b59b8858b5c72ad37015","condition":"full-information","relevant_dimensions":["wings","legs"],"bee_group":{"antennae":"X","wings":"1","pattern":"X","legs":"F"},"action":"harvest","summary":"good-harvest","bonus":1.6800000000000013},{"rt":1346,"stimulus":"\n                    <p><b>Action: <em>harvest</em></b></p>\n                    <p>This is the bee that you just saw.</p>\n                    <img src=\"bees-with-color/bee-A1DM.svg\" width=\"200\">\n                    <p><span class=\"greenText\"><b>Successful harvest!</b></span><br>Your pay has increased by $0.02. Your bonus pay is now $0.86.</p>\n            ","response":0,"trial_type":"html-button-response","trial_index":88,"time_elapsed":531431,"internal_node_id":"0.0-4.0-1.40","subject_id":"616edaf87d202e3878676a2f","study_id":"6197b3f67c2b5cd3b6d9596a","session_id":"6197b59b8858b5c72ad37015","condition":"full-information","relevant_dimensions":["wings","legs"],"bee_group":{"antennae":"X","wings":"1","pattern":"X","legs":"F"},"bonus":1.6800000000000013},{"rt":1627,"stimulus":"bees-with-color/bee-A1SM.svg","response":0,"trial_type":"image-button-response","trial_index":89,"time_elapsed":533059,"internal_node_id":"0.0-4.0-0.41","subject_id":"616edaf87d202e3878676a2f","study_id":"6197b3f67c2b5cd3b6d9596a","session_id":"6197b59b8858b5c72ad37015","condition":"full-information","relevant_dimensions":["wings","legs"],"bee_group":{"antennae":"X","wings":"1","pattern":"X","legs":"F"},"action":"harvest","summary":"good-harvest","bonus":1.6800000000000013},{"rt":1066.699999988079,"stimulus":"\n                    <p><b>Action: <em>harvest</em></b></p>\n                    <p>This is the bee that you just saw.</p>\n                    <img src=\"bees-with-color/bee-A1SM.svg\" width=\"200\">\n                    <p><span class=\"greenText\"><b>Successful harvest!</b></span><br>Your pay has increased by $0.02. Your bonus pay is now $0.88.</p>\n            ","response":0,"trial_type":"html-button-response","trial_index":90,"time_elapsed":534127,"internal_node_id":"0.0-4.0-1.41","subject_id":"616edaf87d202e3878676a2f","study_id":"6197b3f67c2b5cd3b6d9596a","session_id":"6197b59b8858b5c72ad37015","condition":"full-information","relevant_dimensions":["wings","legs"],"bee_group":{"antennae":"X","wings":"1","pattern":"X","legs":"F"},"bonus":1.6800000000000013},{"rt":1589.5999999642372,"stimulus":"bees-with-color/bee-A2SM.svg","response":0,"trial_type":"image-button-response","trial_index":91,"time_elapsed":535718,"internal_node_id":"0.0-4.0-0.42","subject_id":"616edaf87d202e3878676a2f","study_id":"6197b3f67c2b5cd3b6d9596a","session_id":"6197b59b8858b5c72ad37015","condition":"full-information","relevant_dimensions":["wings","legs"],"bee_group":{"antennae":"X","wings":"1","pattern":"X","legs":"F"},"action":"harvest","summary":"good-harvest","bonus":1.6800000000000013},{"rt":942.3000000119209,"stimulus":"\n                    <p><b>Action: <em>harvest</em></b></p>\n                    <p>This is the bee that you just saw.</p>\n                    <img src=\"bees-with-color/bee-A2SM.svg\" width=\"200\">\n                    <p><span class=\"greenText\"><b>Successful harvest!</b></span><br>Your pay has increased by $0.02. Your bonus pay is now $0.90.</p>\n            ","response":0,"trial_type":"html-button-response","trial_index":92,"time_elapsed":536661,"internal_node_id":"0.0-4.0-1.42","subject_id":"616edaf87d202e3878676a2f","study_id":"6197b3f67c2b5cd3b6d9596a","session_id":"6197b59b8858b5c72ad37015","condition":"full-information","relevant_dimensions":["wings","legs"],"bee_group":{"antennae":"X","wings":"1","pattern":"X","legs":"F"},"bonus":1.6800000000000013},{"rt":7015.900000035763,"stimulus":"bees-with-color/bee-A1DF.svg","response":1,"trial_type":"image-button-response","trial_index":93,"time_elapsed":543678,"internal_node_id":"0.0-4.0-0.43","subject_id":"616edaf87d202e3878676a2f","study_id":"6197b3f67c2b5cd3b6d9596a","session_id":"6197b59b8858b5c72ad37015","condition":"full-information","relevant_dimensions":["wings","legs"],"bee_group":{"antennae":"X","wings":"1","pattern":"X","legs":"F"},"action":"avoid","summary":"good-avoid","bonus":1.6800000000000013},{"rt":4642.799999952316,"stimulus":"\n                    <p><b>Action: <em>avoid</em></b></p>\n                    <p>This is the bee that you just saw.</p>\n                    <img src=\"bees-with-color/bee-A1DF.svg\" width=\"200\">\n                    <p><span class=\"greenText\">Good choice!</span>  This bee would have stung you.<br>Your bonus pay is unchanged, and remains at $0.90.</p>\n            ","response":0,"trial_type":"html-button-response","trial_index":94,"time_elapsed":548322,"internal_node_id":"0.0-4.0-1.43","subject_id":"616edaf87d202e3878676a2f","study_id":"6197b3f67c2b5cd3b6d9596a","session_id":"6197b59b8858b5c72ad37015","condition":"full-information","relevant_dimensions":["wings","legs"],"bee_group":{"antennae":"X","wings":"1","pattern":"X","legs":"F"},"bonus":1.6800000000000013},{"rt":1619.7999999523163,"stimulus":"bees-with-color/bee-B2DF.svg","response":0,"trial_type":"image-button-response","trial_index":95,"time_elapsed":549943,"internal_node_id":"0.0-4.0-0.44","subject_id":"616edaf87d202e3878676a2f","study_id":"6197b3f67c2b5cd3b6d9596a","session_id":"6197b59b8858b5c72ad37015","condition":"full-information","relevant_dimensions":["wings","legs"],"bee_group":{"antennae":"X","wings":"1","pattern":"X","legs":"F"},"action":"harvest","summary":"good-harvest","bonus":1.6800000000000013},{"rt":1067.7000000476837,"stimulus":"\n                    <p><b>Action: <em>harvest</em></b></p>\n                    <p>This is the bee that you just saw.</p>\n                    <img src=\"bees-with-color/bee-B2DF.svg\" width=\"200\">\n                    <p><span class=\"greenText\"><b>Successful harvest!</b></span><br>Your pay has increased by $0.02. Your bonus pay is now $0.92.</p>\n            ","response":0,"trial_type":"html-button-response","trial_index":96,"time_elapsed":551011,"internal_node_id":"0.0-4.0-1.44","subject_id":"616edaf87d202e3878676a2f","study_id":"6197b3f67c2b5cd3b6d9596a","session_id":"6197b59b8858b5c72ad37015","condition":"full-information","relevant_dimensions":["wings","legs"],"bee_group":{"antennae":"X","wings":"1","pattern":"X","legs":"F"},"bonus":1.6800000000000013},{"rt":2320.399999976158,"stimulus":"bees-with-color/bee-B1SF.svg","response":1,"trial_type":"image-button-response","trial_index":97,"time_elapsed":553333,"internal_node_id":"0.0-4.0-0.45","subject_id":"616edaf87d202e3878676a2f","study_id":"6197b3f67c2b5cd3b6d9596a","session_id":"6197b59b8858b5c72ad37015","condition":"full-information","relevant_dimensions":["wings","legs"],"bee_group":{"antennae":"X","wings":"1","pattern":"X","legs":"F"},"action":"avoid","summary":"good-avoid","bonus":1.6800000000000013},{"rt":1127,"stimulus":"\n                    <p><b>Action: <em>avoid</em></b></p>\n                    <p>This is the bee that you just saw.</p>\n                    <img src=\"bees-with-color/bee-B1SF.svg\" width=\"200\">\n                    <p><span class=\"greenText\">Good choice!</span>  This bee would have stung you.<br>Your bonus pay is unchanged, and remains at $0.92.</p>\n            ","response":0,"trial_type":"html-button-response","trial_index":98,"time_elapsed":554461,"internal_node_id":"0.0-4.0-1.45","subject_id":"616edaf87d202e3878676a2f","study_id":"6197b3f67c2b5cd3b6d9596a","session_id":"6197b59b8858b5c72ad37015","condition":"full-information","relevant_dimensions":["wings","legs"],"bee_group":{"antennae":"X","wings":"1","pattern":"X","legs":"F"},"bonus":1.6800000000000013},{"rt":1515.3999999761581,"stimulus":"bees-with-color/bee-A2DM.svg","response":0,"trial_type":"image-button-response","trial_index":99,"time_elapsed":555977,"internal_node_id":"0.0-4.0-0.46","subject_id":"616edaf87d202e3878676a2f","study_id":"6197b3f67c2b5cd3b6d9596a","session_id":"6197b59b8858b5c72ad37015","condition":"full-information","relevant_dimensions":["wings","legs"],"bee_group":{"antennae":"X","wings":"1","pattern":"X","legs":"F"},"action":"harvest","summary":"good-harvest","bonus":1.6800000000000013},{"rt":1097.1000000238419,"stimulus":"\n                    <p><b>Action: <em>harvest</em></b></p>\n                    <p>This is the bee that you just saw.</p>\n                    <img src=\"bees-with-color/bee-A2DM.svg\" width=\"200\">\n                    <p><span class=\"greenText\"><b>Successful harvest!</b></span><br>Your pay has increased by $0.02. Your bonus pay is now $0.94.</p>\n            ","response":0,"trial_type":"html-button-response","trial_index":100,"time_elapsed":557075,"internal_node_id":"0.0-4.0-1.46","subject_id":"616edaf87d202e3878676a2f","study_id":"6197b3f67c2b5cd3b6d9596a","session_id":"6197b59b8858b5c72ad37015","condition":"full-information","relevant_dimensions":["wings","legs"],"bee_group":{"antennae":"X","wings":"1","pattern":"X","legs":"F"},"bonus":1.6800000000000013},{"rt":2640.300000011921,"stimulus":"bees-with-color/bee-B2SF.svg","response":0,"trial_type":"image-button-response","trial_index":101,"time_elapsed":559717,"internal_node_id":"0.0-4.0-0.47","subject_id":"616edaf87d202e3878676a2f","study_id":"6197b3f67c2b5cd3b6d9596a","session_id":"6197b59b8858b5c72ad37015","condition":"full-information","relevant_dimensions":["wings","legs"],"bee_group":{"antennae":"X","wings":"1","pattern":"X","legs":"F"},"action":"harvest","summary":"good-harvest","bonus":1.6800000000000013},{"rt":1067.699999988079,"stimulus":"\n                    <p><b>Action: <em>harvest</em></b></p>\n                    <p>This is the bee that you just saw.</p>\n                    <img src=\"bees-with-color/bee-B2SF.svg\" width=\"200\">\n                    <p><span class=\"greenText\"><b>Successful harvest!</b></span><br>Your pay has increased by $0.02. Your bonus pay is now $0.96.</p>\n            ","response":0,"trial_type":"html-button-response","trial_index":102,"time_elapsed":560786,"internal_node_id":"0.0-4.0-1.47","subject_id":"616edaf87d202e3878676a2f","study_id":"6197b3f67c2b5cd3b6d9596a","session_id":"6197b59b8858b5c72ad37015","condition":"full-information","relevant_dimensions":["wings","legs"],"bee_group":{"antennae":"X","wings":"1","pattern":"X","legs":"F"},"bonus":1.6800000000000013},{"rt":1512.199999988079,"stimulus":"bees-with-color/bee-A1SM.svg","response":0,"trial_type":"image-button-response","trial_index":103,"time_elapsed":562299,"internal_node_id":"0.0-4.0-0.48","subject_id":"616edaf87d202e3878676a2f","study_id":"6197b3f67c2b5cd3b6d9596a","session_id":"6197b59b8858b5c72ad37015","condition":"full-information","relevant_dimensions":["wings","legs"],"bee_group":{"antennae":"X","wings":"1","pattern":"X","legs":"F"},"action":"harvest","summary":"good-harvest","bonus":1.6800000000000013},{"rt":973.3000000119209,"stimulus":"\n                    <p><b>Action: <em>harvest</em></b></p>\n                    <p>This is the bee that you just saw.</p>\n                    <img src=\"bees-with-color/bee-A1SM.svg\" width=\"200\">\n                    <p><span class=\"greenText\"><b>Successful harvest!</b></span><br>Your pay has increased by $0.02. Your bonus pay is now $0.98.</p>\n            ","response":0,"trial_type":"html-button-response","trial_index":104,"time_elapsed":563274,"internal_node_id":"0.0-4.0-1.48","subject_id":"616edaf87d202e3878676a2f","study_id":"6197b3f67c2b5cd3b6d9596a","session_id":"6197b59b8858b5c72ad37015","condition":"full-information","relevant_dimensions":["wings","legs"],"bee_group":{"antennae":"X","wings":"1","pattern":"X","legs":"F"},"bonus":1.6800000000000013},{"rt":1453.800000011921,"stimulus":"bees-with-color/bee-A1DF.svg","response":1,"trial_type":"image-button-response","trial_index":105,"time_elapsed":564728,"internal_node_id":"0.0-4.0-0.49","subject_id":"616edaf87d202e3878676a2f","study_id":"6197b3f67c2b5cd3b6d9596a","session_id":"6197b59b8858b5c72ad37015","condition":"full-information","relevant_dimensions":["wings","legs"],"bee_group":{"antennae":"X","wings":"1","pattern":"X","legs":"F"},"action":"avoid","summary":"good-avoid","bonus":1.6800000000000013},{"rt":1238.199999988079,"stimulus":"\n                    <p><b>Action: <em>avoid</em></b></p>\n                    <p>This is the bee that you just saw.</p>\n                    <img src=\"bees-with-color/bee-A1DF.svg\" width=\"200\">\n                    <p><span class=\"greenText\">Good choice!</span>  This bee would have stung you.<br>Your bonus pay is unchanged, and remains at $0.98.</p>\n            ","response":0,"trial_type":"html-button-response","trial_index":106,"time_elapsed":565967,"internal_node_id":"0.0-4.0-1.49","subject_id":"616edaf87d202e3878676a2f","study_id":"6197b3f67c2b5cd3b6d9596a","session_id":"6197b59b8858b5c72ad37015","condition":"full-information","relevant_dimensions":["wings","legs"],"bee_group":{"antennae":"X","wings":"1","pattern":"X","legs":"F"},"bonus":1.6800000000000013},{"rt":1825.800000011921,"stimulus":"bees-with-color/bee-B1DM.svg","response":0,"trial_type":"image-button-response","trial_index":107,"time_elapsed":567794,"internal_node_id":"0.0-4.0-0.50","subject_id":"616edaf87d202e3878676a2f","study_id":"6197b3f67c2b5cd3b6d9596a","session_id":"6197b59b8858b5c72ad37015","condition":"full-information","relevant_dimensions":["wings","legs"],"bee_group":{"antennae":"X","wings":"1","pattern":"X","legs":"F"},"action":"harvest","summary":"good-harvest","bonus":1.6800000000000013},{"rt":1251,"stimulus":"\n                    <p><b>Action: <em>harvest</em></b></p>\n                    <p>This is the bee that you just saw.</p>\n                    <img src=\"bees-with-color/bee-B1DM.svg\" width=\"200\">\n                    <p><span class=\"greenText\"><b>Successful harvest!</b></span><br>Your pay has increased by $0.02. Your bonus pay is now $1.00.</p>\n            ","response":0,"trial_type":"html-button-response","trial_index":108,"time_elapsed":569046,"internal_node_id":"0.0-4.0-1.50","subject_id":"616edaf87d202e3878676a2f","study_id":"6197b3f67c2b5cd3b6d9596a","session_id":"6197b59b8858b5c72ad37015","condition":"full-information","relevant_dimensions":["wings","legs"],"bee_group":{"antennae":"X","wings":"1","pattern":"X","legs":"F"},"bonus":1.6800000000000013},{"rt":1456.300000011921,"stimulus":"bees-with-color/bee-B1DF.svg","response":1,"trial_type":"image-button-response","trial_index":109,"time_elapsed":570504,"internal_node_id":"0.0-4.0-0.51","subject_id":"616edaf87d202e3878676a2f","study_id":"6197b3f67c2b5cd3b6d9596a","session_id":"6197b59b8858b5c72ad37015","condition":"full-information","relevant_dimensions":["wings","legs"],"bee_group":{"antennae":"X","wings":"1","pattern":"X","legs":"F"},"action":"avoid","summary":"good-avoid","bonus":1.6800000000000013},{"rt":1248.5,"stimulus":"\n                    <p><b>Action: <em>avoid</em></b></p>\n                    <p>This is the bee that you just saw.</p>\n                    <img src=\"bees-with-color/bee-B1DF.svg\" width=\"200\">\n                    <p><span class=\"greenText\">Good choice!</span>  This bee would have stung you.<br>Your bonus pay is unchanged, and remains at $1.00.</p>\n            ","response":0,"trial_type":"html-button-response","trial_index":110,"time_elapsed":571753,"internal_node_id":"0.0-4.0-1.51","subject_id":"616edaf87d202e3878676a2f","study_id":"6197b3f67c2b5cd3b6d9596a","session_id":"6197b59b8858b5c72ad37015","condition":"full-information","relevant_dimensions":["wings","legs"],"bee_group":{"antennae":"X","wings":"1","pattern":"X","legs":"F"},"bonus":1.6800000000000013},{"rt":1605.5,"stimulus":"bees-with-color/bee-A2DF.svg","response":0,"trial_type":"image-button-response","trial_index":111,"time_elapsed":573360,"internal_node_id":"0.0-4.0-0.52","subject_id":"616edaf87d202e3878676a2f","study_id":"6197b3f67c2b5cd3b6d9596a","session_id":"6197b59b8858b5c72ad37015","condition":"full-information","relevant_dimensions":["wings","legs"],"bee_group":{"antennae":"X","wings":"1","pattern":"X","legs":"F"},"action":"harvest","summary":"good-harvest","bonus":1.6800000000000013},{"rt":1822.1000000238419,"stimulus":"\n                    <p><b>Action: <em>harvest</em></b></p>\n                    <p>This is the bee that you just saw.</p>\n                    <img src=\"bees-with-color/bee-A2DF.svg\" width=\"200\">\n                    <p><span class=\"greenText\"><b>Successful harvest!</b></span><br>Your pay has increased by $0.02. Your bonus pay is now $1.02.</p>\n            ","response":0,"trial_type":"html-button-response","trial_index":112,"time_elapsed":575183,"internal_node_id":"0.0-4.0-1.52","subject_id":"616edaf87d202e3878676a2f","study_id":"6197b3f67c2b5cd3b6d9596a","session_id":"6197b59b8858b5c72ad37015","condition":"full-information","relevant_dimensions":["wings","legs"],"bee_group":{"antennae":"X","wings":"1","pattern":"X","legs":"F"},"bonus":1.6800000000000013},{"rt":1871.800000011921,"stimulus":"bees-with-color/bee-B2SF.svg","response":0,"trial_type":"image-button-response","trial_index":113,"time_elapsed":577056,"internal_node_id":"0.0-4.0-0.53","subject_id":"616edaf87d202e3878676a2f","study_id":"6197b3f67c2b5cd3b6d9596a","session_id":"6197b59b8858b5c72ad37015","condition":"full-information","relevant_dimensions":["wings","legs"],"bee_group":{"antennae":"X","wings":"1","pattern":"X","legs":"F"},"action":"harvest","summary":"good-harvest","bonus":1.6800000000000013},{"rt":1195,"stimulus":"\n                    <p><b>Action: <em>harvest</em></b></p>\n                    <p>This is the bee that you just saw.</p>\n                    <img src=\"bees-with-color/bee-B2SF.svg\" width=\"200\">\n                    <p><span class=\"greenText\"><b>Successful harvest!</b></span><br>Your pay has increased by $0.02. Your bonus pay is now $1.04.</p>\n            ","response":0,"trial_type":"html-button-response","trial_index":114,"time_elapsed":578252,"internal_node_id":"0.0-4.0-1.53","subject_id":"616edaf87d202e3878676a2f","study_id":"6197b3f67c2b5cd3b6d9596a","session_id":"6197b59b8858b5c72ad37015","condition":"full-information","relevant_dimensions":["wings","legs"],"bee_group":{"antennae":"X","wings":"1","pattern":"X","legs":"F"},"bonus":1.6800000000000013},{"rt":2552,"stimulus":"bees-with-color/bee-B1SM.svg","response":0,"trial_type":"image-button-response","trial_index":115,"time_elapsed":580805,"internal_node_id":"0.0-4.0-0.54","subject_id":"616edaf87d202e3878676a2f","study_id":"6197b3f67c2b5cd3b6d9596a","session_id":"6197b59b8858b5c72ad37015","condition":"full-information","relevant_dimensions":["wings","legs"],"bee_group":{"antennae":"X","wings":"1","pattern":"X","legs":"F"},"action":"harvest","summary":"good-harvest","bonus":1.6800000000000013},{"rt":1095.699999988079,"stimulus":"\n                    <p><b>Action: <em>harvest</em></b></p>\n                    <p>This is the bee that you just saw.</p>\n                    <img src=\"bees-with-color/bee-B1SM.svg\" width=\"200\">\n                    <p><span class=\"greenText\"><b>Successful harvest!</b></span><br>Your pay has increased by $0.02. Your bonus pay is now $1.06.</p>\n            ","response":0,"trial_type":"html-button-response","trial_index":116,"time_elapsed":581902,"internal_node_id":"0.0-4.0-1.54","subject_id":"616edaf87d202e3878676a2f","study_id":"6197b3f67c2b5cd3b6d9596a","session_id":"6197b59b8858b5c72ad37015","condition":"full-information","relevant_dimensions":["wings","legs"],"bee_group":{"antennae":"X","wings":"1","pattern":"X","legs":"F"},"bonus":1.6800000000000013},{"rt":1341.5,"stimulus":"bees-with-color/bee-A2SM.svg","response":0,"trial_type":"image-button-response","trial_index":117,"time_elapsed":583245,"internal_node_id":"0.0-4.0-0.55","subject_id":"616edaf87d202e3878676a2f","study_id":"6197b3f67c2b5cd3b6d9596a","session_id":"6197b59b8858b5c72ad37015","condition":"full-information","relevant_dimensions":["wings","legs"],"bee_group":{"antennae":"X","wings":"1","pattern":"X","legs":"F"},"action":"harvest","summary":"good-harvest","bonus":1.6800000000000013},{"rt":1002.8000000119209,"stimulus":"\n                    <p><b>Action: <em>harvest</em></b></p>\n                    <p>This is the bee that you just saw.</p>\n                    <img src=\"bees-with-color/bee-A2SM.svg\" width=\"200\">\n                    <p><span class=\"greenText\"><b>Successful harvest!</b></span><br>Your pay has increased by $0.02. Your bonus pay is now $1.08.</p>\n            ","response":0,"trial_type":"html-button-response","trial_index":118,"time_elapsed":584249,"internal_node_id":"0.0-4.0-1.55","subject_id":"616edaf87d202e3878676a2f","study_id":"6197b3f67c2b5cd3b6d9596a","session_id":"6197b59b8858b5c72ad37015","condition":"full-information","relevant_dimensions":["wings","legs"],"bee_group":{"antennae":"X","wings":"1","pattern":"X","legs":"F"},"bonus":1.6800000000000013},{"rt":2131.399999976158,"stimulus":"bees-with-color/bee-A1DM.svg","response":0,"trial_type":"image-button-response","trial_index":119,"time_elapsed":586382,"internal_node_id":"0.0-4.0-0.56","subject_id":"616edaf87d202e3878676a2f","study_id":"6197b3f67c2b5cd3b6d9596a","session_id":"6197b59b8858b5c72ad37015","condition":"full-information","relevant_dimensions":["wings","legs"],"bee_group":{"antennae":"X","wings":"1","pattern":"X","legs":"F"},"action":"harvest","summary":"good-harvest","bonus":1.6800000000000013},{"rt":1254.3999999761581,"stimulus":"\n                    <p><b>Action: <em>harvest</em></b></p>\n                    <p>This is the bee that you just saw.</p>\n                    <img src=\"bees-with-color/bee-A1DM.svg\" width=\"200\">\n                    <p><span class=\"greenText\"><b>Successful harvest!</b></span><br>Your pay has increased by $0.02. Your bonus pay is now $1.10.</p>\n            ","response":0,"trial_type":"html-button-response","trial_index":120,"time_elapsed":587637,"internal_node_id":"0.0-4.0-1.56","subject_id":"616edaf87d202e3878676a2f","study_id":"6197b3f67c2b5cd3b6d9596a","session_id":"6197b59b8858b5c72ad37015","condition":"full-information","relevant_dimensions":["wings","legs"],"bee_group":{"antennae":"X","wings":"1","pattern":"X","legs":"F"},"bonus":1.6800000000000013},{"rt":1708.9000000357628,"stimulus":"bees-with-color/bee-A2SF.svg","response":0,"trial_type":"image-button-response","trial_index":121,"time_elapsed":589347,"internal_node_id":"0.0-4.0-0.57","subject_id":"616edaf87d202e3878676a2f","study_id":"6197b3f67c2b5cd3b6d9596a","session_id":"6197b59b8858b5c72ad37015","condition":"full-information","relevant_dimensions":["wings","legs"],"bee_group":{"antennae":"X","wings":"1","pattern":"X","legs":"F"},"action":"harvest","summary":"good-harvest","bonus":1.6800000000000013},{"rt":1062.7999999523163,"stimulus":"\n                    <p><b>Action: <em>harvest</em></b></p>\n                    <p>This is the bee that you just saw.</p>\n                    <img src=\"bees-with-color/bee-A2SF.svg\" width=\"200\">\n                    <p><span class=\"greenText\"><b>Successful harvest!</b></span><br>Your pay has increased by $0.02. Your bonus pay is now $1.12.</p>\n            ","response":0,"trial_type":"html-button-response","trial_index":122,"time_elapsed":590411,"internal_node_id":"0.0-4.0-1.57","subject_id":"616edaf87d202e3878676a2f","study_id":"6197b3f67c2b5cd3b6d9596a","session_id":"6197b59b8858b5c72ad37015","condition":"full-information","relevant_dimensions":["wings","legs"],"bee_group":{"antennae":"X","wings":"1","pattern":"X","legs":"F"},"bonus":1.6800000000000013},{"rt":1048.5,"stimulus":"bees-with-color/bee-B2DM.svg","response":0,"trial_type":"image-button-response","trial_index":123,"time_elapsed":591461,"internal_node_id":"0.0-4.0-0.58","subject_id":"616edaf87d202e3878676a2f","study_id":"6197b3f67c2b5cd3b6d9596a","session_id":"6197b59b8858b5c72ad37015","condition":"full-information","relevant_dimensions":["wings","legs"],"bee_group":{"antennae":"X","wings":"1","pattern":"X","legs":"F"},"action":"harvest","summary":"good-harvest","bonus":1.6800000000000013},{"rt":594.3000000119209,"stimulus":"\n                    <p><b>Action: <em>harvest</em></b></p>\n                    <p>This is the bee that you just saw.</p>\n                    <img src=\"bees-with-color/bee-B2DM.svg\" width=\"200\">\n                    <p><span class=\"greenText\"><b>Successful harvest!</b></span><br>Your pay has increased by $0.02. Your bonus pay is now $1.14.</p>\n            ","response":0,"trial_type":"html-button-response","trial_index":124,"time_elapsed":592056,"internal_node_id":"0.0-4.0-1.58","subject_id":"616edaf87d202e3878676a2f","study_id":"6197b3f67c2b5cd3b6d9596a","session_id":"6197b59b8858b5c72ad37015","condition":"full-information","relevant_dimensions":["wings","legs"],"bee_group":{"antennae":"X","wings":"1","pattern":"X","legs":"F"},"bonus":1.6800000000000013},{"rt":1023.1999999880791,"stimulus":"bees-with-color/bee-A1SF.svg","response":1,"trial_type":"image-button-response","trial_index":125,"time_elapsed":593080,"internal_node_id":"0.0-4.0-0.59","subject_id":"616edaf87d202e3878676a2f","study_id":"6197b3f67c2b5cd3b6d9596a","session_id":"6197b59b8858b5c72ad37015","condition":"full-information","relevant_dimensions":["wings","legs"],"bee_group":{"antennae":"X","wings":"1","pattern":"X","legs":"F"},"action":"avoid","summary":"good-avoid","bonus":1.6800000000000013},{"rt":622.1000000238419,"stimulus":"\n                    <p><b>Action: <em>avoid</em></b></p>\n                    <p>This is the bee that you just saw.</p>\n                    <img src=\"bees-with-color/bee-A1SF.svg\" width=\"200\">\n                    <p><span class=\"greenText\">Good choice!</span>  This bee would have stung you.<br>Your bonus pay is unchanged, and remains at $1.14.</p>\n            ","response":0,"trial_type":"html-button-response","trial_index":126,"time_elapsed":593703,"internal_node_id":"0.0-4.0-1.59","subject_id":"616edaf87d202e3878676a2f","study_id":"6197b3f67c2b5cd3b6d9596a","session_id":"6197b59b8858b5c72ad37015","condition":"full-information","relevant_dimensions":["wings","legs"],"bee_group":{"antennae":"X","wings":"1","pattern":"X","legs":"F"},"bonus":1.6800000000000013},{"rt":677.0999999642372,"stimulus":"bees-with-color/bee-B2SM.svg","response":0,"trial_type":"image-button-response","trial_index":127,"time_elapsed":594381,"internal_node_id":"0.0-4.0-0.60","subject_id":"616edaf87d202e3878676a2f","study_id":"6197b3f67c2b5cd3b6d9596a","session_id":"6197b59b8858b5c72ad37015","condition":"full-information","relevant_dimensions":["wings","legs"],"bee_group":{"antennae":"X","wings":"1","pattern":"X","legs":"F"},"action":"harvest","summary":"good-harvest","bonus":1.6800000000000013},{"rt":602,"stimulus":"\n                    <p><b>Action: <em>harvest</em></b></p>\n                    <p>This is the bee that you just saw.</p>\n                    <img src=\"bees-with-color/bee-B2SM.svg\" width=\"200\">\n                    <p><span class=\"greenText\"><b>Successful harvest!</b></span><br>Your pay has increased by $0.02. Your bonus pay is now $1.16.</p>\n            ","response":0,"trial_type":"html-button-response","trial_index":128,"time_elapsed":594984,"internal_node_id":"0.0-4.0-1.60","subject_id":"616edaf87d202e3878676a2f","study_id":"6197b3f67c2b5cd3b6d9596a","session_id":"6197b59b8858b5c72ad37015","condition":"full-information","relevant_dimensions":["wings","legs"],"bee_group":{"antennae":"X","wings":"1","pattern":"X","legs":"F"},"bonus":1.6800000000000013},{"rt":1168.5,"stimulus":"bees-with-color/bee-A2DM.svg","response":0,"trial_type":"image-button-response","trial_index":129,"time_elapsed":596153,"internal_node_id":"0.0-4.0-0.61","subject_id":"616edaf87d202e3878676a2f","study_id":"6197b3f67c2b5cd3b6d9596a","session_id":"6197b59b8858b5c72ad37015","condition":"full-information","relevant_dimensions":["wings","legs"],"bee_group":{"antennae":"X","wings":"1","pattern":"X","legs":"F"},"action":"harvest","summary":"good-harvest","bonus":1.6800000000000013},{"rt":580,"stimulus":"\n                    <p><b>Action: <em>harvest</em></b></p>\n                    <p>This is the bee that you just saw.</p>\n                    <img src=\"bees-with-color/bee-A2DM.svg\" width=\"200\">\n                    <p><span class=\"greenText\"><b>Successful harvest!</b></span><br>Your pay has increased by $0.02. Your bonus pay is now $1.18.</p>\n            ","response":0,"trial_type":"html-button-response","trial_index":130,"time_elapsed":596734,"internal_node_id":"0.0-4.0-1.61","subject_id":"616edaf87d202e3878676a2f","study_id":"6197b3f67c2b5cd3b6d9596a","session_id":"6197b59b8858b5c72ad37015","condition":"full-information","relevant_dimensions":["wings","legs"],"bee_group":{"antennae":"X","wings":"1","pattern":"X","legs":"F"},"bonus":1.6800000000000013},{"rt":974.8000000119209,"stimulus":"bees-with-color/bee-B1SF.svg","response":1,"trial_type":"image-button-response","trial_index":131,"time_elapsed":597709,"internal_node_id":"0.0-4.0-0.62","subject_id":"616edaf87d202e3878676a2f","study_id":"6197b3f67c2b5cd3b6d9596a","session_id":"6197b59b8858b5c72ad37015","condition":"full-information","relevant_dimensions":["wings","legs"],"bee_group":{"antennae":"X","wings":"1","pattern":"X","legs":"F"},"action":"avoid","summary":"good-avoid","bonus":1.6800000000000013},{"rt":843.3000000119209,"stimulus":"\n                    <p><b>Action: <em>avoid</em></b></p>\n                    <p>This is the bee that you just saw.</p>\n                    <img src=\"bees-with-color/bee-B1SF.svg\" width=\"200\">\n                    <p><span class=\"greenText\">Good choice!</span>  This bee would have stung you.<br>Your bonus pay is unchanged, and remains at $1.18.</p>\n            ","response":0,"trial_type":"html-button-response","trial_index":132,"time_elapsed":598554,"internal_node_id":"0.0-4.0-1.62","subject_id":"616edaf87d202e3878676a2f","study_id":"6197b3f67c2b5cd3b6d9596a","session_id":"6197b59b8858b5c72ad37015","condition":"full-information","relevant_dimensions":["wings","legs"],"bee_group":{"antennae":"X","wings":"1","pattern":"X","legs":"F"},"bonus":1.6800000000000013},{"rt":1905.300000011921,"stimulus":"bees-with-color/bee-B2DF.svg","response":0,"trial_type":"image-button-response","trial_index":133,"time_elapsed":600460,"internal_node_id":"0.0-4.0-0.63","subject_id":"616edaf87d202e3878676a2f","study_id":"6197b3f67c2b5cd3b6d9596a","session_id":"6197b59b8858b5c72ad37015","condition":"full-information","relevant_dimensions":["wings","legs"],"bee_group":{"antennae":"X","wings":"1","pattern":"X","legs":"F"},"action":"harvest","summary":"good-harvest","bonus":1.6800000000000013},{"rt":629.0999999642372,"stimulus":"\n                    <p><b>Action: <em>harvest</em></b></p>\n                    <p>This is the bee that you just saw.</p>\n                    <img src=\"bees-with-color/bee-B2DF.svg\" width=\"200\">\n                    <p><span class=\"greenText\"><b>Successful harvest!</b></span><br>Your pay has increased by $0.02. Your bonus pay is now $1.20.</p>\n            ","response":0,"trial_type":"html-button-response","trial_index":134,"time_elapsed":601090,"internal_node_id":"0.0-4.0-1.63","subject_id":"616edaf87d202e3878676a2f","study_id":"6197b3f67c2b5cd3b6d9596a","session_id":"6197b59b8858b5c72ad37015","condition":"full-information","relevant_dimensions":["wings","legs"],"bee_group":{"antennae":"X","wings":"1","pattern":"X","legs":"F"},"bonus":1.6800000000000013},{"rt":7285,"stimulus":"You have completed the first part of this experiment.<br><br>You will now begin a shorter second part, in which you will receive no feedback.<br>The same rules regarding bonus pay apply.<br><br>Press any key to begin.","response":" ","trial_type":"html-keyboard-response","trial_index":135,"time_elapsed":608375,"internal_node_id":"0.0-5.0","subject_id":"616edaf87d202e3878676a2f","study_id":"6197b3f67c2b5cd3b6d9596a","session_id":"6197b59b8858b5c72ad37015","condition":"full-information","relevant_dimensions":["wings","legs"],"bee_group":{"antennae":"X","wings":"1","pattern":"X","legs":"F"},"bonus":1.6800000000000013},{"rt":2225.899999976158,"stimulus":"bees-with-color/bee-A2SF.svg","response":0,"trial_type":"image-button-response","trial_index":136,"time_elapsed":610609,"internal_node_id":"0.0-6.0-0.0","subject_id":"616edaf87d202e3878676a2f","study_id":"6197b3f67c2b5cd3b6d9596a","session_id":"6197b59b8858b5c72ad37015","condition":"full-information","relevant_dimensions":["wings","legs"],"bee_group":{"antennae":"X","wings":"1","pattern":"X","legs":"F"},"bonus":1.6800000000000013},{"rt":2279.400000035763,"stimulus":"bees-with-color/bee-B1SF.svg","response":1,"trial_type":"image-button-response","trial_index":137,"time_elapsed":612889,"internal_node_id":"0.0-6.0-0.1","subject_id":"616edaf87d202e3878676a2f","study_id":"6197b3f67c2b5cd3b6d9596a","session_id":"6197b59b8858b5c72ad37015","condition":"full-information","relevant_dimensions":["wings","legs"],"bee_group":{"antennae":"X","wings":"1","pattern":"X","legs":"F"},"bonus":1.6800000000000013},{"rt":1159.1000000238419,"stimulus":"bees-with-color/bee-B2DM.svg","response":0,"trial_type":"image-button-response","trial_index":138,"time_elapsed":614050,"internal_node_id":"0.0-6.0-0.2","subject_id":"616edaf87d202e3878676a2f","study_id":"6197b3f67c2b5cd3b6d9596a","session_id":"6197b59b8858b5c72ad37015","condition":"full-information","relevant_dimensions":["wings","legs"],"bee_group":{"antennae":"X","wings":"1","pattern":"X","legs":"F"},"bonus":1.6800000000000013},{"rt":829.6000000238419,"stimulus":"bees-with-color/bee-A2SM.svg","response":0,"trial_type":"image-button-response","trial_index":139,"time_elapsed":614881,"internal_node_id":"0.0-6.0-0.3","subject_id":"616edaf87d202e3878676a2f","study_id":"6197b3f67c2b5cd3b6d9596a","session_id":"6197b59b8858b5c72ad37015","condition":"full-information","relevant_dimensions":["wings","legs"],"bee_group":{"antennae":"X","wings":"1","pattern":"X","legs":"F"},"bonus":1.6800000000000013},{"rt":2048.800000011921,"stimulus":"bees-with-color/bee-B1DF.svg","response":1,"trial_type":"image-button-response","trial_index":140,"time_elapsed":616931,"internal_node_id":"0.0-6.0-0.4","subject_id":"616edaf87d202e3878676a2f","study_id":"6197b3f67c2b5cd3b6d9596a","session_id":"6197b59b8858b5c72ad37015","condition":"full-information","relevant_dimensions":["wings","legs"],"bee_group":{"antennae":"X","wings":"1","pattern":"X","legs":"F"},"bonus":1.6800000000000013},{"rt":1211,"stimulus":"bees-with-color/bee-B1DM.svg","response":0,"trial_type":"image-button-response","trial_index":141,"time_elapsed":618143,"internal_node_id":"0.0-6.0-0.5","subject_id":"616edaf87d202e3878676a2f","study_id":"6197b3f67c2b5cd3b6d9596a","session_id":"6197b59b8858b5c72ad37015","condition":"full-information","relevant_dimensions":["wings","legs"],"bee_group":{"antennae":"X","wings":"1","pattern":"X","legs":"F"},"bonus":1.6800000000000013},{"rt":712.6999999880791,"stimulus":"bees-with-color/bee-A2DM.svg","response":0,"trial_type":"image-button-response","trial_index":142,"time_elapsed":618857,"internal_node_id":"0.0-6.0-0.6","subject_id":"616edaf87d202e3878676a2f","study_id":"6197b3f67c2b5cd3b6d9596a","session_id":"6197b59b8858b5c72ad37015","condition":"full-information","relevant_dimensions":["wings","legs"],"bee_group":{"antennae":"X","wings":"1","pattern":"X","legs":"F"},"bonus":1.6800000000000013},{"rt":745.3000000119209,"stimulus":"bees-with-color/bee-B2SM.svg","response":0,"trial_type":"image-button-response","trial_index":143,"time_elapsed":619603,"internal_node_id":"0.0-6.0-0.7","subject_id":"616edaf87d202e3878676a2f","study_id":"6197b3f67c2b5cd3b6d9596a","session_id":"6197b59b8858b5c72ad37015","condition":"full-information","relevant_dimensions":["wings","legs"],"bee_group":{"antennae":"X","wings":"1","pattern":"X","legs":"F"},"bonus":1.6800000000000013},{"rt":1044,"stimulus":"bees-with-color/bee-A1DM.svg","response":0,"trial_type":"image-button-response","trial_index":144,"time_elapsed":620654,"internal_node_id":"0.0-6.0-0.8","subject_id":"616edaf87d202e3878676a2f","study_id":"6197b3f67c2b5cd3b6d9596a","session_id":"6197b59b8858b5c72ad37015","condition":"full-information","relevant_dimensions":["wings","legs"],"bee_group":{"antennae":"X","wings":"1","pattern":"X","legs":"F"},"bonus":1.6800000000000013},{"rt":1431.699999988079,"stimulus":"bees-with-color/bee-A1SM.svg","response":0,"trial_type":"image-button-response","trial_index":145,"time_elapsed":622087,"internal_node_id":"0.0-6.0-0.9","subject_id":"616edaf87d202e3878676a2f","study_id":"6197b3f67c2b5cd3b6d9596a","session_id":"6197b59b8858b5c72ad37015","condition":"full-information","relevant_dimensions":["wings","legs"],"bee_group":{"antennae":"X","wings":"1","pattern":"X","legs":"F"},"bonus":1.6800000000000013},{"rt":1286,"stimulus":"bees-with-color/bee-B1SM.svg","response":0,"trial_type":"image-button-response","trial_index":146,"time_elapsed":623375,"internal_node_id":"0.0-6.0-0.10","subject_id":"616edaf87d202e3878676a2f","study_id":"6197b3f67c2b5cd3b6d9596a","session_id":"6197b59b8858b5c72ad37015","condition":"full-information","relevant_dimensions":["wings","legs"],"bee_group":{"antennae":"X","wings":"1","pattern":"X","legs":"F"},"bonus":1.6800000000000013},{"rt":1223,"stimulus":"bees-with-color/bee-B2DF.svg","response":0,"trial_type":"image-button-response","trial_index":147,"time_elapsed":624599,"internal_node_id":"0.0-6.0-0.11","subject_id":"616edaf87d202e3878676a2f","study_id":"6197b3f67c2b5cd3b6d9596a","session_id":"6197b59b8858b5c72ad37015","condition":"full-information","relevant_dimensions":["wings","legs"],"bee_group":{"antennae":"X","wings":"1","pattern":"X","legs":"F"},"bonus":1.6800000000000013},{"rt":1787.6000000238419,"stimulus":"bees-with-color/bee-A1DF.svg","response":1,"trial_type":"image-button-response","trial_index":148,"time_elapsed":626388,"internal_node_id":"0.0-6.0-0.12","subject_id":"616edaf87d202e3878676a2f","study_id":"6197b3f67c2b5cd3b6d9596a","session_id":"6197b59b8858b5c72ad37015","condition":"full-information","relevant_dimensions":["wings","legs"],"bee_group":{"antennae":"X","wings":"1","pattern":"X","legs":"F"},"bonus":1.6800000000000013},{"rt":705.1000000238419,"stimulus":"bees-with-color/bee-A1SF.svg","response":1,"trial_type":"image-button-response","trial_index":149,"time_elapsed":627094,"internal_node_id":"0.0-6.0-0.13","subject_id":"616edaf87d202e3878676a2f","study_id":"6197b3f67c2b5cd3b6d9596a","session_id":"6197b59b8858b5c72ad37015","condition":"full-information","relevant_dimensions":["wings","legs"],"bee_group":{"antennae":"X","wings":"1","pattern":"X","legs":"F"},"bonus":1.6800000000000013},{"rt":907.8999999761581,"stimulus":"bees-with-color/bee-B2SF.svg","response":0,"trial_type":"image-button-response","trial_index":150,"time_elapsed":628003,"internal_node_id":"0.0-6.0-0.14","subject_id":"616edaf87d202e3878676a2f","study_id":"6197b3f67c2b5cd3b6d9596a","session_id":"6197b59b8858b5c72ad37015","condition":"full-information","relevant_dimensions":["wings","legs"],"bee_group":{"antennae":"X","wings":"1","pattern":"X","legs":"F"},"bonus":1.6800000000000013},{"rt":608,"stimulus":"bees-with-color/bee-A2DF.svg","response":0,"trial_type":"image-button-response","trial_index":151,"time_elapsed":628612,"internal_node_id":"0.0-6.0-0.15","subject_id":"616edaf87d202e3878676a2f","study_id":"6197b3f67c2b5cd3b6d9596a","session_id":"6197b59b8858b5c72ad37015","condition":"full-information","relevant_dimensions":["wings","legs"],"bee_group":{"antennae":"X","wings":"1","pattern":"X","legs":"F"},"bonus":1.6800000000000013},{"rt":1367,"stimulus":"bees-with-color/bee-A1SF.svg","response":1,"trial_type":"image-button-response","trial_index":152,"time_elapsed":629981,"internal_node_id":"0.0-6.0-0.16","subject_id":"616edaf87d202e3878676a2f","study_id":"6197b3f67c2b5cd3b6d9596a","session_id":"6197b59b8858b5c72ad37015","condition":"full-information","relevant_dimensions":["wings","legs"],"bee_group":{"antennae":"X","wings":"1","pattern":"X","legs":"F"},"bonus":1.6800000000000013},{"rt":811.6999999880791,"stimulus":"bees-with-color/bee-B2DF.svg","response":0,"trial_type":"image-button-response","trial_index":153,"time_elapsed":630793,"internal_node_id":"0.0-6.0-0.17","subject_id":"616edaf87d202e3878676a2f","study_id":"6197b3f67c2b5cd3b6d9596a","session_id":"6197b59b8858b5c72ad37015","condition":"full-information","relevant_dimensions":["wings","legs"],"bee_group":{"antennae":"X","wings":"1","pattern":"X","legs":"F"},"bonus":1.6800000000000013},{"rt":995.1000000238419,"stimulus":"bees-with-color/bee-B2SF.svg","response":0,"trial_type":"image-button-response","trial_index":154,"time_elapsed":631789,"internal_node_id":"0.0-6.0-0.18","subject_id":"616edaf87d202e3878676a2f","study_id":"6197b3f67c2b5cd3b6d9596a","session_id":"6197b59b8858b5c72ad37015","condition":"full-information","relevant_dimensions":["wings","legs"],"bee_group":{"antennae":"X","wings":"1","pattern":"X","legs":"F"},"bonus":1.6800000000000013},{"rt":1182.800000011921,"stimulus":"bees-with-color/bee-A2DM.svg","response":0,"trial_type":"image-button-response","trial_index":155,"time_elapsed":632973,"internal_node_id":"0.0-6.0-0.19","subject_id":"616edaf87d202e3878676a2f","study_id":"6197b3f67c2b5cd3b6d9596a","session_id":"6197b59b8858b5c72ad37015","condition":"full-information","relevant_dimensions":["wings","legs"],"bee_group":{"antennae":"X","wings":"1","pattern":"X","legs":"F"},"bonus":1.6800000000000013},{"rt":1369.199999988079,"stimulus":"bees-with-color/bee-B1SM.svg","response":0,"trial_type":"image-button-response","trial_index":156,"time_elapsed":634343,"internal_node_id":"0.0-6.0-0.20","subject_id":"616edaf87d202e3878676a2f","study_id":"6197b3f67c2b5cd3b6d9596a","session_id":"6197b59b8858b5c72ad37015","condition":"full-information","relevant_dimensions":["wings","legs"],"bee_group":{"antennae":"X","wings":"1","pattern":"X","legs":"F"},"bonus":1.6800000000000013},{"rt":953.7999999523163,"stimulus":"bees-with-color/bee-A2DF.svg","response":0,"trial_type":"image-button-response","trial_index":157,"time_elapsed":635298,"internal_node_id":"0.0-6.0-0.21","subject_id":"616edaf87d202e3878676a2f","study_id":"6197b3f67c2b5cd3b6d9596a","session_id":"6197b59b8858b5c72ad37015","condition":"full-information","relevant_dimensions":["wings","legs"],"bee_group":{"antennae":"X","wings":"1","pattern":"X","legs":"F"},"bonus":1.6800000000000013},{"rt":705.3999999761581,"stimulus":"bees-with-color/bee-A2SM.svg","response":0,"trial_type":"image-button-response","trial_index":158,"time_elapsed":636004,"internal_node_id":"0.0-6.0-0.22","subject_id":"616edaf87d202e3878676a2f","study_id":"6197b3f67c2b5cd3b6d9596a","session_id":"6197b59b8858b5c72ad37015","condition":"full-