[{"success":true,"trial_type":"fullscreen","trial_index":0,"time_elapsed":3365,"internal_node_id":"0.0-0.0","subject_id":"605e3ef3eb6aea79c9638166","study_id":"6197b3f67c2b5cd3b6d9596a","session_id":"619bef1185d6739761dc1998","condition":"contingent","relevant_dimensions":["antennae","wings"],"bee_group":{"antennae":"A","wings":"2","pattern":"X","legs":"X"},"bonus":0.3800000000000009},{"success":true,"timeout":false,"failed_images":[],"failed_audio":[],"failed_video":[],"trial_type":"preload","trial_index":1,"time_elapsed":5591,"internal_node_id":"0.0-1.0","subject_id":"605e3ef3eb6aea79c9638166","study_id":"6197b3f67c2b5cd3b6d9596a","session_id":"619bef1185d6739761dc1998","condition":"contingent","relevant_dimensions":["antennae","wings"],"bee_group":{"antennae":"A","wings":"2","pattern":"X","legs":"X"},"bonus":0.3800000000000009},{"rt":1899,"stimulus":"Welcome! Press any key to begin.","response":"arrowleft","trial_type":"html-keyboard-response","trial_index":2,"time_elapsed":7492,"internal_node_id":"0.0-2.0","subject_id":"605e3ef3eb6aea79c9638166","study_id":"6197b3f67c2b5cd3b6d9596a","session_id":"619bef1185d6739761dc1998","condition":"contingent","relevant_dimensions":["antennae","wings"],"bee_group":{"antennae":"A","wings":"2","pattern":"X","legs":"X"},"bonus":0.3800000000000009},{"view_history":[{"page_index":0,"viewing_time":2433},{"page_index":1,"viewing_time":8839},{"page_index":2,"viewing_time":8966},{"page_index":3,"viewing_time":11035},{"page_index":4,"viewing_time":4913},{"page_index":5,"viewing_time":6438},{"page_index":6,"viewing_time":9079},{"page_index":7,"viewing_time":11250},{"page_index":8,"viewing_time":6027},{"page_index":9,"viewing_time":3029},{"page_index":10,"viewing_time":3116},{"page_index":11,"viewing_time":7378},{"page_index":12,"viewing_time":6255},{"page_index":13,"viewing_time":1679},{"page_index":14,"viewing_time":1526}],"rt":91963,"trial_type":"instructions","trial_index":3,"time_elapsed":99459,"internal_node_id":"0.0-3.0-0.0","subject_id":"605e3ef3eb6aea79c9638166","study_id":"6197b3f67c2b5cd3b6d9596a","session_id":"619bef1185d6739761dc1998","condition":"contingent","relevant_dimensions":["antennae","wings"],"bee_group":{"antennae":"A","wings":"2","pattern":"X","legs":"X"},"bonus":0.3800000000000009},{"rt":11563,"response":{"Q0":["Two or six legs","Stripes or spots on body","Single or double wings","Antennae or no antennae"]},"question_order":[0],"trial_type":"survey-multi-select","trial_index":4,"time_elapsed":111040,"internal_node_id":"0.0-3.0-1.0","subject_id":"605e3ef3eb6aea79c9638166","study_id":"6197b3f67c2b5cd3b6d9596a","session_id":"619bef1185d6739761dc1998","condition":"contingent","relevant_dimensions":["antennae","wings"],"bee_group":{"antennae":"A","wings":"2","pattern":"X","legs":"X"},"correct":true,"bonus":0.3800000000000009},{"rt":37680,"response":{"Q1":"No.","Q2":"Based on the four features of the bee.","Q3":"You do not learn if it was friendly or dangerous, and do not alter your bonus."},"question_order":[0,1,2],"trial_type":"survey-multi-choice","trial_index":5,"time_elapsed":148730,"internal_node_id":"0.0-3.0-2.0","subject_id":"605e3ef3eb6aea79c9638166","study_id":"6197b3f67c2b5cd3b6d9596a","session_id":"619bef1185d6739761dc1998","condition":"contingent","relevant_dimensions":["antennae","wings"],"bee_group":{"antennae":"A","wings":"2","pattern":"X","legs":"X"},"correct":true,"bonus":0.3800000000000009},{"rt":4672,"stimulus":"<p>Congrats, you got everything right<br>When you're ready, click the button below to continue to the experiment.</p>","response":0,"trial_type":"html-button-response","trial_index":6,"time_elapsed":153407,"internal_node_id":"0.0-3.0-3.0","subject_id":"605e3ef3eb6aea79c9638166","study_id":"6197b3f67c2b5cd3b6d9596a","session_id":"619bef1185d6739761dc1998","condition":"contingent","relevant_dimensions":["antennae","wings"],"bee_group":{"antennae":"A","wings":"2","pattern":"X","legs":"X"},"bonus":0.3800000000000009},{"rt":3975,"stimulus":"bees-with-color/bee-B1DF.svg","response":1,"trial_type":"image-button-response","trial_index":7,"time_elapsed":157388,"internal_node_id":"0.0-4.0-0.0","subject_id":"605e3ef3eb6aea79c9638166","study_id":"6197b3f67c2b5cd3b6d9596a","session_id":"619bef1185d6739761dc1998","condition":"contingent","relevant_dimensions":["antennae","wings"],"bee_group":{"antennae":"A","wings":"2","pattern":"X","legs":"X"},"action":"avoid","summary":"bad-avoid","bonus":0.3800000000000009},{"rt":4472,"stimulus":"\n                    <p><b>Action: <em>avoid</em></b></p>\n                    <p>This is the bee that you just saw.</p>\n                    <img src=\"bees-with-color/bee-B1DF.svg\" width=\"200\">\n                    <p><br>Your bonus pay is unchanged, and remains at $0.54.</p>\n            ","response":0,"trial_type":"html-button-response","trial_index":8,"time_elapsed":161970,"internal_node_id":"0.0-4.0-1.0","subject_id":"605e3ef3eb6aea79c9638166","study_id":"6197b3f67c2b5cd3b6d9596a","session_id":"619bef1185d6739761dc1998","condition":"contingent","relevant_dimensions":["antennae","wings"],"bee_group":{"antennae":"A","wings":"2","pattern":"X","legs":"X"},"bonus":0.3800000000000009},{"rt":2861,"stimulus":"bees-with-color/bee-B2DF.svg","response":0,"trial_type":"image-button-response","trial_index":9,"time_elapsed":164834,"internal_node_id":"0.0-4.0-0.1","subject_id":"605e3ef3eb6aea79c9638166","study_id":"6197b3f67c2b5cd3b6d9596a","session_id":"619bef1185d6739761dc1998","condition":"contingent","relevant_dimensions":["antennae","wings"],"bee_group":{"antennae":"A","wings":"2","pattern":"X","legs":"X"},"action":"harvest","summary":"good-harvest","bonus":0.3800000000000009},{"rt":9461,"stimulus":"\n                    <p><b>Action: <em>harvest</em></b></p>\n                    <p>This is the bee that you just saw.</p>\n                    <img src=\"bees-with-color/bee-B2DF.svg\" width=\"200\">\n                    <p><span class=\"greenText\"><b>Successful harvest!</b></span><br>Your pay has increased by $0.02. Your bonus pay is now $0.56.</p>\n            ","response":0,"trial_type":"html-button-response","trial_index":10,"time_elapsed":174300,"internal_node_id":"0.0-4.0-1.1","subject_id":"605e3ef3eb6aea79c9638166","study_id":"6197b3f67c2b5cd3b6d9596a","session_id":"619bef1185d6739761dc1998","condition":"contingent","relevant_dimensions":["antennae","wings"],"bee_group":{"antennae":"A","wings":"2","pattern":"X","legs":"X"},"bonus":0.3800000000000009},{"rt":4162,"stimulus":"bees-with-color/bee-A1DF.svg","response":0,"trial_type":"image-button-response","trial_index":11,"time_elapsed":178466,"internal_node_id":"0.0-4.0-0.2","subject_id":"605e3ef3eb6aea79c9638166","study_id":"6197b3f67c2b5cd3b6d9596a","session_id":"619bef1185d6739761dc1998","condition":"contingent","relevant_dimensions":["antennae","wings"],"bee_group":{"antennae":"A","wings":"2","pattern":"X","legs":"X"},"action":"harvest","summary":"good-harvest","bonus":0.3800000000000009},{"rt":7550,"stimulus":"\n                    <p><b>Action: <em>harvest</em></b></p>\n                    <p>This is the bee that you just saw.</p>\n                    <img src=\"bees-with-color/bee-A1DF.svg\" width=\"200\">\n                    <p><span class=\"greenText\"><b>Successful harvest!</b></span><br>Your pay has increased by $0.02. Your bonus pay is now $0.58.</p>\n            ","response":0,"trial_type":"html-button-response","trial_index":12,"time_elapsed":186020,"internal_node_id":"0.0-4.0-1.2","subject_id":"605e3ef3eb6aea79c9638166","study_id":"6197b3f67c2b5cd3b6d9596a","session_id":"619bef1185d6739761dc1998","condition":"contingent","relevant_dimensions":["antennae","wings"],"bee_group":{"antennae":"A","wings":"2","pattern":"X","legs":"X"},"bonus":0.3800000000000009},{"rt":2159,"stimulus":"bees-with-color/bee-A2SM.svg","response":1,"trial_type":"image-button-response","trial_index":13,"time_elapsed":188185,"internal_node_id":"0.0-4.0-0.3","subject_id":"605e3ef3eb6aea79c9638166","study_id":"6197b3f67c2b5cd3b6d9596a","session_id":"619bef1185d6739761dc1998","condition":"contingent","relevant_dimensions":["antennae","wings"],"bee_group":{"antennae":"A","wings":"2","pattern":"X","legs":"X"},"action":"avoid","summary":"good-avoid","bonus":0.3800000000000009},{"rt":2346,"stimulus":"\n                    <p><b>Action: <em>avoid</em></b></p>\n                    <p>This is the bee that you just saw.</p>\n                    <img src=\"bees-with-color/bee-A2SM.svg\" width=\"200\">\n                    <p><br>Your bonus pay is unchanged, and remains at $0.58.</p>\n            ","response":0,"trial_type":"html-button-response","trial_index":14,"time_elapsed":190537,"internal_node_id":"0.0-4.0-1.3","subject_id":"605e3ef3eb6aea79c9638166","study_id":"6197b3f67c2b5cd3b6d9596a","session_id":"619bef1185d6739761dc1998","condition":"contingent","relevant_dimensions":["antennae","wings"],"bee_group":{"antennae":"A","wings":"2","pattern":"X","legs":"X"},"bonus":0.3800000000000009},{"rt":1571,"stimulus":"bees-with-color/bee-A1SM.svg","response":0,"trial_type":"image-button-response","trial_index":15,"time_elapsed":192111,"internal_node_id":"0.0-4.0-0.4","subject_id":"605e3ef3eb6aea79c9638166","study_id":"6197b3f67c2b5cd3b6d9596a","session_id":"619bef1185d6739761dc1998","condition":"contingent","relevant_dimensions":["antennae","wings"],"bee_group":{"antennae":"A","wings":"2","pattern":"X","legs":"X"},"action":"harvest","summary":"good-harvest","bonus":0.3800000000000009},{"rt":7213,"stimulus":"\n                    <p><b>Action: <em>harvest</em></b></p>\n                    <p>This is the bee that you just saw.</p>\n                    <img src=\"bees-with-color/bee-A1SM.svg\" width=\"200\">\n                    <p><span class=\"greenText\"><b>Successful harvest!</b></span><br>Your pay has increased by $0.02. Your bonus pay is now $0.60.</p>\n            ","response":0,"trial_type":"html-button-response","trial_index":16,"time_elapsed":199330,"internal_node_id":"0.0-4.0-1.4","subject_id":"605e3ef3eb6aea79c9638166","study_id":"6197b3f67c2b5cd3b6d9596a","session_id":"619bef1185d6739761dc1998","condition":"contingent","relevant_dimensions":["antennae","wings"],"bee_group":{"antennae":"A","wings":"2","pattern":"X","legs":"X"},"bonus":0.3800000000000009},{"rt":2212,"stimulus":"bees-with-color/bee-A2DM.svg","response":0,"trial_type":"image-button-response","trial_index":17,"time_elapsed":201547,"internal_node_id":"0.0-4.0-0.5","subject_id":"605e3ef3eb6aea79c9638166","study_id":"6197b3f67c2b5cd3b6d9596a","session_id":"619bef1185d6739761dc1998","condition":"contingent","relevant_dimensions":["antennae","wings"],"bee_group":{"antennae":"A","wings":"2","pattern":"X","legs":"X"},"action":"harvest","summary":"bad-harvest","bonus":0.3800000000000009},{"rt":2363,"stimulus":"\n                    <p><b>Action: <em>harvest</em></b></p>\n                    <p>This is the bee that you just saw.</p>\n                    <img src=\"bees-with-color/bee-A2DM.svg\" width=\"200\">\n                    <p><span class=\"redText\">Bad choice, the bee was angry.</span><br><b>You have been stung!</b><br>Your pay has been decreased by $0.10. Your bonus pay is now $0.50.</p>\n            ","response":0,"trial_type":"html-button-response","trial_index":18,"time_elapsed":203914,"internal_node_id":"0.0-4.0-1.5","subject_id":"605e3ef3eb6aea79c9638166","study_id":"6197b3f67c2b5cd3b6d9596a","session_id":"619bef1185d6739761dc1998","condition":"contingent","relevant_dimensions":["antennae","wings"],"bee_group":{"antennae":"A","wings":"2","pattern":"X","legs":"X"},"bonus":0.3800000000000009},{"rt":1772,"stimulus":"bees-with-color/bee-B2DM.svg","response":1,"trial_type":"image-button-response","trial_index":19,"time_elapsed":205690,"internal_node_id":"0.0-4.0-0.6","subject_id":"605e3ef3eb6aea79c9638166","study_id":"6197b3f67c2b5cd3b6d9596a","session_id":"619bef1185d6739761dc1998","condition":"contingent","relevant_dimensions":["antennae","wings"],"bee_group":{"antennae":"A","wings":"2","pattern":"X","legs":"X"},"action":"avoid","summary":"bad-avoid","bonus":0.3800000000000009},{"rt":1920,"stimulus":"\n                    <p><b>Action: <em>avoid</em></b></p>\n                    <p>This is the bee that you just saw.</p>\n                    <img src=\"bees-with-color/bee-B2DM.svg\" width=\"200\">\n                    <p><br>Your bonus pay is unchanged, and remains at $0.50.</p>\n            ","response":0,"trial_type":"html-button-response","trial_index":20,"time_elapsed":207614,"internal_node_id":"0.0-4.0-1.6","subject_id":"605e3ef3eb6aea79c9638166","study_id":"6197b3f67c2b5cd3b6d9596a","session_id":"619bef1185d6739761dc1998","condition":"contingent","relevant_dimensions":["antennae","wings"],"bee_group":{"antennae":"A","wings":"2","pattern":"X","legs":"X"},"bonus":0.3800000000000009},{"rt":1274,"stimulus":"bees-with-color/bee-B1SM.svg","response":0,"trial_type":"image-button-response","trial_index":21,"time_elapsed":208895,"internal_node_id":"0.0-4.0-0.7","subject_id":"605e3ef3eb6aea79c9638166","study_id":"6197b3f67c2b5cd3b6d9596a","session_id":"619bef1185d6739761dc1998","condition":"contingent","relevant_dimensions":["antennae","wings"],"bee_group":{"antennae":"A","wings":"2","pattern":"X","legs":"X"},"action":"harvest","summary":"good-harvest","bonus":0.3800000000000009},{"rt":4395,"stimulus":"\n                    <p><b>Action: <em>harvest</em></b></p>\n                    <p>This is the bee that you just saw.</p>\n                    <img src=\"bees-with-color/bee-B1SM.svg\" width=\"200\">\n                    <p><span class=\"greenText\"><b>Successful harvest!</b></span><br>Your pay has increased by $0.02. Your bonus pay is now $0.52.</p>\n            ","response":0,"trial_type":"html-button-response","trial_index":22,"time_elapsed":213296,"internal_node_id":"0.0-4.0-1.7","subject_id":"605e3ef3eb6aea79c9638166","study_id":"6197b3f67c2b5cd3b6d9596a","session_id":"619bef1185d6739761dc1998","condition":"contingent","relevant_dimensions":["antennae","wings"],"bee_group":{"antennae":"A","wings":"2","pattern":"X","legs":"X"},"bonus":0.3800000000000009},{"rt":1802,"stimulus":"bees-with-color/bee-A2SF.svg","response":0,"trial_type":"image-button-response","trial_index":23,"time_elapsed":215103,"internal_node_id":"0.0-4.0-0.8","subject_id":"605e3ef3eb6aea79c9638166","study_id":"6197b3f67c2b5cd3b6d9596a","session_id":"619bef1185d6739761dc1998","condition":"contingent","relevant_dimensions":["antennae","wings"],"bee_group":{"antennae":"A","wings":"2","pattern":"X","legs":"X"},"action":"harvest","summary":"bad-harvest","bonus":0.3800000000000009},{"rt":1848,"stimulus":"\n                    <p><b>Action: <em>harvest</em></b></p>\n                    <p>This is the bee that you just saw.</p>\n                    <img src=\"bees-with-color/bee-A2SF.svg\" width=\"200\">\n                    <p><span class=\"redText\">Bad choice, the bee was angry.</span><br><b>You have been stung!</b><br>Your pay has been decreased by $0.10. Your bonus pay is now $0.42.</p>\n            ","response":0,"trial_type":"html-button-response","trial_index":24,"time_elapsed":216954,"internal_node_id":"0.0-4.0-1.8","subject_id":"605e3ef3eb6aea79c9638166","study_id":"6197b3f67c2b5cd3b6d9596a","session_id":"619bef1185d6739761dc1998","condition":"contingent","relevant_dimensions":["antennae","wings"],"bee_group":{"antennae":"A","wings":"2","pattern":"X","legs":"X"},"bonus":0.3800000000000009},{"rt":1720,"stimulus":"bees-with-color/bee-A1SF.svg","response":0,"trial_type":"image-button-response","trial_index":25,"time_elapsed":218678,"internal_node_id":"0.0-4.0-0.9","subject_id":"605e3ef3eb6aea79c9638166","study_id":"6197b3f67c2b5cd3b6d9596a","session_id":"619bef1185d6739761dc1998","condition":"contingent","relevant_dimensions":["antennae","wings"],"bee_group":{"antennae":"A","wings":"2","pattern":"X","legs":"X"},"action":"harvest","summary":"good-harvest","bonus":0.3800000000000009},{"rt":1966,"stimulus":"\n                    <p><b>Action: <em>harvest</em></b></p>\n                    <p>This is the bee that you just saw.</p>\n                    <img src=\"bees-with-color/bee-A1SF.svg\" width=\"200\">\n                    <p><span class=\"greenText\"><b>Successful harvest!</b></span><br>Your pay has increased by $0.02. Your bonus pay is now $0.44.</p>\n            ","response":0,"trial_type":"html-button-response","trial_index":26,"time_elapsed":220648,"internal_node_id":"0.0-4.0-1.9","subject_id":"605e3ef3eb6aea79c9638166","study_id":"6197b3f67c2b5cd3b6d9596a","session_id":"619bef1185d6739761dc1998","condition":"contingent","relevant_dimensions":["antennae","wings"],"bee_group":{"antennae":"A","wings":"2","pattern":"X","legs":"X"},"bonus":0.3800000000000009},{"rt":1927,"stimulus":"bees-with-color/bee-B1DM.svg","response":1,"trial_type":"image-button-response","trial_index":27,"time_elapsed":222579,"internal_node_id":"0.0-4.0-0.10","subject_id":"605e3ef3eb6aea79c9638166","study_id":"6197b3f67c2b5cd3b6d9596a","session_id":"619bef1185d6739761dc1998","condition":"contingent","relevant_dimensions":["antennae","wings"],"bee_group":{"antennae":"A","wings":"2","pattern":"X","legs":"X"},"action":"avoid","summary":"bad-avoid","bonus":0.3800000000000009},{"rt":54421,"stimulus":"\n                    <p><b>Action: <em>avoid</em></b></p>\n                    <p>This is the bee that you just saw.</p>\n                    <img src=\"bees-with-color/bee-B1DM.svg\" width=\"200\">\n                    <p><br>Your bonus pay is unchanged, and remains at $0.44.</p>\n            ","response":0,"trial_type":"html-button-response","trial_index":28,"time_elapsed":277003,"internal_node_id":"0.0-4.0-1.10","subject_id":"605e3ef3eb6aea79c9638166","study_id":"6197b3f67c2b5cd3b6d9596a","session_id":"619bef1185d6739761dc1998","condition":"contingent","relevant_dimensions":["antennae","wings"],"bee_group":{"antennae":"A","wings":"2","pattern":"X","legs":"X"},"bonus":0.3800000000000009},{"rt":1619,"stimulus":"bees-with-color/bee-B2SM.svg","response":0,"trial_type":"image-button-response","trial_index":29,"time_elapsed":278628,"internal_node_id":"0.0-4.0-0.11","subject_id":"605e3ef3eb6aea79c9638166","study_id":"6197b3f67c2b5cd3b6d9596a","session_id":"619bef1185d6739761dc1998","condition":"contingent","relevant_dimensions":["antennae","wings"],"bee_group":{"antennae":"A","wings":"2","pattern":"X","legs":"X"},"action":"harvest","summary":"good-harvest","bonus":0.3800000000000009},{"rt":2783,"stimulus":"\n                    <p><b>Action: <em>harvest</em></b></p>\n                    <p>This is the bee that you just saw.</p>\n                    <img src=\"bees-with-color/bee-B2SM.svg\" width=\"200\">\n                    <p><span class=\"greenText\"><b>Successful harvest!</b></span><br>Your pay has increased by $0.02. Your bonus pay is now $0.46.</p>\n            ","response":0,"trial_type":"html-button-response","trial_index":30,"time_elapsed":281414,"internal_node_id":"0.0-4.0-1.11","subject_id":"605e3ef3eb6aea79c9638166","study_id":"6197b3f67c2b5cd3b6d9596a","session_id":"619bef1185d6739761dc1998","condition":"contingent","relevant_dimensions":["antennae","wings"],"bee_group":{"antennae":"A","wings":"2","pattern":"X","legs":"X"},"bonus":0.3800000000000009},{"rt":1720,"stimulus":"bees-with-color/bee-A1DM.svg","response":1,"trial_type":"image-button-response","trial_index":31,"time_elapsed":283138,"internal_node_id":"0.0-4.0-0.12","subject_id":"605e3ef3eb6aea79c9638166","study_id":"6197b3f67c2b5cd3b6d9596a","session_id":"619bef1185d6739761dc1998","condition":"contingent","relevant_dimensions":["antennae","wings"],"bee_group":{"antennae":"A","wings":"2","pattern":"X","legs":"X"},"action":"avoid","summary":"bad-avoid","bonus":0.3800000000000009},{"rt":1372,"stimulus":"\n                    <p><b>Action: <em>avoid</em></b></p>\n                    <p>This is the bee that you just saw.</p>\n                    <img src=\"bees-with-color/bee-A1DM.svg\" width=\"200\">\n                    <p><br>Your bonus pay is unchanged, and remains at $0.46.</p>\n            ","response":0,"trial_type":"html-button-response","trial_index":32,"time_elapsed":284512,"internal_node_id":"0.0-4.0-1.12","subject_id":"605e3ef3eb6aea79c9638166","study_id":"6197b3f67c2b5cd3b6d9596a","session_id":"619bef1185d6739761dc1998","condition":"contingent","relevant_dimensions":["antennae","wings"],"bee_group":{"antennae":"A","wings":"2","pattern":"X","legs":"X"},"bonus":0.3800000000000009},{"rt":1631,"stimulus":"bees-with-color/bee-A2DF.svg","response":0,"trial_type":"image-button-response","trial_index":33,"time_elapsed":286148,"internal_node_id":"0.0-4.0-0.13","subject_id":"605e3ef3eb6aea79c9638166","study_id":"6197b3f67c2b5cd3b6d9596a","session_id":"619bef1185d6739761dc1998","condition":"contingent","relevant_dimensions":["antennae","wings"],"bee_group":{"antennae":"A","wings":"2","pattern":"X","legs":"X"},"action":"harvest","summary":"bad-harvest","bonus":0.3800000000000009},{"rt":1141,"stimulus":"\n                    <p><b>Action: <em>harvest</em></b></p>\n                    <p>This is the bee that you just saw.</p>\n                    <img src=\"bees-with-color/bee-A2DF.svg\" width=\"200\">\n                    <p><span class=\"redText\">Bad choice, the bee was angry.</span><br><b>You have been stung!</b><br>Your pay has been decreased by $0.10. Your bonus pay is now $0.36.</p>\n            ","response":0,"trial_type":"html-button-response","trial_index":34,"time_elapsed":287292,"internal_node_id":"0.0-4.0-1.13","subject_id":"605e3ef3eb6aea79c9638166","study_id":"6197b3f67c2b5cd3b6d9596a","session_id":"619bef1185d6739761dc1998","condition":"contingent","relevant_dimensions":["antennae","wings"],"bee_group":{"antennae":"A","wings":"2","pattern":"X","legs":"X"},"bonus":0.3800000000000009},{"rt":1483,"stimulus":"bees-with-color/bee-B1SF.svg","response":0,"trial_type":"image-button-response","trial_index":35,"time_elapsed":288778,"internal_node_id":"0.0-4.0-0.14","subject_id":"605e3ef3eb6aea79c9638166","study_id":"6197b3f67c2b5cd3b6d9596a","session_id":"619bef1185d6739761dc1998","condition":"contingent","relevant_dimensions":["antennae","wings"],"bee_group":{"antennae":"A","wings":"2","pattern":"X","legs":"X"},"action":"harvest","summary":"good-harvest","bonus":0.3800000000000009},{"rt":2442,"stimulus":"\n                    <p><b>Action: <em>harvest</em></b></p>\n                    <p>This is the bee that you just saw.</p>\n                    <img src=\"bees-with-color/bee-B1SF.svg\" width=\"200\">\n                    <p><span class=\"greenText\"><b>Successful harvest!</b></span><br>Your pay has increased by $0.02. Your bonus pay is now $0.38.</p>\n            ","response":0,"trial_type":"html-button-response","trial_index":36,"time_elapsed":291221,"internal_node_id":"0.0-4.0-1.14","subject_id":"605e3ef3eb6aea79c9638166","study_id":"6197b3f67c2b5cd3b6d9596a","session_id":"619bef1185d6739761dc1998","condition":"contingent","relevant_dimensions":["antennae","wings"],"bee_group":{"antennae":"A","wings":"2","pattern":"X","legs":"X"},"bonus":0.3800000000000009},{"rt":2319,"stimulus":"bees-with-color/bee-B2SF.svg","response":0,"trial_type":"image-button-response","trial_index":37,"time_elapsed":293543,"internal_node_id":"0.0-4.0-0.15","subject_id":"605e3ef3eb6aea79c9638166","study_id":"6197b3f67c2b5cd3b6d9596a","session_id":"619bef1185d6739761dc1998","condition":"contingent","relevant_dimensions":["antennae","wings"],"bee_group":{"antennae":"A","wings":"2","pattern":"X","legs":"X"},"action":"harvest","summary":"good-harvest","bonus":0.3800000000000009},{"rt":3787,"stimulus":"\n                    <p><b>Action: <em>harvest</em></b></p>\n                    <p>This is the bee that you just saw.</p>\n                    <img src=\"bees-with-color/bee-B2SF.svg\" width=\"200\">\n                    <p><span class=\"greenText\"><b>Successful harvest!</b></span><br>Your pay has increased by $0.02. Your bonus pay is now $0.40.</p>\n            ","response":0,"trial_type":"html-button-response","trial_index":38,"time_elapsed":297336,"internal_node_id":"0.0-4.0-1.15","subject_id":"605e3ef3eb6aea79c9638166","study_id":"6197b3f67c2b5cd3b6d9596a","session_id":"619bef1185d6739761dc1998","condition":"contingent","relevant_dimensions":["antennae","wings"],"bee_group":{"antennae":"A","wings":"2","pattern":"X","legs":"X"},"bonus":0.3800000000000009},{"rt":2128,"stimulus":"bees-with-color/bee-B1SF.svg","response":0,"trial_type":"image-button-response","trial_index":39,"time_elapsed":299467,"internal_node_id":"0.0-4.0-0.16","subject_id":"605e3ef3eb6aea79c9638166","study_id":"6197b3f67c2b5cd3b6d9596a","session_id":"619bef1185d6739761dc1998","condition":"contingent","relevant_dimensions":["antennae","wings"],"bee_group":{"antennae":"A","wings":"2","pattern":"X","legs":"X"},"action":"harvest","summary":"good-harvest","bonus":0.3800000000000009},{"rt":3526,"stimulus":"\n                    <p><b>Action: <em>harvest</em></b></p>\n                    <p>This is the bee that you just saw.</p>\n                    <img src=\"bees-with-color/bee-B1SF.svg\" width=\"200\">\n                    <p><span class=\"greenText\"><b>Successful harvest!</b></span><br>Your pay has increased by $0.02. Your bonus pay is now $0.42.</p>\n            ","response":0,"trial_type":"html-button-response","trial_index":40,"time_elapsed":302996,"internal_node_id":"0.0-4.0-1.16","subject_id":"605e3ef3eb6aea79c9638166","study_id":"6197b3f67c2b5cd3b6d9596a","session_id":"619bef1185d6739761dc1998","condition":"contingent","relevant_dimensions":["antennae","wings"],"bee_group":{"antennae":"A","wings":"2","pattern":"X","legs":"X"},"bonus":0.3800000000000009},{"rt":2110,"stimulus":"bees-with-color/bee-A2SF.svg","response":1,"trial_type":"image-button-response","trial_index":41,"time_elapsed":305108,"internal_node_id":"0.0-4.0-0.17","subject_id":"605e3ef3eb6aea79c9638166","study_id":"6197b3f67c2b5cd3b6d9596a","session_id":"619bef1185d6739761dc1998","condition":"contingent","relevant_dimensions":["antennae","wings"],"bee_group":{"antennae":"A","wings":"2","pattern":"X","legs":"X"},"action":"avoid","summary":"good-avoid","bonus":0.3800000000000009},{"rt":2537,"stimulus":"\n                    <p><b>Action: <em>avoid</em></b></p>\n                    <p>This is the bee that you just saw.</p>\n                    <img src=\"bees-with-color/bee-A2SF.svg\" width=\"200\">\n                    <p><br>Your bonus pay is unchanged, and remains at $0.42.</p>\n            ","response":0,"trial_type":"html-button-response","trial_index":42,"time_elapsed":307648,"internal_node_id":"0.0-4.0-1.17","subject_id":"605e3ef3eb6aea79c9638166","study_id":"6197b3f67c2b5cd3b6d9596a","session_id":"619bef1185d6739761dc1998","condition":"contingent","relevant_dimensions":["antennae","wings"],"bee_group":{"antennae":"A","wings":"2","pattern":"X","legs":"X"},"bonus":0.3800000000000009},{"rt":2100,"stimulus":"bees-with-color/bee-B2DM.svg","response":1,"trial_type":"image-button-response","trial_index":43,"time_elapsed":309749,"internal_node_id":"0.0-4.0-0.18","subject_id":"605e3ef3eb6aea79c9638166","study_id":"6197b3f67c2b5cd3b6d9596a","session_id":"619bef1185d6739761dc1998","condition":"contingent","relevant_dimensions":["antennae","wings"],"bee_group":{"antennae":"A","wings":"2","pattern":"X","legs":"X"},"action":"avoid","summary":"bad-avoid","bonus":0.3800000000000009},{"rt":1054,"stimulus":"\n                    <p><b>Action: <em>avoid</em></b></p>\n                    <p>This is the bee that you just saw.</p>\n                    <img src=\"bees-with-color/bee-B2DM.svg\" width=\"200\">\n                    <p><br>Your bonus pay is unchanged, and remains at $0.42.</p>\n            ","response":0,"trial_type":"html-button-response","trial_index":44,"time_elapsed":310807,"internal_node_id":"0.0-4.0-1.18","subject_id":"605e3ef3eb6aea79c9638166","study_id":"6197b3f67c2b5cd3b6d9596a","session_id":"619bef1185d6739761dc1998","condition":"contingent","relevant_dimensions":["antennae","wings"],"bee_group":{"antennae":"A","wings":"2","pattern":"X","legs":"X"},"bonus":0.3800000000000009},{"rt":1464,"stimulus":"bees-with-color/bee-A2SM.svg","response":0,"trial_type":"image-button-response","trial_index":45,"time_elapsed":312273,"internal_node_id":"0.0-4.0-0.19","subject_id":"605e3ef3eb6aea79c9638166","study_id":"6197b3f67c2b5cd3b6d9596a","session_id":"619bef1185d6739761dc1998","condition":"contingent","relevant_dimensions":["antennae","wings"],"bee_group":{"antennae":"A","wings":"2","pattern":"X","legs":"X"},"action":"harvest","summary":"bad-harvest","bonus":0.3800000000000009},{"rt":9439,"stimulus":"\n                    <p><b>Action: <em>harvest</em></b></p>\n                    <p>This is the bee that you just saw.</p>\n                    <img src=\"bees-with-color/bee-A2SM.svg\" width=\"200\">\n                    <p><span class=\"redText\">Bad choice, the bee was angry.</span><br><b>You have been stung!</b><br>Your pay has been decreased by $0.10. Your bonus pay is now $0.32.</p>\n            ","response":0,"trial_type":"html-button-response","trial_index":46,"time_elapsed":321716,"internal_node_id":"0.0-4.0-1.19","subject_id":"605e3ef3eb6aea79c9638166","study_id":"6197b3f67c2b5cd3b6d9596a","session_id":"619bef1185d6739761dc1998","condition":"contingent","relevant_dimensions":["antennae","wings"],"bee_group":{"antennae":"A","wings":"2","pattern":"X","legs":"X"},"bonus":0.3800000000000009},{"rt":2139,"stimulus":"bees-with-color/bee-B1SM.svg","response":0,"trial_type":"image-button-response","trial_index":47,"time_elapsed":323859,"internal_node_id":"0.0-4.0-0.20","subject_id":"605e3ef3eb6aea79c9638166","study_id":"6197b3f67c2b5cd3b6d9596a","session_id":"619bef1185d6739761dc1998","condition":"contingent","relevant_dimensions":["antennae","wings"],"bee_group":{"antennae":"A","wings":"2","pattern":"X","legs":"X"},"action":"harvest","summary":"good-harvest","bonus":0.3800000000000009},{"rt":99158,"stimulus":"\n                    <p><b>Action: <em>harvest</em></b></p>\n                    <p>This is the bee that you just saw.</p>\n                    <img src=\"bees-with-color/bee-B1SM.svg\" width=\"200\">\n                    <p><span class=\"greenText\"><b>Successful harvest!</b></span><br>Your pay has increased by $0.02. Your bonus pay is now $0.34.</p>\n            ","response":0,"trial_type":"html-button-response","trial_index":48,"time_elapsed":423021,"internal_node_id":"0.0-4.0-1.20","subject_id":"605e3ef3eb6aea79c9638166","study_id":"6197b3f67c2b5cd3b6d9596a","session_id":"619bef1185d6739761dc1998","condition":"contingent","relevant_dimensions":["antennae","wings"],"bee_group":{"antennae":"A","wings":"2","pattern":"X","legs":"X"},"bonus":0.3800000000000009},{"rt":2760,"stimulus":"bees-with-color/bee-B2SF.svg","response":1,"trial_type":"image-button-response","trial_index":49,"time_elapsed":425784,"internal_node_id":"0.0-4.0-0.21","subject_id":"605e3ef3eb6aea79c9638166","study_id":"6197b3f67c2b5cd3b6d9596a","session_id":"619bef1185d6739761dc1998","condition":"contingent","relevant_dimensions":["antennae","wings"],"bee_group":{"antennae":"A","wings":"2","pattern":"X","legs":"X"},"action":"avoid","summary":"bad-avoid","bonus":0.3800000000000009},{"rt":1301,"stimulus":"\n                    <p><b>Action: <em>avoid</em></b></p>\n                    <p>This is the bee that you just saw.</p>\n                    <img src=\"bees-with-color/bee-B2SF.svg\" width=\"200\">\n                    <p><br>Your bonus pay is unchanged, and remains at $0.34.</p>\n            ","response":0,"trial_type":"html-button-response","trial_index":50,"time_elapsed":427088,"internal_node_id":"0.0-4.0-1.21","subject_id":"605e3ef3eb6aea79c9638166","study_id":"6197b3f67c2b5cd3b6d9596a","session_id":"619bef1185d6739761dc1998","condition":"contingent","relevant_dimensions":["antennae","wings"],"bee_group":{"antennae":"A","wings":"2","pattern":"X","legs":"X"},"bonus":0.3800000000000009},{"rt":1298,"stimulus":"bees-with-color/bee-B1DM.svg","response":0,"trial_type":"image-button-response","trial_index":51,"time_elapsed":428390,"internal_node_id":"0.0-4.0-0.22","subject_id":"605e3ef3eb6aea79c9638166","study_id":"6197b3f67c2b5cd3b6d9596a","session_id":"619bef1185d6739761dc1998","condition":"contingent","relevant_dimensions":["antennae","wings"],"bee_group":{"antennae":"A","wings":"2","pattern":"X","legs":"X"},"action":"harvest","summary":"good-harvest","bonus":0.3800000000000009},{"rt":2256,"stimulus":"\n                    <p><b>Action: <em>harvest</em></b></p>\n                    <p>This is the bee that you just saw.</p>\n                    <img src=\"bees-with-color/bee-B1DM.svg\" width=\"200\">\n                    <p><span class=\"greenText\"><b>Successful harvest!</b></span><br>Your pay has increased by $0.02. Your bonus pay is now $0.36.</p>\n            ","response":0,"trial_type":"html-button-response","trial_index":52,"time_elapsed":430650,"internal_node_id":"0.0-4.0-1.22","subject_id":"605e3ef3eb6aea79c9638166","study_id":"6197b3f67c2b5cd3b6d9596a","session_id":"619bef1185d6739761dc1998","condition":"contingent","relevant_dimensions":["antennae","wings"],"bee_group":{"antennae":"A","wings":"2","pattern":"X","legs":"X"},"bonus":0.3800000000000009},{"rt":1671,"stimulus":"bees-with-color/bee-B1DF.svg","response":0,"trial_type":"image-button-response","trial_index":53,"time_elapsed":432325,"internal_node_id":"0.0-4.0-0.23","subject_id":"605e3ef3eb6aea79c9638166","study_id":"6197b3f67c2b5cd3b6d9596a","session_id":"619bef1185d6739761dc1998","condition":"contingent","relevant_dimensions":["antennae","wings"],"bee_group":{"antennae":"A","wings":"2","pattern":"X","legs":"X"},"action":"harvest","summary":"good-harvest","bonus":0.3800000000000009},{"rt":2600,"stimulus":"\n                    <p><b>Action: <em>harvest</em></b></p>\n                    <p>This is the bee that you just saw.</p>\n                    <img src=\"bees-with-color/bee-B1DF.svg\" width=\"200\">\n                    <p><span class=\"greenText\"><b>Successful harvest!</b></span><br>Your pay has increased by $0.02. Your bonus pay is now $0.38.</p>\n            ","response":0,"trial_type":"html-button-response","trial_index":54,"time_elapsed":434927,"internal_node_id":"0.0-4.0-1.23","subject_id":"605e3ef3eb6aea79c9638166","study_id":"6197b3f67c2b5cd3b6d9596a","session_id":"619bef1185d6739761dc1998","condition":"contingent","relevant_dimensions":["antennae","wings"],"bee_group":{"antennae":"A","wings":"2","pattern":"X","legs":"X"},"bonus":0.3800000000000009},{"rt":1350,"stimulus":"bees-with-color/bee-A1DF.svg","response":0,"trial_type":"image-button-response","trial_index":55,"time_elapsed":436279,"internal_node_id":"0.0-4.0-0.24","subject_id":"605e3ef3eb6aea79c9638166","study_id":"6197b3f67c2b5cd3b6d9596a","session_id":"619bef1185d6739761dc1998","condition":"contingent","relevant_dimensions":["antennae","wings"],"bee_group":{"antennae":"A","wings":"2","pattern":"X","legs":"X"},"action":"harvest","summary":"good-harvest","bonus":0.3800000000000009},{"rt":2495,"stimulus":"\n                    <p><b>Action: <em>harvest</em></b></p>\n                    <p>This is the bee that you just saw.</p>\n                    <img src=\"bees-with-color/bee-A1DF.svg\" width=\"200\">\n                    <p><span class=\"greenText\"><b>Successful harvest!</b></span><br>Your pay has increased by $0.02. Your bonus pay is now $0.40.</p>\n            ","response":0,"trial_type":"html-button-response","trial_index":56,"time_elapsed":438776,"internal_node_id":"0.0-4.0-1.24","subject_id":"605e3ef3eb6aea79c9638166","study_id":"6197b3f67c2b5cd3b6d9596a","session_id":"619bef1185d6739761dc1998","condition":"contingent","relevant_dimensions":["antennae","wings"],"bee_group":{"antennae":"A","wings":"2","pattern":"X","legs":"X"},"bonus":0.3800000000000009},{"rt":1873,"stimulus":"bees-with-color/bee-A1SM.svg","response":1,"trial_type":"image-button-response","trial_index":57,"time_elapsed":440652,"internal_node_id":"0.0-4.0-0.25","subject_id":"605e3ef3eb6aea79c9638166","study_id":"6197b3f67c2b5cd3b6d9596a","session_id":"619bef1185d6739761dc1998","condition":"contingent","relevant_dimensions":["antennae","wings"],"bee_group":{"antennae":"A","wings":"2","pattern":"X","legs":"X"},"action":"avoid","summary":"bad-avoid","bonus":0.3800000000000009},{"rt":1372,"stimulus":"\n                    <p><b>Action: <em>avoid</em></b></p>\n                    <p>This is the bee that you just saw.</p>\n                    <img src=\"bees-with-color/bee-A1SM.svg\" width=\"200\">\n                    <p><br>Your bonus pay is unchanged, and remains at $0.40.</p>\n            ","response":0,"trial_type":"html-button-response","trial_index":58,"time_elapsed":442030,"internal_node_id":"0.0-4.0-1.25","subject_id":"605e3ef3eb6aea79c9638166","study_id":"6197b3f67c2b5cd3b6d9596a","session_id":"619bef1185d6739761dc1998","condition":"contingent","relevant_dimensions":["antennae","wings"],"bee_group":{"antennae":"A","wings":"2","pattern":"X","legs":"X"},"bonus":0.3800000000000009},{"rt":2406,"stimulus":"bees-with-color/bee-A2DM.svg","response":1,"trial_type":"image-button-response","trial_index":59,"time_elapsed":444440,"internal_node_id":"0.0-4.0-0.26","subject_id":"605e3ef3eb6aea79c9638166","study_id":"6197b3f67c2b5cd3b6d9596a","session_id":"619bef1185d6739761dc1998","condition":"contingent","relevant_dimensions":["antennae","wings"],"bee_group":{"antennae":"A","wings":"2","pattern":"X","legs":"X"},"action":"avoid","summary":"good-avoid","bonus":0.3800000000000009},{"rt":1193,"stimulus":"\n                    <p><b>Action: <em>avoid</em></b></p>\n                    <p>This is the bee that you just saw.</p>\n                    <img src=\"bees-with-color/bee-A2DM.svg\" width=\"200\">\n                    <p><br>Your bonus pay is unchanged, and remains at $0.40.</p>\n            ","response":0,"trial_type":"html-button-response","trial_index":60,"time_elapsed":445636,"internal_node_id":"0.0-4.0-1.26","subject_id":"605e3ef3eb6aea79c9638166","study_id":"6197b3f67c2b5cd3b6d9596a","session_id":"619bef1185d6739761dc1998","condition":"contingent","relevant_dimensions":["antennae","wings"],"bee_group":{"antennae":"A","wings":"2","pattern":"X","legs":"X"},"bonus":0.3800000000000009},{"rt":1513,"stimulus":"bees-with-color/bee-B2SM.svg","response":1,"trial_type":"image-button-response","trial_index":61,"time_elapsed":447154,"internal_node_id":"0.0-4.0-0.27","subject_id":"605e3ef3eb6aea79c9638166","study_id":"6197b3f67c2b5cd3b6d9596a","session_id":"619bef1185d6739761dc1998","condition":"contingent","relevant_dimensions":["antennae","wings"],"bee_group":{"antennae":"A","wings":"2","pattern":"X","legs":"X"},"action":"avoid","summary":"bad-avoid","bonus":0.3800000000000009},{"rt":1299,"stimulus":"\n                    <p><b>Action: <em>avoid</em></b></p>\n                    <p>This is the bee that you just saw.</p>\n                    <img src=\"bees-with-color/bee-B2SM.svg\" width=\"200\">\n                    <p><br>Your bonus pay is unchanged, and remains at $0.40.</p>\n            ","response":0,"trial_type":"html-button-response","trial_index":62,"time_elapsed":448456,"internal_node_id":"0.0-4.0-1.27","subject_id":"605e3ef3eb6aea79c9638166","study_id":"6197b3f67c2b5cd3b6d9596a","session_id":"619bef1185d6739761dc1998","condition":"contingent","relevant_dimensions":["antennae","wings"],"bee_group":{"antennae":"A","wings":"2","pattern":"X","legs":"X"},"bonus":0.3800000000000009},{"rt":1451,"stimulus":"bees-with-color/bee-A2DF.svg","response":0,"trial_type":"image-button-response","trial_index":63,"time_elapsed":449911,"internal_node_id":"0.0-4.0-0.28","subject_id":"605e3ef3eb6aea79c9638166","study_id":"6197b3f67c2b5cd3b6d9596a","session_id":"619bef1185d6739761dc1998","condition":"contingent","relevant_dimensions":["antennae","wings"],"bee_group":{"antennae":"A","wings":"2","pattern":"X","legs":"X"},"action":"harvest","summary":"bad-harvest","bonus":0.3800000000000009},{"rt":2449,"stimulus":"\n                    <p><b>Action: <em>harvest</em></b></p>\n                    <p>This is the bee that you just saw.</p>\n                    <img src=\"bees-with-color/bee-A2DF.svg\" width=\"200\">\n                    <p><span class=\"redText\">Bad choice, the bee was angry.</span><br><b>You have been stung!</b><br>Your pay has been decreased by $0.10. Your bonus pay is now $0.30.</p>\n            ","response":0,"trial_type":"html-button-response","trial_index":64,"time_elapsed":452365,"internal_node_id":"0.0-4.0-1.28","subject_id":"605e3ef3eb6aea79c9638166","study_id":"6197b3f67c2b5cd3b6d9596a","session_id":"619bef1185d6739761dc1998","condition":"contingent","relevant_dimensions":["antennae","wings"],"bee_group":{"antennae":"A","wings":"2","pattern":"X","legs":"X"},"bonus":0.3800000000000009},{"rt":2320,"stimulus":"bees-with-color/bee-B2DF.svg","response":0,"trial_type":"image-button-response","trial_index":65,"time_elapsed":454688,"internal_node_id":"0.0-4.0-0.29","subject_id":"605e3ef3eb6aea79c9638166","study_id":"6197b3f67c2b5cd3b6d9596a","session_id":"619bef1185d6739761dc1998","condition":"contingent","relevant_dimensions":["antennae","wings"],"bee_group":{"antennae":"A","wings":"2","pattern":"X","legs":"X"},"action":"harvest","summary":"good-harvest","bonus":0.3800000000000009},{"rt":2627,"stimulus":"\n                    <p><b>Action: <em>harvest</em></b></p>\n                    <p>This is the bee that you just saw.</p>\n                    <img src=\"bees-with-color/bee-B2DF.svg\" width=\"200\">\n                    <p><span class=\"greenText\"><b>Successful harvest!</b></span><br>Your pay has increased by $0.02. Your bonus pay is now $0.32.</p>\n            ","response":0,"trial_type":"html-button-response","trial_index":66,"time_elapsed":457319,"internal_node_id":"0.0-4.0-1.29","subject_id":"605e3ef3eb6aea79c9638166","study_id":"6197b3f67c2b5cd3b6d9596a","session_id":"619bef1185d6739761dc1998","condition":"contingent","relevant_dimensions":["antennae","wings"],"bee_group":{"antennae":"A","wings":"2","pattern":"X","legs":"X"},"bonus":0.3800000000000009},{"rt":28835,"stimulus":"bees-with-color/bee-A1DM.svg","response":0,"trial_type":"image-button-response","trial_index":67,"time_elapsed":486159,"internal_node_id":"0.0-4.0-0.30","subject_id":"605e3ef3eb6aea79c9638166","study_id":"6197b3f67c2b5cd3b6d9596a","session_id":"619bef1185d6739761dc1998","condition":"contingent","relevant_dimensions":["antennae","wings"],"bee_group":{"antennae":"A","wings":"2","pattern":"X","legs":"X"},"action":"harvest","summary":"good-harvest","bonus":0.3800000000000009},{"rt":3552,"stimulus":"\n                    <p><b>Action: <em>harvest</em></b></p>\n                    <p>This is the bee that you just saw.</p>\n                    <img src=\"bees-with-color/bee-A1DM.svg\" width=\"200\">\n                    <p><span class=\"greenText\"><b>Successful harvest!</b></span><br>Your pay has increased by $0.02. Your bonus pay is now $0.34.</p>\n            ","response":0,"trial_type":"html-button-response","trial_index":68,"time_elapsed":489715,"internal_node_id":"0.0-4.0-1.30","subject_id":"605e3ef3eb6aea79c9638166","study_id":"6197b3f67c2b5cd3b6d9596a","session_id":"619bef1185d6739761dc1998","condition":"contingent","relevant_dimensions":["antennae","wings"],"bee_group":{"antennae":"A","wings":"2","pattern":"X","legs":"X"},"bonus":0.3800000000000009},{"rt":3830,"stimulus":"bees-with-color/bee-A1SF.svg","response":0,"trial_type":"image-button-response","trial_index":69,"time_elapsed":493548,"internal_node_id":"0.0-4.0-0.31","subject_id":"605e3ef3eb6aea79c9638166","study_id":"6197b3f67c2b5cd3b6d9596a","session_id":"619bef1185d6739761dc1998","condition":"contingent","relevant_dimensions":["antennae","wings"],"bee_group":{"antennae":"A","wings":"2","pattern":"X","legs":"X"},"action":"harvest","summary":"good-harvest","bonus":0.3800000000000009},{"rt":2488,"stimulus":"\n                    <p><b>Action: <em>harvest</em></b></p>\n                    <p>This is the bee that you just saw.</p>\n                    <img src=\"bees-with-color/bee-A1SF.svg\" width=\"200\">\n                    <p><span class=\"greenText\"><b>Successful harvest!</b></span><br>Your pay has increased by $0.02. Your bonus pay is now $0.36.</p>\n            ","response":0,"trial_type":"html-button-response","trial_index":70,"time_elapsed":496040,"internal_node_id":"0.0-4.0-1.31","subject_id":"605e3ef3eb6aea79c9638166","study_id":"6197b3f67c2b5cd3b6d9596a","session_id":"619bef1185d6739761dc1998","condition":"contingent","relevant_dimensions":["antennae","wings"],"bee_group":{"antennae":"A","wings":"2","pattern":"X","legs":"X"},"bonus":0.3800000000000009},{"rt":1981,"stimulus":"bees-with-color/bee-A1DF.svg","response":0,"trial_type":"image-button-response","trial_index":71,"time_elapsed":498025,"internal_node_id":"0.0-4.0-0.32","subject_id":"605e3ef3eb6aea79c9638166","study_id":"6197b3f67c2b5cd3b6d9596a","session_id":"619bef1185d6739761dc1998","condition":"contingent","relevant_dimensions":["antennae","wings"],"bee_group":{"antennae":"A","wings":"2","pattern":"X","legs":"X"},"action":"harvest","summary":"good-harvest","bonus":0.3800000000000009},{"rt":3864,"stimulus":"\n                    <p><b>Action: <em>harvest</em></b></p>\n                    <p>This is the bee that you just saw.</p>\n                    <img src=\"bees-with-color/bee-A1DF.svg\" width=\"200\">\n                    <p><span class=\"greenText\"><b>Successful harvest!</b></span><br>Your pay has increased by $0.02. Your bonus pay is now $0.38.</p>\n            ","response":0,"trial_type":"html-button-response","trial_index":72,"time_elapsed":501894,"internal_node_id":"0.0-4.0-1.32","subject_id":"605e3ef3eb6aea79c9638166","study_id":"6197b3f67c2b5cd3b6d9596a","session_id":"619bef1185d6739761dc1998","condition":"contingent","relevant_dimensions":["antennae","wings"],"bee_group":{"antennae":"A","wings":"2","pattern":"X","legs":"X"},"bonus":0.3800000000000009},{"rt":1761,"stimulus":"bees-with-color/bee-A2SF.svg","response":0,"trial_type":"image-button-response","trial_index":73,"time_elapsed":503660,"internal_node_id":"0.0-4.0-0.33","subject_id":"605e3ef3eb6aea79c9638166","study_id":"6197b3f67c2b5cd3b6d9596a","session_id":"619bef1185d6739761dc1998","condition":"contingent","relevant_dimensions":["antennae","wings"],"bee_group":{"antennae":"A","wings":"2","pattern":"X","legs":"X"},"action":"harvest","summary":"bad-harvest","bonus":0.3800000000000009},{"rt":1866,"stimulus":"\n                    <p><b>Action: <em>harvest</em></b></p>\n                    <p>This is the bee that you just saw.</p>\n                    <img src=\"bees-with-color/bee-A2SF.svg\" width=\"200\">\n                    <p><span class=\"redText\">Bad choice, the bee was angry.</span><br><b>You have been stung!</b><br>Your pay has been decreased by $0.10. Your bonus pay is now $0.28.</p>\n            ","response":0,"trial_type":"html-button-response","trial_index":74,"time_elapsed":505530,"internal_node_id":"0.0-4.0-1.33","subject_id":"605e3ef3eb6aea79c9638166","study_id":"6197b3f67c2b5cd3b6d9596a","session_id":"619bef1185d6739761dc1998","condition":"contingent","relevant_dimensions":["antennae","wings"],"bee_group":{"antennae":"A","wings":"2","pattern":"X","legs":"X"},"bonus":0.3800000000000009},{"rt":1745,"stimulus":"bees-with-color/bee-B2DF.svg","response":1,"trial_type":"image-button-response","trial_index":75,"time_elapsed":507278,"internal_node_id":"0.0-4.0-0.34","subject_id":"605e3ef3eb6aea79c9638166","study_id":"6197b3f67c2b5cd3b6d9596a","session_id":"619bef1185d6739761dc1998","condition":"contingent","relevant_dimensions":["antennae","wings"],"bee_group":{"antennae":"A","wings":"2","pattern":"X","legs":"X"},"action":"avoid","summary":"bad-avoid","bonus":0.3800000000000009},{"rt":1138,"stimulus":"\n                    <p><b>Action: <em>avoid</em></b></p>\n                    <p>This is the bee that you just saw.</p>\n                    <img src=\"bees-with-color/bee-B2DF.svg\" width=\"200\">\n                    <p><br>Your bonus pay is unchanged, and remains at $0.28.</p>\n            ","response":0,"trial_type":"html-button-response","trial_index":76,"time_elapsed":508420,"internal_node_id":"0.0-4.0-1.34","subject_id":"605e3ef3eb6aea79c9638166","study_id":"6197b3f67c2b5cd3b6d9596a","session_id":"619bef1185d6739761dc1998","condition":"contingent","relevant_dimensions":["antennae","wings"],"bee_group":{"antennae":"A","wings":"2","pattern":"X","legs":"X"},"bonus":0.3800000000000009},{"rt":1616,"stimulus":"bees-with-color/bee-B1SM.svg","response":1,"trial_type":"image-button-response","trial_index":77,"time_elapsed":510040,"internal_node_id":"0.0-4.0-0.35","subject_id":"605e3ef3eb6aea79c9638166","study_id":"6197b3f67c2b5cd3b6d9596a","session_id":"619bef1185d6739761dc1998","condition":"contingent","relevant_dimensions":["antennae","wings"],"bee_group":{"antennae":"A","wings":"2","pattern":"X","legs":"X"},"action":"avoid","summary":"bad-avoid","bonus":0.3800000000000009},{"rt":955,"stimulus":"\n                    <p><b>Action: <em>avoid</em></b></p>\n                    <p>This is the bee that you just saw.</p>\n                    <img src=\"bees-with-color/bee-B1SM.svg\" width=\"200\">\n                    <p><br>Your bonus pay is unchanged, and remains at $0.28.</p>\n            ","response":0,"trial_type":"html-button-response","trial_index":78,"time_elapsed":511000,"internal_node_id":"0.0-4.0-1.35","subject_id":"605e3ef3eb6aea79c9638166","study_id":"6197b3f67c2b5cd3b6d9596a","session_id":"619bef1185d6739761dc1998","condition":"contingent","relevant_dimensions":["antennae","wings"],"bee_group":{"antennae":"A","wings":"2","pattern":"X","legs":"X"},"bonus":0.3800000000000009},{"rt":1673,"stimulus":"bees-with-color/bee-B1SF.svg","response":0,"trial_type":"image-button-response","trial_index":79,"time_elapsed":512676,"internal_node_id":"0.0-4.0-0.36","subject_id":"605e3ef3eb6aea79c9638166","study_id":"6197b3f67c2b5cd3b6d9596a","session_id":"619bef1185d6739761dc1998","condition":"contingent","relevant_dimensions":["antennae","wings"],"bee_group":{"antennae":"A","wings":"2","pattern":"X","legs":"X"},"action":"harvest","summary":"good-harvest","bonus":0.3800000000000009},{"rt":1327,"stimulus":"\n                    <p><b>Action: <em>harvest</em></b></p>\n                    <p>This is the bee that you just saw.</p>\n                    <img src=\"bees-with-color/bee-B1SF.svg\" width=\"200\">\n                    <p><span class=\"greenText\"><b>Successful harvest!</b></span><br>Your pay has increased by $0.02. Your bonus pay is now $0.30.</p>\n            ","response":0,"trial_type":"html-button-response","trial_index":80,"time_elapsed":514007,"internal_node_id":"0.0-4.0-1.36","subject_id":"605e3ef3eb6aea79c9638166","study_id":"6197b3f67c2b5cd3b6d9596a","session_id":"619bef1185d6739761dc1998","condition":"contingent","relevant_dimensions":["antennae","wings"],"bee_group":{"antennae":"A","wings":"2","pattern":"X","legs":"X"},"bonus":0.3800000000000009},{"rt":1588,"stimulus":"bees-with-color/bee-B2DM.svg","response":1,"trial_type":"image-button-response","trial_index":81,"time_elapsed":515598,"internal_node_id":"0.0-4.0-0.37","subject_id":"605e3ef3eb6aea79c9638166","study_id":"6197b3f67c2b5cd3b6d9596a","session_id":"619bef1185d6739761dc1998","condition":"contingent","relevant_dimensions":["antennae","wings"],"bee_group":{"antennae":"A","wings":"2","pattern":"X","legs":"X"},"action":"avoid","summary":"bad-avoid","bonus":0.3800000000000009},{"rt":1202,"stimulus":"\n                    <p><b>Action: <em>avoid</em></b></p>\n                    <p>This is the bee that you just saw.</p>\n                    <img src=\"bees-with-color/bee-B2DM.svg\" width=\"200\">\n                    <p><br>Your bonus pay is unchanged, and remains at $0.30.</p>\n            ","response":0,"trial_type":"html-button-response","trial_index":82,"time_elapsed":516804,"internal_node_id":"0.0-4.0-1.37","subject_id":"605e3ef3eb6aea79c9638166","study_id":"6197b3f67c2b5cd3b6d9596a","session_id":"619bef1185d6739761dc1998","condition":"contingent","relevant_dimensions":["antennae","wings"],"bee_group":{"antennae":"A","wings":"2","pattern":"X","legs":"X"},"bonus":0.3800000000000009},{"rt":1767,"stimulus":"bees-with-color/bee-A2SM.svg","response":1,"trial_type":"image-button-response","trial_index":83,"time_elapsed":518578,"internal_node_id":"0.0-4.0-0.38","subject_id":"605e3ef3eb6aea79c9638166","study_id":"6197b3f67c2b5cd3b6d9596a","session_id":"619bef1185d6739761dc1998","condition":"contingent","relevant_dimensions":["antennae","wings"],"bee_group":{"antennae":"A","wings":"2","pattern":"X","legs":"X"},"action":"avoid","summary":"good-avoid","bonus":0.3800000000000009},{"rt":2049,"stimulus":"\n                    <p><b>Action: <em>avoid</em></b></p>\n                    <p>This is the bee that you just saw.</p>\n                    <img src=\"bees-with-color/bee-A2SM.svg\" width=\"200\">\n                    <p><br>Your bonus pay is unchanged, and remains at $0.30.</p>\n            ","response":0,"trial_type":"html-button-response","trial_index":84,"time_elapsed":520632,"internal_node_id":"0.0-4.0-1.38","subject_id":"605e3ef3eb6aea79c9638166","study_id":"6197b3f67c2b5cd3b6d9596a","session_id":"619bef1185d6739761dc1998","condition":"contingent","relevant_dimensions":["antennae","wings"],"bee_group":{"antennae":"A","wings":"2","pattern":"X","legs":"X"},"bonus":0.3800000000000009},{"rt":1694,"stimulus":"bees-with-color/bee-B1DM.svg","response":1,"trial_type":"image-button-response","trial_index":85,"time_elapsed":522332,"internal_node_id":"0.0-4.0-0.39","subject_id":"605e3ef3eb6aea79c9638166","study_id":"6197b3f67c2b5cd3b6d9596a","session_id":"619bef1185d6739761dc1998","condition":"contingent","relevant_dimensions":["antennae","wings"],"bee_group":{"antennae":"A","wings":"2","pattern":"X","legs":"X"},"action":"avoid","summary":"bad-avoid","bonus":0.3800000000000009},{"rt":887,"stimulus":"\n                    <p><b>Action: <em>avoid</em></b></p>\n                    <p>This is the bee that you just saw.</p>\n                    <img src=\"bees-with-color/bee-B1DM.svg\" width=\"200\">\n                    <p><br>Your bonus pay is unchanged, and remains at $0.30.</p>\n            ","response":0,"trial_type":"html-button-response","trial_index":86,"time_elapsed":523225,"internal_node_id":"0.0-4.0-1.39","subject_id":"605e3ef3eb6aea79c9638166","study_id":"6197b3f67c2b5cd3b6d9596a","session_id":"619bef1185d6739761dc1998","condition":"contingent","relevant_dimensions":["antennae","wings"],"bee_group":{"antennae":"A","wings":"2","pattern":"X","legs":"X"},"bonus":0.3800000000000009},{"rt":1234,"stimulus":"bees-with-color/bee-A1SF.svg","response":0,"trial_type":"image-button-response","trial_index":87,"time_elapsed":524462,"internal_node_id":"0.0-4.0-0.40","subject_id":"605e3ef3eb6aea79c9638166","study_id":"6197b3f67c2b5cd3b6d9596a","session_id":"619bef1185d6739761dc1998","condition":"contingent","relevant_dimensions":["antennae","wings"],"bee_group":{"antennae":"A","wings":"2","pattern":"X","legs":"X"},"action":"harvest","summary":"good-harvest","bonus":0.3800000000000009},{"rt":1593,"stimulus":"\n                    <p><b>Action: <em>harvest</em></b></p>\n                    <p>This is the bee that you just saw.</p>\n                    <img src=\"bees-with-color/bee-A1SF.svg\" width=\"200\">\n                    <p><span class=\"greenText\"><b>Successful harvest!</b></span><br>Your pay has increased by $0.02. Your bonus pay is now $0.32.</p>\n            ","response":0,"trial_type":"html-button-response","trial_index":88,"time_elapsed":526059,"internal_node_id":"0.0-4.0-1.40","subject_id":"605e3ef3eb6aea79c9638166","study_id":"6197b3f67c2b5cd3b6d9596a","session_id":"619bef1185d6739761dc1998","condition":"contingent","relevant_dimensions":["antennae","wings"],"bee_group":{"antennae":"A","wings":"2","pattern":"X","legs":"X"},"bonus":0.3800000000000009},{"rt":1771,"stimulus":"bees-with-color/bee-A2DM.svg","response":1,"trial_type":"image-button-response","trial_index":89,"time_elapsed":527834,"internal_node_id":"0.0-4.0-0.41","subject_id":"605e3ef3eb6aea79c9638166","study_id":"6197b3f67c2b5cd3b6d9596a","session_id":"619bef1185d6739761dc1998","condition":"contingent","relevant_dimensions":["antennae","wings"],"bee_group":{"antennae":"A","wings":"2","pattern":"X","legs":"X"},"action":"avoid","summary":"good-avoid","bonus":0.3800000000000009},{"rt":946,"stimulus":"\n                    <p><b>Action: <em>avoid</em></b></p>\n                    <p>This is the bee that you just saw.</p>\n                    <img src=\"bees-with-color/bee-A2DM.svg\" width=\"200\">\n                    <p><br>Your bonus pay is unchanged, and remains at $0.32.</p>\n            ","response":0,"trial_type":"html-button-response","trial_index":90,"time_elapsed":528782,"internal_node_id":"0.0-4.0-1.41","subject_id":"605e3ef3eb6aea79c9638166","study_id":"6197b3f67c2b5cd3b6d9596a","session_id":"619bef1185d6739761dc1998","condition":"contingent","relevant_dimensions":["antennae","wings"],"bee_group":{"antennae":"A","wings":"2","pattern":"X","legs":"X"},"bonus":0.3800000000000009},{"rt":1385,"stimulus":"bees-with-color/bee-A1SM.svg","response":1,"trial_type":"image-button-response","trial_index":91,"time_elapsed":530172,"internal_node_id":"0.0-4.0-0.42","subject_id":"605e3ef3eb6aea79c9638166","study_id":"6197b3f67c2b5cd3b6d9596a","session_id":"619bef1185d6739761dc1998","condition":"contingent","relevant_dimensions":["antennae","wings"],"bee_group":{"antennae":"A","wings":"2","pattern":"X","legs":"X"},"action":"avoid","summary":"bad-avoid","bonus":0.3800000000000009},{"rt":1237,"stimulus":"\n                    <p><b>Action: <em>avoid</em></b></p>\n                    <p>This is the bee that you just saw.</p>\n                    <img src=\"bees-with-color/bee-A1SM.svg\" width=\"200\">\n                    <p><br>Your bonus pay is unchanged, and remains at $0.32.</p>\n            ","response":0,"trial_type":"html-button-response","trial_index":92,"time_elapsed":531412,"internal_node_id":"0.0-4.0-1.42","subject_id":"605e3ef3eb6aea79c9638166","study_id":"6197b3f67c2b5cd3b6d9596a","session_id":"619bef1185d6739761dc1998","condition":"contingent","relevant_dimensions":["antennae","wings"],"bee_group":{"antennae":"A","wings":"2","pattern":"X","legs":"X"},"bonus":0.3800000000000009},{"rt":1296,"stimulus":"bees-with-color/bee-B2SM.svg","response":1,"trial_type":"image-button-response","trial_index":93,"time_elapsed":532712,"internal_node_id":"0.0-4.0-0.43","subject_id":"605e3ef3eb6aea79c9638166","study_id":"6197b3f67c2b5cd3b6d9596a","session_id":"619bef1185d6739761dc1998","condition":"contingent","relevant_dimensions":["antennae","wings"],"bee_group":{"antennae":"A","wings":"2","pattern":"X","legs":"X"},"action":"avoid","summary":"bad-avoid","bonus":0.3800000000000009},{"rt":827,"stimulus":"\n                    <p><b>Action: <em>avoid</em></b></p>\n                    <p>This is the bee that you just saw.</p>\n                    <img src=\"bees-with-color/bee-B2SM.svg\" width=\"200\">\n                    <p><br>Your bonus pay is unchanged, and remains at $0.32.</p>\n            ","response":0,"trial_type":"html-button-response","trial_index":94,"time_elapsed":533542,"internal_node_id":"0.0-4.0-1.43","subject_id":"605e3ef3eb6aea79c9638166","study_id":"6197b3f67c2b5cd3b6d9596a","session_id":"619bef1185d6739761dc1998","condition":"contingent","relevant_dimensions":["antennae","wings"],"bee_group":{"antennae":"A","wings":"2","pattern":"X","legs":"X"},"bonus":0.3800000000000009},{"rt":2029,"stimulus":"bees-with-color/bee-A2DF.svg","response":1,"trial_type":"image-button-response","trial_index":95,"time_elapsed":535574,"internal_node_id":"0.0-4.0-0.44","subject_id":"605e3ef3eb6aea79c9638166","study_id":"6197b3f67c2b5cd3b6d9596a","session_id":"619bef1185d6739761dc1998","condition":"contingent","relevant_dimensions":["antennae","wings"],"bee_group":{"antennae":"A","wings":"2","pattern":"X","legs":"X"},"action":"avoid","summary":"good-avoid","bonus":0.3800000000000009},{"rt":801,"stimulus":"\n                    <p><b>Action: <em>avoid</em></b></p>\n                    <p>This is the bee that you just saw.</p>\n                    <img src=\"bees-with-color/bee-A2DF.svg\" width=\"200\">\n                    <p><br>Your bonus pay is unchanged, and remains at $0.32.</p>\n            ","response":0,"trial_type":"html-button-response","trial_index":96,"time_elapsed":536378,"internal_node_id":"0.0-4.0-1.44","subject_id":"605e3ef3eb6aea79c9638166","study_id":"6197b3f67c2b5cd3b6d9596a","session_id":"619bef1185d6739761dc1998","condition":"contingent","relevant_dimensions":["antennae","wings"],"bee_group":{"antennae":"A","wings":"2","pattern":"X","legs":"X"},"bonus":0.3800000000000009},{"rt":1558,"stimulus":"bees-with-color/bee-A1DM.svg","response":1,"trial_type":"image-button-response","trial_index":97,"time_elapsed":537940,"internal_node_id":"0.0-4.0-0.45","subject_id":"605e3ef3eb6aea79c9638166","study_id":"6197b3f67c2b5cd3b6d9596a","session_id":"619bef1185d6739761dc1998","condition":"contingent","relevant_dimensions":["antennae","wings"],"bee_group":{"antennae":"A","wings":"2","pattern":"X","legs":"X"},"action":"avoid","summary":"bad-avoid","bonus":0.3800000000000009},{"rt":1448,"stimulus":"\n                    <p><b>Action: <em>avoid</em></b></p>\n                    <p>This is the bee that you just saw.</p>\n                    <img src=\"bees-with-color/bee-A1DM.svg\" width=\"200\">\n                    <p><br>Your bonus pay is unchanged, and remains at $0.32.</p>\n            ","response":0,"trial_type":"html-button-response","trial_index":98,"time_elapsed":539391,"internal_node_id":"0.0-4.0-1.45","subject_id":"605e3ef3eb6aea79c9638166","study_id":"6197b3f67c2b5cd3b6d9596a","session_id":"619bef1185d6739761dc1998","condition":"contingent","relevant_dimensions":["antennae","wings"],"bee_group":{"antennae":"A","wings":"2","pattern":"X","legs":"X"},"bonus":0.3800000000000009},{"rt":1166,"stimulus":"bees-with-color/bee-B1DF.svg","response":0,"trial_type":"image-button-response","trial_index":99,"time_elapsed":540562,"internal_node_id":"0.0-4.0-0.46","subject_id":"605e3ef3eb6aea79c9638166","study_id":"6197b3f67c2b5cd3b6d9596a","session_id":"619bef1185d6739761dc1998","condition":"contingent","relevant_dimensions":["antennae","wings"],"bee_group":{"antennae":"A","wings":"2","pattern":"X","legs":"X"},"action":"harvest","summary":"good-harvest","bonus":0.3800000000000009},{"rt":1868,"stimulus":"\n                    <p><b>Action: <em>harvest</em></b></p>\n                    <p>This is the bee that you just saw.</p>\n                    <img src=\"bees-with-color/bee-B1DF.svg\" width=\"200\">\n                    <p><span class=\"greenText\"><b>Successful harvest!</b></span><br>Your pay has increased by $0.02. Your bonus pay is now $0.34.</p>\n            ","response":0,"trial_type":"html-button-response","trial_index":100,"time_elapsed":542431,"internal_node_id":"0.0-4.0-1.46","subject_id":"605e3ef3eb6aea79c9638166","study_id":"6197b3f67c2b5cd3b6d9596a","session_id":"619bef1185d6739761dc1998","condition":"contingent","relevant_dimensions":["antennae","wings"],"bee_group":{"antennae":"A","wings":"2","pattern":"X","legs":"X"},"bonus":0.3800000000000009},{"rt":1607,"stimulus":"bees-with-color/bee-B2SF.svg","response":1,"trial_type":"image-button-response","trial_index":101,"time_elapsed":544044,"internal_node_id":"0.0-4.0-0.47","subject_id":"605e3ef3eb6aea79c9638166","study_id":"6197b3f67c2b5cd3b6d9596a","session_id":"619bef1185d6739761dc1998","condition":"contingent","relevant_dimensions":["antennae","wings"],"bee_group":{"antennae":"A","wings":"2","pattern":"X","legs":"X"},"action":"avoid","summary":"bad-avoid","bonus":0.3800000000000009},{"rt":905,"stimulus":"\n                    <p><b>Action: <em>avoid</em></b></p>\n                    <p>This is the bee that you just saw.</p>\n                    <img src=\"bees-with-color/bee-B2SF.svg\" width=\"200\">\n                    <p><br>Your bonus pay is unchanged, and remains at $0.34.</p>\n            ","response":0,"trial_type":"html-button-response","trial_index":102,"time_elapsed":544954,"internal_node_id":"0.0-4.0-1.47","subject_id":"605e3ef3eb6aea79c9638166","study_id":"6197b3f67c2b5cd3b6d9596a","session_id":"619bef1185d6739761dc1998","condition":"contingent","relevant_dimensions":["antennae","wings"],"bee_group":{"antennae":"A","wings":"2","pattern":"X","legs":"X"},"bonus":0.3800000000000009},{"rt":1830,"stimulus":"bees-with-color/bee-B1SM.svg","response":1,"trial_type":"image-button-response","trial_index":103,"time_elapsed":546790,"internal_node_id":"0.0-4.0-0.48","subject_id":"605e3ef3eb6aea79c9638166","study_id":"6197b3f67c2b5cd3b6d9596a","session_id":"619bef1185d6739761dc1998","condition":"contingent","relevant_dimensions":["antennae","wings"],"bee_group":{"antennae":"A","wings":"2","pattern":"X","legs":"X"},"action":"avoid","summary":"bad-avoid","bonus":0.3800000000000009},{"rt":1275,"stimulus":"\n                    <p><b>Action: <em>avoid</em></b></p>\n                    <p>This is the bee that you just saw.</p>\n                    <img src=\"bees-with-color/bee-B1SM.svg\" width=\"200\">\n                    <p><br>Your bonus pay is unchanged, and remains at $0.34.</p>\n            ","response":0,"trial_type":"html-button-response","trial_index":104,"time_elapsed":548068,"internal_node_id":"0.0-4.0-1.48","subject_id":"605e3ef3eb6aea79c9638166","study_id":"6197b3f67c2b5cd3b6d9596a","session_id":"619bef1185d6739761dc1998","condition":"contingent","relevant_dimensions":["antennae","wings"],"bee_group":{"antennae":"A","wings":"2","pattern":"X","legs":"X"},"bonus":0.3800000000000009},{"rt":1217,"stimulus":"bees-with-color/bee-A1DM.svg","response":1,"trial_type":"image-button-response","trial_index":105,"time_elapsed":549288,"internal_node_id":"0.0-4.0-0.49","subject_id":"605e3ef3eb6aea79c9638166","study_id":"6197b3f67c2b5cd3b6d9596a","session_id":"619bef1185d6739761dc1998","condition":"contingent","relevant_dimensions":["antennae","wings"],"bee_group":{"antennae":"A","wings":"2","pattern":"X","legs":"X"},"action":"avoid","summary":"bad-avoid","bonus":0.3800000000000009},{"rt":898,"stimulus":"\n                    <p><b>Action: <em>avoid</em></b></p>\n                    <p>This is the bee that you just saw.</p>\n                    <img src=\"bees-with-color/bee-A1DM.svg\" width=\"200\">\n                    <p><br>Your bonus pay is unchanged, and remains at $0.34.</p>\n            ","response":0,"trial_type":"html-button-response","trial_index":106,"time_elapsed":550193,"internal_node_id":"0.0-4.0-1.49","subject_id":"605e3ef3eb6aea79c9638166","study_id":"6197b3f67c2b5cd3b6d9596a","session_id":"619bef1185d6739761dc1998","condition":"contingent","relevant_dimensions":["antennae","wings"],"bee_group":{"antennae":"A","wings":"2","pattern":"X","legs":"X"},"bonus":0.3800000000000009},{"rt":1563,"stimulus":"bees-with-color/bee-A2SF.svg","response":1,"trial_type":"image-button-response","trial_index":107,"time_elapsed":551760,"internal_node_id":"0.0-4.0-0.50","subject_id":"605e3ef3eb6aea79c9638166","study_id":"6197b3f67c2b5cd3b6d9596a","session_id":"619bef1185d6739761dc1998","condition":"contingent","relevant_dimensions":["antennae","wings"],"bee_group":{"antennae":"A","wings":"2","pattern":"X","legs":"X"},"action":"avoid","summary":"good-avoid","bonus":0.3800000000000009},{"rt":871,"stimulus":"\n                    <p><b>Action: <em>avoid</em></b></p>\n                    <p>This is the bee that you just saw.</p>\n                    <img src=\"bees-with-color/bee-A2SF.svg\" width=\"200\">\n                    <p><br>Your bonus pay is unchanged, and remains at $0.34.</p>\n            ","response":0,"trial_type":"html-button-response","trial_index":108,"time_elapsed":552635,"internal_node_id":"0.0-4.0-1.50","subject_id":"605e3ef3eb6aea79c9638166","study_id":"6197b3f67c2b5cd3b6d9596a","session_id":"619bef1185d6739761dc1998","condition":"contingent","relevant_dimensions":["antennae","wings"],"bee_group":{"antennae":"A","wings":"2","pattern":"X","legs":"X"},"bonus":0.3800000000000009},{"rt":1825,"stimulus":"bees-with-color/bee-A1DF.svg","response":0,"trial_type":"image-button-response","trial_index":109,"time_elapsed":554463,"internal_node_id":"0.0-4.0-0.51","subject_id":"605e3ef3eb6aea79c9638166","study_id":"6197b3f67c2b5cd3b6d9596a","session_id":"619bef1185d6739761dc1998","condition":"contingent","relevant_dimensions":["antennae","wings"],"bee_group":{"antennae":"A","wings":"2","pattern":"X","legs":"X"},"action":"harvest","summary":"good-harvest","bonus":0.3800000000000009},{"rt":1822,"stimulus":"\n                    <p><b>Action: <em>harvest</em></b></p>\n                    <p>This is the bee that you just saw.</p>\n                    <img src=\"bees-with-color/bee-A1DF.svg\" width=\"200\">\n                    <p><span class=\"greenText\"><b>Successful harvest!</b></span><br>Your pay has increased by $0.02. Your bonus pay is now $0.36.</p>\n            ","response":0,"trial_type":"html-button-response","trial_index":110,"time_elapsed":556291,"internal_node_id":"0.0-4.0-1.51","subject_id":"605e3ef3eb6aea79c9638166","study_id":"6197b3f67c2b5cd3b6d9596a","session_id":"619bef1185d6739761dc1998","condition":"contingent","relevant_dimensions":["antennae","wings"],"bee_group":{"antennae":"A","wings":"2","pattern":"X","legs":"X"},"bonus":0.3800000000000009},{"rt":1404,"stimulus":"bees-with-color/bee-B1DF.svg","response":0,"trial_type":"image-button-response","trial_index":111,"time_elapsed":557697,"internal_node_id":"0.0-4.0-0.52","subject_id":"605e3ef3eb6aea79c9638166","study_id":"6197b3f67c2b5cd3b6d9596a","session_id":"619bef1185d6739761dc1998","condition":"contingent","relevant_dimensions":["antennae","wings"],"bee_group":{"antennae":"A","wings":"2","pattern":"X","legs":"X"},"action":"harvest","summary":"good-harvest","bonus":0.3800000000000009},{"rt":1982,"stimulus":"\n                    <p><b>Action: <em>harvest</em></b></p>\n                    <p>This is the bee that you just saw.</p>\n                    <img src=\"bees-with-color/bee-B1DF.svg\" width=\"200\">\n                    <p><span class=\"greenText\"><b>Successful harvest!</b></span><br>Your pay has increased by $0.02. Your bonus pay is now $0.38.</p>\n            ","response":0,"trial_type":"html-button-response","trial_index":112,"time_elapsed":559683,"internal_node_id":"0.0-4.0-1.52","subject_id":"605e3ef3eb6aea79c9638166","study_id":"6197b3f67c2b5cd3b6d9596a","session_id":"619bef1185d6739761dc1998","condition":"contingent","relevant_dimensions":["antennae","wings"],"bee_group":{"antennae":"A","wings":"2","pattern":"X","legs":"X"},"bonus":0.3800000000000009},{"rt":1460,"stimulus":"bees-with-color/bee-A2SM.svg","response":1,"trial_type":"image-button-response","trial_index":113,"time_elapsed":561149,"internal_node_id":"0.0-4.0-0.53","subject_id":"605e3ef3eb6aea79c9638166","study_id":"6197b3f67c2b5cd3b6d9596a","session_id":"619bef1185d6739761dc1998","condition":"contingent","relevant_dimensions":["antennae","wings"],"bee_group":{"antennae":"A","wings":"2","pattern":"X","legs":"X"},"action":"avoid","summary":"good-avoid","bonus":0.3800000000000009},{"rt":1150,"stimulus":"\n                    <p><b>Action: <em>avoid</em></b></p>\n                    <p>This is the bee that you just saw.</p>\n                    <img src=\"bees-with-color/bee-A2SM.svg\" width=\"200\">\n                    <p><br>Your bonus pay is unchanged, and remains at $0.38.</p>\n            ","response":0,"trial_type":"html-button-response","trial_index":114,"time_elapsed":562304,"internal_node_id":"0.0-4.0-1.53","subject_id":"605e3ef3eb6aea79c9638166","study_id":"6197b3f67c2b5cd3b6d9596a","session_id":"619bef1185d6739761dc1998","condition":"contingent","relevant_dimensions":["antennae","wings"],"bee_group":{"antennae":"A","wings":"2","pattern":"X","legs":"X"},"bonus":0.3800000000000009},{"rt":1871,"stimulus":"bees-with-color/bee-A1SF.svg","response":0,"trial_type":"image-button-response","trial_index":115,"time_elapsed":564181,"internal_node_id":"0.0-4.0-0.54","subject_id":"605e3ef3eb6aea79c9638166","study_id":"6197b3f67c2b5cd3b6d9596a","session_id":"619bef1185d6739761dc1998","condition":"contingent","relevant_dimensions":["antennae","wings"],"bee_group":{"antennae":"A","wings":"2","pattern":"X","legs":"X"},"action":"harvest","summary":"good-harvest","bonus":0.3800000000000009},{"rt":1544,"stimulus":"\n                    <p><b>Action: <em>harvest</em></b></p>\n                    <p>This is the bee that you just saw.</p>\n                    <img src=\"bees-with-color/bee-A1SF.svg\" width=\"200\">\n                    <p><span class=\"greenText\"><b>Successful harvest!</b></span><br>Your pay has increased by $0.02. Your bonus pay is now $0.40.</p>\n            ","response":0,"trial_type":"html-button-response","trial_index":116,"time_elapsed":565729,"internal_node_id":"0.0-4.0-1.54","subject_id":"605e3ef3eb6aea79c9638166","study_id":"6197b3f67c2b5cd3b6d9596a","session_id":"619bef1185d6739761dc1998","condition":"contingent","relevant_dimensions":["antennae","wings"],"bee_group":{"antennae":"A","wings":"2","pattern":"X","legs":"X"},"bonus":0.3800000000000009},{"rt":2331,"stimulus":"bees-with-color/bee-B2DF.svg","response":1,"trial_type":"image-button-response","trial_index":117,"time_elapsed":568063,"internal_node_id":"0.0-4.0-0.55","subject_id":"605e3ef3eb6aea79c9638166","study_id":"6197b3f67c2b5cd3b6d9596a","session_id":"619bef1185d6739761dc1998","condition":"contingent","relevant_dimensions":["antennae","wings"],"bee_group":{"antennae":"A","wings":"2","pattern":"X","legs":"X"},"action":"avoid","summary":"bad-avoid","bonus":0.3800000000000009},{"rt":1331,"stimulus":"\n                    <p><b>Action: <em>avoid</em></b></p>\n                    <p>This is the bee that you just saw.</p>\n                    <img src=\"bees-with-color/bee-B2DF.svg\" width=\"200\">\n                    <p><br>Your bonus pay is unchanged, and remains at $0.40.</p>\n            ","response":0,"trial_type":"html-button-response","trial_index":118,"time_elapsed":569399,"internal_node_id":"0.0-4.0-1.55","subject_id":"605e3ef3eb6aea79c9638166","study_id":"6197b3f67c2b5cd3b6d9596a","session_id":"619bef1185d6739761dc1998","condition":"contingent","relevant_dimensions":["antennae","wings"],"bee_group":{"antennae":"A","wings":"2","pattern":"X","legs":"X"},"bonus":0.3800000000000009},{"rt":2772,"stimulus":"bees-with-color/bee-B2SM.svg","response":1,"trial_type":"image-button-response","trial_index":119,"time_elapsed":572176,"internal_node_id":"0.0-4.0-0.56","subject_id":"605e3ef3eb6aea79c9638166","study_id":"6197b3f67c2b5cd3b6d9596a","session_id":"619bef1185d6739761dc1998","condition":"contingent","relevant_dimensions":["antennae","wings"],"bee_group":{"antennae":"A","wings":"2","pattern":"X","legs":"X"},"action":"avoid","summary":"bad-avoid","bonus":0.3800000000000009},{"rt":1739,"stimulus":"\n                    <p><b>Action: <em>avoid</em></b></p>\n                    <p>This is the bee that you just saw.</p>\n                    <img src=\"bees-with-color/bee-B2SM.svg\" width=\"200\">\n                    <p><br>Your bonus pay is unchanged, and remains at $0.40.</p>\n            ","response":0,"trial_type":"html-button-response","trial_index":120,"time_elapsed":573920,"internal_node_id":"0.0-4.0-1.56","subject_id":"605e3ef3eb6aea79c9638166","study_id":"6197b3f67c2b5cd3b6d9596a","session_id":"619bef1185d6739761dc1998","condition":"contingent","relevant_dimensions":["antennae","wings"],"bee_group":{"antennae":"A","wings":"2","pattern":"X","legs":"X"},"bonus":0.3800000000000009},{"rt":1213,"stimulus":"bees-with-color/bee-B2SF.svg","response":1,"trial_type":"image-button-response","trial_index":121,"time_elapsed":575138,"internal_node_id":"0.0-4.0-0.57","subject_id":"605e3ef3eb6aea79c9638166","study_id":"6197b3f67c2b5cd3b6d9596a","session_id":"619bef1185d6739761dc1998","condition":"contingent","relevant_dimensions":["antennae","wings"],"bee_group":{"antennae":"A","wings":"2","pattern":"X","legs":"X"},"action":"avoid","summary":"bad-avoid","bonus":0.3800000000000009},{"rt":1272,"stimulus":"\n                    <p><b>Action: <em>avoid</em></b></p>\n                    <p>This is the bee that you just saw.</p>\n                    <img src=\"bees-with-color/bee-B2SF.svg\" width=\"200\">\n                    <p><br>Your bonus pay is unchanged, and remains at $0.40.</p>\n            ","response":0,"trial_type":"html-button-response","trial_index":122,"time_elapsed":576415,"internal_node_id":"0.0-4.0-1.57","subject_id":"605e3ef3eb6aea79c9638166","study_id":"6197b3f67c2b5cd3b6d9596a","session_id":"619bef1185d6739761dc1998","condition":"contingent","relevant_dimensions":["antennae","wings"],"bee_group":{"antennae":"A","wings":"2","pattern":"X","legs":"X"},"bonus":0.3800000000000009},{"rt":1140,"stimulus":"bees-with-color/bee-A2DM.svg","response":1,"trial_type":"image-button-response","trial_index":123,"time_elapsed":577561,"internal_node_id":"0.0-4.0-0.58","subject_id":"605e3ef3eb6aea79c9638166","study_id":"6197b3f67c2b5cd3b6d9596a","session_id":"619bef1185d6739761dc1998","condition":"contingent","relevant_dimensions":["antennae","wings"],"bee_group":{"antennae":"A","wings":"2","pattern":"X","legs":"X"},"action":"avoid","summary":"good-avoid","bonus":0.3800000000000009},{"rt":831,"stimulus":"\n                    <p><b>Action: <em>avoid</em></b></p>\n                    <p>This is the bee that you just saw.</p>\n                    <img src=\"bees-with-color/bee-A2DM.svg\" width=\"200\">\n                    <p><br>Your bonus pay is unchanged, and remains at $0.40.</p>\n            ","response":0,"trial_type":"html-button-response","trial_index":124,"time_elapsed":578397,"internal_node_id":"0.0-4.0-1.58","subject_id":"605e3ef3eb6aea79c9638166","study_id":"6197b3f67c2b5cd3b6d9596a","session_id":"619bef1185d6739761dc1998","condition":"contingent","relevant_dimensions":["antennae","wings"],"bee_group":{"antennae":"A","wings":"2","pattern":"X","legs":"X"},"bonus":0.3800000000000009},{"rt":1232,"stimulus":"bees-with-color/bee-A1SM.svg","response":1,"trial_type":"image-button-response","trial_index":125,"time_elapsed":579632,"internal_node_id":"0.0-4.0-0.59","subject_id":"605e3ef3eb6aea79c9638166","study_id":"6197b3f67c2b5cd3b6d9596a","session_id":"619bef1185d6739761dc1998","condition":"contingent","relevant_dimensions":["antennae","wings"],"bee_group":{"antennae":"A","wings":"2","pattern":"X","legs":"X"},"action":"avoid","summary":"bad-avoid","bonus":0.3800000000000009},{"rt":1393,"stimulus":"\n                    <p><b>Action: <em>avoid</em></b></p>\n                    <p>This is the bee that you just saw.</p>\n                    <img src=\"bees-with-color/bee-A1SM.svg\" width=\"200\">\n                    <p><br>Your bonus pay is unchanged, and remains at $0.40.</p>\n            ","response":0,"trial_type":"html-button-response","trial_index":126,"time_elapsed":581031,"internal_node_id":"0.0-4.0-1.59","subject_id":"605e3ef3eb6aea79c9638166","study_id":"6197b3f67c2b5cd3b6d9596a","session_id":"619bef1185d6739761dc1998","condition":"contingent","relevant_dimensions":["antennae","wings"],"bee_group":{"antennae":"A","wings":"2","pattern":"X","legs":"X"},"bonus":0.3800000000000009},{"rt":1222,"stimulus":"bees-with-color/bee-B1DM.svg","response":1,"trial_type":"image-button-response","trial_index":127,"time_elapsed":582258,"internal_node_id":"0.0-4.0-0.60","subject_id":"605e3ef3eb6aea79c9638166","study_id":"6197b3f67c2b5cd3b6d9596a","session_id":"619bef1185d6739761dc1998","condition":"contingent","relevant_dimensions":["antennae","wings"],"bee_group":{"antennae":"A","wings":"2","pattern":"X","legs":"X"},"action":"avoid","summary":"bad-avoid","bonus":0.3800000000000009},{"rt":877,"stimulus":"\n                    <p><b>Action: <em>avoid</em></b></p>\n                    <p>This is the bee that you just saw.</p>\n                    <img src=\"bees-with-color/bee-B1DM.svg\" width=\"200\">\n                    <p><br>Your bonus pay is unchanged, and remains at $0.40.</p>\n            ","response":0,"trial_type":"html-button-response","trial_index":128,"time_elapsed":583139,"internal_node_id":"0.0-4.0-1.60","subject_id":"605e3ef3eb6aea79c9638166","study_id":"6197b3f67c2b5cd3b6d9596a","session_id":"619bef1185d6739761dc1998","condition":"contingent","relevant_dimensions":["antennae","wings"],"bee_group":{"antennae":"A","wings":"2","pattern":"X","legs":"X"},"bonus":0.3800000000000009},{"rt":1104,"stimulus":"bees-with-color/bee-B2DM.svg","response":1,"trial_type":"image-button-response","trial_index":129,"time_elapsed":584248,"internal_node_id":"0.0-4.0-0.61","subject_id":"605e3ef3eb6aea79c9638166","study_id":"6197b3f67c2b5cd3b6d9596a","session_id":"619bef1185d6739761dc1998","condition":"contingent","relevant_dimensions":["antennae","wings"],"bee_group":{"antennae":"A","wings":"2","pattern":"X","legs":"X"},"action":"avoid","summary":"bad-avoid","bonus":0.3800000000000009},{"rt":803,"stimulus":"\n                    <p><b>Action: <em>avoid</em></b></p>\n                    <p>This is the bee that you just saw.</p>\n                    <img src=\"bees-with-color/bee-B2DM.svg\" width=\"200\">\n                    <p><br>Your bonus pay is unchanged, and remains at $0.40.</p>\n            ","response":0,"trial_type":"html-button-response","trial_index":130,"time_elapsed":585054,"internal_node_id":"0.0-4.0-1.61","subject_id":"605e3ef3eb6aea79c9638166","study_id":"6197b3f67c2b5cd3b6d9596a","session_id":"619bef1185d6739761dc1998","condition":"contingent","relevant_dimensions":["antennae","wings"],"bee_group":{"antennae":"A","wings":"2","pattern":"X","legs":"X"},"bonus":0.3800000000000009},{"rt":1199,"stimulus":"bees-with-color/bee-A2DF.svg","response":1,"trial_type":"image-button-response","trial_index":131,"time_elapsed":586261,"internal_node_id":"0.0-4.0-0.62","subject_id":"605e3ef3eb6aea79c9638166","study_id":"6197b3f67c2b5cd3b6d9596a","session_id":"619bef1185d6739761dc1998","condition":"contingent","relevant_dimensions":["antennae","wings"],"bee_group":{"antennae":"A","wings":"2","pattern":"X","legs":"X"},"action":"avoid","summary":"good-avoid","bonus":0.3800000000000009},{"rt":984,"stimulus":"\n                    <p><b>Action: <em>avoid</em></b></p>\n                    <p>This is the bee that you just saw.</p>\n                    <img src=\"bees-with-color/bee-A2DF.svg\" width=\"200\">\n                    <p><br>Your bonus pay is unchanged, and remains at $0.40.</p>\n            ","response":0,"trial_type":"html-button-response","trial_index":132,"time_elapsed":587250,"internal_node_id":"0.0-4.0-1.62","subject_id":"605e3ef3eb6aea79c9638166","study_id":"6197b3f67c2b5cd3b6d9596a","session_id":"619bef1185d6739761dc1998","condition":"contingent","relevant_dimensions":["antennae","wings"],"bee_group":{"antennae":"A","wings":"2","pattern":"X","legs":"X"},"bonus":0.3800000000000009},{"rt":1137,"stimulus":"bees-with-color/bee-B1SF.svg","response":0,"trial_type":"image-button-response","trial_index":133,"time_elapsed":588391,"internal_node_id":"0.0-4.0-0.63","subject_id":"605e3ef3eb6aea79c9638166","study_id":"6197b3f67c2b5cd3b6d9596a","session_id":"619bef1185d6739761dc1998","condition":"contingent","relevant_dimensions":["antennae","wings"],"bee_group":{"antennae":"A","wings":"2","pattern":"X","legs":"X"},"action":"harvest","summary":"good-harvest","bonus":0.3800000000000009},{"rt":1685,"stimulus":"\n                    <p><b>Action: <em>harvest</em></b></p>\n                    <p>This is the bee that you just saw.</p>\n                    <img src=\"bees-with-color/bee-B1SF.svg\" width=\"200\">\n                    <p><span class=\"greenText\"><b>Successful harvest!</b></span><br>Your pay has increased by $0.02. Your bonus pay is now $0.42.</p>\n            ","response":0,"trial_type":"html-button-response","trial_index":134,"time_elapsed":590080,"internal_node_id":"0.0-4.0-1.63","subject_id":"605e3ef3eb6aea79c9638166","study_id":"6197b3f67c2b5cd3b6d9596a","session_id":"619bef1185d6739761dc1998","condition":"contingent","relevant_dimensions":["antennae","wings"],"bee_group":{"antennae":"A","wings":"2","pattern":"X","legs":"X"},"bonus":0.3800000000000009},{"rt":6463,"stimulus":"You have completed the first part of this experiment.<br><br>You will now begin a shorter second part, in which you will receive no feedback.<br>The same rules regarding bonus pay apply.<br><br>Press any key to begin.","response":" ","trial_type":"html-keyboard-response","trial_index":135,"time_elapsed":596548,"internal_node_id":"0.0-5.0","subject_id":"605e3ef3eb6aea79c9638166","study_id":"6197b3f67c2b5cd3b6d9596a","session_id":"619bef1185d6739761dc1998","condition":"contingent","relevant_dimensions":["antennae","wings"],"bee_group":{"antennae":"A","wings":"2","pattern":"X","legs":"X"},"bonus":0.3800000000000009},{"rt":4908,"stimulus":"bees-with-color/bee-B2SM.svg","response":1,"trial_type":"image-button-response","trial_index":136,"time_elapsed":601461,"internal_node_id":"0.0-6.0-0.0","subject_id":"605e3ef3eb6aea79c9638166","study_id":"6197b3f67c2b5cd3b6d9596a","session_id":"619bef1185d6739761dc1998","condition":"contingent","relevant_dimensions":["antennae","wings"],"bee_group":{"antennae":"A","wings":"2","pattern":"X","legs":"X"},"bonus":0.3800000000000009},{"rt":1803,"stimulus":"bees-with-color/bee-B2SF.svg","response":0,"trial_type":"image-button-response","trial_index":137,"time_elapsed":603270,"internal_node_id":"0.0-6.0-0.1","subject_id":"605e3ef3eb6aea79c9638166","study_id":"6197b3f67c2b5cd3b6d9596a","session_id":"619bef1185d6739761dc1998","condition":"contingent","relevant_dimensions":["antennae","wings"],"bee_group":{"antennae":"A","wings":"2","pattern":"X","legs":"X"},"bonus":0.3800000000000009},{"rt":4858,"stimulus":"bees-with-color/bee-B1SF.svg","response":0,"trial_type":"image-button-response","trial_index":138,"time_elapsed":608133,"internal_node_id":"0.0-6.0-0.2","subject_id":"605e3ef3eb6aea79c9638166","study_id":"6197b3f67c2b5cd3b6d9596a","session_id":"619bef1185d6739761dc1998","condition":"contingent","relevant_dimensions":["antennae","wings"],"bee_group":{"antennae":"A","wings":"2","pattern":"X","legs":"X"},"bonus":0.3800000000000009},{"rt":1322,"stimulus":"bees-with-color/bee-B1DF.svg","response":1,"trial_type":"image-button-response","trial_index":139,"time_elapsed":609460,"internal_node_id":"0.0-6.0-0.3","subject_id":"605e3ef3eb6aea79c9638166","study_id":"6197b3f67c2b5cd3b6d9596a","session_id":"619bef1185d6739761dc1998","condition":"contingent","relevant_dimensions":["antennae","wings"],"bee_group":{"antennae":"A","wings":"2","pattern":"X","legs":"X"},"bonus":0.3800000000000009},{"rt":677,"stimulus":"bees-with-color/bee-A2DM.svg","response":1,"trial_type":"image-button-response","trial_index":140,"time_elapsed":610138,"internal_node_id":"0.0-6.0-0.4","subject_id":"605e3ef3eb6aea79c9638166","study_id":"6197b3f67c2b5cd3b6d9596a","session_id":"619bef1185d6739761dc1998","condition":"contingent","relevant_dimensions":["antennae","wings"],"bee_group":{"antennae":"A","wings":"2","pattern":"X","legs":"X"},"bonus":0.3800000000000009},{"rt":1041,"stimulus":"bees-with-color/bee-A1SM.svg","response":0,"trial_type":"image-button-response","trial_index":141,"time_elapsed":611183,"internal_node_id":"0.0-6.0-0.5","subject_id":"605e3ef3eb6aea79c9638166","study_id":"6197b3f67c2b5cd3b6d9596a","session_id":"619bef1185d6739761dc1998","condition":"contingent","relevant_dimensions":["antennae","wings"],"bee_group":{"antennae":"A","wings":"2","pattern":"X","legs":"X"},"bonus":0.3800000000000009},{"rt":602,"stimulus":"bees-with-color/bee-B2DF.svg","response":0,"trial_type":"image-button-response","trial_index":142,"time_elapsed":611791,"internal_node_id":"0.0-6.0-0.6","subject_id":"605e3ef3eb6aea79c9638166","study_id":"6197b3f67c2b5cd3b6d9596a","session_id":"619bef1185d6739761dc1998","condition":"contingent","relevant_dimensions":["antennae","wings"],"bee_group":{"antennae":"A","wings":"2","pattern":"X","legs":"X"},"bonus":0.3800000000000009},{"rt":751,"stimulus":"bees-with-color/bee-A2SM.svg","response":1,"trial_type":"image-button-response","trial_index":143,"time_elapsed":612546,"internal_node_id":"0.0-6.0-0.7","subject_id":"605e3ef3eb6aea79c9638166","study_id":"6197b3f67c2b5cd3b6d9596a","session_id":"619bef1185d6739761dc1998","condition":"contingent","relevant_dimensions":["antennae","wings"],"bee_group":{"antennae":"A","wings":"2","pattern":"X","legs":"X"},"bonus":0.3800000000000009},{"rt":398,"stimulus":"bees-with-color/bee-A1DM.svg","response":1,"trial_type":"image-button-response","trial_index":144,"time_elapsed":612948,"internal_node_id":"0.0-6.0-0.8","subject_id":"605e3ef3eb6aea79c9638166","study_id":"6197b3f67c2b5cd3b6d9596a","session_id":"619bef1185d6739761dc1998","condition":"contingent","relevant_dimensions":["antennae","wings"],"bee_group":{"antennae":"A","wings":"2","pattern":"X","legs":"X"},"bonus":0.3800000000000009},{"rt":411,"stimulus":"bees-with-color/bee-A1SF.svg","response":1,"trial_type":"image-button-response","trial_index":145,"time_elapsed":613361,"internal_node_id":"0.0-6.0-0.9","subject_id":"605e3ef3eb6aea79c9638166","study_id":"6197b3f67c2b5cd3b6d9596a","session_id":"619bef1185d6739761dc1998","condition":"contingent","relevant_dimensions":["antennae","wings"],"bee_group":{"antennae":"A","wings":"2","pattern":"X","legs":"X"},"bonus":0.3800000000000009},{"rt":847,"stimulus":"bees-with-color/bee-A2SF.svg","response":0,"trial_type":"image-button-response","trial_index":146,"time_elapsed":614212,"internal_node_id":"0.0-6.0-0.10","subject_id":"605e3ef3eb6aea79c9638166","study_id":"6197b3f67c2b5cd3b6d9596a","session_id":"619bef1185d6739761dc1998","condition":"contingent","relevant_dimensions":["antennae","wings"],"bee_group":{"antennae":"A","wings":"2","pattern":"X","legs":"X"},"bonus":0.3800000000000009},{"rt":397,"stimulus":"bees-with-color/bee-B1DM.svg","response":0,"trial_type":"image-button-response","trial_index":147,"time_elapsed":614614,"internal_node_id":"0.0-6.0-0.11","subject_id":"605e3ef3eb6aea79c9638166","study_id":"6197b3f67c2b5cd3b6d9596a","session_id":"619bef1185d6739761dc1998","condition":"contingent","relevant_dimensions":["antennae","wings"],"bee_group":{"antennae":"A","wings":"2","pattern":"X","legs":"X"},"bonus":0.3800000000000009},{"rt":226,"stimulus":"bees-with-color/bee-A1DF.svg","response":0,"trial_type":"image-button-response","trial_index":148,"time_elapsed":614845,"internal_node_id":"0.0-6.0-0.12","subject_id":"605e3ef3eb6aea79c9638166","study_id":"6197b3f67c2b5cd3b6d9596a","session_id":"619bef1185d6739761dc1998","condition":"contingent","relevant_dimensions":["antennae","wings"],"bee_group":{"antennae":"A","wings":"2","pattern":"X","legs":"X"},"bonus":0.3800000000000009},{"rt":691,"stimulus":"bees-with-color/bee-A2DF.svg","response":1,"trial_type":"image-button-response","trial_index":149,"time_elapsed":615539,"internal_node_id":"0.0-6.0-0.13","subject_id":"605e3ef3eb6aea79c9638166","study_id":"6197b3f67c2b5cd3b6d9596a","session_id":"619bef1185d6739761dc1998","condition":"contingent","relevant_dimensions":["antennae","wings"],"bee_group":{"antennae":"A","wings":"2","pattern":"X","legs":"X"},"bonus":0.3800000000000009},{"rt":336,"stimulus":"bees-with-color/bee-B2DM.svg","response":1,"trial_type":"image-button-response","trial_index":150,"time_elapsed":615878,"internal_node_id":"0.0-6.0-0.14","subject_id":"605e3ef3eb6aea79c9638166","study_id":"6197b3f67c2b5cd3b6d9596a","session_id":"619bef1185d6739761dc1998","condition":"contingent","relevant_dimensions":["antennae","wings"],"bee_group":{"antennae":"A","wings":"2","pattern":"X","legs":"X"},"bonus":0.3800000000000009},{"rt":207,"stimulus":"bees-with-color/bee-B1SM.svg","response":1,"trial_type":"image-button-response","trial_index":151,"time_elapsed":616095,"internal_node_id":"0.0-6.0-0.15","subject_id":"605e3ef3eb6aea79c9638166","study_id":"6197b3f67c2b5cd3b6d9596a","session_id":"619bef1185d6739761dc1998","condition":"contingent","relevant_dimensions":["antennae","wings"],"bee_group":{"antennae":"A","wings":"2","pattern":"X","legs":"X"},"bonus":0.3800000000000009},{"rt":720,"stimulus":"bees-with-color/bee-A2DM.svg","response":0,"trial_type":"image-button-response","trial_index":152,"time_elapsed":616817,"internal_node_id":"0.0-6.0-0.16","subject_id":"605e3ef3eb6aea79c9638166","study_id":"6197b3f67c2b5cd3b6d9596a","session_id":"619bef1185d6739761dc1998","condition":"contingent","relevant_dimensions":["antennae","wings"],"bee_group":{"antennae":"A","wings":"2","pattern":"X","legs":"X"},"bonus":0.3800000000000009},{"rt":287,"stimulus":"bees-with-color/bee-B1SF.svg","response":0,"trial_type":"image-button-response","trial_index":153,"time_elapsed":617109,"internal_node_id":"0.0-6.0-0.17","subject_id":"605e3ef3eb6aea79c9638166","study_id":"6197b3f67c2b5cd3b6d9596a","session_id":"619bef1185d6739761dc1998","condition":"contingent","relevant_dimensions":["antennae","wings"],"bee_group":{"antennae":"A","wings":"2","pattern":"X","legs":"X"},"bonus":0.3800000000000009},{"rt":350,"stimulus":"bees-with-color/bee-B2DF.svg","response":0,"trial_type":"image-button-response","trial_index":154,"time_elapsed":617462,"internal_node_id":"0.0-6.0-0.18","subject_id":"605e3ef3eb6aea79c9638166","study_id":"6197b3f67c2b5cd3b6d9596a","session_id":"619bef1185d6739761dc1998","condition":"contingent","relevant_dimensions":["antennae","wings"],"bee_group":{"antennae":"A","wings":"2","pattern":"X","legs":"X"},"bonus":0.3800000000000009},{"rt":215,"stimulus":"bees-with-color/bee-A1DF.svg","response":0,"trial_type":"image-button-response","trial_index":155,"time_elapsed":617682,"internal_node_id":"0.0-6.0-0.19","subject_id":"605e3ef3eb6aea79c9638166","study_id":"6197b3f67c2b5cd3b6d9596a","session_id":"619bef1185d6739761dc1998","condition":"contingent","relevant_dimensions":["antennae","wings"],"bee_group":{"antennae":"A","wings":"2","pattern":"X","legs":"X"},"bonus":0.3800000000000009},{"rt":1093,"stimulus":"bees-with-color/bee-A1SF.svg","response":1,"trial_type":"image-button-response","trial_index":156,"time_elapsed":618777,"internal_node_id":"0.0-6.0-0.20","subject_id":"605e3ef3eb6aea79c9638166","study_id":"6197b3f67c2b5cd3b6d9596a","session_id":"619bef1185d6739761dc1998","condition":"contingent","relevant_dimensions":["antennae","wings"],"bee_group":{"antennae":"A","wings":"2","pattern":"X","legs":"X"},"bonus":0.3800000000000009},{"rt":335,"stimulus":"bees-with-color/bee-A1DM.svg","response":1,"trial_type":"image-button-response","trial_index":157,"time_elapsed":619114,"internal_node_id":"0.0-6.0-0.21","subject_id":"605e3ef3eb6aea79c9638166","study_id":"6197b3f67c2b5cd3b6d9596a","session_id":"619bef1185d6739761dc1998","condition":"contingent","relevant_dimensions":["antennae","wings"],"bee_group":{"antennae":"A","wings":"2","pattern":"X","legs":"X"},"bonus":0.3800000000000009},{"rt":738,"stimulus":"bees-with-color/bee-A2DF.svg","response":0,"trial_type":"image-button-response","trial_index":158,"time_elapsed":619856,"internal_node_id":"0.0-6.0-0.22","subject_id":"605e3ef3eb6aea79c9638166","study_id":"6197b3f67c2b5cd3b6d9596a","session_id":"619bef1185d6739761dc1998","condition":"contingent","relevant_dimensions":["antennae","wings"],"bee_group":{"antennae":"A","wings":"2","pattern":"X","legs":"X"},"bonus":0.3800000000000009},{"rt":323,"stimulus":"bees-with-color/bee-B1SM.svg","response":0,"trial_type":"image-button-response","trial_index":159,"time_elapsed":620182,"internal_node_id":"0.0-6.0-0.23","subject_id":"605e3ef3eb6aea79c9638166","study_id":"6197b3f67c2b5cd3b6d9596a","session_id":"619bef1185d6739761dc1998","condition":"contingent","relevant_dimensions":["antennae","wings"],"bee_group":{"antennae":"A","wings":"2","pattern":"X","legs":"X"},"bonus":0.3800000000000009},{"rt":305,"stimulus":"bees-with-color/bee-B1DF.svg","response":0,"trial_type":"image-button-response","trial_index":160,"time_elapsed":620489,"internal_node_id":"0.0-6.0-0.24","subject_id":"605e3ef3eb6aea79c9638166","study_id":"6197b3f67c2b5cd3b6d9596a","session_id":"619bef1185d6739761dc1998","condition":"contingent","relevant_dimensions":["antennae","wings"],"bee_group":{"antennae":"A","wings":"2","pattern":"X","legs":"X"},"bonus":0.3800000000000009},{"rt":399,"stimulus":"bees-with-color/bee-B2SF.svg","response":0,"trial_type":"image-button-response","trial_index":161,"time_elapsed":620891,"internal_node_id":"0.0-6.0-0.25","subject_id":"605e3ef3eb6aea79c9638166","study_id":"6197b3f67c2b5cd3b6d9596a","session_id":"619bef1185d6739761dc1998","condition":"contingent","relevant_dimensions":["antennae","wings"],"bee_group":{"antennae":"A","wings":"2","pattern":"X","legs":"X"},"bonus":0.3800000000000009},{"rt":1177,"stimulus":"bees-with-color/bee-B1DM.svg","response":1,"trial_type":"image-button-response","trial_index":162,"time_elapsed":622078,"internal_node_id":"0.0-6.0-0.26","subject_id":"605e3ef3eb6aea79c9638166","study_id":"6197b3f67c2b5cd3b6d9596a","session_id":"619bef1185d6739761dc1998","condition":"contingent","relevant_dimensions":["antennae","wings"],"bee_group":{"antennae":"A","wings":"2","pattern":"X","legs":"X"},"bonus":0.3800000000000009},{"rt":229,"stimulus":"bees-with-color/bee-B2SM.svg","response":1,"trial_type":"image-button-response","trial_index":163,"time_elapsed":622313,"internal_node_id":"0.0-6.0-0.27","subject_id":"605e3ef3eb6aea79c9638166","study_id":"6197b3f67c2b5cd3b6d9596a","session_id":"619bef1185d6739761dc1998","condition":"contingent","relevant_dimensions":["antennae","wings"],"bee_group":{"antennae":"A","wings":"2","pattern":"X","legs":"X"},"bonus":0.3800000000000009},{"rt":223,"stimulus":"bees-with-color/bee-B2DM.svg","response":1,"trial_type":"image-button-response","trial_index":164,"time_elapsed":622539,"internal_node_id":"0.0-6.0-0.28","subject_id":"605e3ef3eb6aea79c9638166","study_id":"6197b3f67c2b5cd3b6d9596a","session_id":"619bef1185d6739761dc1998","condition":"contingent","relevant_dimensions":["antennae","wings"],"bee_group":{"antennae":"A","wings":"2","pattern":"X","legs":"X"},"bonus":0.3800000000000009},{"rt":923,"stimulus":"bees-with-color/bee-A1SM.svg","response":0,"trial_type":"image-button-response","trial_index":165,"time_elapsed":623468,"internal_node_id":"0.0-6.0-0.29","subject_id":"605e3ef3eb6aea79c9638166","study_id":"6197b3f67c2b5cd3b6d9596a","session_id":"619bef1185d6739761dc1998","condition":"contingent","relevant_dimensions":["antennae","wings"],"bee_group":{"antennae":"A","wings":"2","pattern":"X","legs":"X"},"bonus":0.3800000000000009},{"rt":1230,"stimulus":"bees-with-color/bee-A2SF.svg","response":1,"trial_type":"image-button-response","trial_index":166,"time_elapsed":624701,"internal_node_id":"0.0-6.0-0.30","subject_id":"605e3ef3eb6aea79c9638166","study_id":"6197b3f67c2b5cd3b6d9596a","session_id":"619bef1185d6739761dc1998","condition":"contingent","relevant_dimensions":["antennae","wings"],"bee_group":{"antennae":"A","wings":"2","pattern":"X","legs":"X"},"bonus":0.3800000000000009},{"rt":646,"stimulus":"bees-with-color/bee-A2SM.svg","response":1,"trial_type":"image-button-response","trial_index":167,"time_elapsed":625348,"internal_node_id":"0.0-6.0-0.31","subject_id":"605e3ef3eb6aea79c9638166","study_id":"6197b3f67c2b5cd3b6d9596a","session_id":"619bef1185d6739761dc1998","condition":"contingent","relevant_dimensions":["antennae","wings"],"bee_group":{"antennae":"A","wings":"2","pattern":"X","legs":"X"},"bonus":0.3800000000000009},{"rt":4366,"stimulus":"You started with $2.50 of base pay.<br><br>\n            You made $0.38 in bonus pay,\n            for a total of <b>$2.88</b>.","response":0,"trial_type":"html-button-response","trial_index":168,"time_elapsed":629717,"internal_node_id":"0.0-7.0-0.0","subject_id":"605e3ef3eb6aea79c963