[{"success":true,"trial_type":"fullscreen","trial_index":0,"time_elapsed":6333,"internal_node_id":"0.0-0.0","subject_id":"606268c44fa985d583676445","study_id":"6197b3f67c2b5cd3b6d9596a","session_id":"6197b79c2ba91913b72ab783","condition":"full-information","relevant_dimensions":["antennae","wings"],"bee_group":{"antennae":"B","wings":"2","pattern":"X","legs":"X"},"bonus":0.5200000000000015},{"success":true,"timeout":false,"failed_images":[],"failed_audio":[],"failed_video":[],"trial_type":"preload","trial_index":1,"time_elapsed":6337,"internal_node_id":"0.0-1.0","subject_id":"606268c44fa985d583676445","study_id":"6197b3f67c2b5cd3b6d9596a","session_id":"6197b79c2ba91913b72ab783","condition":"full-information","relevant_dimensions":["antennae","wings"],"bee_group":{"antennae":"B","wings":"2","pattern":"X","legs":"X"},"bonus":0.5200000000000015},{"rt":1144.3999999761581,"stimulus":"Welcome! Press any key to begin.","response":"enter","trial_type":"html-keyboard-response","trial_index":2,"time_elapsed":7482,"internal_node_id":"0.0-2.0","subject_id":"606268c44fa985d583676445","study_id":"6197b3f67c2b5cd3b6d9596a","session_id":"6197b79c2ba91913b72ab783","condition":"full-information","relevant_dimensions":["antennae","wings"],"bee_group":{"antennae":"B","wings":"2","pattern":"X","legs":"X"},"bonus":0.5200000000000015},{"view_history":[{"page_index":0,"viewing_time":1244.6000000238419},{"page_index":1,"viewing_time":984.0999999046326},{"page_index":2,"viewing_time":8676.900000095367},{"page_index":3,"viewing_time":760.5999999046326},{"page_index":4,"viewing_time":1024.5},{"page_index":5,"viewing_time":1400.9000000953674},{"page_index":6,"viewing_time":14600.399999976158},{"page_index":7,"viewing_time":2158.5},{"page_index":8,"viewing_time":764.5},{"page_index":7,"viewing_time":1072.6999999284744},{"page_index":8,"viewing_time":2041.3000000715256},{"page_index":9,"viewing_time":4829.799999952316},{"page_index":10,"viewing_time":789.6000000238419},{"page_index":11,"viewing_time":869.5},{"page_index":12,"viewing_time":1216.2999999523163},{"page_index":13,"viewing_time":1032.1000000238419},{"page_index":14,"viewing_time":2808.899999976158}],"rt":46275.5,"trial_type":"instructions","trial_index":3,"time_elapsed":53757,"internal_node_id":"0.0-3.0-0.0","subject_id":"606268c44fa985d583676445","study_id":"6197b3f67c2b5cd3b6d9596a","session_id":"6197b79c2ba91913b72ab783","condition":"full-information","relevant_dimensions":["antennae","wings"],"bee_group":{"antennae":"B","wings":"2","pattern":"X","legs":"X"},"bonus":0.5200000000000015},{"rt":28876.699999928474,"response":{"Q0":["Two or six legs","Stripes or spots on body","Single or double wings","Antennae or no antennae"]},"question_order":[0],"trial_type":"survey-multi-select","trial_index":4,"time_elapsed":82636,"internal_node_id":"0.0-3.0-1.0","subject_id":"606268c44fa985d583676445","study_id":"6197b3f67c2b5cd3b6d9596a","session_id":"6197b79c2ba91913b72ab783","condition":"full-information","relevant_dimensions":["antennae","wings"],"bee_group":{"antennae":"B","wings":"2","pattern":"X","legs":"X"},"correct":true,"bonus":0.5200000000000015},{"rt":5177.699999928474,"response":{"Q1":"No.","Q2":"Based on the four features of the bee.","Q3":"You do not learn if it was friendly or dangerous, and do not alter your bonus."},"question_order":[0,1,2],"trial_type":"survey-multi-choice","trial_index":5,"time_elapsed":87815,"internal_node_id":"0.0-3.0-2.0","subject_id":"606268c44fa985d583676445","study_id":"6197b3f67c2b5cd3b6d9596a","session_id":"6197b79c2ba91913b72ab783","condition":"full-information","relevant_dimensions":["antennae","wings"],"bee_group":{"antennae":"B","wings":"2","pattern":"X","legs":"X"},"correct":false,"bonus":0.5200000000000015},{"rt":3845.399999976158,"stimulus":"<p>You did not answer all comprehension questions correctly.<br>Press <b>continue</b> to review the instructions again.</p>","response":0,"trial_type":"html-button-response","trial_index":6,"time_elapsed":91662,"internal_node_id":"0.0-3.0-3.0","subject_id":"606268c44fa985d583676445","study_id":"6197b3f67c2b5cd3b6d9596a","session_id":"6197b79c2ba91913b72ab783","condition":"full-information","relevant_dimensions":["antennae","wings"],"bee_group":{"antennae":"B","wings":"2","pattern":"X","legs":"X"},"bonus":0.5200000000000015},{"view_history":[{"page_index":0,"viewing_time":699.3999999761581},{"page_index":1,"viewing_time":10849.100000023842},{"page_index":2,"viewing_time":13380.700000047684},{"page_index":3,"viewing_time":6148.899999976158},{"page_index":4,"viewing_time":7097.600000023842},{"page_index":5,"viewing_time":842.7999999523163},{"page_index":6,"viewing_time":1770.8999999761581},{"page_index":7,"viewing_time":1981.2000000476837},{"page_index":8,"viewing_time":1657.8999999761581},{"page_index":9,"viewing_time":1929.6000000238419},{"page_index":10,"viewing_time":1289.7000000476837},{"page_index":11,"viewing_time":781.8999999761581},{"page_index":12,"viewing_time":914.3999999761581},{"page_index":13,"viewing_time":823.3999999761581},{"page_index":14,"viewing_time":961.1000000238419}],"rt":51129,"trial_type":"instructions","trial_index":7,"time_elapsed":142792,"internal_node_id":"0.0-3.0-4.0-0.0","subject_id":"606268c44fa985d583676445","study_id":"6197b3f67c2b5cd3b6d9596a","session_id":"6197b79c2ba91913b72ab783","condition":"full-information","relevant_dimensions":["antennae","wings"],"bee_group":{"antennae":"B","wings":"2","pattern":"X","legs":"X"},"bonus":0.5200000000000015},{"rt":12015.699999928474,"response":{"Q0":["Two or six legs","Stripes or spots on body","Single or double wings","Antennae or no antennae"]},"question_order":[0],"trial_type":"survey-multi-select","trial_index":8,"time_elapsed":154809,"internal_node_id":"0.0-3.0-4.0-1.0","subject_id":"606268c44fa985d583676445","study_id":"6197b3f67c2b5cd3b6d9596a","session_id":"6197b79c2ba91913b72ab783","condition":"full-information","relevant_dimensions":["antennae","wings"],"bee_group":{"antennae":"B","wings":"2","pattern":"X","legs":"X"},"correct":true,"bonus":0.5200000000000015},{"rt":9142.899999976158,"response":{"Q1":"No.","Q2":"Based on the four features of the bee.","Q3":"You learn if it was friendly or dangerous, but do not alter your bonus."},"question_order":[0,1,2],"trial_type":"survey-multi-choice","trial_index":9,"time_elapsed":163954,"internal_node_id":"0.0-3.0-4.0-2.0","subject_id":"606268c44fa985d583676445","study_id":"6197b3f67c2b5cd3b6d9596a","session_id":"6197b79c2ba91913b72ab783","condition":"full-information","relevant_dimensions":["antennae","wings"],"bee_group":{"antennae":"B","wings":"2","pattern":"X","legs":"X"},"correct":true,"bonus":0.5200000000000015},{"rt":2787,"stimulus":"<p>Congrats, you got everything right<br>When you're ready, click the button below to continue to the experiment.</p>","response":0,"trial_type":"html-button-response","trial_index":10,"time_elapsed":166742,"internal_node_id":"0.0-3.0-4.0-3.0","subject_id":"606268c44fa985d583676445","study_id":"6197b3f67c2b5cd3b6d9596a","session_id":"6197b79c2ba91913b72ab783","condition":"full-information","relevant_dimensions":["antennae","wings"],"bee_group":{"antennae":"B","wings":"2","pattern":"X","legs":"X"},"bonus":0.5200000000000015},{"rt":4062.3000000715256,"stimulus":"bees-with-color/bee-A1DF.svg","response":0,"trial_type":"image-button-response","trial_index":11,"time_elapsed":170806,"internal_node_id":"0.0-4.0-0.0","subject_id":"606268c44fa985d583676445","study_id":"6197b3f67c2b5cd3b6d9596a","session_id":"6197b79c2ba91913b72ab783","condition":"full-information","relevant_dimensions":["antennae","wings"],"bee_group":{"antennae":"B","wings":"2","pattern":"X","legs":"X"},"action":"harvest","summary":"good-harvest","bonus":0.5200000000000015},{"rt":6282.399999976158,"stimulus":"\n                    <p><b>Action: <em>harvest</em></b></p>\n                    <p>This is the bee that you just saw.</p>\n                    <img src=\"bees-with-color/bee-A1DF.svg\" width=\"200\">\n                    <p><span class=\"greenText\"><b>Successful harvest!</b></span><br>Your pay has increased by $0.02. Your bonus pay is now $0.56.</p>\n            ","response":0,"trial_type":"html-button-response","trial_index":12,"time_elapsed":177090,"internal_node_id":"0.0-4.0-1.0","subject_id":"606268c44fa985d583676445","study_id":"6197b3f67c2b5cd3b6d9596a","session_id":"6197b79c2ba91913b72ab783","condition":"full-information","relevant_dimensions":["antennae","wings"],"bee_group":{"antennae":"B","wings":"2","pattern":"X","legs":"X"},"bonus":0.5200000000000015},{"rt":3903.600000023842,"stimulus":"bees-with-color/bee-B1SF.svg","response":0,"trial_type":"image-button-response","trial_index":13,"time_elapsed":180995,"internal_node_id":"0.0-4.0-0.1","subject_id":"606268c44fa985d583676445","study_id":"6197b3f67c2b5cd3b6d9596a","session_id":"6197b79c2ba91913b72ab783","condition":"full-information","relevant_dimensions":["antennae","wings"],"bee_group":{"antennae":"B","wings":"2","pattern":"X","legs":"X"},"action":"harvest","summary":"good-harvest","bonus":0.5200000000000015},{"rt":1712.8999999761581,"stimulus":"\n                    <p><b>Action: <em>harvest</em></b></p>\n                    <p>This is the bee that you just saw.</p>\n                    <img src=\"bees-with-color/bee-B1SF.svg\" width=\"200\">\n                    <p><span class=\"greenText\"><b>Successful harvest!</b></span><br>Your pay has increased by $0.02. Your bonus pay is now $0.58.</p>\n            ","response":0,"trial_type":"html-button-response","trial_index":14,"time_elapsed":182709,"internal_node_id":"0.0-4.0-1.1","subject_id":"606268c44fa985d583676445","study_id":"6197b3f67c2b5cd3b6d9596a","session_id":"6197b79c2ba91913b72ab783","condition":"full-information","relevant_dimensions":["antennae","wings"],"bee_group":{"antennae":"B","wings":"2","pattern":"X","legs":"X"},"bonus":0.5200000000000015},{"rt":3519.3000000715256,"stimulus":"bees-with-color/bee-A2DF.svg","response":0,"trial_type":"image-button-response","trial_index":15,"time_elapsed":186230,"internal_node_id":"0.0-4.0-0.2","subject_id":"606268c44fa985d583676445","study_id":"6197b3f67c2b5cd3b6d9596a","session_id":"6197b79c2ba91913b72ab783","condition":"full-information","relevant_dimensions":["antennae","wings"],"bee_group":{"antennae":"B","wings":"2","pattern":"X","legs":"X"},"action":"harvest","summary":"good-harvest","bonus":0.5200000000000015},{"rt":1255.6000000238419,"stimulus":"\n                    <p><b>Action: <em>harvest</em></b></p>\n                    <p>This is the bee that you just saw.</p>\n                    <img src=\"bees-with-color/bee-A2DF.svg\" width=\"200\">\n                    <p><span class=\"greenText\"><b>Successful harvest!</b></span><br>Your pay has increased by $0.02. Your bonus pay is now $0.60.</p>\n            ","response":0,"trial_type":"html-button-response","trial_index":16,"time_elapsed":187487,"internal_node_id":"0.0-4.0-1.2","subject_id":"606268c44fa985d583676445","study_id":"6197b3f67c2b5cd3b6d9596a","session_id":"6197b79c2ba91913b72ab783","condition":"full-information","relevant_dimensions":["antennae","wings"],"bee_group":{"antennae":"B","wings":"2","pattern":"X","legs":"X"},"bonus":0.5200000000000015},{"rt":4076.7000000476837,"stimulus":"bees-with-color/bee-A1SM.svg","response":0,"trial_type":"image-button-response","trial_index":17,"time_elapsed":191565,"internal_node_id":"0.0-4.0-0.3","subject_id":"606268c44fa985d583676445","study_id":"6197b3f67c2b5cd3b6d9596a","session_id":"6197b79c2ba91913b72ab783","condition":"full-information","relevant_dimensions":["antennae","wings"],"bee_group":{"antennae":"B","wings":"2","pattern":"X","legs":"X"},"action":"harvest","summary":"good-harvest","bonus":0.5200000000000015},{"rt":878.3999999761581,"stimulus":"\n                    <p><b>Action: <em>harvest</em></b></p>\n                    <p>This is the bee that you just saw.</p>\n                    <img src=\"bees-with-color/bee-A1SM.svg\" width=\"200\">\n                    <p><span class=\"greenText\"><b>Successful harvest!</b></span><br>Your pay has increased by $0.02. Your bonus pay is now $0.62.</p>\n            ","response":0,"trial_type":"html-button-response","trial_index":18,"time_elapsed":192444,"internal_node_id":"0.0-4.0-1.3","subject_id":"606268c44fa985d583676445","study_id":"6197b3f67c2b5cd3b6d9596a","session_id":"6197b79c2ba91913b72ab783","condition":"full-information","relevant_dimensions":["antennae","wings"],"bee_group":{"antennae":"B","wings":"2","pattern":"X","legs":"X"},"bonus":0.5200000000000015},{"rt":3848.399999976158,"stimulus":"bees-with-color/bee-A2SF.svg","response":0,"trial_type":"image-button-response","trial_index":19,"time_elapsed":196294,"internal_node_id":"0.0-4.0-0.4","subject_id":"606268c44fa985d583676445","study_id":"6197b3f67c2b5cd3b6d9596a","session_id":"6197b79c2ba91913b72ab783","condition":"full-information","relevant_dimensions":["antennae","wings"],"bee_group":{"antennae":"B","wings":"2","pattern":"X","legs":"X"},"action":"harvest","summary":"good-harvest","bonus":0.5200000000000015},{"rt":840.5999999046326,"stimulus":"\n                    <p><b>Action: <em>harvest</em></b></p>\n                    <p>This is the bee that you just saw.</p>\n                    <img src=\"bees-with-color/bee-A2SF.svg\" width=\"200\">\n                    <p><span class=\"greenText\"><b>Successful harvest!</b></span><br>Your pay has increased by $0.02. Your bonus pay is now $0.64.</p>\n            ","response":0,"trial_type":"html-button-response","trial_index":20,"time_elapsed":197136,"internal_node_id":"0.0-4.0-1.4","subject_id":"606268c44fa985d583676445","study_id":"6197b3f67c2b5cd3b6d9596a","session_id":"6197b79c2ba91913b72ab783","condition":"full-information","relevant_dimensions":["antennae","wings"],"bee_group":{"antennae":"B","wings":"2","pattern":"X","legs":"X"},"bonus":0.5200000000000015},{"rt":4069.2999999523163,"stimulus":"bees-with-color/bee-B2DF.svg","response":0,"trial_type":"image-button-response","trial_index":21,"time_elapsed":201206,"internal_node_id":"0.0-4.0-0.5","subject_id":"606268c44fa985d583676445","study_id":"6197b3f67c2b5cd3b6d9596a","session_id":"6197b79c2ba91913b72ab783","condition":"full-information","relevant_dimensions":["antennae","wings"],"bee_group":{"antennae":"B","wings":"2","pattern":"X","legs":"X"},"action":"harvest","summary":"bad-harvest","bonus":0.5200000000000015},{"rt":1720.7000000476837,"stimulus":"\n                    <p><b>Action: <em>harvest</em></b></p>\n                    <p>This is the bee that you just saw.</p>\n                    <img src=\"bees-with-color/bee-B2DF.svg\" width=\"200\">\n                    <p><span class=\"redText\">Bad choice, the bee was angry.</span><br><b>You have been stung!</b><br>Your pay has been decreased by $0.10. Your bonus pay is now $0.54.</p>\n            ","response":0,"trial_type":"html-button-response","trial_index":22,"time_elapsed":202928,"internal_node_id":"0.0-4.0-1.5","subject_id":"606268c44fa985d583676445","study_id":"6197b3f67c2b5cd3b6d9596a","session_id":"6197b79c2ba91913b72ab783","condition":"full-information","relevant_dimensions":["antennae","wings"],"bee_group":{"antennae":"B","wings":"2","pattern":"X","legs":"X"},"bonus":0.5200000000000015},{"rt":2200.399999976158,"stimulus":"bees-with-color/bee-B2DM.svg","response":0,"trial_type":"image-button-response","trial_index":23,"time_elapsed":205130,"internal_node_id":"0.0-4.0-0.6","subject_id":"606268c44fa985d583676445","study_id":"6197b3f67c2b5cd3b6d9596a","session_id":"6197b79c2ba91913b72ab783","condition":"full-information","relevant_dimensions":["antennae","wings"],"bee_group":{"antennae":"B","wings":"2","pattern":"X","legs":"X"},"action":"harvest","summary":"bad-harvest","bonus":0.5200000000000015},{"rt":841.3999999761581,"stimulus":"\n                    <p><b>Action: <em>harvest</em></b></p>\n                    <p>This is the bee that you just saw.</p>\n                    <img src=\"bees-with-color/bee-B2DM.svg\" width=\"200\">\n                    <p><span class=\"redText\">Bad choice, the bee was angry.</span><br><b>You have been stung!</b><br>Your pay has been decreased by $0.10. Your bonus pay is now $0.44.</p>\n            ","response":0,"trial_type":"html-button-response","trial_index":24,"time_elapsed":205972,"internal_node_id":"0.0-4.0-1.6","subject_id":"606268c44fa985d583676445","study_id":"6197b3f67c2b5cd3b6d9596a","session_id":"6197b79c2ba91913b72ab783","condition":"full-information","relevant_dimensions":["antennae","wings"],"bee_group":{"antennae":"B","wings":"2","pattern":"X","legs":"X"},"bonus":0.5200000000000015},{"rt":870.8000000715256,"stimulus":"bees-with-color/bee-A2DM.svg","response":0,"trial_type":"image-button-response","trial_index":25,"time_elapsed":206844,"internal_node_id":"0.0-4.0-0.7","subject_id":"606268c44fa985d583676445","study_id":"6197b3f67c2b5cd3b6d9596a","session_id":"6197b79c2ba91913b72ab783","condition":"full-information","relevant_dimensions":["antennae","wings"],"bee_group":{"antennae":"B","wings":"2","pattern":"X","legs":"X"},"action":"harvest","summary":"good-harvest","bonus":0.5200000000000015},{"rt":642.2000000476837,"stimulus":"\n                    <p><b>Action: <em>harvest</em></b></p>\n                    <p>This is the bee that you just saw.</p>\n                    <img src=\"bees-with-color/bee-A2DM.svg\" width=\"200\">\n                    <p><span class=\"greenText\"><b>Successful harvest!</b></span><br>Your pay has increased by $0.02. Your bonus pay is now $0.46.</p>\n            ","response":0,"trial_type":"html-button-response","trial_index":26,"time_elapsed":207487,"internal_node_id":"0.0-4.0-1.7","subject_id":"606268c44fa985d583676445","study_id":"6197b3f67c2b5cd3b6d9596a","session_id":"6197b79c2ba91913b72ab783","condition":"full-information","relevant_dimensions":["antennae","wings"],"bee_group":{"antennae":"B","wings":"2","pattern":"X","legs":"X"},"bonus":0.5200000000000015},{"rt":1195.1000000238419,"stimulus":"bees-with-color/bee-B1DF.svg","response":0,"trial_type":"image-button-response","trial_index":27,"time_elapsed":208684,"internal_node_id":"0.0-4.0-0.8","subject_id":"606268c44fa985d583676445","study_id":"6197b3f67c2b5cd3b6d9596a","session_id":"6197b79c2ba91913b72ab783","condition":"full-information","relevant_dimensions":["antennae","wings"],"bee_group":{"antennae":"B","wings":"2","pattern":"X","legs":"X"},"action":"harvest","summary":"good-harvest","bonus":0.5200000000000015},{"rt":600.1000000238419,"stimulus":"\n                    <p><b>Action: <em>harvest</em></b></p>\n                    <p>This is the bee that you just saw.</p>\n                    <img src=\"bees-with-color/bee-B1DF.svg\" width=\"200\">\n                    <p><span class=\"greenText\"><b>Successful harvest!</b></span><br>Your pay has increased by $0.02. Your bonus pay is now $0.48.</p>\n            ","response":0,"trial_type":"html-button-response","trial_index":28,"time_elapsed":209285,"internal_node_id":"0.0-4.0-1.8","subject_id":"606268c44fa985d583676445","study_id":"6197b3f67c2b5cd3b6d9596a","session_id":"6197b79c2ba91913b72ab783","condition":"full-information","relevant_dimensions":["antennae","wings"],"bee_group":{"antennae":"B","wings":"2","pattern":"X","legs":"X"},"bonus":0.5200000000000015},{"rt":3770.2000000476837,"stimulus":"bees-with-color/bee-B1SM.svg","response":0,"trial_type":"image-button-response","trial_index":29,"time_elapsed":213056,"internal_node_id":"0.0-4.0-0.9","subject_id":"606268c44fa985d583676445","study_id":"6197b3f67c2b5cd3b6d9596a","session_id":"6197b79c2ba91913b72ab783","condition":"full-information","relevant_dimensions":["antennae","wings"],"bee_group":{"antennae":"B","wings":"2","pattern":"X","legs":"X"},"action":"harvest","summary":"good-harvest","bonus":0.5200000000000015},{"rt":712.7999999523163,"stimulus":"\n                    <p><b>Action: <em>harvest</em></b></p>\n                    <p>This is the bee that you just saw.</p>\n                    <img src=\"bees-with-color/bee-B1SM.svg\" width=\"200\">\n                    <p><span class=\"greenText\"><b>Successful harvest!</b></span><br>Your pay has increased by $0.02. Your bonus pay is now $0.50.</p>\n            ","response":0,"trial_type":"html-button-response","trial_index":30,"time_elapsed":213770,"internal_node_id":"0.0-4.0-1.9","subject_id":"606268c44fa985d583676445","study_id":"6197b3f67c2b5cd3b6d9596a","session_id":"6197b79c2ba91913b72ab783","condition":"full-information","relevant_dimensions":["antennae","wings"],"bee_group":{"antennae":"B","wings":"2","pattern":"X","legs":"X"},"bonus":0.5200000000000015},{"rt":1962.2000000476837,"stimulus":"bees-with-color/bee-B2SF.svg","response":0,"trial_type":"image-button-response","trial_index":31,"time_elapsed":215734,"internal_node_id":"0.0-4.0-0.10","subject_id":"606268c44fa985d583676445","study_id":"6197b3f67c2b5cd3b6d9596a","session_id":"6197b79c2ba91913b72ab783","condition":"full-information","relevant_dimensions":["antennae","wings"],"bee_group":{"antennae":"B","wings":"2","pattern":"X","legs":"X"},"action":"harvest","summary":"bad-harvest","bonus":0.5200000000000015},{"rt":1015.6999999284744,"stimulus":"\n                    <p><b>Action: <em>harvest</em></b></p>\n                    <p>This is the bee that you just saw.</p>\n                    <img src=\"bees-with-color/bee-B2SF.svg\" width=\"200\">\n                    <p><span class=\"redText\">Bad choice, the bee was angry.</span><br><b>You have been stung!</b><br>Your pay has been decreased by $0.10. Your bonus pay is now $0.40.</p>\n            ","response":0,"trial_type":"html-button-response","trial_index":32,"time_elapsed":216751,"internal_node_id":"0.0-4.0-1.10","subject_id":"606268c44fa985d583676445","study_id":"6197b3f67c2b5cd3b6d9596a","session_id":"6197b79c2ba91913b72ab783","condition":"full-information","relevant_dimensions":["antennae","wings"],"bee_group":{"antennae":"B","wings":"2","pattern":"X","legs":"X"},"bonus":0.5200000000000015},{"rt":907.5,"stimulus":"bees-with-color/bee-B1DM.svg","response":0,"trial_type":"image-button-response","trial_index":33,"time_elapsed":217660,"internal_node_id":"0.0-4.0-0.11","subject_id":"606268c44fa985d583676445","study_id":"6197b3f67c2b5cd3b6d9596a","session_id":"6197b79c2ba91913b72ab783","condition":"full-information","relevant_dimensions":["antennae","wings"],"bee_group":{"antennae":"B","wings":"2","pattern":"X","legs":"X"},"action":"harvest","summary":"good-harvest","bonus":0.5200000000000015},{"rt":724.8999999761581,"stimulus":"\n                    <p><b>Action: <em>harvest</em></b></p>\n                    <p>This is the bee that you just saw.</p>\n                    <img src=\"bees-with-color/bee-B1DM.svg\" width=\"200\">\n                    <p><span class=\"greenText\"><b>Successful harvest!</b></span><br>Your pay has increased by $0.02. Your bonus pay is now $0.42.</p>\n            ","response":0,"trial_type":"html-button-response","trial_index":34,"time_elapsed":218386,"internal_node_id":"0.0-4.0-1.11","subject_id":"606268c44fa985d583676445","study_id":"6197b3f67c2b5cd3b6d9596a","session_id":"6197b79c2ba91913b72ab783","condition":"full-information","relevant_dimensions":["antennae","wings"],"bee_group":{"antennae":"B","wings":"2","pattern":"X","legs":"X"},"bonus":0.5200000000000015},{"rt":2032.6999999284744,"stimulus":"bees-with-color/bee-A1SF.svg","response":0,"trial_type":"image-button-response","trial_index":35,"time_elapsed":220419,"internal_node_id":"0.0-4.0-0.12","subject_id":"606268c44fa985d583676445","study_id":"6197b3f67c2b5cd3b6d9596a","session_id":"6197b79c2ba91913b72ab783","condition":"full-information","relevant_dimensions":["antennae","wings"],"bee_group":{"antennae":"B","wings":"2","pattern":"X","legs":"X"},"action":"harvest","summary":"good-harvest","bonus":0.5200000000000015},{"rt":591.5,"stimulus":"\n                    <p><b>Action: <em>harvest</em></b></p>\n                    <p>This is the bee that you just saw.</p>\n                    <img src=\"bees-with-color/bee-A1SF.svg\" width=\"200\">\n                    <p><span class=\"greenText\"><b>Successful harvest!</b></span><br>Your pay has increased by $0.02. Your bonus pay is now $0.44.</p>\n            ","response":0,"trial_type":"html-button-response","trial_index":36,"time_elapsed":221012,"internal_node_id":"0.0-4.0-1.12","subject_id":"606268c44fa985d583676445","study_id":"6197b3f67c2b5cd3b6d9596a","session_id":"6197b79c2ba91913b72ab783","condition":"full-information","relevant_dimensions":["antennae","wings"],"bee_group":{"antennae":"B","wings":"2","pattern":"X","legs":"X"},"bonus":0.5200000000000015},{"rt":4171,"stimulus":"bees-with-color/bee-A1DM.svg","response":0,"trial_type":"image-button-response","trial_index":37,"time_elapsed":225184,"internal_node_id":"0.0-4.0-0.13","subject_id":"606268c44fa985d583676445","study_id":"6197b3f67c2b5cd3b6d9596a","session_id":"6197b79c2ba91913b72ab783","condition":"full-information","relevant_dimensions":["antennae","wings"],"bee_group":{"antennae":"B","wings":"2","pattern":"X","legs":"X"},"action":"harvest","summary":"good-harvest","bonus":0.5200000000000015},{"rt":699.7999999523163,"stimulus":"\n                    <p><b>Action: <em>harvest</em></b></p>\n                    <p>This is the bee that you just saw.</p>\n                    <img src=\"bees-with-color/bee-A1DM.svg\" width=\"200\">\n                    <p><span class=\"greenText\"><b>Successful harvest!</b></span><br>Your pay has increased by $0.02. Your bonus pay is now $0.46.</p>\n            ","response":0,"trial_type":"html-button-response","trial_index":38,"time_elapsed":225884,"internal_node_id":"0.0-4.0-1.13","subject_id":"606268c44fa985d583676445","study_id":"6197b3f67c2b5cd3b6d9596a","session_id":"6197b79c2ba91913b72ab783","condition":"full-information","relevant_dimensions":["antennae","wings"],"bee_group":{"antennae":"B","wings":"2","pattern":"X","legs":"X"},"bonus":0.5200000000000015},{"rt":1839.3999999761581,"stimulus":"bees-with-color/bee-A2SM.svg","response":0,"trial_type":"image-button-response","trial_index":39,"time_elapsed":227725,"internal_node_id":"0.0-4.0-0.14","subject_id":"606268c44fa985d583676445","study_id":"6197b3f67c2b5cd3b6d9596a","session_id":"6197b79c2ba91913b72ab783","condition":"full-information","relevant_dimensions":["antennae","wings"],"bee_group":{"antennae":"B","wings":"2","pattern":"X","legs":"X"},"action":"harvest","summary":"good-harvest","bonus":0.5200000000000015},{"rt":631.7999999523163,"stimulus":"\n                    <p><b>Action: <em>harvest</em></b></p>\n                    <p>This is the bee that you just saw.</p>\n                    <img src=\"bees-with-color/bee-A2SM.svg\" width=\"200\">\n                    <p><span class=\"greenText\"><b>Successful harvest!</b></span><br>Your pay has increased by $0.02. Your bonus pay is now $0.48.</p>\n            ","response":0,"trial_type":"html-button-response","trial_index":40,"time_elapsed":228358,"internal_node_id":"0.0-4.0-1.14","subject_id":"606268c44fa985d583676445","study_id":"6197b3f67c2b5cd3b6d9596a","session_id":"6197b79c2ba91913b72ab783","condition":"full-information","relevant_dimensions":["antennae","wings"],"bee_group":{"antennae":"B","wings":"2","pattern":"X","legs":"X"},"bonus":0.5200000000000015},{"rt":1796.0999999046326,"stimulus":"bees-with-color/bee-B2SM.svg","response":0,"trial_type":"image-button-response","trial_index":41,"time_elapsed":230155,"internal_node_id":"0.0-4.0-0.15","subject_id":"606268c44fa985d583676445","study_id":"6197b3f67c2b5cd3b6d9596a","session_id":"6197b79c2ba91913b72ab783","condition":"full-information","relevant_dimensions":["antennae","wings"],"bee_group":{"antennae":"B","wings":"2","pattern":"X","legs":"X"},"action":"harvest","summary":"bad-harvest","bonus":0.5200000000000015},{"rt":739.2000000476837,"stimulus":"\n                    <p><b>Action: <em>harvest</em></b></p>\n                    <p>This is the bee that you just saw.</p>\n                    <img src=\"bees-with-color/bee-B2SM.svg\" width=\"200\">\n                    <p><span class=\"redText\">Bad choice, the bee was angry.</span><br><b>You have been stung!</b><br>Your pay has been decreased by $0.10. Your bonus pay is now $0.38.</p>\n            ","response":0,"trial_type":"html-button-response","trial_index":42,"time_elapsed":230895,"internal_node_id":"0.0-4.0-1.15","subject_id":"606268c44fa985d583676445","study_id":"6197b3f67c2b5cd3b6d9596a","session_id":"6197b79c2ba91913b72ab783","condition":"full-information","relevant_dimensions":["antennae","wings"],"bee_group":{"antennae":"B","wings":"2","pattern":"X","legs":"X"},"bonus":0.5200000000000015},{"rt":1316.5,"stimulus":"bees-with-color/bee-A2SM.svg","response":0,"trial_type":"image-button-response","trial_index":43,"time_elapsed":232213,"internal_node_id":"0.0-4.0-0.16","subject_id":"606268c44fa985d583676445","study_id":"6197b3f67c2b5cd3b6d9596a","session_id":"6197b79c2ba91913b72ab783","condition":"full-information","relevant_dimensions":["antennae","wings"],"bee_group":{"antennae":"B","wings":"2","pattern":"X","legs":"X"},"action":"harvest","summary":"good-harvest","bonus":0.5200000000000015},{"rt":634.7999999523163,"stimulus":"\n                    <p><b>Action: <em>harvest</em></b></p>\n                    <p>This is the bee that you just saw.</p>\n                    <img src=\"bees-with-color/bee-A2SM.svg\" width=\"200\">\n                    <p><span class=\"greenText\"><b>Successful harvest!</b></span><br>Your pay has increased by $0.02. Your bonus pay is now $0.40.</p>\n            ","response":0,"trial_type":"html-button-response","trial_index":44,"time_elapsed":232848,"internal_node_id":"0.0-4.0-1.16","subject_id":"606268c44fa985d583676445","study_id":"6197b3f67c2b5cd3b6d9596a","session_id":"6197b79c2ba91913b72ab783","condition":"full-information","relevant_dimensions":["antennae","wings"],"bee_group":{"antennae":"B","wings":"2","pattern":"X","legs":"X"},"bonus":0.5200000000000015},{"rt":1337.2999999523163,"stimulus":"bees-with-color/bee-B2DM.svg","response":1,"trial_type":"image-button-response","trial_index":45,"time_elapsed":234187,"internal_node_id":"0.0-4.0-0.17","subject_id":"606268c44fa985d583676445","study_id":"6197b3f67c2b5cd3b6d9596a","session_id":"6197b79c2ba91913b72ab783","condition":"full-information","relevant_dimensions":["antennae","wings"],"bee_group":{"antennae":"B","wings":"2","pattern":"X","legs":"X"},"action":"avoid","summary":"good-avoid","bonus":0.5200000000000015},{"rt":2979.7999999523163,"stimulus":"\n                    <p><b>Action: <em>avoid</em></b></p>\n                    <p>This is the bee that you just saw.</p>\n                    <img src=\"bees-with-color/bee-B2DM.svg\" width=\"200\">\n                    <p><span class=\"greenText\">Good choice!</span>  This bee would have stung you.<br>Your bonus pay is unchanged, and remains at $0.40.</p>\n            ","response":0,"trial_type":"html-button-response","trial_index":46,"time_elapsed":237168,"internal_node_id":"0.0-4.0-1.17","subject_id":"606268c44fa985d583676445","study_id":"6197b3f67c2b5cd3b6d9596a","session_id":"6197b79c2ba91913b72ab783","condition":"full-information","relevant_dimensions":["antennae","wings"],"bee_group":{"antennae":"B","wings":"2","pattern":"X","legs":"X"},"bonus":0.5200000000000015},{"rt":1274.7000000476837,"stimulus":"bees-with-color/bee-A2DM.svg","response":0,"trial_type":"image-button-response","trial_index":47,"time_elapsed":238444,"internal_node_id":"0.0-4.0-0.18","subject_id":"606268c44fa985d583676445","study_id":"6197b3f67c2b5cd3b6d9596a","session_id":"6197b79c2ba91913b72ab783","condition":"full-information","relevant_dimensions":["antennae","wings"],"bee_group":{"antennae":"B","wings":"2","pattern":"X","legs":"X"},"action":"harvest","summary":"good-harvest","bonus":0.5200000000000015},{"rt":725.2000000476837,"stimulus":"\n                    <p><b>Action: <em>harvest</em></b></p>\n                    <p>This is the bee that you just saw.</p>\n                    <img src=\"bees-with-color/bee-A2DM.svg\" width=\"200\">\n                    <p><span class=\"greenText\"><b>Successful harvest!</b></span><br>Your pay has increased by $0.02. Your bonus pay is now $0.42.</p>\n            ","response":0,"trial_type":"html-button-response","trial_index":48,"time_elapsed":239170,"internal_node_id":"0.0-4.0-1.18","subject_id":"606268c44fa985d583676445","study_id":"6197b3f67c2b5cd3b6d9596a","session_id":"6197b79c2ba91913b72ab783","condition":"full-information","relevant_dimensions":["antennae","wings"],"bee_group":{"antennae":"B","wings":"2","pattern":"X","legs":"X"},"bonus":0.5200000000000015},{"rt":1646.6000000238419,"stimulus":"bees-with-color/bee-A2DF.svg","response":0,"trial_type":"image-button-response","trial_index":49,"time_elapsed":240818,"internal_node_id":"0.0-4.0-0.19","subject_id":"606268c44fa985d583676445","study_id":"6197b3f67c2b5cd3b6d9596a","session_id":"6197b79c2ba91913b72ab783","condition":"full-information","relevant_dimensions":["antennae","wings"],"bee_group":{"antennae":"B","wings":"2","pattern":"X","legs":"X"},"action":"harvest","summary":"good-harvest","bonus":0.5200000000000015},{"rt":722.3000000715256,"stimulus":"\n                    <p><b>Action: <em>harvest</em></b></p>\n                    <p>This is the bee that you just saw.</p>\n                    <img src=\"bees-with-color/bee-A2DF.svg\" width=\"200\">\n                    <p><span class=\"greenText\"><b>Successful harvest!</b></span><br>Your pay has increased by $0.02. Your bonus pay is now $0.44.</p>\n            ","response":0,"trial_type":"html-button-response","trial_index":50,"time_elapsed":241541,"internal_node_id":"0.0-4.0-1.19","subject_id":"606268c44fa985d583676445","study_id":"6197b3f67c2b5cd3b6d9596a","session_id":"6197b79c2ba91913b72ab783","condition":"full-information","relevant_dimensions":["antennae","wings"],"bee_group":{"antennae":"B","wings":"2","pattern":"X","legs":"X"},"bonus":0.5200000000000015},{"rt":1234.2000000476837,"stimulus":"bees-with-color/bee-A1DF.svg","response":0,"trial_type":"image-button-response","trial_index":51,"time_elapsed":242776,"internal_node_id":"0.0-4.0-0.20","subject_id":"606268c44fa985d583676445","study_id":"6197b3f67c2b5cd3b6d9596a","session_id":"6197b79c2ba91913b72ab783","condition":"full-information","relevant_dimensions":["antennae","wings"],"bee_group":{"antennae":"B","wings":"2","pattern":"X","legs":"X"},"action":"harvest","summary":"good-harvest","bonus":0.5200000000000015},{"rt":598.1999999284744,"stimulus":"\n                    <p><b>Action: <em>harvest</em></b></p>\n                    <p>This is the bee that you just saw.</p>\n                    <img src=\"bees-with-color/bee-A1DF.svg\" width=\"200\">\n                    <p><span class=\"greenText\"><b>Successful harvest!</b></span><br>Your pay has increased by $0.02. Your bonus pay is now $0.46.</p>\n            ","response":0,"trial_type":"html-button-response","trial_index":52,"time_elapsed":243375,"internal_node_id":"0.0-4.0-1.20","subject_id":"606268c44fa985d583676445","study_id":"6197b3f67c2b5cd3b6d9596a","session_id":"6197b79c2ba91913b72ab783","condition":"full-information","relevant_dimensions":["antennae","wings"],"bee_group":{"antennae":"B","wings":"2","pattern":"X","legs":"X"},"bonus":0.5200000000000015},{"rt":1627.6000000238419,"stimulus":"bees-with-color/bee-B1DF.svg","response":0,"trial_type":"image-button-response","trial_index":53,"time_elapsed":245003,"internal_node_id":"0.0-4.0-0.21","subject_id":"606268c44fa985d583676445","study_id":"6197b3f67c2b5cd3b6d9596a","session_id":"6197b79c2ba91913b72ab783","condition":"full-information","relevant_dimensions":["antennae","wings"],"bee_group":{"antennae":"B","wings":"2","pattern":"X","legs":"X"},"action":"harvest","summary":"good-harvest","bonus":0.5200000000000015},{"rt":525.1999999284744,"stimulus":"\n                    <p><b>Action: <em>harvest</em></b></p>\n                    <p>This is the bee that you just saw.</p>\n                    <img src=\"bees-with-color/bee-B1DF.svg\" width=\"200\">\n                    <p><span class=\"greenText\"><b>Successful harvest!</b></span><br>Your pay has increased by $0.02. Your bonus pay is now $0.48.</p>\n            ","response":0,"trial_type":"html-button-response","trial_index":54,"time_elapsed":245530,"internal_node_id":"0.0-4.0-1.21","subject_id":"606268c44fa985d583676445","study_id":"6197b3f67c2b5cd3b6d9596a","session_id":"6197b79c2ba91913b72ab783","condition":"full-information","relevant_dimensions":["antennae","wings"],"bee_group":{"antennae":"B","wings":"2","pattern":"X","legs":"X"},"bonus":0.5200000000000015},{"rt":1131.6000000238419,"stimulus":"bees-with-color/bee-B1DM.svg","response":0,"trial_type":"image-button-response","trial_index":55,"time_elapsed":246662,"internal_node_id":"0.0-4.0-0.22","subject_id":"606268c44fa985d583676445","study_id":"6197b3f67c2b5cd3b6d9596a","session_id":"6197b79c2ba91913b72ab783","condition":"full-information","relevant_dimensions":["antennae","wings"],"bee_group":{"antennae":"B","wings":"2","pattern":"X","legs":"X"},"action":"harvest","summary":"good-harvest","bonus":0.5200000000000015},{"rt":549.8999999761581,"stimulus":"\n                    <p><b>Action: <em>harvest</em></b></p>\n                    <p>This is the bee that you just saw.</p>\n                    <img src=\"bees-with-color/bee-B1DM.svg\" width=\"200\">\n                    <p><span class=\"greenText\"><b>Successful harvest!</b></span><br>Your pay has increased by $0.02. Your bonus pay is now $0.50.</p>\n            ","response":0,"trial_type":"html-button-response","trial_index":56,"time_elapsed":247214,"internal_node_id":"0.0-4.0-1.22","subject_id":"606268c44fa985d583676445","study_id":"6197b3f67c2b5cd3b6d9596a","session_id":"6197b79c2ba91913b72ab783","condition":"full-information","relevant_dimensions":["antennae","wings"],"bee_group":{"antennae":"B","wings":"2","pattern":"X","legs":"X"},"bonus":0.5200000000000015},{"rt":1850.5,"stimulus":"bees-with-color/bee-B2DF.svg","response":0,"trial_type":"image-button-response","trial_index":57,"time_elapsed":249065,"internal_node_id":"0.0-4.0-0.23","subject_id":"606268c44fa985d583676445","study_id":"6197b3f67c2b5cd3b6d9596a","session_id":"6197b79c2ba91913b72ab783","condition":"full-information","relevant_dimensions":["antennae","wings"],"bee_group":{"antennae":"B","wings":"2","pattern":"X","legs":"X"},"action":"harvest","summary":"bad-harvest","bonus":0.5200000000000015},{"rt":569.5999999046326,"stimulus":"\n                    <p><b>Action: <em>harvest</em></b></p>\n                    <p>This is the bee that you just saw.</p>\n                    <img src=\"bees-with-color/bee-B2DF.svg\" width=\"200\">\n                    <p><span class=\"redText\">Bad choice, the bee was angry.</span><br><b>You have been stung!</b><br>Your pay has been decreased by $0.10. Your bonus pay is now $0.40.</p>\n            ","response":0,"trial_type":"html-button-response","trial_index":58,"time_elapsed":249636,"internal_node_id":"0.0-4.0-1.23","subject_id":"606268c44fa985d583676445","study_id":"6197b3f67c2b5cd3b6d9596a","session_id":"6197b79c2ba91913b72ab783","condition":"full-information","relevant_dimensions":["antennae","wings"],"bee_group":{"antennae":"B","wings":"2","pattern":"X","legs":"X"},"bonus":0.5200000000000015},{"rt":1088.3000000715256,"stimulus":"bees-with-color/bee-B1SM.svg","response":0,"trial_type":"image-button-response","trial_index":59,"time_elapsed":250725,"internal_node_id":"0.0-4.0-0.24","subject_id":"606268c44fa985d583676445","study_id":"6197b3f67c2b5cd3b6d9596a","session_id":"6197b79c2ba91913b72ab783","condition":"full-information","relevant_dimensions":["antennae","wings"],"bee_group":{"antennae":"B","wings":"2","pattern":"X","legs":"X"},"action":"harvest","summary":"good-harvest","bonus":0.5200000000000015},{"rt":641.6000000238419,"stimulus":"\n                    <p><b>Action: <em>harvest</em></b></p>\n                    <p>This is the bee that you just saw.</p>\n                    <img src=\"bees-with-color/bee-B1SM.svg\" width=\"200\">\n                    <p><span class=\"greenText\"><b>Successful harvest!</b></span><br>Your pay has increased by $0.02. Your bonus pay is now $0.42.</p>\n            ","response":0,"trial_type":"html-button-response","trial_index":60,"time_elapsed":251368,"internal_node_id":"0.0-4.0-1.24","subject_id":"606268c44fa985d583676445","study_id":"6197b3f67c2b5cd3b6d9596a","session_id":"6197b79c2ba91913b72ab783","condition":"full-information","relevant_dimensions":["antennae","wings"],"bee_group":{"antennae":"B","wings":"2","pattern":"X","legs":"X"},"bonus":0.5200000000000015},{"rt":1446,"stimulus":"bees-with-color/bee-A1SF.svg","response":0,"trial_type":"image-button-response","trial_index":61,"time_elapsed":252815,"internal_node_id":"0.0-4.0-0.25","subject_id":"606268c44fa985d583676445","study_id":"6197b3f67c2b5cd3b6d9596a","session_id":"6197b79c2ba91913b72ab783","condition":"full-information","relevant_dimensions":["antennae","wings"],"bee_group":{"antennae":"B","wings":"2","pattern":"X","legs":"X"},"action":"harvest","summary":"good-harvest","bonus":0.5200000000000015},{"rt":510.09999990463257,"stimulus":"\n                    <p><b>Action: <em>harvest</em></b></p>\n                    <p>This is the bee that you just saw.</p>\n                    <img src=\"bees-with-color/bee-A1SF.svg\" width=\"200\">\n                    <p><span class=\"greenText\"><b>Successful harvest!</b></span><br>Your pay has increased by $0.02. Your bonus pay is now $0.44.</p>\n            ","response":0,"trial_type":"html-button-response","trial_index":62,"time_elapsed":253326,"internal_node_id":"0.0-4.0-1.25","subject_id":"606268c44fa985d583676445","study_id":"6197b3f67c2b5cd3b6d9596a","session_id":"6197b79c2ba91913b72ab783","condition":"full-information","relevant_dimensions":["antennae","wings"],"bee_group":{"antennae":"B","wings":"2","pattern":"X","legs":"X"},"bonus":0.5200000000000015},{"rt":1847.2000000476837,"stimulus":"bees-with-color/bee-B2SF.svg","response":0,"trial_type":"image-button-response","trial_index":63,"time_elapsed":255174,"internal_node_id":"0.0-4.0-0.26","subject_id":"606268c44fa985d583676445","study_id":"6197b3f67c2b5cd3b6d9596a","session_id":"6197b79c2ba91913b72ab783","condition":"full-information","relevant_dimensions":["antennae","wings"],"bee_group":{"antennae":"B","wings":"2","pattern":"X","legs":"X"},"action":"harvest","summary":"bad-harvest","bonus":0.5200000000000015},{"rt":479,"stimulus":"\n                    <p><b>Action: <em>harvest</em></b></p>\n                    <p>This is the bee that you just saw.</p>\n                    <img src=\"bees-with-color/bee-B2SF.svg\" width=\"200\">\n                    <p><span class=\"redText\">Bad choice, the bee was angry.</span><br><b>You have been stung!</b><br>Your pay has been decreased by $0.10. Your bonus pay is now $0.34.</p>\n            ","response":0,"trial_type":"html-button-response","trial_index":64,"time_elapsed":255654,"internal_node_id":"0.0-4.0-1.26","subject_id":"606268c44fa985d583676445","study_id":"6197b3f67c2b5cd3b6d9596a","session_id":"6197b79c2ba91913b72ab783","condition":"full-information","relevant_dimensions":["antennae","wings"],"bee_group":{"antennae":"B","wings":"2","pattern":"X","legs":"X"},"bonus":0.5200000000000015},{"rt":2550.100000023842,"stimulus":"bees-with-color/bee-B1SF.svg","response":0,"trial_type":"image-button-response","trial_index":65,"time_elapsed":258205,"internal_node_id":"0.0-4.0-0.27","subject_id":"606268c44fa985d583676445","study_id":"6197b3f67c2b5cd3b6d9596a","session_id":"6197b79c2ba91913b72ab783","condition":"full-information","relevant_dimensions":["antennae","wings"],"bee_group":{"antennae":"B","wings":"2","pattern":"X","legs":"X"},"action":"harvest","summary":"good-harvest","bonus":0.5200000000000015},{"rt":452,"stimulus":"\n                    <p><b>Action: <em>harvest</em></b></p>\n                    <p>This is the bee that you just saw.</p>\n                    <img src=\"bees-with-color/bee-B1SF.svg\" width=\"200\">\n                    <p><span class=\"greenText\"><b>Successful harvest!</b></span><br>Your pay has increased by $0.02. Your bonus pay is now $0.36.</p>\n            ","response":0,"trial_type":"html-button-response","trial_index":66,"time_elapsed":258658,"internal_node_id":"0.0-4.0-1.27","subject_id":"606268c44fa985d583676445","study_id":"6197b3f67c2b5cd3b6d9596a","session_id":"6197b79c2ba91913b72ab783","condition":"full-information","relevant_dimensions":["antennae","wings"],"bee_group":{"antennae":"B","wings":"2","pattern":"X","legs":"X"},"bonus":0.5200000000000015},{"rt":2377.2000000476837,"stimulus":"bees-with-color/bee-A1DM.svg","response":0,"trial_type":"image-button-response","trial_index":67,"time_elapsed":261036,"internal_node_id":"0.0-4.0-0.28","subject_id":"606268c44fa985d583676445","study_id":"6197b3f67c2b5cd3b6d9596a","session_id":"6197b79c2ba91913b72ab783","condition":"full-information","relevant_dimensions":["antennae","wings"],"bee_group":{"antennae":"B","wings":"2","pattern":"X","legs":"X"},"action":"harvest","summary":"good-harvest","bonus":0.5200000000000015},{"rt":551.2999999523163,"stimulus":"\n                    <p><b>Action: <em>harvest</em></b></p>\n                    <p>This is the bee that you just saw.</p>\n                    <img src=\"bees-with-color/bee-A1DM.svg\" width=\"200\">\n                    <p><span class=\"greenText\"><b>Successful harvest!</b></span><br>Your pay has increased by $0.02. Your bonus pay is now $0.38.</p>\n            ","response":0,"trial_type":"html-button-response","trial_index":68,"time_elapsed":261589,"internal_node_id":"0.0-4.0-1.28","subject_id":"606268c44fa985d583676445","study_id":"6197b3f67c2b5cd3b6d9596a","session_id":"6197b79c2ba91913b72ab783","condition":"full-information","relevant_dimensions":["antennae","wings"],"bee_group":{"antennae":"B","wings":"2","pattern":"X","legs":"X"},"bonus":0.5200000000000015},{"rt":1632.3000000715256,"stimulus":"bees-with-color/bee-A2SF.svg","response":0,"trial_type":"image-button-response","trial_index":69,"time_elapsed":263222,"internal_node_id":"0.0-4.0-0.29","subject_id":"606268c44fa985d583676445","study_id":"6197b3f67c2b5cd3b6d9596a","session_id":"6197b79c2ba91913b72ab783","condition":"full-information","relevant_dimensions":["antennae","wings"],"bee_group":{"antennae":"B","wings":"2","pattern":"X","legs":"X"},"action":"harvest","summary":"good-harvest","bonus":0.5200000000000015},{"rt":537.4000000953674,"stimulus":"\n                    <p><b>Action: <em>harvest</em></b></p>\n                    <p>This is the bee that you just saw.</p>\n                    <img src=\"bees-with-color/bee-A2SF.svg\" width=\"200\">\n                    <p><span class=\"greenText\"><b>Successful harvest!</b></span><br>Your pay has increased by $0.02. Your bonus pay is now $0.40.</p>\n            ","response":0,"trial_type":"html-button-response","trial_index":70,"time_elapsed":263761,"internal_node_id":"0.0-4.0-1.29","subject_id":"606268c44fa985d583676445","study_id":"6197b3f67c2b5cd3b6d9596a","session_id":"6197b79c2ba91913b72ab783","condition":"full-information","relevant_dimensions":["antennae","wings"],"bee_group":{"antennae":"B","wings":"2","pattern":"X","legs":"X"},"bonus":0.5200000000000015},{"rt":6888.300000071526,"stimulus":"bees-with-color/bee-B2SM.svg","response":0,"trial_type":"image-button-response","trial_index":71,"time_elapsed":270650,"internal_node_id":"0.0-4.0-0.30","subject_id":"606268c44fa985d583676445","study_id":"6197b3f67c2b5cd3b6d9596a","session_id":"6197b79c2ba91913b72ab783","condition":"full-information","relevant_dimensions":["antennae","wings"],"bee_group":{"antennae":"B","wings":"2","pattern":"X","legs":"X"},"action":"harvest","summary":"bad-harvest","bonus":0.5200000000000015},{"rt":764.8999999761581,"stimulus":"\n                    <p><b>Action: <em>harvest</em></b></p>\n                    <p>This is the bee that you just saw.</p>\n                    <img src=\"bees-with-color/bee-B2SM.svg\" width=\"200\">\n                    <p><span class=\"redText\">Bad choice, the bee was angry.</span><br><b>You have been stung!</b><br>Your pay has been decreased by $0.10. Your bonus pay is now $0.30.</p>\n            ","response":0,"trial_type":"html-button-response","trial_index":72,"time_elapsed":271416,"internal_node_id":"0.0-4.0-1.30","subject_id":"606268c44fa985d583676445","study_id":"6197b3f67c2b5cd3b6d9596a","session_id":"6197b79c2ba91913b72ab783","condition":"full-information","relevant_dimensions":["antennae","wings"],"bee_group":{"antennae":"B","wings":"2","pattern":"X","legs":"X"},"bonus":0.5200000000000015},{"rt":758.1000000238419,"stimulus":"bees-with-color/bee-A1SM.svg","response":0,"trial_type":"image-button-response","trial_index":73,"time_elapsed":272175,"internal_node_id":"0.0-4.0-0.31","subject_id":"606268c44fa985d583676445","study_id":"6197b3f67c2b5cd3b6d9596a","session_id":"6197b79c2ba91913b72ab783","condition":"full-information","relevant_dimensions":["antennae","wings"],"bee_group":{"antennae":"B","wings":"2","pattern":"X","legs":"X"},"action":"harvest","summary":"good-harvest","bonus":0.5200000000000015},{"rt":1054.4000000953674,"stimulus":"\n                    <p><b>Action: <em>harvest</em></b></p>\n                    <p>This is the bee that you just saw.</p>\n                    <img src=\"bees-with-color/bee-A1SM.svg\" width=\"200\">\n                    <p><span class=\"greenText\"><b>Successful harvest!</b></span><br>Your pay has increased by $0.02. Your bonus pay is now $0.32.</p>\n            ","response":0,"trial_type":"html-button-response","trial_index":74,"time_elapsed":273231,"internal_node_id":"0.0-4.0-1.31","subject_id":"606268c44fa985d583676445","study_id":"6197b3f67c2b5cd3b6d9596a","session_id":"6197b79c2ba91913b72ab783","condition":"full-information","relevant_dimensions":["antennae","wings"],"bee_group":{"antennae":"B","wings":"2","pattern":"X","legs":"X"},"bonus":0.5200000000000015},{"rt":2140.0999999046326,"stimulus":"bees-with-color/bee-B1SM.svg","response":0,"trial_type":"image-button-response","trial_index":75,"time_elapsed":275372,"internal_node_id":"0.0-4.0-0.32","subject_id":"606268c44fa985d583676445","study_id":"6197b3f67c2b5cd3b6d9596a","session_id":"6197b79c2ba91913b72ab783","condition":"full-information","relevant_dimensions":["antennae","wings"],"bee_group":{"antennae":"B","wings":"2","pattern":"X","legs":"X"},"action":"harvest","summary":"good-harvest","bonus":0.5200000000000015},{"rt":837.7000000476837,"stimulus":"\n                    <p><b>Action: <em>harvest</em></b></p>\n                    <p>This is the bee that you just saw.</p>\n                    <img src=\"bees-with-color/bee-B1SM.svg\" width=\"200\">\n                    <p><span class=\"greenText\"><b>Successful harvest!</b></span><br>Your pay has increased by $0.02. Your bonus pay is now $0.34.</p>\n            ","response":0,"trial_type":"html-button-response","trial_index":76,"time_elapsed":276210,"internal_node_id":"0.0-4.0-1.32","subject_id":"606268c44fa985d583676445","study_id":"6197b3f67c2b5cd3b6d9596a","session_id":"6197b79c2ba91913b72ab783","condition":"full-information","relevant_dimensions":["antennae","wings"],"bee_group":{"antennae":"B","wings":"2","pattern":"X","legs":"X"},"bonus":0.5200000000000015},{"rt":2356.399999976158,"stimulus":"bees-with-color/bee-A2DF.svg","response":0,"trial_type":"image-button-response","trial_index":77,"time_elapsed":278568,"internal_node_id":"0.0-4.0-0.33","subject_id":"606268c44fa985d583676445","study_id":"6197b3f67c2b5cd3b6d9596a","session_id":"6197b79c2ba91913b72ab783","condition":"full-information","relevant_dimensions":["antennae","wings"],"bee_group":{"antennae":"B","wings":"2","pattern":"X","legs":"X"},"action":"harvest","summary":"good-harvest","bonus":0.5200000000000015},{"rt":506.2999999523163,"stimulus":"\n                    <p><b>Action: <em>harvest</em></b></p>\n                    <p>This is the bee that you just saw.</p>\n                    <img src=\"bees-with-color/bee-A2DF.svg\" width=\"200\">\n                    <p><span class=\"greenText\"><b>Successful harvest!</b></span><br>Your pay has increased by $0.02. Your bonus pay is now $0.36.</p>\n            ","response":0,"trial_type":"html-button-response","trial_index":78,"time_elapsed":279075,"internal_node_id":"0.0-4.0-1.33","subject_id":"606268c44fa985d583676445","study_id":"6197b3f67c2b5cd3b6d9596a","session_id":"6197b79c2ba91913b72ab783","condition":"full-information","relevant_dimensions":["antennae","wings"],"bee_group":{"antennae":"B","wings":"2","pattern":"X","legs":"X"},"bonus":0.5200000000000015},{"rt":1631.9000000953674,"stimulus":"bees-with-color/bee-B2SF.svg","response":1,"trial_type":"image-button-response","trial_index":79,"time_elapsed":280708,"internal_node_id":"0.0-4.0-0.34","subject_id":"606268c44fa985d583676445","study_id":"6197b3f67c2b5cd3b6d9596a","session_id":"6197b79c2ba91913b72ab783","condition":"full-information","relevant_dimensions":["antennae","wings"],"bee_group":{"antennae":"B","wings":"2","pattern":"X","legs":"X"},"action":"avoid","summary":"good-avoid","bonus":0.5200000000000015},{"rt":1798.4000000953674,"stimulus":"\n                    <p><b>Action: <em>avoid</em></b></p>\n                    <p>This is the bee that you just saw.</p>\n                    <img src=\"bees-with-color/bee-B2SF.svg\" width=\"200\">\n                    <p><span class=\"greenText\">Good choice!</span>  This bee would have stung you.<br>Your bonus pay is unchanged, and remains at $0.36.</p>\n            ","response":0,"trial_type":"html-button-response","trial_index":80,"time_elapsed":282508,"internal_node_id":"0.0-4.0-1.34","subject_id":"606268c44fa985d583676445","study_id":"6197b3f67c2b5cd3b6d9596a","session_id":"6197b79c2ba91913b72ab783","condition":"full-information","relevant_dimensions":["antennae","wings"],"bee_group":{"antennae":"B","wings":"2","pattern":"X","legs":"X"},"bonus":0.5200000000000015},{"rt":2583.399999976158,"stimulus":"bees-with-color/bee-B1SF.svg","response":0,"trial_type":"image-button-response","trial_index":81,"time_elapsed":285092,"internal_node_id":"0.0-4.0-0.35","subject_id":"606268c44fa985d583676445","study_id":"6197b3f67c2b5cd3b6d9596a","session_id":"6197b79c2ba91913b72ab783","condition":"full-information","relevant_dimensions":["antennae","wings"],"bee_group":{"antennae":"B","wings":"2","pattern":"X","legs":"X"},"action":"harvest","summary":"good-harvest","bonus":0.5200000000000015},{"rt":504.1999999284744,"stimulus":"\n                    <p><b>Action: <em>harvest</em></b></p>\n                    <p>This is the bee that you just saw.</p>\n                    <img src=\"bees-with-color/bee-B1SF.svg\" width=\"200\">\n                    <p><span class=\"greenText\"><b>Successful harvest!</b></span><br>Your pay has increased by $0.02. Your bonus pay is now $0.38.</p>\n            ","response":0,"trial_type":"html-button-response","trial_index":82,"time_elapsed":285597,"internal_node_id":"0.0-4.0-1.35","subject_id":"606268c44fa985d583676445","study_id":"6197b3f67c2b5cd3b6d9596a","session_id":"6197b79c2ba91913b72ab783","condition":"full-information","relevant_dimensions":["antennae","wings"],"bee_group":{"antennae":"B","wings":"2","pattern":"X","legs":"X"},"bonus":0.5200000000000015},{"rt":1056.8000000715256,"stimulus":"bees-with-color/bee-A2DM.svg","response":0,"trial_type":"image-button-response","trial_index":83,"time_elapsed":286655,"internal_node_id":"0.0-4.0-0.36","subject_id":"606268c44fa985d583676445","study_id":"6197b3f67c2b5cd3b6d9596a","session_id":"6197b79c2ba91913b72ab783","condition":"full-information","relevant_dimensions":["antennae","wings"],"bee_group":{"antennae":"B","wings":"2","pattern":"X","legs":"X"},"action":"harvest","summary":"good-harvest","bonus":0.5200000000000015},{"rt":545.6999999284744,"stimulus":"\n                    <p><b>Action: <em>harvest</em></b></p>\n                    <p>This is the bee that you just saw.</p>\n                    <img src=\"bees-with-color/bee-A2DM.svg\" width=\"200\">\n                    <p><span class=\"greenText\"><b>Successful harvest!</b></span><br>Your pay has increased by $0.02. Your bonus pay is now $0.40.</p>\n            ","response":0,"trial_type":"html-button-response","trial_index":84,"time_elapsed":287202,"internal_node_id":"0.0-4.0-1.36","subject_id":"606268c44fa985d583676445","study_id":"6197b3f67c2b5cd3b6d9596a","session_id":"6197b79c2ba91913b72ab783","condition":"full-information","relevant_dimensions":["antennae","wings"],"bee_group":{"antennae":"B","wings":"2","pattern":"X","legs":"X"},"bonus":0.5200000000000015},{"rt":1278,"stimulus":"bees-with-color/bee-A1SF.svg","response":0,"trial_type":"image-button-response","trial_index":85,"time_elapsed":288481,"internal_node_id":"0.0-4.0-0.37","subject_id":"606268c44fa985d583676445","study_id":"6197b3f67c2b5cd3b6d9596a","session_id":"6197b79c2ba91913b72ab783","condition":"full-information","relevant_dimensions":["antennae","wings"],"bee_group":{"antennae":"B","wings":"2","pattern":"X","legs":"X"},"action":"harvest","summary":"good-harvest","bonus":0.5200000000000015},{"rt":539.3000000715256,"stimulus":"\n                    <p><b>Action: <em>harvest</em></b></p>\n                    <p>This is the bee that you just saw.</p>\n                    <img src=\"bees-with-color/bee-A1SF.svg\" width=\"200\">\n                    <p><span class=\"greenText\"><b>Successful harvest!</b></span><br>Your pay has increased by $0.02. Your bonus pay is now $0.42.</p>\n            ","response":0,"trial_type":"html-button-response","trial_index":86,"time_elapsed":289021,"internal_node_id":"0.0-4.0-1.37","subject_id":"606268c44fa985d583676445","study_id":"6197b3f67c2b5cd3b6d9596a","session_id":"6197b79c2ba91913b72ab783","condition":"full-information","relevant_dimensions":["antennae","wings"],"bee_group":{"antennae":"B","wings":"2","pattern":"X","legs":"X"},"bonus":0.5200000000000015},{"rt":1034.8000000715256,"stimulus":"bees-with-color/bee-A2SM.svg","response":0,"trial_type":"image-button-response","trial_index":87,"time_elapsed":290057,"internal_node_id":"0.0-4.0-0.38","subject_id":"606268c44fa985d583676445","study_id":"6197b3f67c2b5cd3b6d9596a","session_id":"6197b79c2ba91913b72ab783","condition":"full-information","relevant_dimensions":["antennae","wings"],"bee_group":{"antennae":"B","wings":"2","pattern":"X","legs":"X"},"action":"harvest","summary":"good-harvest","bonus":0.5200000000000015},{"rt":497.3000000715256,"stimulus":"\n                    <p><b>Action: <em>harvest</em></b></p>\n                    <p>This is the bee that you just saw.</p>\n                    <img src=\"bees-with-color/bee-A2SM.svg\" width=\"200\">\n                    <p><span class=\"greenText\"><b>Successful harvest!</b></span><br>Your pay has increased by $0.02. Your bonus pay is now $0.44.</p>\n            ","response":0,"trial_type":"html-button-response","trial_index":88,"time_elapsed":290555,"internal_node_id":"0.0-4.0-1.38","subject_id":"606268c44fa985d583676445","study_id":"6197b3f67c2b5cd3b6d9596a","session_id":"6197b79c2ba91913b72ab783","condition":"full-information","relevant_dimensions":["antennae","wings"],"bee_group":{"antennae":"B","wings":"2","pattern":"X","legs":"X"},"bonus":0.5200000000000015},{"rt":2375.600000023842,"stimulus":"bees-with-color/bee-B2DM.svg","response":0,"trial_type":"image-button-response","trial_index":89,"time_elapsed":292932,"internal_node_id":"0.0-4.0-0.39","subject_id":"606268c44fa985d583676445","study_id":"6197b3f67c2b5cd3b6d9596a","session_id":"6197b79c2ba91913b72ab783","condition":"full-information","relevant_dimensions":["antennae","wings"],"bee_group":{"antennae":"B","wings":"2","pattern":"X","legs":"X"},"action":"harvest","summary":"bad-harvest","bonus":0.5200000000000015},{"rt":533.2999999523163,"stimulus":"\n                    <p><b>Action: <em>harvest</em></b></p>\n                    <p>This is the bee that you just saw.</p>\n                    <img src=\"bees-with-color/bee-B2DM.svg\" width=\"200\">\n                    <p><span class=\"redText\">Bad choice, the bee was angry.</span><br><b>You have been stung!</b><br>Your pay has been decreased by $0.10. Your bonus pay is now $0.34.</p>\n            ","response":0,"trial_type":"html-button-response","trial_index":90,"time_elapsed":293466,"internal_node_id":"0.0-4.0-1.39","subject_id":"606268c44fa985d583676445","study_id":"6197b3f67c2b5cd3b6d9596a","session_id":"6197b79c2ba91913b72ab783","condition":"full-information","relevant_dimensions":["antennae","wings"],"bee_group":{"antennae":"B","wings":"2","pattern":"X","legs":"X"},"bonus":0.5200000000000015},{"rt":828.5,"stimulus":"bees-with-color/bee-A1DM.svg","response":0,"trial_type":"image-button-response","trial_index":91,"time_elapsed":294296,"internal_node_id":"0.0-4.0-0.40","subject_id":"606268c44fa985d583676445","study_id":"6197b3f67c2b5cd3b6d9596a","session_id":"6197b79c2ba91913b72ab783","condition":"full-information","relevant_dimensions":["antennae","wings"],"bee_group":{"antennae":"B","wings":"2","pattern":"X","legs":"X"},"action":"harvest","summary":"good-harvest","bonus":0.5200000000000015},{"rt":501.10000002384186,"stimulus":"\n                    <p><b>Action: <em>harvest</em></b></p>\n                    <p>This is the bee that you just saw.</p>\n                    <img src=\"bees-with-color/bee-A1DM.svg\" width=\"200\">\n                    <p><span class=\"greenText\"><b>Successful harvest!</b></span><br>Your pay has increased by $0.02. Your bonus pay is now $0.36.</p>\n            ","response":0,"trial_type":"html-button-response","trial_index":92,"time_elapsed":294798,"internal_node_id":"0.0-4.0-1.40","subject_id":"606268c44fa985d583676445","study_id":"6197b3f67c2b5cd3b6d9596a","session_id":"6197b79c2ba91913b72ab783","condition":"full-information","relevant_dimensions":["antennae","wings"],"bee_group":{"antennae":"B","wings":"2","pattern":"X","legs":"X"},"bonus":0.5200000000000015},{"rt":2465.7999999523163,"stimulus":"bees-with-color/bee-B2DF.svg","response":1,"trial_type":"image-button-response","trial_index":93,"time_elapsed":297265,"internal_node_id":"0.0-4.0-0.41","subject_id":"606268c44fa985d583676445","study_id":"6197b3f67c2b5cd3b6d9596a","session_id":"6197b79c2ba91913b72ab783","condition":"full-information","relevant_dimensions":["antennae","wings"],"bee_group":{"antennae":"B","wings":"2","pattern":"X","legs":"X"},"action":"avoid","summary":"good-avoid","bonus":0.5200000000000015},{"rt":819.7000000476837,"stimulus":"\n                    <p><b>Action: <em>avoid</em></b></p>\n                    <p>This is the bee that you just saw.</p>\n                    <img src=\"bees-with-color/bee-B2DF.svg\" width=\"200\">\n                    <p><span class=\"greenText\">Good choice!</span>  This bee would have stung you.<br>Your bonus pay is unchanged, and remains at $0.36.</p>\n            ","response":0,"trial_type":"html-button-response","trial_index":94,"time_elapsed":298086,"internal_node_id":"0.0-4.0-1.41","subject_id":"606268c44fa985d583676445","study_id":"6197b3f67c2b5cd3b6d9596a","session_id":"6197b79c2ba91913b72ab783","condition":"full-information","relevant_dimensions":["antennae","wings"],"bee_group":{"antennae":"B","wings":"2","pattern":"X","legs":"X"},"bonus":0.5200000000000015},{"rt":1361.3999999761581,"stimulus":"bees-with-color/bee-A1SM.svg","response":0,"trial_type":"image-button-response","trial_index":95,"time_elapsed":299448,"internal_node_id":"0.0-4.0-0.42","subject_id":"606268c44fa985d583676445","study_id":"6197b3f67c2b5cd3b6d9596a","session_id":"6197b79c2ba91913b72ab783","condition":"full-information","relevant_dimensions":["antennae","wings"],"bee_group":{"antennae":"B","wings":"2","pattern":"X","legs":"X"},"action":"harvest","summary":"good-harvest","bonus":0.5200000000000015},{"rt":562.6000000238419,"stimulus":"\n                    <p><b>Action: <em>harvest</em></b></p>\n                    <p>This is the bee that you just saw.</p>\n                    <img src=\"bees-with-color/bee-A1SM.svg\" width=\"200\">\n                    <p><span class=\"greenText\"><b>Successful harvest!</b></span><br>Your pay has increased by $0.02. Your bonus pay is now $0.38.</p>\n            ","response":0,"trial_type":"html-button-response","trial_index":96,"time_elapsed":300012,"internal_node_id":"0.0-4.0-1.42","subject_id":"606268c44fa985d583676445","study_id":"6197b3f67c2b5cd3b6d9596a","session_id":"6197b79c2ba91913b72ab783","condition":"full-information","relevant_dimensions":["antennae","wings"],"bee_group":{"antennae":"B","wings":"2","pattern":"X","legs":"X"},"bonus":0.5200000000000015},{"rt":5539,"stimulus":"bees-with-color/bee-B1DF.svg","response":0,"trial_type":"image-button-response","trial_index":97,"time_elapsed":305552,"internal_node_id":"0.0-4.0-0.43","subject_id":"606268c44fa985d583676445","study_id":"6197b3f67c2b5cd3b6d9596a","session_id":"6197b79c2ba91913b72ab783","condition":"full-information","relevant_dimensions":["antennae","wings"],"bee_group":{"antennae":"B","wings":"2","pattern":"X","legs":"X"},"action":"harvest","summary":"good-harvest","bonus":0.5200000000000015},{"rt":562.5999999046326,"stimulus":"\n                    <p><b>Action: <em>harvest</em></b></p>\n                    <p>This is the bee that you just saw.</p>\n                    <img src=\"bees-with-color/bee-B1DF.svg\" width=\"200\">\n                    <p><span class=\"greenText\"><b>Successful harvest!</b></span><br>Your pay has increased by $0.02. Your bonus pay is now $0.40.</p>\n            ","response":0,"trial_type":"html-button-response","trial_index":98,"time_elapsed":306116,"internal_node_id":"0.0-4.0-1.43","subject_id":"606268c44fa985d583676445","study_id":"6197b3f67c2b5cd3b6d9596a","session_id":"6197b79c2ba91913b72ab783","condition":"full-information","relevant_dimensions":["antennae","wings"],"bee_group":{"antennae":"B","wings":"2","pattern":"X","legs":"X"},"bonus":0.5200000000000015},{"rt":1502.2000000476837,"stimulus":"bees-with-color/bee-B2SM.svg","response":0,"trial_type":"image-button-response","trial_index":99,"time_elapsed":307619,"internal_node_id":"0.0-4.0-0.44","subject_id":"606268c44fa985d583676445","study_id":"6197b3f67c2b5cd3b6d9596a","session_id":"6197b79c2ba91913b72ab783","condition":"full-information","relevant_dimensions":["antennae","wings"],"bee_group":{"antennae":"B","wings":"2","pattern":"X","legs":"X"},"action":"harvest","summary":"bad-harvest","bonus":0.5200000000000015},{"rt":542,"stimulus":"\n                    <p><b>Action: <em>harvest</em></b></p>\n                    <p>This is the bee that you just saw.</p>\n                    <img src=\"bees-with-color/bee-B2SM.svg\" width=\"200\">\n                    <p><span class=\"redText\">Bad choice, the bee was angry.</span><br><b>You have been stung!</b><br>Your pay has been decreased by $0.10. Your bonus pay is now $0.30.</p>\n            ","response":0,"trial_type":"html-button-response","trial_index":100,"time_elapsed":308162,"internal_node_id":"0.0-4.0-1.44","subject_id":"606268c44fa985d583676445","study_id":"6197b3f67c2b5cd3b6d9596a","session_id":"6197b79c2ba91913b72ab783","condition":"full-information","relevant_dimensions":["antennae","wings"],"bee_group":{"antennae":"B","wings":"2","pattern":"X","legs":"X"},"bonus":0.5200000000000015},{"rt":834,"stimulus":"bees-with-color/bee-A1DF.svg","response":0,"trial_type":"image-button-response","trial_index":101,"time_elapsed":308997,"internal_node_id":"0.0-4.0-0.45","subject_id":"606268c44fa985d583676445","study_id":"6197b3f67c2b5cd3b6d9596a","session_id":"6197b79c2ba91913b72ab783","condition":"full-information","relevant_dimensions":["antennae","wings"],"bee_group":{"antennae":"B","wings":"2","pattern":"X","legs":"X"},"action":"harvest","summary":"good-harvest","bonus":0.5200000000000015},{"rt":643.7000000476837,"stimulus":"\n                    <p><b>Action: <em>harvest</em></b></p>\n                    <p>This is the bee that you just saw.</p>\n                    <img src=\"bees-with-color/bee-A1DF.svg\" width=\"200\">\n                    <p><span class=\"greenText\"><b>Successful harvest!</b></span><br>Your pay has increased by $0.02. Your bonus pay is now $0.32.</p>\n            ","response":0,"trial_type":"html-button-response","trial_index":102,"time_elapsed":309642,"internal_node_id":"0.0-4.0-1.45","subject_id":"606268c44fa985d583676445","study_id":"6197b3f67c2b5cd3b6d9596a","session_id":"6197b79c2ba91913b72ab783","condition":"full-information","relevant_dimensions":["antennae","wings"],"bee_group":{"antennae":"B","wings":"2","pattern":"X","legs":"X"},"bonus":0.5200000000000015},{"rt":1373.5,"stimulus":"bees-with-color/bee-A2SF.svg","response":0,"trial_type":"image-button-response","trial_index":103,"time_elapsed":311016,"internal_node_id":"0.0-4.0-0.46","subject_id":"606268c44fa985d583676445","study_id":"6197b3f67c2b5cd3b6d9596a","session_id":"6197b79c2ba91913b72ab783","condition":"full-information","relevant_dimensions":["antennae","wings"],"bee_group":{"antennae":"B","wings":"2","pattern":"X","legs":"X"},"action":"harvest","summary":"good-harvest","bonus":0.5200000000000015},{"rt":490.2000000476837,"stimulus":"\n                    <p><b>Action: <em>harvest</em></b></p>\n                    <p>This is the bee that you just saw.</p>\n                    <img src=\"bees-with-color/bee-A2SF.svg\" width=\"200\">\n                    <p><span class=\"greenText\"><b>Successful harvest!</b></span><br>Your pay has increased by $0.02. Your bonus pay is now $0.34.</p>\n            ","response":0,"trial_type":"html-button-response","trial_index":104,"time_elapsed":311507,"internal_node_id":"0.0-4.0-1.46","subject_id":"606268c44fa985d583676445","study_id":"6197b3f67c2b5cd3b6d9596a","session_id":"6197b79c2ba91913b72ab783","condition":"full-information","relevant_dimensions":["antennae","wings"],"bee_group":{"antennae":"B","wings":"2","pattern":"X","legs":"X"},"bonus":0.5200000000000015},{"rt":1490.6999999284744,"stimulus":"bees-with-color/bee-B1DM.svg","response":0,"trial_type":"image-button-response","trial_index":105,"time_elapsed":312999,"internal_node_id":"0.0-4.0-0.47","subject_id":"606268c44fa985d583676445","study_id":"6197b3f67c2b5cd3b6d9596a","session_id":"6197b79c2ba91913b72ab783","condition":"full-information","relevant_dimensions":["antennae","wings"],"bee_group":{"antennae":"B","wings":"2","pattern":"X","legs":"X"},"action":"harvest","summary":"good-harvest","bonus":0.5200000000000015},{"rt":554.9000000953674,"stimulus":"\n                    <p><b>Action: <em>harvest</em></b></p>\n                    <p>This is the bee that you just saw.</p>\n                    <img src=\"bees-with-color/bee-B1DM.svg\" width=\"200\">\n                    <p><span class=\"greenText\"><b>Successful harvest!</b></span><br>Your pay has increased by $0.02. Your bonus pay is now $0.36.</p>\n            ","response":0,"trial_type":"html-button-response","trial_index":106,"time_elapsed":313555,"internal_node_id":"0.0-4.0-1.47","subject_id":"606268c44fa985d583676445","study_id":"6197b3f67c2b5cd3b6d9596a","session_id":"6197b79c2ba91913b72ab783","condition":"full-information","relevant_dimensions":["antennae","wings"],"bee_group":{"antennae":"B","wings":"2","pattern":"X","legs":"X"},"bonus":0.5200000000000015},{"rt":3462.0999999046326,"stimulus":"bees-with-color/bee-B2SM.svg","response":1,"trial_type":"image-button-response","trial_index":107,"time_elapsed":317018,"internal_node_id":"0.0-4.0-0.48","subject_id":"606268c44fa985d583676445","study_id":"6197b3f67c2b5cd3b6d9596a","session_id":"6197b79c2ba91913b72ab783","condition":"full-information","relevant_dimensions":["antennae","wings"],"bee_group":{"antennae":"B","wings":"2","pattern":"X","legs":"X"},"action":"avoid","summary":"good-avoid","bonus":0.5200000000000015},{"rt":774.5,"stimulus":"\n                    <p><b>Action: <em>avoid</em></b></p>\n                    <p>This is the bee that you just saw.</p>\n                    <img src=\"bees-with-color/bee-B2SM.svg\" width=\"200\">\n                    <p><span class=\"greenText\">Good choice!</span>  This bee would have stung you.<br>Your bonus pay is unchanged, and remains at $0.36.</p>\n            ","response":0,"trial_type":"html-button-response","trial_index":108,"time_elapsed":317794,"internal_node_id":"0.0-4.0-1.48","subject_id":"606268c44fa985d583676445","study_id":"6197b3f67c2b5cd3b6d9596a","session_id":"6197b79c2ba91913b72ab783","condition":"full-information","relevant_dimensions":["antennae","wings"],"bee_group":{"antennae":"B","wings":"2","pattern":"X","legs":"X"},"bonus":0.5200000000000015},{"rt":4381.200000047684,"stimulus":"bees-with-color/bee-B1DM.svg","response":0,"trial_type":"image-button-response","trial_index":109,"time_elapsed":322176,"internal_node_id":"0.0-4.0-0.49","subject_id":"606268c44fa985d583676445","study_id":"6197b3f67c2b5cd3b6d9596a","session_id":"6197b79c2ba91913b72ab783","condition":"full-information","relevant_dimensions":["antennae","wings"],"bee_group":{"antennae":"B","wings":"2","pattern":"X","legs":"X"},"action":"harvest","summary":"good-harvest","bonus":0.5200000000000015},{"rt":631.6999999284744,"stimulus":"\n                    <p><b>Action: <em>harvest</em></b></p>\n                    <p>This is the bee that you just saw.</p>\n                    <img src=\"bees-with-color/bee-B1DM.svg\" width=\"200\">\n                    <p><span class=\"greenText\"><b>Successful harvest!</b></span><br>Your pay has increased by $0.02. Your bonus pay is now $0.38.</p>\n            ","response":0,"trial_type":"html-button-response","trial_index":110,"time_elapsed":322809,"internal_node_id":"0.0-4.0-1.49","subject_id":"606268c44fa985d583676445","study_id":"6197b3f67c2b5cd3b6d9596a","session_id":"6197b79c2ba91913b72ab783","condition":"full-information","relevant_dimensions":["antennae","wings"],"bee_group":{"antennae":"B","wings":"2","pattern":"X","legs":"X"},"bonus":0.5200000000000015},{"rt":1902.6000000238419,"stimulus":"bees-with-color/bee-B2DF.svg","response":0,"trial_type":"image-button-response","trial_index":111,"time_elapsed":324713,"internal_node_id":"0.0-4.0-0.50","subject_id":"606268c44fa985d583676445","study_id":"6197b3f67c2b5cd3b6d9596a","session_id":"6197b79c2ba91913b72ab783","condition":"full-information","relevant_dimensions":["antennae","wings"],"bee_group":{"antennae":"B","wings":"2","pattern":"X","legs":"X"},"action":"harvest","summary":"bad-harvest","bonus":0.5200000000000015},{"rt":692.5,"stimulus":"\n                    <p><b>Action: <em>harvest</em></b></p>\n                    <p>This is the bee that you just saw.</p>\n                    <img src=\"bees-with-color/bee-B2DF.svg\" width=\"200\">\n                    <p><span class=\"redText\">Bad choice, the bee was angry.</span><br><b>You have been stung!</b><br>Your pay has been decreased by $0.10. Your bonus pay is now $0.28.</p>\n            ","response":0,"trial_type":"html-button-response","trial_index":112,"time_elapsed":325406,"internal_node_id":"0.0-4.0-1.50","subject_id":"606268c44fa985d583676445","study_id":"6197b3f67c2b5cd3b6d9596a","session_id":"6197b79c2ba91913b72ab783","condition":"full-information","relevant_dimensions":["antennae","wings"],"bee_group":{"antennae":"B","wings":"2","pattern":"X","legs":"X"},"bonus":0.5200000000000015},{"rt":1196.5,"stimulus":"bees-with-color/bee-A1SF.svg","response":0,"trial_type":"image-button-response","trial_index":113,"time_elapsed":326603,"internal_node_id":"0.0-4.0-0.51","subject_id":"606268c44fa985d583676445","study_id":"6197b3f67c2b5cd3b6d9596a","session_id":"6197b79c2ba91913b72ab783","condition":"full-information","relevant_dimensions":["antennae","wings"],"bee_group":{"antennae":"B","wings":"2","pattern":"X","legs":"X"},"action":"harvest","summary":"good-harvest","bonus":0.5200000000000015},{"rt":507.7000000476837,"stimulus":"\n                    <p><b>Action: <em>harvest</em></b></p>\n                    <p>This is the bee that you just saw.</p>\n                    <img src=\"bees-with-color/bee-A1SF.svg\" width=\"200\">\n                    <p><span class=\"greenText\"><b>Successful harvest!</b></span><br>Your pay has increased by $0.02. Your bonus pay is now $0.30.</p>\n            ","response":0,"trial_type":"html-button-response","trial_index":114,"time_elapsed":327112,"internal_node_id":"0.0-4.0-1.51","subject_id":"606268c44fa985d583676445","study_id":"6197b3f67c2b5cd3b6d9596a","session_id":"6197b79c2ba91913b72ab783","condition":"full-information","relevant_dimensions":["antennae","wings"],"bee_group":{"antennae":"B","wings":"2","pattern":"X","legs":"X"},"bonus":0.5200000000000015},{"rt":1432.8999999761581,"stimulus":"bees-with-color/bee-A2DF.svg","response":0,"trial_type":"image-button-response","trial_index":115,"time_elapsed":328546,"internal_node_id":"0.0-4.0-0.52","subject_id":"606268c44fa985d583676445","study_id":"6197b3f67c2b5cd3b6d9596a","session_id":"6197b79c2ba91913b72ab783","condition":"full-information","relevant_dimensions":["antennae","wings"],"bee_group":{"antennae":"B","wings":"2","pattern":"X","legs":"X"},"action":"harvest","summary":"good-harvest","bonus":0.5200000000000015},{"rt":646,"stimulus":"\n                    <p><b>Action: <em>harvest</em></b></p>\n                    <p>This is the bee that you just saw.</p>\n                    <img src=\"bees-with-color/bee-A2DF.svg\" width=\"200\">\n                    <p><span class=\"greenText\"><b>Successful harvest!</b></span><br>Your pay has increased by $0.02. Your bonus pay is now $0.32.</p>\n            ","response":0,"trial_type":"html-button-response","trial_index":116,"time_elapsed":329193,"internal_node_id":"0.0-4.0-1.52","subject_id":"606268c44fa985d583676445","study_id":"6197b3f67c2b5cd3b6d9596a","session_id":"6197b79c2ba91913b72ab783","condition":"full-information","relevant_dimensions":["antennae","wings"],"bee_group":{"antennae":"B","wings":"2","pattern":"X","legs":"X"},"bonus":0.5200000000000015},{"rt":1749.2000000476837,"stimulus":"bees-with-color/bee-A1DF.svg","response":0,"trial_type":"image-button-response","trial_index":117,"time_elapsed":330943,"internal_node_id":"0.0-4.0-0.53","subject_id":"606268c44fa985d583676445","study_id":"6197b3f67c2b5cd3b6d9596a","session_id":"6197b79c2ba91913b72ab783","condition":"full-information","relevant_dimensions":["antennae","wings"],"bee_group":{"antennae":"B","wings":"2","pattern":"X","legs":"X"},"action":"harvest","summary":"good-harvest","bonus":0.5200000000000015},{"rt":489.2000000476837,"stimulus":"\n                    <p><b>Action: <em>harvest</em></b></p>\n                    <p>This is the bee that you just saw.</p>\n                    <img src=\"bees-with-color/bee-A1DF.svg\" width=\"200\">\n                    <p><span class=\"greenText\"><b>Successful harvest!</b></span><br>Your pay has increased by $0.02. Your bonus pay is now $0.34.</p>\n            ","response":0,"trial_type":"html-button-response","trial_index":118,"time_elapsed":331433,"internal_node_id":"0.0-4.0-1.53","subject_id":"606268c44fa985d583676445","study_id":"6197b3f67c2b5cd3b6d9596a","session_id":"6197b79c2ba91913b72ab783","condition":"full-information","relevant_dimensions":["antennae","wings"],"bee_group":{"antennae":"B","wings":"2","pattern":"X","legs":"X"},"bonus":0.5200000000000015},{"rt":1540.8999999761581,"stimulus":"bees-with-color/bee-B1SM.svg","response":1,"trial_type":"image-button-response","trial_index":119,"time_elapsed":332975,"internal_node_id":"0.0-4.0-0.54","subject_id":"606268c44fa985d583676445","study_id":"6197b3f67c2b5cd3b6d9596a","session_id":"6197b79c2ba91913b72ab783","condition":"full-information","relevant_dimensions":["antennae","wings"],"bee_group":{"antennae":"B","wings":"2","pattern":"X","legs":"X"},"action":"avoid","summary":"bad-avoid","bonus":0.5200000000000015},{"rt":1759.6000000238419,"stimulus":"\n                    <p><b>Action: <em>avoid</em></b></p>\n                    <p>This is the bee that you just saw.</p>\n                    <img src=\"bees-with-color/bee-B1SM.svg\" width=\"200\">\n                    <p><span class=\"redText\">Bad choice,</span> the bee was friendly.<br>Your bonus pay is unchanged, and remains at $0.34.</p>\n            ","response":0,"trial_type":"html-button-response","trial_index":120,"time_elapsed":334736,"internal_node_id":"0.0-4.0-1.54","subject_id":"606268c44fa985d583676445","study_id":"6197b3f67c2b5cd3b6d9596a","session_id":"6197b79c2ba91913b72ab783","condition":"full-information","relevant_dimensions":["antennae","wings"],"bee_group":{"antennae":"B","wings":"2","pattern":"X","legs":"X"},"bonus":0.5200000000000015},{"rt":1298.7000000476837,"stimulus":"bees-with-color/bee-B1DF.svg","response":1,"trial_type":"image-button-response","trial_index":121,"time_elapsed":336036,"internal_node_id":"0.0-4.0-0.55","subject_id":"606268c44fa985d583676445","study_id":"6197b3f67c2b5cd3b6d9596a","session_id":"6197b79c2ba91913b72ab783","condition":"full-information","relevant_dimensions":["antennae","wings"],"bee_group":{"antennae":"B","wings":"2","pattern":"X","legs":"X"},"action":"avoid","summary":"bad-avoid","bonus":0.5200000000000015},{"rt":509.7999999523163,"stimulus":"\n                    <p><b>Action: <em>avoid</em></b></p>\n                    <p>This is the bee that you just saw.</p>\n                    <img src=\"bees-with-color/bee-B1DF.svg\" width=\"200\">\n                    <p><span class=\"redText\">Bad choice,</span> the bee was friendly.<br>Your bonus pay is unchanged, and remains at $0.34.</p>\n            ","response":0,"trial_type":"html-button-response","trial_index":122,"time_elapsed":336547,"internal_node_id":"0.0-4.0-1.55","subject_id":"606268c44fa985d583676445","study_id":"6197b3f67c2b5cd3b6d9596a","session_id":"6197b79c2ba91913b72ab783","condition":"full-information","relevant_dimensions":["antennae","wings"],"bee_group":{"antennae":"B","wings":"2","pattern":"X","legs":"X"},"bonus":0.5200000000000015},{"rt":858.8000000715256,"stimulus":"bees-with-color/bee-B1SF.svg","response":0,"trial_type":"image-button-response","trial_index":123,"time_elapsed":337407,"internal_node_id":"0.0-4.0-0.56","subject_id":"606268c44fa985d583676445","study_id":"6197b3f67c2b5cd3b6d9596a","session_id":"6197b79c2ba91913b72ab783","condition":"full-information","relevant_dimensions":["antennae","wings"],"bee_group":{"antennae":"B","wings":"2","pattern":"X","legs":"X"},"action":"harvest","summary":"good-harvest","bonus":0.5200000000000015},{"rt":1105,"stimulus":"\n                    <p><b>Action: <em>harvest</em></b></p>\n                    <p>This is the bee that you just saw.</p>\n                    <img src=\"bees-with-color/bee-B1SF.svg\" width=\"200\">\n                    <p><span class=\"greenText\"><b>Successful harvest!</b></span><br>Your pay has increased by $0.02. Your bonus pay is now $0.36.</p>\n            ","response":0,"trial_type":"html-button-response","trial_index":124,"time_elapsed":338513,"internal_node_id":"0.0-4.0-1.56","subject_id":"606268c44fa985d583676445","study_id":"6197b3f67c2b5cd3b6d9596a","session_id":"6197b79c2ba91913b72ab783","condition":"full-information","relevant_dimensions":["antennae","wings"],"bee_group":{"antennae":"B","wings":"2","pattern":"X","legs":"X"},"bonus":0.5200000000000015},{"rt":2276,"stimulus":"bees-with-color/bee-A1SM.svg","response":0,"trial_type":"image-button-response","trial_index":125,"time_elapsed":340790,"internal_node_id":"0.0-4.0-0.57","subject_id":"606268c44fa985d583676445","study_id":"6197b3f67c2b5cd3b6d9596a","session_id":"6197b79c2ba91913b72ab783","condition":"full-information","relevant_dimensions":["antennae","wings"],"bee_group":{"antennae":"B","wings":"2","pattern":"X","legs":"X"},"action":"harvest","summary":"good-harvest","bonus":0.5200000000000015},{"rt":755.1999999284744,"stimulus":"\n                    <p><b>Action: <em>harvest</em></b></p>\n                    <p>This is the bee that you just saw.</p>\n                    <img src=\"bees-with-color/bee-A1SM.svg\" width=\"200\">\n                    <p><span class=\"greenText\"><b>Successful harvest!</b></span><br>Your pay has increased by $0.02. Your bonus pay is now $0.38.</p>\n            ","response":0,"trial_type":"html-button-response","trial_index":126,"time_elapsed":341546,"internal_node_id":"0.0-4.0-1.57","subject_id":"606268c44fa985d583676445","study_id":"6197b3f67c2b5cd3b6d9596a","session_id":"6197b79c2ba91913b72ab783","condition":"full-information","relevant_dimensions":["antennae","wings"],"bee_group":{"antennae":"B","wings":"2","pattern":"X","legs":"X"},"bonus":0.5200000000000015},{"rt":1028.7999999523163,"stimulus":"bees-with-color/bee-A2SM.svg","response":0,"trial_type":"image-button-response","trial_index":127,"time_elapsed":342576,"internal_node_id":"0.0-4.0-0.58","subject_id":"606268c44fa985d583676445","study_id":"6197b3f67c2b5cd3b6d9596a","session_id":"6197b79c2ba91913b72ab783","condition":"full-information","relevant_dimensions":["antennae","wings"],"bee_group":{"antennae":"B","wings":"2","pattern":"X","legs":"X"},"action":"harvest","summary":"good-harvest","bonus":0.5200000000000015},{"rt":539.2999999523163,"stimulus":"\n                    <p><b>Action: <em>harvest</em></b></p>\n                    <p>This is the bee that you just saw.</p>\n                    <img src=\"bees-with-color/bee-A2SM.svg\" width=\"200\">\n                    <p><span class=\"greenText\"><b>Successful harvest!</b></span><br>Your pay has increased by $0.02. Your bonus pay is now $0.40.</p>\n            ","response":0,"trial_type":"html-button-response","trial_index":128,"time_elapsed":343116,"internal_node_id":"0.0-4.0-1.58","subject_id":"606268c44fa985d583676445","study_id":"6197b3f67c2b5cd3b6d9596a","session_id":"6197b79c2ba91913b72ab783","condition":"full-information","relevant_dimensions":["antennae","wings"],"bee_group":{"antennae":"B","wings":"2","pattern":"X","legs":"X"},"bonus":0.5200000000000015},{"rt":1252.1999999284744,"stimulus":"bees-with-color/bee-A2DM.svg","response":0,"trial_type":"image-button-response","trial_index":129,"time_elapsed":344369,"internal_node_id":"0.0-4.0-0.59","subject_id":"606268c44fa985d583676445","study_id":"6197b3f67c2b5cd3b6d9596a","session_id":"6197b79c2ba91913b72ab783","condition":"full-information","relevant_dimensions":["antennae","wings"],"bee_group":{"antennae":"B","wings":"2","pattern":"X","legs":"X"},"action":"harvest","summary":"good-harvest","bonus":0.5200000000000015},{"rt":597.1000000238419,"stimulus":"\n                    <p><b>Action: <em>harvest</em></b></p>\n                    <p>This is the bee that you just saw.</p>\n                    <img src=\"bees-with-color/bee-A2DM.svg\" width=\"200\">\n                    <p><span class=\"greenText\"><b>Successful harvest!</b></span><br>Your pay has increased by $0.02. Your bonus pay is now $0.42.</p>\n            ","response":0,"trial_type":"html-button-response","trial_index":130,"time_elapsed":344967,"internal_node_id":"0.0-4.0-1.59","subject_id":"606268c44fa985d583676445","study_id":"6197b3f67c2b5cd3b6d9596a","session_id":"6197b79c2ba91913b72ab783","condition":"full-information","relevant_dimensions":["antennae","wings"],"bee_group":{"antennae":"B","wings":"2","pattern":"X","legs":"X"},"bonus":0.5200000000000015},{"rt":4424,"stimulus":"bees-with-color/bee-B2SF.svg","response":1,"trial_type":"image-button-response","trial_index":131,"time_elapsed":349392,"internal_node_id":"0.0-4.0-0.60","subject_id":"606268c44fa985d583676445","study_id":"6197b3f67c2b5cd3b6d9596a","session_id":"6197b79c2ba91913b72ab783","condition":"full-information","relevant_dimensions":["antennae","wings"],"bee_group":{"antennae":"B","wings":"2","pattern":"X","legs":"X"},"action":"avoid","summary":"good-avoid","bonus":0.5200000000000015},{"rt":873.6000000238419,"stimulus":"\n                    <p><b>Action: <em>avoid</em></b></p>\n                    <p>This is the bee that you just saw.</p>\n                    <img src=\"bees-with-color/bee-B2SF.svg\" width=\"200\">\n                    <p><span class=\"greenText\">Good choice!</span>  This bee would have stung you.<br>Your bonus pay is unchanged, and remains at $0.42.</p>\n            ","response":0,"trial_type":"html-button-response","trial_index":132,"time_elapsed":350267,"internal_node_id":"0.0-4.0-1.60","subject_id":"606268c44fa985d583676445","study_id":"6197b3f67c2b5cd3b6d9596a","session_id":"6197b79c2ba91913b72ab783","condition":"full-information","relevant_dimensions":["antennae","wings"],"bee_group":{"antennae":"B","wings":"2","pattern":"X","legs":"X"},"bonus":0.5200000000000015},{"rt":936.8999999761581,"stimulus":"bees-with-color/bee-A1DM.svg","response":0,"trial_type":"image-button-response","trial_index":133,"time_elapsed":351205,"internal_node_id":"0.0-4.0-0.61","subject_id":"606268c44fa985d583676445","study_id":"6197b3f67c2b5cd3b6d9596a","session_id":"6197b79c2ba91913b72ab783","condition":"full-information","relevant_dimensions":["antennae","wings"],"bee_group":{"antennae":"B","wings":"2","pattern":"X","legs":"X"},"action":"harvest","summary":"good-harvest","bonus":0.5200000000000015},{"rt":520.4000000953674,"stimulus":"\n                    <p><b>Action: <em>harvest</em></b></p>\n                    <p>This is the bee that you just saw.</p>\n                    <img src=\"bees-with-color/bee-A1DM.svg\" width=\"200\">\n                    <p><span class=\"greenText\"><b>Successful harvest!</b></span><br>Your pay has increased by $0.02. Your bonus pay is now $0.44.</p>\n            ","response":0,"trial_type":"html-button-response","trial_index":134,"time_elapsed":351727,"internal_node_id":"0.0-4.0-1.61","subject_id":"606268c44fa985d583676445","study_id":"6197b3f67c2b5cd3b6d9596a","session_id":"6197b79c2ba91913b72ab783","condition":"full-information","relevant_dimensions":["antennae","wings"],"bee_group":{"antennae":"B","wings":"2","pattern":"X","legs":"X"},"bonus":0.5200000000000015},{"rt":1678.2999999523163,"stimulus":"bees-with-color/bee-B2DM.svg","response":1,"trial_type":"image-button-response","trial_index":135,"time_elapsed":353406,"internal_node_id":"0.0-4.0-0.62","subject_id":"606268c44fa985d583676445","study_id":"6197b3f67c2b5cd3b6d9596a","session_id":"6197b79c2ba91913b72ab783","condition":"full-information","relevant_dimensions":["antennae","wings"],"bee_group":{"antennae":"B","wings":"2","pattern":"X","legs":"X"},"action":"avoid","summary":"good-avoid","bonus":0.5200000000000015},{"rt":492.7999999523163,"stimulus":"\n                    <p><b>Action: <em>avoid</em></b></p>\n                    <p>This is the bee that you just saw.</p>\n                    <img src=\"bees-with-color/bee-B2DM.svg\" width=\"200\">\n                    <p><span class=\"greenText\">Good choice!</span>  This bee would have stung you.<br>Your bonus pay is unchanged, and remains at $0.44.</p>\n            ","response":0,"trial_type":"html-button-response","trial_index":136,"time_elapsed":353900,"internal_node_id":"0.0-4.0-1.62","subject_id":"606268c44fa985d583676445","study_id":"6197b3f67c2b5cd3b6d9596a","session_id":"6197b79c2ba91913b72ab783","condition":"full-information","relevant_dimensions":["antennae","wings"],"bee_group":{"antennae":"B","wings":"2","pattern":"X","legs":"X"},"bonus":0.5200000000000015},{"rt":1220.3000000715256,"stimulus":"bees-with-color/bee-A2SF.svg","response":0,"trial_type":"image-button-response","trial_index":137,"time_elapsed":355121,"internal_node_id":"0.0-4.0-0.63","subject_id":"606268c44fa985d583676445","study_id":"6197b3f67c2b5cd3b6d9596a","session_id":"6197b79c2ba91913b72ab783","condition":"full-information","relevant_dimensions":["antennae","wings"],"bee_group":{"antennae":"B","wings":"2","pattern":"X","legs":"X"},"action":"harvest","summary":"good-harvest","bonus":0.5200000000000015},{"rt":543.1000000238419,"stimulus":"\n                    <p><b>Action: <em>harvest</em></b></p>\n                    <p>This is the bee that you just saw.</p>\n                    <img src=\"bees-with-color/bee-A2SF.svg\" width=\"200\">\n                    <p><span class=\"greenText\"><b>Successful harvest!</b></span><br>Your pay has increased by $0.02. Your bonus pay is now $0.46.</p>\n            ","response":0,"trial_type":"html-button-response","trial_index":138,"time_elapsed":355665,"internal_node_id":"0.0-4.0-1.63","subject_id":"606268c44fa985d583676445","study_id":"6197b3f67c2b5cd3b6d9596a","session_id":"6197b79c2ba91913b72ab783","condition":"full-information","relevant_dimensions":["antennae","wings"],"bee_group":{"antennae":"B","wings":"2","pattern":"X","legs":"X"},"bonus":0.5200000000000015},{"rt":3395.9000000953674,"stimulus":"You have completed the first part of this experiment.<br><br>You will now begin a shorter second part, in which you will receive no feedback.<br>The same rules regarding bonus pay apply.<br><br>Press any key to begin.","response":"enter","trial_type":"html-keyboard-response","trial_index":139,"time_elapsed":359063,"internal_node_id":"0.0-5.0","subject_id":"606268c44fa985d583676445","study_id":"6197b3f67c2b5cd3b6d9596a","session_id":"6197b79c2ba91913b72ab783","condition":"full-information","relevant_dimensions":["antennae","wings"],"bee_group":{"antennae":"B","wings":"2","pattern":"X","legs":"X"},"bonus":0.5200000000000015},{"rt":1453.3999999761581,"stimulus":"bees-with-color/bee-A2SF.svg","response":0,"trial_type":"image-button-response","trial_index":140,"time_elapsed":360522,"internal_node_id":"0.0-6.0-0.0","subject_id":"606268c44fa985d583676445","study_id":"6197b3f67c2b5cd3b6d9596a","session_id":"6197b79c2ba91913b72ab783","condition":"full-information","relevant_dimensions":["antennae","wings"],"bee_group":{"antennae":"B","wings":"2","pattern":"X","legs":"X"},"bonus":0.5200000000000015},{"rt":2244.8000000715256,"stimulus":"bees-with-color/bee-B2SM.svg","response":1,"trial_type":"image-button-response","trial_index":141,"time_elapsed":362768,"internal_node_id":"0.0-6.0-0.1","subject_id":"606268c44fa985d583676445","study_id":"6197b3f67c2b5cd3b6d9596a","session_id":"6197b79c2ba91913b72ab783","condition":"full-information","relevant_dimensions":["antennae","wings"],"bee_group":{"antennae":"B","wings":"2","pattern":"X","legs":"X"},"bonus":0.5200000000000015},{"rt":4672.199999928474,"stimulus":"bees-with-color/bee-B1SM.svg","response":1,"trial_type":"image-button-response","trial_index":142,"time_elapsed":367442,"internal_node_id":"0.0-6.0-0.2","subject_id":"606268c44fa985d583676445","study_id":"6197b3f67c2b5cd3b6d9596a","session_id":"6197b79c2ba91913b72ab783","condition":"full-information","relevant_dimensions":["antennae","wings"],"bee_group":{"antennae":"B","wings":"2","pattern":"X","legs":"X"},"bonus":0.5200000000000015},{"rt":1964.1999999284744,"stimulus":"bees-with-color/bee-B2DF.svg","response":0,"trial_type":"image-button-response","trial_index":143,"time_elapsed":369408,"internal_node_id":"0.0-6.0-0.3","subject_id":"606268c44fa985d583676445","study_id":"6197b3f67c2b5cd3b6d9596a","session_id":"6197b79c2ba91913b72ab783","condition":"full-information","relevant_dimensions":["antennae","wings"],"bee_group":{"antennae":"B","wings":"2","pattern":"X","legs":"X"},"bonus":0.5200000000000015},{"rt":4613.699999928474,"stimulus":"bees-with-color/bee-B1SF.svg","response":1,"trial_type":"image-button-response","trial_index":144,"time_elapsed":374023,"internal_node_id":"0.0-6.0-0.4","subject_id":"606268c44fa985d583676445","study_id":"6197b3f67c2b5cd3b6d9596a","session_id":"6197b79c2ba91913b72ab783","condition":"full-information","relevant_dimensions":["antennae","wings"],"bee_group":{"antennae":"B","wings":"2","pattern":"X","legs":"X"},"bonus":0.5200000000000015},{"rt":788.2000000476837,"stimulus":"bees-with-color/bee-A1DF.svg","response":0,"trial_type":"image-button-response","trial_index":145,"time_elapsed":374813,"internal_node_id":"0.0-6.0-0.5","subject_id":"606268c44fa985d583676445","study_id":"6197b3f67c2b5cd3b6d9596a","session_id":"6197b79c2ba91913b72ab783","condition":"full-information","relevant_dimensions":["antennae","wings"],"bee_group":{"antennae":"B","wings":"2","pattern":"X","legs":"X"},"bonus":0.5200000000000015},{"rt":1225.8999999761581,"stimulus":"bees-with-color/bee-B1DF.svg","response":0,"trial_type":"image-button-response","trial_index":146,"time_elapsed":376040,"internal_node_id":"0.0-6.0-0.6","subject_id":"606268c44fa985d583676445","study_id":"6197b3f67c2b5cd3b6d9596a","session_id":"6197b79c2ba91913b72ab783","condition":"full-information","relevant_dimensions":["antennae","wings"],"bee_group":{"antennae":"B","wings":"2","pattern":"X","legs":"X"},"bonus":0.5200000000000015},{"rt":739.5999999046326,"stimulus":"bees-with-color/bee-A1DM.svg","response":0,"trial_type":"image-button-response","trial_index":147,"time_elapsed":376781,"internal_node_id":"0.0-6.0-0.7","subject_id":"606268c44fa985d583676445","study_id":"6197b3f67c2b5cd3b6d9596a","session_id":"6197b79c2ba91913b72ab783","condition":"full-information","relevant_dimensions":["antennae","wings"],"bee_group":{"antennae":"B","wings":"2","pattern":"X","legs":"X"},"bonus":0.5200000000000015},{"rt":548.8999999761581,"stimulus":"bees-with-color/bee-A1SM.svg","response":0,"trial_type":"image-button-response","trial_index":148,"time_elapsed":377332,"internal_node_id":"0.0-6.0-0.8","subject_id":"606268c44fa985d583676445","study_id":"6197b3f67c2b5cd3b6d9596a","session_id":"6197b79c2ba91913b72ab783","condition":"full-information","relevant_dimensions":["antennae","wings"],"bee_group":{"antennae":"B","wings":"2","pattern":"X","legs":"X"},"bonus":0.5200000000000015},{"rt":2457,"stimulus":"bees-with-color/bee-B2SF.svg","response":1,"trial_type":"image-button-response","trial_index":149,"time_elapsed":379790,"internal_node_id":"0.0-6.0-0.9","subject_id":"606268c44fa985d583676445","study_id":"6197b3f67c2b5cd3b6d9596a","session_id":"6197b79c2ba91913b72ab783","condition":"full-information","relevant_dimensions":["antennae","wings"],"bee_group":{"antennae":"B","wings":"2","pattern":"X","legs":"X"},"bonus":0.5200000000000015},{"rt":695.3000000715256,"stimulus":"bees-with-color/bee-A2SM.svg","response":0,"trial_type":"image-button-response","trial_index":150,"time_elapsed":380487,"internal_node_id":"0.0-6.0-0.10","subject_id":"606268c44fa985d583676445","study_id":"6197b3f67c2b5cd3b6d9596a","session_id":"6197b79c2ba91913b72ab783","condition":"full-information","relevant_dimensions":["antennae","wings"],"bee_group":{"antennae":"B","wings":"2","pattern":"X","legs":"X"},"bonus":0.5200000000000015},{"rt":3534.899999976158,"stimulus":"bees-with-color/bee-B2DM.svg","response":1,"trial_type":"image-button-response","trial_index":151,"time_elapsed":384023,"internal_node_id":"0.0-6.0-0.11","subject_id":"606268c44fa985d583676445","study_id":"6197b3f67c2b5cd3b6d9596a","session_id":"6197b79c2ba91913b72ab783","condition":"full-information","relevant_dimensions":["antennae","wings"],"bee_group":{"antennae":"B","wings":"2","pattern":"X","legs":"X"},"bonus":0.5200000000000015},{"rt":4760,"stimulus":"bees-with-color/bee-A2DM.svg","response":0,"trial_type":"image-button-response","trial_index":152,"time_elapsed":388785,"internal_node_id":"0.0-6.0-0.12","subject_id":"606268c44fa985d583676445","study_id":"6197b3f67c2b5cd3b6d9596a","session_id":"6197b79c2ba91913b72ab783","condition":"full-information","relevant_dimensions":["antennae","wings"],"bee_group":{"antennae":"B","wings":"2","pattern":"X","legs":"X"},"bonus":0.5200000000000015},{"rt":1052.3999999761581,"stimulus":"bees-with-color/bee-A1SF.svg","response":0,"trial_type":"image-button-response","trial_index":153,"time_elapsed":389839,"internal_node_id":"0.0-6.0-0.13","subject_id":"606268c44fa985d583676445","study_id":"6197b3f67c2b5cd3b6d9596a","session_id":"6197b79c2ba91913b72ab783","condition":"full-information","relevant_dimensions":["antennae","wings"],"bee_group":{"antennae":"B","wings":"2","pattern":"X","legs":"X"},"bonus":0.5200000000000015},{"rt":774