[{"success":true,"trial_type":"fullscreen","trial_index":0,"time_elapsed":1713125,"internal_node_id":"0.0-0.0","subject_id":"5e5d66f2101bf703d65326bc","study_id":"6197b3f67c2b5cd3b6d9596a","session_id":"619be31a6529b9e742167a2a","condition":"contingent","relevant_dimensions":["wings","pattern"],"bee_group":{"antennae":"X","wings":"2","pattern":"D","legs":"X"},"bonus":1.3800000000000014},{"success":true,"timeout":false,"failed_images":[],"failed_audio":[],"failed_video":[],"trial_type":"preload","trial_index":1,"time_elapsed":1716393,"internal_node_id":"0.0-1.0","subject_id":"5e5d66f2101bf703d65326bc","study_id":"6197b3f67c2b5cd3b6d9596a","session_id":"619be31a6529b9e742167a2a","condition":"contingent","relevant_dimensions":["wings","pattern"],"bee_group":{"antennae":"X","wings":"2","pattern":"D","legs":"X"},"bonus":1.3800000000000014},{"rt":2187.5,"stimulus":"Welcome! Press any key to begin.","response":" ","trial_type":"html-keyboard-response","trial_index":2,"time_elapsed":1718582,"internal_node_id":"0.0-2.0","subject_id":"5e5d66f2101bf703d65326bc","study_id":"6197b3f67c2b5cd3b6d9596a","session_id":"619be31a6529b9e742167a2a","condition":"contingent","relevant_dimensions":["wings","pattern"],"bee_group":{"antennae":"X","wings":"2","pattern":"D","legs":"X"},"bonus":1.3800000000000014},{"view_history":[{"page_index":0,"viewing_time":7876.099999904633},{"page_index":1,"viewing_time":37723.800000190735},{"page_index":2,"viewing_time":24026.89999985695},{"page_index":3,"viewing_time":29674.10000014305},{"page_index":4,"viewing_time":8189.799999952316},{"page_index":5,"viewing_time":6979.200000047684},{"page_index":6,"viewing_time":18777},{"page_index":7,"viewing_time":13398},{"page_index":8,"viewing_time":5685},{"page_index":9,"viewing_time":7622},{"page_index":10,"viewing_time":7593},{"page_index":11,"viewing_time":17133.099999904633},{"page_index":12,"viewing_time":10132.900000095367},{"page_index":13,"viewing_time":1732},{"page_index":14,"viewing_time":2337}],"rt":198880.59999990463,"trial_type":"instructions","trial_index":3,"time_elapsed":1917463,"internal_node_id":"0.0-3.0-0.0","subject_id":"5e5d66f2101bf703d65326bc","study_id":"6197b3f67c2b5cd3b6d9596a","session_id":"619be31a6529b9e742167a2a","condition":"contingent","relevant_dimensions":["wings","pattern"],"bee_group":{"antennae":"X","wings":"2","pattern":"D","legs":"X"},"bonus":1.3800000000000014},{"rt":36225.300000190735,"response":{"Q0":["Two or six legs","Stripes or spots on body","Single or double wings","Antennae or no antennae"]},"question_order":[0],"trial_type":"survey-multi-select","trial_index":4,"time_elapsed":1953692,"internal_node_id":"0.0-3.0-1.0","subject_id":"5e5d66f2101bf703d65326bc","study_id":"6197b3f67c2b5cd3b6d9596a","session_id":"619be31a6529b9e742167a2a","condition":"contingent","relevant_dimensions":["wings","pattern"],"bee_group":{"antennae":"X","wings":"2","pattern":"D","legs":"X"},"correct":true,"bonus":1.3800000000000014},{"rt":39884.299999952316,"response":{"Q1":"No.","Q2":"Based on the four features of the bee.","Q3":"You do not learn if it was friendly or dangerous, and do not alter your bonus."},"question_order":[0,1,2],"trial_type":"survey-multi-choice","trial_index":5,"time_elapsed":1993580,"internal_node_id":"0.0-3.0-2.0","subject_id":"5e5d66f2101bf703d65326bc","study_id":"6197b3f67c2b5cd3b6d9596a","session_id":"619be31a6529b9e742167a2a","condition":"contingent","relevant_dimensions":["wings","pattern"],"bee_group":{"antennae":"X","wings":"2","pattern":"D","legs":"X"},"correct":true,"bonus":1.3800000000000014},{"rt":3526.399999856949,"stimulus":"<p>Congrats, you got everything right<br>When you're ready, click the button below to continue to the experiment.</p>","response":0,"trial_type":"html-button-response","trial_index":6,"time_elapsed":1997110,"internal_node_id":"0.0-3.0-3.0","subject_id":"5e5d66f2101bf703d65326bc","study_id":"6197b3f67c2b5cd3b6d9596a","session_id":"619be31a6529b9e742167a2a","condition":"contingent","relevant_dimensions":["wings","pattern"],"bee_group":{"antennae":"X","wings":"2","pattern":"D","legs":"X"},"bonus":1.3800000000000014},{"rt":18925,"stimulus":"bees-with-color/bee-B2DM.svg","response":0,"trial_type":"image-button-response","trial_index":7,"time_elapsed":2016037,"internal_node_id":"0.0-4.0-0.0","subject_id":"5e5d66f2101bf703d65326bc","study_id":"6197b3f67c2b5cd3b6d9596a","session_id":"619be31a6529b9e742167a2a","condition":"contingent","relevant_dimensions":["wings","pattern"],"bee_group":{"antennae":"X","wings":"2","pattern":"D","legs":"X"},"action":"harvest","summary":"bad-harvest","bonus":1.3800000000000014},{"rt":5053,"stimulus":"\n                    <p><b>Action: <em>harvest</em></b></p>\n                    <p>This is the bee that you just saw.</p>\n                    <img src=\"bees-with-color/bee-B2DM.svg\" width=\"200\">\n                    <p><span class=\"redText\">Bad choice, the bee was angry.</span><br><b>You have been stung!</b><br>Your pay has been decreased by $0.10. Your bonus pay is now $0.44.</p>\n            ","response":0,"trial_type":"html-button-response","trial_index":8,"time_elapsed":2021107,"internal_node_id":"0.0-4.0-1.0","subject_id":"5e5d66f2101bf703d65326bc","study_id":"6197b3f67c2b5cd3b6d9596a","session_id":"619be31a6529b9e742167a2a","condition":"contingent","relevant_dimensions":["wings","pattern"],"bee_group":{"antennae":"X","wings":"2","pattern":"D","legs":"X"},"bonus":1.3800000000000014},{"rt":3649.300000190735,"stimulus":"bees-with-color/bee-B2SF.svg","response":0,"trial_type":"image-button-response","trial_index":9,"time_elapsed":2024758,"internal_node_id":"0.0-4.0-0.1","subject_id":"5e5d66f2101bf703d65326bc","study_id":"6197b3f67c2b5cd3b6d9596a","session_id":"619be31a6529b9e742167a2a","condition":"contingent","relevant_dimensions":["wings","pattern"],"bee_group":{"antennae":"X","wings":"2","pattern":"D","legs":"X"},"action":"harvest","summary":"good-harvest","bonus":1.3800000000000014},{"rt":13938.799999952316,"stimulus":"\n                    <p><b>Action: <em>harvest</em></b></p>\n                    <p>This is the bee that you just saw.</p>\n                    <img src=\"bees-with-color/bee-B2SF.svg\" width=\"200\">\n                    <p><span class=\"greenText\"><b>Successful harvest!</b></span><br>Your pay has increased by $0.02. Your bonus pay is now $0.46.</p>\n            ","response":0,"trial_type":"html-button-response","trial_index":10,"time_elapsed":2038698,"internal_node_id":"0.0-4.0-1.1","subject_id":"5e5d66f2101bf703d65326bc","study_id":"6197b3f67c2b5cd3b6d9596a","session_id":"619be31a6529b9e742167a2a","condition":"contingent","relevant_dimensions":["wings","pattern"],"bee_group":{"antennae":"X","wings":"2","pattern":"D","legs":"X"},"bonus":1.3800000000000014},{"rt":8313.300000190735,"stimulus":"bees-with-color/bee-B1DM.svg","response":0,"trial_type":"image-button-response","trial_index":11,"time_elapsed":2047013,"internal_node_id":"0.0-4.0-0.2","subject_id":"5e5d66f2101bf703d65326bc","study_id":"6197b3f67c2b5cd3b6d9596a","session_id":"619be31a6529b9e742167a2a","condition":"contingent","relevant_dimensions":["wings","pattern"],"bee_group":{"antennae":"X","wings":"2","pattern":"D","legs":"X"},"action":"harvest","summary":"good-harvest","bonus":1.3800000000000014},{"rt":20069.400000095367,"stimulus":"\n                    <p><b>Action: <em>harvest</em></b></p>\n                    <p>This is the bee that you just saw.</p>\n                    <img src=\"bees-with-color/bee-B1DM.svg\" width=\"200\">\n                    <p><span class=\"greenText\"><b>Successful harvest!</b></span><br>Your pay has increased by $0.02. Your bonus pay is now $0.48.</p>\n            ","response":0,"trial_type":"html-button-response","trial_index":12,"time_elapsed":2067084,"internal_node_id":"0.0-4.0-1.2","subject_id":"5e5d66f2101bf703d65326bc","study_id":"6197b3f67c2b5cd3b6d9596a","session_id":"619be31a6529b9e742167a2a","condition":"contingent","relevant_dimensions":["wings","pattern"],"bee_group":{"antennae":"X","wings":"2","pattern":"D","legs":"X"},"bonus":1.3800000000000014},{"rt":3745.699999809265,"stimulus":"bees-with-color/bee-A2DM.svg","response":0,"trial_type":"image-button-response","trial_index":13,"time_elapsed":2070831,"internal_node_id":"0.0-4.0-0.3","subject_id":"5e5d66f2101bf703d65326bc","study_id":"6197b3f67c2b5cd3b6d9596a","session_id":"619be31a6529b9e742167a2a","condition":"contingent","relevant_dimensions":["wings","pattern"],"bee_group":{"antennae":"X","wings":"2","pattern":"D","legs":"X"},"action":"harvest","summary":"bad-harvest","bonus":1.3800000000000014},{"rt":4332.400000095367,"stimulus":"\n                    <p><b>Action: <em>harvest</em></b></p>\n                    <p>This is the bee that you just saw.</p>\n                    <img src=\"bees-with-color/bee-A2DM.svg\" width=\"200\">\n                    <p><span class=\"redText\">Bad choice, the bee was angry.</span><br><b>You have been stung!</b><br>Your pay has been decreased by $0.10. Your bonus pay is now $0.38.</p>\n            ","response":0,"trial_type":"html-button-response","trial_index":14,"time_elapsed":2075165,"internal_node_id":"0.0-4.0-1.3","subject_id":"5e5d66f2101bf703d65326bc","study_id":"6197b3f67c2b5cd3b6d9596a","session_id":"619be31a6529b9e742167a2a","condition":"contingent","relevant_dimensions":["wings","pattern"],"bee_group":{"antennae":"X","wings":"2","pattern":"D","legs":"X"},"bonus":1.3800000000000014},{"rt":1320.8000001907349,"stimulus":"bees-with-color/bee-A2SF.svg","response":0,"trial_type":"image-button-response","trial_index":15,"time_elapsed":2076487,"internal_node_id":"0.0-4.0-0.4","subject_id":"5e5d66f2101bf703d65326bc","study_id":"6197b3f67c2b5cd3b6d9596a","session_id":"619be31a6529b9e742167a2a","condition":"contingent","relevant_dimensions":["wings","pattern"],"bee_group":{"antennae":"X","wings":"2","pattern":"D","legs":"X"},"action":"harvest","summary":"good-harvest","bonus":1.3800000000000014},{"rt":1363.7000000476837,"stimulus":"\n                    <p><b>Action: <em>harvest</em></b></p>\n                    <p>This is the bee that you just saw.</p>\n                    <img src=\"bees-with-color/bee-A2SF.svg\" width=\"200\">\n                    <p><span class=\"greenText\"><b>Successful harvest!</b></span><br>Your pay has increased by $0.02. Your bonus pay is now $0.40.</p>\n            ","response":0,"trial_type":"html-button-response","trial_index":16,"time_elapsed":2077852,"internal_node_id":"0.0-4.0-1.4","subject_id":"5e5d66f2101bf703d65326bc","study_id":"6197b3f67c2b5cd3b6d9596a","session_id":"619be31a6529b9e742167a2a","condition":"contingent","relevant_dimensions":["wings","pattern"],"bee_group":{"antennae":"X","wings":"2","pattern":"D","legs":"X"},"bonus":1.3800000000000014},{"rt":1769.9000000953674,"stimulus":"bees-with-color/bee-A2SM.svg","response":0,"trial_type":"image-button-response","trial_index":17,"time_elapsed":2079623,"internal_node_id":"0.0-4.0-0.5","subject_id":"5e5d66f2101bf703d65326bc","study_id":"6197b3f67c2b5cd3b6d9596a","session_id":"619be31a6529b9e742167a2a","condition":"contingent","relevant_dimensions":["wings","pattern"],"bee_group":{"antennae":"X","wings":"2","pattern":"D","legs":"X"},"action":"harvest","summary":"good-harvest","bonus":1.3800000000000014},{"rt":1280.5,"stimulus":"\n                    <p><b>Action: <em>harvest</em></b></p>\n                    <p>This is the bee that you just saw.</p>\n                    <img src=\"bees-with-color/bee-A2SM.svg\" width=\"200\">\n                    <p><span class=\"greenText\"><b>Successful harvest!</b></span><br>Your pay has increased by $0.02. Your bonus pay is now $0.42.</p>\n            ","response":0,"trial_type":"html-button-response","trial_index":18,"time_elapsed":2080905,"internal_node_id":"0.0-4.0-1.5","subject_id":"5e5d66f2101bf703d65326bc","study_id":"6197b3f67c2b5cd3b6d9596a","session_id":"619be31a6529b9e742167a2a","condition":"contingent","relevant_dimensions":["wings","pattern"],"bee_group":{"antennae":"X","wings":"2","pattern":"D","legs":"X"},"bonus":1.3800000000000014},{"rt":999.8000001907349,"stimulus":"bees-with-color/bee-A1SF.svg","response":0,"trial_type":"image-button-response","trial_index":19,"time_elapsed":2081906,"internal_node_id":"0.0-4.0-0.6","subject_id":"5e5d66f2101bf703d65326bc","study_id":"6197b3f67c2b5cd3b6d9596a","session_id":"619be31a6529b9e742167a2a","condition":"contingent","relevant_dimensions":["wings","pattern"],"bee_group":{"antennae":"X","wings":"2","pattern":"D","legs":"X"},"action":"harvest","summary":"good-harvest","bonus":1.3800000000000014},{"rt":1152.9000000953674,"stimulus":"\n                    <p><b>Action: <em>harvest</em></b></p>\n                    <p>This is the bee that you just saw.</p>\n                    <img src=\"bees-with-color/bee-A1SF.svg\" width=\"200\">\n                    <p><span class=\"greenText\"><b>Successful harvest!</b></span><br>Your pay has increased by $0.02. Your bonus pay is now $0.44.</p>\n            ","response":0,"trial_type":"html-button-response","trial_index":20,"time_elapsed":2083060,"internal_node_id":"0.0-4.0-1.6","subject_id":"5e5d66f2101bf703d65326bc","study_id":"6197b3f67c2b5cd3b6d9596a","session_id":"619be31a6529b9e742167a2a","condition":"contingent","relevant_dimensions":["wings","pattern"],"bee_group":{"antennae":"X","wings":"2","pattern":"D","legs":"X"},"bonus":1.3800000000000014},{"rt":1353.7999999523163,"stimulus":"bees-with-color/bee-A1DF.svg","response":0,"trial_type":"image-button-response","trial_index":21,"time_elapsed":2084415,"internal_node_id":"0.0-4.0-0.7","subject_id":"5e5d66f2101bf703d65326bc","study_id":"6197b3f67c2b5cd3b6d9596a","session_id":"619be31a6529b9e742167a2a","condition":"contingent","relevant_dimensions":["wings","pattern"],"bee_group":{"antennae":"X","wings":"2","pattern":"D","legs":"X"},"action":"harvest","summary":"good-harvest","bonus":1.3800000000000014},{"rt":2214.0999999046326,"stimulus":"\n                    <p><b>Action: <em>harvest</em></b></p>\n                    <p>This is the bee that you just saw.</p>\n                    <img src=\"bees-with-color/bee-A1DF.svg\" width=\"200\">\n                    <p><span class=\"greenText\"><b>Successful harvest!</b></span><br>Your pay has increased by $0.02. Your bonus pay is now $0.46.</p>\n            ","response":0,"trial_type":"html-button-response","trial_index":22,"time_elapsed":2086630,"internal_node_id":"0.0-4.0-1.7","subject_id":"5e5d66f2101bf703d65326bc","study_id":"6197b3f67c2b5cd3b6d9596a","session_id":"619be31a6529b9e742167a2a","condition":"contingent","relevant_dimensions":["wings","pattern"],"bee_group":{"antennae":"X","wings":"2","pattern":"D","legs":"X"},"bonus":1.3800000000000014},{"rt":1200,"stimulus":"bees-with-color/bee-B1SM.svg","response":0,"trial_type":"image-button-response","trial_index":23,"time_elapsed":2087832,"internal_node_id":"0.0-4.0-0.8","subject_id":"5e5d66f2101bf703d65326bc","study_id":"6197b3f67c2b5cd3b6d9596a","session_id":"619be31a6529b9e742167a2a","condition":"contingent","relevant_dimensions":["wings","pattern"],"bee_group":{"antennae":"X","wings":"2","pattern":"D","legs":"X"},"action":"harvest","summary":"good-harvest","bonus":1.3800000000000014},{"rt":965.7000000476837,"stimulus":"\n                    <p><b>Action: <em>harvest</em></b></p>\n                    <p>This is the bee that you just saw.</p>\n                    <img src=\"bees-with-color/bee-B1SM.svg\" width=\"200\">\n                    <p><span class=\"greenText\"><b>Successful harvest!</b></span><br>Your pay has increased by $0.02. Your bonus pay is now $0.48.</p>\n            ","response":0,"trial_type":"html-button-response","trial_index":24,"time_elapsed":2088799,"internal_node_id":"0.0-4.0-1.8","subject_id":"5e5d66f2101bf703d65326bc","study_id":"6197b3f67c2b5cd3b6d9596a","session_id":"619be31a6529b9e742167a2a","condition":"contingent","relevant_dimensions":["wings","pattern"],"bee_group":{"antennae":"X","wings":"2","pattern":"D","legs":"X"},"bonus":1.3800000000000014},{"rt":911.7999999523163,"stimulus":"bees-with-color/bee-B1SF.svg","response":0,"trial_type":"image-button-response","trial_index":25,"time_elapsed":2089712,"internal_node_id":"0.0-4.0-0.9","subject_id":"5e5d66f2101bf703d65326bc","study_id":"6197b3f67c2b5cd3b6d9596a","session_id":"619be31a6529b9e742167a2a","condition":"contingent","relevant_dimensions":["wings","pattern"],"bee_group":{"antennae":"X","wings":"2","pattern":"D","legs":"X"},"action":"harvest","summary":"good-harvest","bonus":1.3800000000000014},{"rt":964.5,"stimulus":"\n                    <p><b>Action: <em>harvest</em></b></p>\n                    <p>This is the bee that you just saw.</p>\n                    <img src=\"bees-with-color/bee-B1SF.svg\" width=\"200\">\n                    <p><span class=\"greenText\"><b>Successful harvest!</b></span><br>Your pay has increased by $0.02. Your bonus pay is now $0.50.</p>\n            ","response":0,"trial_type":"html-button-response","trial_index":26,"time_elapsed":2090678,"internal_node_id":"0.0-4.0-1.9","subject_id":"5e5d66f2101bf703d65326bc","study_id":"6197b3f67c2b5cd3b6d9596a","session_id":"619be31a6529b9e742167a2a","condition":"contingent","relevant_dimensions":["wings","pattern"],"bee_group":{"antennae":"X","wings":"2","pattern":"D","legs":"X"},"bonus":1.3800000000000014},{"rt":13986.799999952316,"stimulus":"bees-with-color/bee-A2DF.svg","response":0,"trial_type":"image-button-response","trial_index":27,"time_elapsed":2104666,"internal_node_id":"0.0-4.0-0.10","subject_id":"5e5d66f2101bf703d65326bc","study_id":"6197b3f67c2b5cd3b6d9596a","session_id":"619be31a6529b9e742167a2a","condition":"contingent","relevant_dimensions":["wings","pattern"],"bee_group":{"antennae":"X","wings":"2","pattern":"D","legs":"X"},"action":"harvest","summary":"bad-harvest","bonus":1.3800000000000014},{"rt":7909.900000095367,"stimulus":"\n                    <p><b>Action: <em>harvest</em></b></p>\n                    <p>This is the bee that you just saw.</p>\n                    <img src=\"bees-with-color/bee-A2DF.svg\" width=\"200\">\n                    <p><span class=\"redText\">Bad choice, the bee was angry.</span><br><b>You have been stung!</b><br>Your pay has been decreased by $0.10. Your bonus pay is now $0.40.</p>\n            ","response":0,"trial_type":"html-button-response","trial_index":28,"time_elapsed":2112577,"internal_node_id":"0.0-4.0-1.10","subject_id":"5e5d66f2101bf703d65326bc","study_id":"6197b3f67c2b5cd3b6d9596a","session_id":"619be31a6529b9e742167a2a","condition":"contingent","relevant_dimensions":["wings","pattern"],"bee_group":{"antennae":"X","wings":"2","pattern":"D","legs":"X"},"bonus":1.3800000000000014},{"rt":1463.6000001430511,"stimulus":"bees-with-color/bee-A1SM.svg","response":0,"trial_type":"image-button-response","trial_index":29,"time_elapsed":2114042,"internal_node_id":"0.0-4.0-0.11","subject_id":"5e5d66f2101bf703d65326bc","study_id":"6197b3f67c2b5cd3b6d9596a","session_id":"619be31a6529b9e742167a2a","condition":"contingent","relevant_dimensions":["wings","pattern"],"bee_group":{"antennae":"X","wings":"2","pattern":"D","legs":"X"},"action":"harvest","summary":"good-harvest","bonus":1.3800000000000014},{"rt":984.7999999523163,"stimulus":"\n                    <p><b>Action: <em>harvest</em></b></p>\n                    <p>This is the bee that you just saw.</p>\n                    <img src=\"bees-with-color/bee-A1SM.svg\" width=\"200\">\n                    <p><span class=\"greenText\"><b>Successful harvest!</b></span><br>Your pay has increased by $0.02. Your bonus pay is now $0.42.</p>\n            ","response":0,"trial_type":"html-button-response","trial_index":30,"time_elapsed":2115028,"internal_node_id":"0.0-4.0-1.11","subject_id":"5e5d66f2101bf703d65326bc","study_id":"6197b3f67c2b5cd3b6d9596a","session_id":"619be31a6529b9e742167a2a","condition":"contingent","relevant_dimensions":["wings","pattern"],"bee_group":{"antennae":"X","wings":"2","pattern":"D","legs":"X"},"bonus":1.3800000000000014},{"rt":1964,"stimulus":"bees-with-color/bee-B1DF.svg","response":0,"trial_type":"image-button-response","trial_index":31,"time_elapsed":2116993,"internal_node_id":"0.0-4.0-0.12","subject_id":"5e5d66f2101bf703d65326bc","study_id":"6197b3f67c2b5cd3b6d9596a","session_id":"619be31a6529b9e742167a2a","condition":"contingent","relevant_dimensions":["wings","pattern"],"bee_group":{"antennae":"X","wings":"2","pattern":"D","legs":"X"},"action":"harvest","summary":"good-harvest","bonus":1.3800000000000014},{"rt":2139.800000190735,"stimulus":"\n                    <p><b>Action: <em>harvest</em></b></p>\n                    <p>This is the bee that you just saw.</p>\n                    <img src=\"bees-with-color/bee-B1DF.svg\" width=\"200\">\n                    <p><span class=\"greenText\"><b>Successful harvest!</b></span><br>Your pay has increased by $0.02. Your bonus pay is now $0.44.</p>\n            ","response":0,"trial_type":"html-button-response","trial_index":32,"time_elapsed":2119134,"internal_node_id":"0.0-4.0-1.12","subject_id":"5e5d66f2101bf703d65326bc","study_id":"6197b3f67c2b5cd3b6d9596a","session_id":"619be31a6529b9e742167a2a","condition":"contingent","relevant_dimensions":["wings","pattern"],"bee_group":{"antennae":"X","wings":"2","pattern":"D","legs":"X"},"bonus":1.3800000000000014},{"rt":3152.7000000476837,"stimulus":"bees-with-color/bee-B2DF.svg","response":0,"trial_type":"image-button-response","trial_index":33,"time_elapsed":2122288,"internal_node_id":"0.0-4.0-0.13","subject_id":"5e5d66f2101bf703d65326bc","study_id":"6197b3f67c2b5cd3b6d9596a","session_id":"619be31a6529b9e742167a2a","condition":"contingent","relevant_dimensions":["wings","pattern"],"bee_group":{"antennae":"X","wings":"2","pattern":"D","legs":"X"},"action":"harvest","summary":"bad-harvest","bonus":1.3800000000000014},{"rt":11726.900000095367,"stimulus":"\n                    <p><b>Action: <em>harvest</em></b></p>\n                    <p>This is the bee that you just saw.</p>\n                    <img src=\"bees-with-color/bee-B2DF.svg\" width=\"200\">\n                    <p><span class=\"redText\">Bad choice, the bee was angry.</span><br><b>You have been stung!</b><br>Your pay has been decreased by $0.10. Your bonus pay is now $0.34.</p>\n            ","response":0,"trial_type":"html-button-response","trial_index":34,"time_elapsed":2134016,"internal_node_id":"0.0-4.0-1.13","subject_id":"5e5d66f2101bf703d65326bc","study_id":"6197b3f67c2b5cd3b6d9596a","session_id":"619be31a6529b9e742167a2a","condition":"contingent","relevant_dimensions":["wings","pattern"],"bee_group":{"antennae":"X","wings":"2","pattern":"D","legs":"X"},"bonus":1.3800000000000014},{"rt":1723.5,"stimulus":"bees-with-color/bee-B2SM.svg","response":0,"trial_type":"image-button-response","trial_index":35,"time_elapsed":2135741,"internal_node_id":"0.0-4.0-0.14","subject_id":"5e5d66f2101bf703d65326bc","study_id":"6197b3f67c2b5cd3b6d9596a","session_id":"619be31a6529b9e742167a2a","condition":"contingent","relevant_dimensions":["wings","pattern"],"bee_group":{"antennae":"X","wings":"2","pattern":"D","legs":"X"},"action":"harvest","summary":"good-harvest","bonus":1.3800000000000014},{"rt":1009.7000000476837,"stimulus":"\n                    <p><b>Action: <em>harvest</em></b></p>\n                    <p>This is the bee that you just saw.</p>\n                    <img src=\"bees-with-color/bee-B2SM.svg\" width=\"200\">\n                    <p><span class=\"greenText\"><b>Successful harvest!</b></span><br>Your pay has increased by $0.02. Your bonus pay is now $0.36.</p>\n            ","response":0,"trial_type":"html-button-response","trial_index":36,"time_elapsed":2136752,"internal_node_id":"0.0-4.0-1.14","subject_id":"5e5d66f2101bf703d65326bc","study_id":"6197b3f67c2b5cd3b6d9596a","session_id":"619be31a6529b9e742167a2a","condition":"contingent","relevant_dimensions":["wings","pattern"],"bee_group":{"antennae":"X","wings":"2","pattern":"D","legs":"X"},"bonus":1.3800000000000014},{"rt":3004,"stimulus":"bees-with-color/bee-A1DM.svg","response":0,"trial_type":"image-button-response","trial_index":37,"time_elapsed":2139757,"internal_node_id":"0.0-4.0-0.15","subject_id":"5e5d66f2101bf703d65326bc","study_id":"6197b3f67c2b5cd3b6d9596a","session_id":"619be31a6529b9e742167a2a","condition":"contingent","relevant_dimensions":["wings","pattern"],"bee_group":{"antennae":"X","wings":"2","pattern":"D","legs":"X"},"action":"harvest","summary":"good-harvest","bonus":1.3800000000000014},{"rt":1695.8000001907349,"stimulus":"\n                    <p><b>Action: <em>harvest</em></b></p>\n                    <p>This is the bee that you just saw.</p>\n                    <img src=\"bees-with-color/bee-A1DM.svg\" width=\"200\">\n                    <p><span class=\"greenText\"><b>Successful harvest!</b></span><br>Your pay has increased by $0.02. Your bonus pay is now $0.38.</p>\n            ","response":0,"trial_type":"html-button-response","trial_index":38,"time_elapsed":2141454,"internal_node_id":"0.0-4.0-1.15","subject_id":"5e5d66f2101bf703d65326bc","study_id":"6197b3f67c2b5cd3b6d9596a","session_id":"619be31a6529b9e742167a2a","condition":"contingent","relevant_dimensions":["wings","pattern"],"bee_group":{"antennae":"X","wings":"2","pattern":"D","legs":"X"},"bonus":1.3800000000000014},{"rt":1871.7000000476837,"stimulus":"bees-with-color/bee-A1DM.svg","response":0,"trial_type":"image-button-response","trial_index":39,"time_elapsed":2143327,"internal_node_id":"0.0-4.0-0.16","subject_id":"5e5d66f2101bf703d65326bc","study_id":"6197b3f67c2b5cd3b6d9596a","session_id":"619be31a6529b9e742167a2a","condition":"contingent","relevant_dimensions":["wings","pattern"],"bee_group":{"antennae":"X","wings":"2","pattern":"D","legs":"X"},"action":"harvest","summary":"good-harvest","bonus":1.3800000000000014},{"rt":841.7000000476837,"stimulus":"\n                    <p><b>Action: <em>harvest</em></b></p>\n                    <p>This is the bee that you just saw.</p>\n                    <img src=\"bees-with-color/bee-A1DM.svg\" width=\"200\">\n                    <p><span class=\"greenText\"><b>Successful harvest!</b></span><br>Your pay has increased by $0.02. Your bonus pay is now $0.40.</p>\n            ","response":0,"trial_type":"html-button-response","trial_index":40,"time_elapsed":2144170,"internal_node_id":"0.0-4.0-1.16","subject_id":"5e5d66f2101bf703d65326bc","study_id":"6197b3f67c2b5cd3b6d9596a","session_id":"619be31a6529b9e742167a2a","condition":"contingent","relevant_dimensions":["wings","pattern"],"bee_group":{"antennae":"X","wings":"2","pattern":"D","legs":"X"},"bonus":1.3800000000000014},{"rt":984.5999999046326,"stimulus":"bees-with-color/bee-B1SF.svg","response":0,"trial_type":"image-button-response","trial_index":41,"time_elapsed":2145156,"internal_node_id":"0.0-4.0-0.17","subject_id":"5e5d66f2101bf703d65326bc","study_id":"6197b3f67c2b5cd3b6d9596a","session_id":"619be31a6529b9e742167a2a","condition":"contingent","relevant_dimensions":["wings","pattern"],"bee_group":{"antennae":"X","wings":"2","pattern":"D","legs":"X"},"action":"harvest","summary":"good-harvest","bonus":1.3800000000000014},{"rt":660.5,"stimulus":"\n                    <p><b>Action: <em>harvest</em></b></p>\n                    <p>This is the bee that you just saw.</p>\n                    <img src=\"bees-with-color/bee-B1SF.svg\" width=\"200\">\n                    <p><span class=\"greenText\"><b>Successful harvest!</b></span><br>Your pay has increased by $0.02. Your bonus pay is now $0.42.</p>\n            ","response":0,"trial_type":"html-button-response","trial_index":42,"time_elapsed":2145818,"internal_node_id":"0.0-4.0-1.17","subject_id":"5e5d66f2101bf703d65326bc","study_id":"6197b3f67c2b5cd3b6d9596a","session_id":"619be31a6529b9e742167a2a","condition":"contingent","relevant_dimensions":["wings","pattern"],"bee_group":{"antennae":"X","wings":"2","pattern":"D","legs":"X"},"bonus":1.3800000000000014},{"rt":827.2000000476837,"stimulus":"bees-with-color/bee-B1SM.svg","response":0,"trial_type":"image-button-response","trial_index":43,"time_elapsed":2146646,"internal_node_id":"0.0-4.0-0.18","subject_id":"5e5d66f2101bf703d65326bc","study_id":"6197b3f67c2b5cd3b6d9596a","session_id":"619be31a6529b9e742167a2a","condition":"contingent","relevant_dimensions":["wings","pattern"],"bee_group":{"antennae":"X","wings":"2","pattern":"D","legs":"X"},"action":"harvest","summary":"good-harvest","bonus":1.3800000000000014},{"rt":698.7000000476837,"stimulus":"\n                    <p><b>Action: <em>harvest</em></b></p>\n                    <p>This is the bee that you just saw.</p>\n                    <img src=\"bees-with-color/bee-B1SM.svg\" width=\"200\">\n                    <p><span class=\"greenText\"><b>Successful harvest!</b></span><br>Your pay has increased by $0.02. Your bonus pay is now $0.44.</p>\n            ","response":0,"trial_type":"html-button-response","trial_index":44,"time_elapsed":2147346,"internal_node_id":"0.0-4.0-1.18","subject_id":"5e5d66f2101bf703d65326bc","study_id":"6197b3f67c2b5cd3b6d9596a","session_id":"619be31a6529b9e742167a2a","condition":"contingent","relevant_dimensions":["wings","pattern"],"bee_group":{"antennae":"X","wings":"2","pattern":"D","legs":"X"},"bonus":1.3800000000000014},{"rt":5183,"stimulus":"bees-with-color/bee-A2DM.svg","response":0,"trial_type":"image-button-response","trial_index":45,"time_elapsed":2152530,"internal_node_id":"0.0-4.0-0.19","subject_id":"5e5d66f2101bf703d65326bc","study_id":"6197b3f67c2b5cd3b6d9596a","session_id":"619be31a6529b9e742167a2a","condition":"contingent","relevant_dimensions":["wings","pattern"],"bee_group":{"antennae":"X","wings":"2","pattern":"D","legs":"X"},"action":"harvest","summary":"bad-harvest","bonus":1.3800000000000014},{"rt":1458.7000000476837,"stimulus":"\n                    <p><b>Action: <em>harvest</em></b></p>\n                    <p>This is the bee that you just saw.</p>\n                    <img src=\"bees-with-color/bee-A2DM.svg\" width=\"200\">\n                    <p><span class=\"redText\">Bad choice, the bee was angry.</span><br><b>You have been stung!</b><br>Your pay has been decreased by $0.10. Your bonus pay is now $0.34.</p>\n            ","response":0,"trial_type":"html-button-response","trial_index":46,"time_elapsed":2153990,"internal_node_id":"0.0-4.0-1.19","subject_id":"5e5d66f2101bf703d65326bc","study_id":"6197b3f67c2b5cd3b6d9596a","session_id":"619be31a6529b9e742167a2a","condition":"contingent","relevant_dimensions":["wings","pattern"],"bee_group":{"antennae":"X","wings":"2","pattern":"D","legs":"X"},"bonus":1.3800000000000014},{"rt":3550.7000000476837,"stimulus":"bees-with-color/bee-B2DF.svg","response":1,"trial_type":"image-button-response","trial_index":47,"time_elapsed":2157542,"internal_node_id":"0.0-4.0-0.20","subject_id":"5e5d66f2101bf703d65326bc","study_id":"6197b3f67c2b5cd3b6d9596a","session_id":"619be31a6529b9e742167a2a","condition":"contingent","relevant_dimensions":["wings","pattern"],"bee_group":{"antennae":"X","wings":"2","pattern":"D","legs":"X"},"action":"avoid","summary":"good-avoid","bonus":1.3800000000000014},{"rt":2264.800000190735,"stimulus":"\n                    <p><b>Action: <em>avoid</em></b></p>\n                    <p>This is the bee that you just saw.</p>\n                    <img src=\"bees-with-color/bee-B2DF.svg\" width=\"200\">\n                    <p><br>Your bonus pay is unchanged, and remains at $0.34.</p>\n            ","response":0,"trial_type":"html-button-response","trial_index":48,"time_elapsed":2159808,"internal_node_id":"0.0-4.0-1.20","subject_id":"5e5d66f2101bf703d65326bc","study_id":"6197b3f67c2b5cd3b6d9596a","session_id":"619be31a6529b9e742167a2a","condition":"contingent","relevant_dimensions":["wings","pattern"],"bee_group":{"antennae":"X","wings":"2","pattern":"D","legs":"X"},"bonus":1.3800000000000014},{"rt":2933.5999999046326,"stimulus":"bees-with-color/bee-B2SM.svg","response":0,"trial_type":"image-button-response","trial_index":49,"time_elapsed":2162743,"internal_node_id":"0.0-4.0-0.21","subject_id":"5e5d66f2101bf703d65326bc","study_id":"6197b3f67c2b5cd3b6d9596a","session_id":"619be31a6529b9e742167a2a","condition":"contingent","relevant_dimensions":["wings","pattern"],"bee_group":{"antennae":"X","wings":"2","pattern":"D","legs":"X"},"action":"harvest","summary":"good-harvest","bonus":1.3800000000000014},{"rt":885.8000001907349,"stimulus":"\n                    <p><b>Action: <em>harvest</em></b></p>\n                    <p>This is the bee that you just saw.</p>\n                    <img src=\"bees-with-color/bee-B2SM.svg\" width=\"200\">\n                    <p><span class=\"greenText\"><b>Successful harvest!</b></span><br>Your pay has increased by $0.02. Your bonus pay is now $0.36.</p>\n            ","response":0,"trial_type":"html-button-response","trial_index":50,"time_elapsed":2163630,"internal_node_id":"0.0-4.0-1.21","subject_id":"5e5d66f2101bf703d65326bc","study_id":"6197b3f67c2b5cd3b6d9596a","session_id":"619be31a6529b9e742167a2a","condition":"contingent","relevant_dimensions":["wings","pattern"],"bee_group":{"antennae":"X","wings":"2","pattern":"D","legs":"X"},"bonus":1.3800000000000014},{"rt":1536.7999999523163,"stimulus":"bees-with-color/bee-B1DF.svg","response":0,"trial_type":"image-button-response","trial_index":51,"time_elapsed":2165168,"internal_node_id":"0.0-4.0-0.22","subject_id":"5e5d66f2101bf703d65326bc","study_id":"6197b3f67c2b5cd3b6d9596a","session_id":"619be31a6529b9e742167a2a","condition":"contingent","relevant_dimensions":["wings","pattern"],"bee_group":{"antennae":"X","wings":"2","pattern":"D","legs":"X"},"action":"harvest","summary":"good-harvest","bonus":1.3800000000000014},{"rt":697.7000000476837,"stimulus":"\n                    <p><b>Action: <em>harvest</em></b></p>\n                    <p>This is the bee that you just saw.</p>\n                    <img src=\"bees-with-color/bee-B1DF.svg\" width=\"200\">\n                    <p><span class=\"greenText\"><b>Successful harvest!</b></span><br>Your pay has increased by $0.02. Your bonus pay is now $0.38.</p>\n            ","response":0,"trial_type":"html-button-response","trial_index":52,"time_elapsed":2165867,"internal_node_id":"0.0-4.0-1.22","subject_id":"5e5d66f2101bf703d65326bc","study_id":"6197b3f67c2b5cd3b6d9596a","session_id":"619be31a6529b9e742167a2a","condition":"contingent","relevant_dimensions":["wings","pattern"],"bee_group":{"antennae":"X","wings":"2","pattern":"D","legs":"X"},"bonus":1.3800000000000014},{"rt":23104.900000095367,"stimulus":"bees-with-color/bee-A1SM.svg","response":0,"trial_type":"image-button-response","trial_index":53,"time_elapsed":2188973,"internal_node_id":"0.0-4.0-0.23","subject_id":"5e5d66f2101bf703d65326bc","study_id":"6197b3f67c2b5cd3b6d9596a","session_id":"619be31a6529b9e742167a2a","condition":"contingent","relevant_dimensions":["wings","pattern"],"bee_group":{"antennae":"X","wings":"2","pattern":"D","legs":"X"},"action":"harvest","summary":"good-harvest","bonus":1.3800000000000014},{"rt":1012,"stimulus":"\n                    <p><b>Action: <em>harvest</em></b></p>\n                    <p>This is the bee that you just saw.</p>\n                    <img src=\"bees-with-color/bee-A1SM.svg\" width=\"200\">\n                    <p><span class=\"greenText\"><b>Successful harvest!</b></span><br>Your pay has increased by $0.02. Your bonus pay is now $0.40.</p>\n            ","response":0,"trial_type":"html-button-response","trial_index":54,"time_elapsed":2189986,"internal_node_id":"0.0-4.0-1.23","subject_id":"5e5d66f2101bf703d65326bc","study_id":"6197b3f67c2b5cd3b6d9596a","session_id":"619be31a6529b9e742167a2a","condition":"contingent","relevant_dimensions":["wings","pattern"],"bee_group":{"antennae":"X","wings":"2","pattern":"D","legs":"X"},"bonus":1.3800000000000014},{"rt":2902.399999856949,"stimulus":"bees-with-color/bee-A2DF.svg","response":1,"trial_type":"image-button-response","trial_index":55,"time_elapsed":2192890,"internal_node_id":"0.0-4.0-0.24","subject_id":"5e5d66f2101bf703d65326bc","study_id":"6197b3f67c2b5cd3b6d9596a","session_id":"619be31a6529b9e742167a2a","condition":"contingent","relevant_dimensions":["wings","pattern"],"bee_group":{"antennae":"X","wings":"2","pattern":"D","legs":"X"},"action":"avoid","summary":"good-avoid","bonus":1.3800000000000014},{"rt":1332.7000000476837,"stimulus":"\n                    <p><b>Action: <em>avoid</em></b></p>\n                    <p>This is the bee that you just saw.</p>\n                    <img src=\"bees-with-color/bee-A2DF.svg\" width=\"200\">\n                    <p><br>Your bonus pay is unchanged, and remains at $0.40.</p>\n            ","response":0,"trial_type":"html-button-response","trial_index":56,"time_elapsed":2194224,"internal_node_id":"0.0-4.0-1.24","subject_id":"5e5d66f2101bf703d65326bc","study_id":"6197b3f67c2b5cd3b6d9596a","session_id":"619be31a6529b9e742167a2a","condition":"contingent","relevant_dimensions":["wings","pattern"],"bee_group":{"antennae":"X","wings":"2","pattern":"D","legs":"X"},"bonus":1.3800000000000014},{"rt":3155.7000000476837,"stimulus":"bees-with-color/bee-B1DM.svg","response":0,"trial_type":"image-button-response","trial_index":57,"time_elapsed":2197381,"internal_node_id":"0.0-4.0-0.25","subject_id":"5e5d66f2101bf703d65326bc","study_id":"6197b3f67c2b5cd3b6d9596a","session_id":"619be31a6529b9e742167a2a","condition":"contingent","relevant_dimensions":["wings","pattern"],"bee_group":{"antennae":"X","wings":"2","pattern":"D","legs":"X"},"action":"harvest","summary":"good-harvest","bonus":1.3800000000000014},{"rt":1279.8000001907349,"stimulus":"\n                    <p><b>Action: <em>harvest</em></b></p>\n                    <p>This is the bee that you just saw.</p>\n                    <img src=\"bees-with-color/bee-B1DM.svg\" width=\"200\">\n                    <p><span class=\"greenText\"><b>Successful harvest!</b></span><br>Your pay has increased by $0.02. Your bonus pay is now $0.42.</p>\n            ","response":0,"trial_type":"html-button-response","trial_index":58,"time_elapsed":2198662,"internal_node_id":"0.0-4.0-1.25","subject_id":"5e5d66f2101bf703d65326bc","study_id":"6197b3f67c2b5cd3b6d9596a","session_id":"619be31a6529b9e742167a2a","condition":"contingent","relevant_dimensions":["wings","pattern"],"bee_group":{"antennae":"X","wings":"2","pattern":"D","legs":"X"},"bonus":1.3800000000000014},{"rt":1765.9000000953674,"stimulus":"bees-with-color/bee-A2SM.svg","response":0,"trial_type":"image-button-response","trial_index":59,"time_elapsed":2200429,"internal_node_id":"0.0-4.0-0.26","subject_id":"5e5d66f2101bf703d65326bc","study_id":"6197b3f67c2b5cd3b6d9596a","session_id":"619be31a6529b9e742167a2a","condition":"contingent","relevant_dimensions":["wings","pattern"],"bee_group":{"antennae":"X","wings":"2","pattern":"D","legs":"X"},"action":"harvest","summary":"good-harvest","bonus":1.3800000000000014},{"rt":630.8000001907349,"stimulus":"\n                    <p><b>Action: <em>harvest</em></b></p>\n                    <p>This is the bee that you just saw.</p>\n                    <img src=\"bees-with-color/bee-A2SM.svg\" width=\"200\">\n                    <p><span class=\"greenText\"><b>Successful harvest!</b></span><br>Your pay has increased by $0.02. Your bonus pay is now $0.44.</p>\n            ","response":0,"trial_type":"html-button-response","trial_index":60,"time_elapsed":2201061,"internal_node_id":"0.0-4.0-1.26","subject_id":"5e5d66f2101bf703d65326bc","study_id":"6197b3f67c2b5cd3b6d9596a","session_id":"619be31a6529b9e742167a2a","condition":"contingent","relevant_dimensions":["wings","pattern"],"bee_group":{"antennae":"X","wings":"2","pattern":"D","legs":"X"},"bonus":1.3800000000000014},{"rt":1767.9000000953674,"stimulus":"bees-with-color/bee-B2SF.svg","response":0,"trial_type":"image-button-response","trial_index":61,"time_elapsed":2202830,"internal_node_id":"0.0-4.0-0.27","subject_id":"5e5d66f2101bf703d65326bc","study_id":"6197b3f67c2b5cd3b6d9596a","session_id":"619be31a6529b9e742167a2a","condition":"contingent","relevant_dimensions":["wings","pattern"],"bee_group":{"antennae":"X","wings":"2","pattern":"D","legs":"X"},"action":"harvest","summary":"good-harvest","bonus":1.3800000000000014},{"rt":731.6000001430511,"stimulus":"\n                    <p><b>Action: <em>harvest</em></b></p>\n                    <p>This is the bee that you just saw.</p>\n                    <img src=\"bees-with-color/bee-B2SF.svg\" width=\"200\">\n                    <p><span class=\"greenText\"><b>Successful harvest!</b></span><br>Your pay has increased by $0.02. Your bonus pay is now $0.46.</p>\n            ","response":0,"trial_type":"html-button-response","trial_index":62,"time_elapsed":2203563,"internal_node_id":"0.0-4.0-1.27","subject_id":"5e5d66f2101bf703d65326bc","study_id":"6197b3f67c2b5cd3b6d9596a","session_id":"619be31a6529b9e742167a2a","condition":"contingent","relevant_dimensions":["wings","pattern"],"bee_group":{"antennae":"X","wings":"2","pattern":"D","legs":"X"},"bonus":1.3800000000000014},{"rt":1658,"stimulus":"bees-with-color/bee-A1SF.svg","response":0,"trial_type":"image-button-response","trial_index":63,"time_elapsed":2205222,"internal_node_id":"0.0-4.0-0.28","subject_id":"5e5d66f2101bf703d65326bc","study_id":"6197b3f67c2b5cd3b6d9596a","session_id":"619be31a6529b9e742167a2a","condition":"contingent","relevant_dimensions":["wings","pattern"],"bee_group":{"antennae":"X","wings":"2","pattern":"D","legs":"X"},"action":"harvest","summary":"good-harvest","bonus":1.3800000000000014},{"rt":579.8000001907349,"stimulus":"\n                    <p><b>Action: <em>harvest</em></b></p>\n                    <p>This is the bee that you just saw.</p>\n                    <img src=\"bees-with-color/bee-A1SF.svg\" width=\"200\">\n                    <p><span class=\"greenText\"><b>Successful harvest!</b></span><br>Your pay has increased by $0.02. Your bonus pay is now $0.48.</p>\n            ","response":0,"trial_type":"html-button-response","trial_index":64,"time_elapsed":2205803,"internal_node_id":"0.0-4.0-1.28","subject_id":"5e5d66f2101bf703d65326bc","study_id":"6197b3f67c2b5cd3b6d9596a","session_id":"619be31a6529b9e742167a2a","condition":"contingent","relevant_dimensions":["wings","pattern"],"bee_group":{"antennae":"X","wings":"2","pattern":"D","legs":"X"},"bonus":1.3800000000000014},{"rt":1024.7000000476837,"stimulus":"bees-with-color/bee-A2SF.svg","response":0,"trial_type":"image-button-response","trial_index":65,"time_elapsed":2206829,"internal_node_id":"0.0-4.0-0.29","subject_id":"5e5d66f2101bf703d65326bc","study_id":"6197b3f67c2b5cd3b6d9596a","session_id":"619be31a6529b9e742167a2a","condition":"contingent","relevant_dimensions":["wings","pattern"],"bee_group":{"antennae":"X","wings":"2","pattern":"D","legs":"X"},"action":"harvest","summary":"good-harvest","bonus":1.3800000000000014},{"rt":637.8000001907349,"stimulus":"\n                    <p><b>Action: <em>harvest</em></b></p>\n                    <p>This is the bee that you just saw.</p>\n                    <img src=\"bees-with-color/bee-A2SF.svg\" width=\"200\">\n                    <p><span class=\"greenText\"><b>Successful harvest!</b></span><br>Your pay has increased by $0.02. Your bonus pay is now $0.50.</p>\n            ","response":0,"trial_type":"html-button-response","trial_index":66,"time_elapsed":2207468,"internal_node_id":"0.0-4.0-1.29","subject_id":"5e5d66f2101bf703d65326bc","study_id":"6197b3f67c2b5cd3b6d9596a","session_id":"619be31a6529b9e742167a2a","condition":"contingent","relevant_dimensions":["wings","pattern"],"bee_group":{"antennae":"X","wings":"2","pattern":"D","legs":"X"},"bonus":1.3800000000000014},{"rt":2345.9000000953674,"stimulus":"bees-with-color/bee-A1DF.svg","response":0,"trial_type":"image-button-response","trial_index":67,"time_elapsed":2209815,"internal_node_id":"0.0-4.0-0.30","subject_id":"5e5d66f2101bf703d65326bc","study_id":"6197b3f67c2b5cd3b6d9596a","session_id":"619be31a6529b9e742167a2a","condition":"contingent","relevant_dimensions":["wings","pattern"],"bee_group":{"antennae":"X","wings":"2","pattern":"D","legs":"X"},"action":"harvest","summary":"good-harvest","bonus":1.3800000000000014},{"rt":722.8000001907349,"stimulus":"\n                    <p><b>Action: <em>harvest</em></b></p>\n                    <p>This is the bee that you just saw.</p>\n                    <img src=\"bees-with-color/bee-A1DF.svg\" width=\"200\">\n                    <p><span class=\"greenText\"><b>Successful harvest!</b></span><br>Your pay has increased by $0.02. Your bonus pay is now $0.52.</p>\n            ","response":0,"trial_type":"html-button-response","trial_index":68,"time_elapsed":2210539,"internal_node_id":"0.0-4.0-1.30","subject_id":"5e5d66f2101bf703d65326bc","study_id":"6197b3f67c2b5cd3b6d9596a","session_id":"619be31a6529b9e742167a2a","condition":"contingent","relevant_dimensions":["wings","pattern"],"bee_group":{"antennae":"X","wings":"2","pattern":"D","legs":"X"},"bonus":1.3800000000000014},{"rt":2627.7000000476837,"stimulus":"bees-with-color/bee-B2DM.svg","response":1,"trial_type":"image-button-response","trial_index":69,"time_elapsed":2213168,"internal_node_id":"0.0-4.0-0.31","subject_id":"5e5d66f2101bf703d65326bc","study_id":"6197b3f67c2b5cd3b6d9596a","session_id":"619be31a6529b9e742167a2a","condition":"contingent","relevant_dimensions":["wings","pattern"],"bee_group":{"antennae":"X","wings":"2","pattern":"D","legs":"X"},"action":"avoid","summary":"good-avoid","bonus":1.3800000000000014},{"rt":550.5999999046326,"stimulus":"\n                    <p><b>Action: <em>avoid</em></b></p>\n                    <p>This is the bee that you just saw.</p>\n                    <img src=\"bees-with-color/bee-B2DM.svg\" width=\"200\">\n                    <p><br>Your bonus pay is unchanged, and remains at $0.52.</p>\n            ","response":0,"trial_type":"html-button-response","trial_index":70,"time_elapsed":2213720,"internal_node_id":"0.0-4.0-1.31","subject_id":"5e5d66f2101bf703d65326bc","study_id":"6197b3f67c2b5cd3b6d9596a","session_id":"619be31a6529b9e742167a2a","condition":"contingent","relevant_dimensions":["wings","pattern"],"bee_group":{"antennae":"X","wings":"2","pattern":"D","legs":"X"},"bonus":1.3800000000000014},{"rt":2574.5999999046326,"stimulus":"bees-with-color/bee-A2DM.svg","response":1,"trial_type":"image-button-response","trial_index":71,"time_elapsed":2216296,"internal_node_id":"0.0-4.0-0.32","subject_id":"5e5d66f2101bf703d65326bc","study_id":"6197b3f67c2b5cd3b6d9596a","session_id":"619be31a6529b9e742167a2a","condition":"contingent","relevant_dimensions":["wings","pattern"],"bee_group":{"antennae":"X","wings":"2","pattern":"D","legs":"X"},"action":"avoid","summary":"good-avoid","bonus":1.3800000000000014},{"rt":571.7999999523163,"stimulus":"\n                    <p><b>Action: <em>avoid</em></b></p>\n                    <p>This is the bee that you just saw.</p>\n                    <img src=\"bees-with-color/bee-A2DM.svg\" width=\"200\">\n                    <p><br>Your bonus pay is unchanged, and remains at $0.52.</p>\n            ","response":0,"trial_type":"html-button-response","trial_index":72,"time_elapsed":2216869,"internal_node_id":"0.0-4.0-1.32","subject_id":"5e5d66f2101bf703d65326bc","study_id":"6197b3f67c2b5cd3b6d9596a","session_id":"619be31a6529b9e742167a2a","condition":"contingent","relevant_dimensions":["wings","pattern"],"bee_group":{"antennae":"X","wings":"2","pattern":"D","legs":"X"},"bonus":1.3800000000000014},{"rt":949.7000000476837,"stimulus":"bees-with-color/bee-A2SM.svg","response":0,"trial_type":"image-button-response","trial_index":73,"time_elapsed":2217820,"internal_node_id":"0.0-4.0-0.33","subject_id":"5e5d66f2101bf703d65326bc","study_id":"6197b3f67c2b5cd3b6d9596a","session_id":"619be31a6529b9e742167a2a","condition":"contingent","relevant_dimensions":["wings","pattern"],"bee_group":{"antennae":"X","wings":"2","pattern":"D","legs":"X"},"action":"harvest","summary":"good-harvest","bonus":1.3800000000000014},{"rt":614.5,"stimulus":"\n                    <p><b>Action: <em>harvest</em></b></p>\n                    <p>This is the bee that you just saw.</p>\n                    <img src=\"bees-with-color/bee-A2SM.svg\" width=\"200\">\n                    <p><span class=\"greenText\"><b>Successful harvest!</b></span><br>Your pay has increased by $0.02. Your bonus pay is now $0.54.</p>\n            ","response":0,"trial_type":"html-button-response","trial_index":74,"time_elapsed":2218436,"internal_node_id":"0.0-4.0-1.33","subject_id":"5e5d66f2101bf703d65326bc","study_id":"6197b3f67c2b5cd3b6d9596a","session_id":"619be31a6529b9e742167a2a","condition":"contingent","relevant_dimensions":["wings","pattern"],"bee_group":{"antennae":"X","wings":"2","pattern":"D","legs":"X"},"bonus":1.3800000000000014},{"rt":1047.5999999046326,"stimulus":"bees-with-color/bee-B1DF.svg","response":0,"trial_type":"image-button-response","trial_index":75,"time_elapsed":2219485,"internal_node_id":"0.0-4.0-0.34","subject_id":"5e5d66f2101bf703d65326bc","study_id":"6197b3f67c2b5cd3b6d9596a","session_id":"619be31a6529b9e742167a2a","condition":"contingent","relevant_dimensions":["wings","pattern"],"bee_group":{"antennae":"X","wings":"2","pattern":"D","legs":"X"},"action":"harvest","summary":"good-harvest","bonus":1.3800000000000014},{"rt":502.89999985694885,"stimulus":"\n                    <p><b>Action: <em>harvest</em></b></p>\n                    <p>This is the bee that you just saw.</p>\n                    <img src=\"bees-with-color/bee-B1DF.svg\" width=\"200\">\n                    <p><span class=\"greenText\"><b>Successful harvest!</b></span><br>Your pay has increased by $0.02. Your bonus pay is now $0.56.</p>\n            ","response":0,"trial_type":"html-button-response","trial_index":76,"time_elapsed":2219989,"internal_node_id":"0.0-4.0-1.34","subject_id":"5e5d66f2101bf703d65326bc","study_id":"6197b3f67c2b5cd3b6d9596a","session_id":"619be31a6529b9e742167a2a","condition":"contingent","relevant_dimensions":["wings","pattern"],"bee_group":{"antennae":"X","wings":"2","pattern":"D","legs":"X"},"bonus":1.3800000000000014},{"rt":918,"stimulus":"bees-with-color/bee-A1SF.svg","response":0,"trial_type":"image-button-response","trial_index":77,"time_elapsed":2220908,"internal_node_id":"0.0-4.0-0.35","subject_id":"5e5d66f2101bf703d65326bc","study_id":"6197b3f67c2b5cd3b6d9596a","session_id":"619be31a6529b9e742167a2a","condition":"contingent","relevant_dimensions":["wings","pattern"],"bee_group":{"antennae":"X","wings":"2","pattern":"D","legs":"X"},"action":"harvest","summary":"good-harvest","bonus":1.3800000000000014},{"rt":523.7000000476837,"stimulus":"\n                    <p><b>Action: <em>harvest</em></b></p>\n                    <p>This is the bee that you just saw.</p>\n                    <img src=\"bees-with-color/bee-A1SF.svg\" width=\"200\">\n                    <p><span class=\"greenText\"><b>Successful harvest!</b></span><br>Your pay has increased by $0.02. Your bonus pay is now $0.58.</p>\n            ","response":0,"trial_type":"html-button-response","trial_index":78,"time_elapsed":2221433,"internal_node_id":"0.0-4.0-1.35","subject_id":"5e5d66f2101bf703d65326bc","study_id":"6197b3f67c2b5cd3b6d9596a","session_id":"619be31a6529b9e742167a2a","condition":"contingent","relevant_dimensions":["wings","pattern"],"bee_group":{"antennae":"X","wings":"2","pattern":"D","legs":"X"},"bonus":1.3800000000000014},{"rt":977,"stimulus":"bees-with-color/bee-B1SM.svg","response":0,"trial_type":"image-button-response","trial_index":79,"time_elapsed":2222411,"internal_node_id":"0.0-4.0-0.36","subject_id":"5e5d66f2101bf703d65326bc","study_id":"6197b3f67c2b5cd3b6d9596a","session_id":"619be31a6529b9e742167a2a","condition":"contingent","relevant_dimensions":["wings","pattern"],"bee_group":{"antennae":"X","wings":"2","pattern":"D","legs":"X"},"action":"harvest","summary":"good-harvest","bonus":1.3800000000000014},{"rt":552.5,"stimulus":"\n                    <p><b>Action: <em>harvest</em></b></p>\n                    <p>This is the bee that you just saw.</p>\n                    <img src=\"bees-with-color/bee-B1SM.svg\" width=\"200\">\n                    <p><span class=\"greenText\"><b>Successful harvest!</b></span><br>Your pay has increased by $0.02. Your bonus pay is now $0.60.</p>\n            ","response":0,"trial_type":"html-button-response","trial_index":80,"time_elapsed":2222965,"internal_node_id":"0.0-4.0-1.36","subject_id":"5e5d66f2101bf703d65326bc","study_id":"6197b3f67c2b5cd3b6d9596a","session_id":"619be31a6529b9e742167a2a","condition":"contingent","relevant_dimensions":["wings","pattern"],"bee_group":{"antennae":"X","wings":"2","pattern":"D","legs":"X"},"bonus":1.3800000000000014},{"rt":1315.2000000476837,"stimulus":"bees-with-color/bee-A2SF.svg","response":0,"trial_type":"image-button-response","trial_index":81,"time_elapsed":2224281,"internal_node_id":"0.0-4.0-0.37","subject_id":"5e5d66f2101bf703d65326bc","study_id":"6197b3f67c2b5cd3b6d9596a","session_id":"619be31a6529b9e742167a2a","condition":"contingent","relevant_dimensions":["wings","pattern"],"bee_group":{"antennae":"X","wings":"2","pattern":"D","legs":"X"},"action":"harvest","summary":"good-harvest","bonus":1.3800000000000014},{"rt":623.5,"stimulus":"\n                    <p><b>Action: <em>harvest</em></b></p>\n                    <p>This is the bee that you just saw.</p>\n                    <img src=\"bees-with-color/bee-A2SF.svg\" width=\"200\">\n                    <p><span class=\"greenText\"><b>Successful harvest!</b></span><br>Your pay has increased by $0.02. Your bonus pay is now $0.62.</p>\n            ","response":0,"trial_type":"html-button-response","trial_index":82,"time_elapsed":2224906,"internal_node_id":"0.0-4.0-1.37","subject_id":"5e5d66f2101bf703d65326bc","study_id":"6197b3f67c2b5cd3b6d9596a","session_id":"619be31a6529b9e742167a2a","condition":"contingent","relevant_dimensions":["wings","pattern"],"bee_group":{"antennae":"X","wings":"2","pattern":"D","legs":"X"},"bonus":1.3800000000000014},{"rt":1323.2000000476837,"stimulus":"bees-with-color/bee-A1SM.svg","response":0,"trial_type":"image-button-response","trial_index":83,"time_elapsed":2226230,"internal_node_id":"0.0-4.0-0.38","subject_id":"5e5d66f2101bf703d65326bc","study_id":"6197b3f67c2b5cd3b6d9596a","session_id":"619be31a6529b9e742167a2a","condition":"contingent","relevant_dimensions":["wings","pattern"],"bee_group":{"antennae":"X","wings":"2","pattern":"D","legs":"X"},"action":"harvest","summary":"good-harvest","bonus":1.3800000000000014},{"rt":768.8000001907349,"stimulus":"\n                    <p><b>Action: <em>harvest</em></b></p>\n                    <p>This is the bee that you just saw.</p>\n                    <img src=\"bees-with-color/bee-A1SM.svg\" width=\"200\">\n                    <p><span class=\"greenText\"><b>Successful harvest!</b></span><br>Your pay has increased by $0.02. Your bonus pay is now $0.64.</p>\n            ","response":0,"trial_type":"html-button-response","trial_index":84,"time_elapsed":2227000,"internal_node_id":"0.0-4.0-1.38","subject_id":"5e5d66f2101bf703d65326bc","study_id":"6197b3f67c2b5cd3b6d9596a","session_id":"619be31a6529b9e742167a2a","condition":"contingent","relevant_dimensions":["wings","pattern"],"bee_group":{"antennae":"X","wings":"2","pattern":"D","legs":"X"},"bonus":1.3800000000000014},{"rt":4193.900000095367,"stimulus":"bees-with-color/bee-B2DF.svg","response":1,"trial_type":"image-button-response","trial_index":85,"time_elapsed":2231195,"internal_node_id":"0.0-4.0-0.39","subject_id":"5e5d66f2101bf703d65326bc","study_id":"6197b3f67c2b5cd3b6d9596a","session_id":"619be31a6529b9e742167a2a","condition":"contingent","relevant_dimensions":["wings","pattern"],"bee_group":{"antennae":"X","wings":"2","pattern":"D","legs":"X"},"action":"avoid","summary":"good-avoid","bonus":1.3800000000000014},{"rt":668.7000000476837,"stimulus":"\n                    <p><b>Action: <em>avoid</em></b></p>\n                    <p>This is the bee that you just saw.</p>\n                    <img src=\"bees-with-color/bee-B2DF.svg\" width=\"200\">\n                    <p><br>Your bonus pay is unchanged, and remains at $0.64.</p>\n            ","response":0,"trial_type":"html-button-response","trial_index":86,"time_elapsed":2231865,"internal_node_id":"0.0-4.0-1.39","subject_id":"5e5d66f2101bf703d65326bc","study_id":"6197b3f67c2b5cd3b6d9596a","session_id":"619be31a6529b9e742167a2a","condition":"contingent","relevant_dimensions":["wings","pattern"],"bee_group":{"antennae":"X","wings":"2","pattern":"D","legs":"X"},"bonus":1.3800000000000014},{"rt":1098.6000001430511,"stimulus":"bees-with-color/bee-B2SF.svg","response":0,"trial_type":"image-button-response","trial_index":87,"time_elapsed":2232965,"internal_node_id":"0.0-4.0-0.40","subject_id":"5e5d66f2101bf703d65326bc","study_id":"6197b3f67c2b5cd3b6d9596a","session_id":"619be31a6529b9e742167a2a","condition":"contingent","relevant_dimensions":["wings","pattern"],"bee_group":{"antennae":"X","wings":"2","pattern":"D","legs":"X"},"action":"harvest","summary":"good-harvest","bonus":1.3800000000000014},{"rt":508.80000019073486,"stimulus":"\n                    <p><b>Action: <em>harvest</em></b></p>\n                    <p>This is the bee that you just saw.</p>\n                    <img src=\"bees-with-color/bee-B2SF.svg\" width=\"200\">\n                    <p><span class=\"greenText\"><b>Successful harvest!</b></span><br>Your pay has increased by $0.02. Your bonus pay is now $0.66.</p>\n            ","response":0,"trial_type":"html-button-response","trial_index":88,"time_elapsed":2233475,"internal_node_id":"0.0-4.0-1.40","subject_id":"5e5d66f2101bf703d65326bc","study_id":"6197b3f67c2b5cd3b6d9596a","session_id":"619be31a6529b9e742167a2a","condition":"contingent","relevant_dimensions":["wings","pattern"],"bee_group":{"antennae":"X","wings":"2","pattern":"D","legs":"X"},"bonus":1.3800000000000014},{"rt":3122.7999999523163,"stimulus":"bees-with-color/bee-A2DF.svg","response":1,"trial_type":"image-button-response","trial_index":89,"time_elapsed":2236599,"internal_node_id":"0.0-4.0-0.41","subject_id":"5e5d66f2101bf703d65326bc","study_id":"6197b3f67c2b5cd3b6d9596a","session_id":"619be31a6529b9e742167a2a","condition":"contingent","relevant_dimensions":["wings","pattern"],"bee_group":{"antennae":"X","wings":"2","pattern":"D","legs":"X"},"action":"avoid","summary":"good-avoid","bonus":1.3800000000000014},{"rt":595.5,"stimulus":"\n                    <p><b>Action: <em>avoid</em></b></p>\n                    <p>This is the bee that you just saw.</p>\n                    <img src=\"bees-with-color/bee-A2DF.svg\" width=\"200\">\n                    <p><br>Your bonus pay is unchanged, and remains at $0.66.</p>\n            ","response":0,"trial_type":"html-button-response","trial_index":90,"time_elapsed":2237196,"internal_node_id":"0.0-4.0-1.41","subject_id":"5e5d66f2101bf703d65326bc","study_id":"6197b3f67c2b5cd3b6d9596a","session_id":"619be31a6529b9e742167a2a","condition":"contingent","relevant_dimensions":["wings","pattern"],"bee_group":{"antennae":"X","wings":"2","pattern":"D","legs":"X"},"bonus":1.3800000000000014},{"rt":1478.6000001430511,"stimulus":"bees-with-color/bee-A1DF.svg","response":0,"trial_type":"image-button-response","trial_index":91,"time_elapsed":2238676,"internal_node_id":"0.0-4.0-0.42","subject_id":"5e5d66f2101bf703d65326bc","study_id":"6197b3f67c2b5cd3b6d9596a","session_id":"619be31a6529b9e742167a2a","condition":"contingent","relevant_dimensions":["wings","pattern"],"bee_group":{"antennae":"X","wings":"2","pattern":"D","legs":"X"},"action":"harvest","summary":"good-harvest","bonus":1.3800000000000014},{"rt":791.7000000476837,"stimulus":"\n                    <p><b>Action: <em>harvest</em></b></p>\n                    <p>This is the bee that you just saw.</p>\n                    <img src=\"bees-with-color/bee-A1DF.svg\" width=\"200\">\n                    <p><span class=\"greenText\"><b>Successful harvest!</b></span><br>Your pay has increased by $0.02. Your bonus pay is now $0.68.</p>\n            ","response":0,"trial_type":"html-button-response","trial_index":92,"time_elapsed":2239469,"internal_node_id":"0.0-4.0-1.42","subject_id":"5e5d66f2101bf703d65326bc","study_id":"6197b3f67c2b5cd3b6d9596a","session_id":"619be31a6529b9e742167a2a","condition":"contingent","relevant_dimensions":["wings","pattern"],"bee_group":{"antennae":"X","wings":"2","pattern":"D","legs":"X"},"bonus":1.3800000000000014},{"rt":831.5999999046326,"stimulus":"bees-with-color/bee-B1SF.svg","response":0,"trial_type":"image-button-response","trial_index":93,"time_elapsed":2240302,"internal_node_id":"0.0-4.0-0.43","subject_id":"5e5d66f2101bf703d65326bc","study_id":"6197b3f67c2b5cd3b6d9596a","session_id":"619be31a6529b9e742167a2a","condition":"contingent","relevant_dimensions":["wings","pattern"],"bee_group":{"antennae":"X","wings":"2","pattern":"D","legs":"X"},"action":"harvest","summary":"good-harvest","bonus":1.3800000000000014},{"rt":512.5,"stimulus":"\n                    <p><b>Action: <em>harvest</em></b></p>\n                    <p>This is the bee that you just saw.</p>\n                    <img src=\"bees-with-color/bee-B1SF.svg\" width=\"200\">\n                    <p><span class=\"greenText\"><b>Successful harvest!</b></span><br>Your pay has increased by $0.02. Your bonus pay is now $0.70.</p>\n            ","response":0,"trial_type":"html-button-response","trial_index":94,"time_elapsed":2240816,"internal_node_id":"0.0-4.0-1.43","subject_id":"5e5d66f2101bf703d65326bc","study_id":"6197b3f67c2b5cd3b6d9596a","session_id":"619be31a6529b9e742167a2a","condition":"contingent","relevant_dimensions":["wings","pattern"],"bee_group":{"antennae":"X","wings":"2","pattern":"D","legs":"X"},"bonus":1.3800000000000014},{"rt":1004.9000000953674,"stimulus":"bees-with-color/bee-B1DM.svg","response":0,"trial_type":"image-button-response","trial_index":95,"time_elapsed":2241822,"internal_node_id":"0.0-4.0-0.44","subject_id":"5e5d66f2101bf703d65326bc","study_id":"6197b3f67c2b5cd3b6d9596a","session_id":"619be31a6529b9e742167a2a","condition":"contingent","relevant_dimensions":["wings","pattern"],"bee_group":{"antennae":"X","wings":"2","pattern":"D","legs":"X"},"action":"harvest","summary":"good-harvest","bonus":1.3800000000000014},{"rt":537.4000000953674,"stimulus":"\n                    <p><b>Action: <em>harvest</em></b></p>\n                    <p>This is the bee that you just saw.</p>\n                    <img src=\"bees-with-color/bee-B1DM.svg\" width=\"200\">\n                    <p><span class=\"greenText\"><b>Successful harvest!</b></span><br>Your pay has increased by $0.02. Your bonus pay is now $0.72.</p>\n            ","response":0,"trial_type":"html-button-response","trial_index":96,"time_elapsed":2242361,"internal_node_id":"0.0-4.0-1.44","subject_id":"5e5d66f2101bf703d65326bc","study_id":"6197b3f67c2b5cd3b6d9596a","session_id":"619be31a6529b9e742167a2a","condition":"contingent","relevant_dimensions":["wings","pattern"],"bee_group":{"antennae":"X","wings":"2","pattern":"D","legs":"X"},"bonus":1.3800000000000014},{"rt":713.9000000953674,"stimulus":"bees-with-color/bee-A1DM.svg","response":0,"trial_type":"image-button-response","trial_index":97,"time_elapsed":2243076,"internal_node_id":"0.0-4.0-0.45","subject_id":"5e5d66f2101bf703d65326bc","study_id":"6197b3f67c2b5cd3b6d9596a","session_id":"619be31a6529b9e742167a2a","condition":"contingent","relevant_dimensions":["wings","pattern"],"bee_group":{"antennae":"X","wings":"2","pattern":"D","legs":"X"},"action":"harvest","summary":"good-harvest","bonus":1.3800000000000014},{"rt":480.60000014305115,"stimulus":"\n                    <p><b>Action: <em>harvest</em></b></p>\n                    <p>This is the bee that you just saw.</p>\n                    <img src=\"bees-with-color/bee-A1DM.svg\" width=\"200\">\n                    <p><span class=\"greenText\"><b>Successful harvest!</b></span><br>Your pay has increased by $0.02. Your bonus pay is now $0.74.</p>\n            ","response":0,"trial_type":"html-button-response","trial_index":98,"time_elapsed":2243558,"internal_node_id":"0.0-4.0-1.45","subject_id":"5e5d66f2101bf703d65326bc","study_id":"6197b3f67c2b5cd3b6d9596a","session_id":"619be31a6529b9e742167a2a","condition":"contingent","relevant_dimensions":["wings","pattern"],"bee_group":{"antennae":"X","wings":"2","pattern":"D","legs":"X"},"bonus":1.3800000000000014},{"rt":1156.6000001430511,"stimulus":"bees-with-color/bee-B2SM.svg","response":0,"trial_type":"image-button-response","trial_index":99,"time_elapsed":2244716,"internal_node_id":"0.0-4.0-0.46","subject_id":"5e5d66f2101bf703d65326bc","study_id":"6197b3f67c2b5cd3b6d9596a","session_id":"619be31a6529b9e742167a2a","condition":"contingent","relevant_dimensions":["wings","pattern"],"bee_group":{"antennae":"X","wings":"2","pattern":"D","legs":"X"},"action":"harvest","summary":"good-harvest","bonus":1.3800000000000014},{"rt":428.7000000476837,"stimulus":"\n                    <p><b>Action: <em>harvest</em></b></p>\n                    <p>This is the bee that you just saw.</p>\n                    <img src=\"bees-with-color/bee-B2SM.svg\" width=\"200\">\n                    <p><span class=\"greenText\"><b>Successful harvest!</b></span><br>Your pay has increased by $0.02. Your bonus pay is now $0.76.</p>\n            ","response":0,"trial_type":"html-button-response","trial_index":100,"time_elapsed":2245146,"internal_node_id":"0.0-4.0-1.46","subject_id":"5e5d66f2101bf703d65326bc","study_id":"6197b3f67c2b5cd3b6d9596a","session_id":"619be31a6529b9e742167a2a","condition":"contingent","relevant_dimensions":["wings","pattern"],"bee_group":{"antennae":"X","wings":"2","pattern":"D","legs":"X"},"bonus":1.3800000000000014},{"rt":498.90000009536743,"stimulus":"bees-with-color/bee-B2DM.svg","response":0,"trial_type":"image-button-response","trial_index":101,"time_elapsed":2245646,"internal_node_id":"0.0-4.0-0.47","subject_id":"5e5d66f2101bf703d65326bc","study_id":"6197b3f67c2b5cd3b6d9596a","session_id":"619be31a6529b9e742167a2a","condition":"contingent","relevant_dimensions":["wings","pattern"],"bee_group":{"antennae":"X","wings":"2","pattern":"D","legs":"X"},"action":"harvest","summary":"bad-harvest","bonus":1.3800000000000014},{"rt":1756.9000000953674,"stimulus":"\n                    <p><b>Action: <em>harvest</em></b></p>\n                    <p>This is the bee that you just saw.</p>\n                    <img src=\"bees-with-color/bee-B2DM.svg\" width=\"200\">\n                    <p><span class=\"redText\">Bad choice, the bee was angry.</span><br><b>You have been stung!</b><br>Your pay has been decreased by $0.10. Your bonus pay is now $0.66.</p>\n            ","response":0,"trial_type":"html-button-response","trial_index":102,"time_elapsed":2247404,"internal_node_id":"0.0-4.0-1.47","subject_id":"5e5d66f2101bf703d65326bc","study_id":"6197b3f67c2b5cd3b6d9596a","session_id":"619be31a6529b9e742167a2a","condition":"contingent","relevant_dimensions":["wings","pattern"],"bee_group":{"antennae":"X","wings":"2","pattern":"D","legs":"X"},"bonus":1.3800000000000014},{"rt":1311.7000000476837,"stimulus":"bees-with-color/bee-A1DF.svg","response":0,"trial_type":"image-button-response","trial_index":103,"time_elapsed":2248717,"internal_node_id":"0.0-4.0-0.48","subject_id":"5e5d66f2101bf703d65326bc","study_id":"6197b3f67c2b5cd3b6d9596a","session_id":"619be31a6529b9e742167a2a","condition":"contingent","relevant_dimensions":["wings","pattern"],"bee_group":{"antennae":"X","wings":"2","pattern":"D","legs":"X"},"action":"harvest","summary":"good-harvest","bonus":1.3800000000000014},{"rt":530.1000001430511,"stimulus":"\n                    <p><b>Action: <em>harvest</em></b></p>\n                    <p>This is the bee that you just saw.</p>\n                    <img src=\"bees-with-color/bee-A1DF.svg\" width=\"200\">\n                    <p><span class=\"greenText\"><b>Successful harvest!</b></span><br>Your pay has increased by $0.02. Your bonus pay is now $0.68.</p>\n            ","response":0,"trial_type":"html-button-response","trial_index":104,"time_elapsed":2249248,"internal_node_id":"0.0-4.0-1.48","subject_id":"5e5d66f2101bf703d65326bc","study_id":"6197b3f67c2b5cd3b6d9596a","session_id":"619be31a6529b9e742167a2a","condition":"contingent","relevant_dimensions":["wings","pattern"],"bee_group":{"antennae":"X","wings":"2","pattern":"D","legs":"X"},"bonus":1.3800000000000014},{"rt":1197,"stimulus":"bees-with-color/bee-B2SM.svg","response":0,"trial_type":"image-button-response","trial_index":105,"time_elapsed":2250446,"internal_node_id":"0.0-4.0-0.49","subject_id":"5e5d66f2101bf703d65326bc","study_id":"6197b3f67c2b5cd3b6d9596a","session_id":"619be31a6529b9e742167a2a","condition":"contingent","relevant_dimensions":["wings","pattern"],"bee_group":{"antennae":"X","wings":"2","pattern":"D","legs":"X"},"action":"harvest","summary":"good-harvest","bonus":1.3800000000000014},{"rt":555.9000000953674,"stimulus":"\n                    <p><b>Action: <em>harvest</em></b></p>\n                    <p>This is the bee that you just saw.</p>\n                    <img src=\"bees-with-color/bee-B2SM.svg\" width=\"200\">\n                    <p><span class=\"greenText\"><b>Successful harvest!</b></span><br>Your pay has increased by $0.02. Your bonus pay is now $0.70.</p>\n            ","response":0,"trial_type":"html-button-response","trial_index":106,"time_elapsed":2251003,"internal_node_id":"0.0-4.0-1.49","subject_id":"5e5d66f2101bf703d65326bc","study_id":"6197b3f67c2b5cd3b6d9596a","session_id":"619be31a6529b9e742167a2a","condition":"contingent","relevant_dimensions":["wings","pattern"],"bee_group":{"antennae":"X","wings":"2","pattern":"D","legs":"X"},"bonus":1.3800000000000014},{"rt":964.9000000953674,"stimulus":"bees-with-color/bee-B2DM.svg","response":1,"trial_type":"image-button-response","trial_index":107,"time_elapsed":2251969,"internal_node_id":"0.0-4.0-0.50","subject_id":"5e5d66f2101bf703d65326bc","study_id":"6197b3f67c2b5cd3b6d9596a","session_id":"619be31a6529b9e742167a2a","condition":"contingent","relevant_dimensions":["wings","pattern"],"bee_group":{"antennae":"X","wings":"2","pattern":"D","legs":"X"},"action":"avoid","summary":"good-avoid","bonus":1.3800000000000014},{"rt":522.8000001907349,"stimulus":"\n                    <p><b>Action: <em>avoid</em></b></p>\n                    <p>This is the bee that you just saw.</p>\n                    <img src=\"bees-with-color/bee-B2DM.svg\" width=\"200\">\n                    <p><br>Your bonus pay is unchanged, and remains at $0.70.</p>\n            ","response":0,"trial_type":"html-button-response","trial_index":108,"time_elapsed":2252493,"internal_node_id":"0.0-4.0-1.50","subject_id":"5e5d66f2101bf703d65326bc","study_id":"6197b3f67c2b5cd3b6d9596a","session_id":"619be31a6529b9e742167a2a","condition":"contingent","relevant_dimensions":["wings","pattern"],"bee_group":{"antennae":"X","wings":"2","pattern":"D","legs":"X"},"bonus":1.3800000000000014},{"rt":813.8000001907349,"stimulus":"bees-with-color/bee-B2SF.svg","response":0,"trial_type":"image-button-response","trial_index":109,"time_elapsed":2253308,"internal_node_id":"0.0-4.0-0.51","subject_id":"5e5d66f2101bf703d65326bc","study_id":"6197b3f67c2b5cd3b6d9596a","session_id":"619be31a6529b9e742167a2a","condition":"contingent","relevant_dimensions":["wings","pattern"],"bee_group":{"antennae":"X","wings":"2","pattern":"D","legs":"X"},"action":"harvest","summary":"good-harvest","bonus":1.3800000000000014},{"rt":523.8000001907349,"stimulus":"\n                    <p><b>Action: <em>harvest</em></b></p>\n                    <p>This is the bee that you just saw.</p>\n                    <img src=\"bees-with-color/bee-B2SF.svg\" width=\"200\">\n                    <p><span class=\"greenText\"><b>Successful harvest!</b></span><br>Your pay has increased by $0.02. Your bonus pay is now $0.72.</p>\n            ","response":0,"trial_type":"html-button-response","trial_index":110,"time_elapsed":2253833,"internal_node_id":"0.0-4.0-1.51","subject_id":"5e5d66f2101bf703d65326bc","study_id":"6197b3f67c2b5cd3b6d9596a","session_id":"619be31a6529b9e742167a2a","condition":"contingent","relevant_dimensions":["wings","pattern"],"bee_group":{"antennae":"X","wings":"2","pattern":"D","legs":"X"},"bonus":1.3800000000000014},{"rt":901.7000000476837,"stimulus":"bees-with-color/bee-A1SM.svg","response":0,"trial_type":"image-button-response","trial_index":111,"time_elapsed":2254736,"internal_node_id":"0.0-4.0-0.52","subject_id":"5e5d66f2101bf703d65326bc","study_id":"6197b3f67c2b5cd3b6d9596a","session_id":"619be31a6529b9e742167a2a","condition":"contingent","relevant_dimensions":["wings","pattern"],"bee_group":{"antennae":"X","wings":"2","pattern":"D","legs":"X"},"action":"harvest","summary":"good-harvest","bonus":1.3800000000000014},{"rt":527.7000000476837,"stimulus":"\n                    <p><b>Action: <em>harvest</em></b></p>\n                    <p>This is the bee that you just saw.</p>\n                    <img src=\"bees-with-color/bee-A1SM.svg\" width=\"200\">\n                    <p><span class=\"greenText\"><b>Successful harvest!</b></span><br>Your pay has increased by $0.02. Your bonus pay is now $0.74.</p>\n            ","response":0,"trial_type":"html-button-response","trial_index":112,"time_elapsed":2255265,"internal_node_id":"0.0-4.0-1.52","subject_id":"5e5d66f2101bf703d65326bc","study_id":"6197b3f67c2b5cd3b6d9596a","session_id":"619be31a6529b9e742167a2a","condition":"contingent","relevant_dimensions":["wings","pattern"],"bee_group":{"antennae":"X","wings":"2","pattern":"D","legs":"X"},"bonus":1.3800000000000014},{"rt":654.9000000953674,"stimulus":"bees-with-color/bee-B1SM.svg","response":0,"trial_type":"image-button-response","trial_index":113,"time_elapsed":2255921,"internal_node_id":"0.0-4.0-0.53","subject_id":"5e5d66f2101bf703d65326bc","study_id":"6197b3f67c2b5cd3b6d9596a","session_id":"619be31a6529b9e742167a2a","condition":"contingent","relevant_dimensions":["wings","pattern"],"bee_group":{"antennae":"X","wings":"2","pattern":"D","legs":"X"},"action":"harvest","summary":"good-harvest","bonus":1.3800000000000014},{"rt":542.8000001907349,"stimulus":"\n                    <p><b>Action: <em>harvest</em></b></p>\n                    <p>This is the bee that you just saw.</p>\n                    <img src=\"bees-with-color/bee-B1SM.svg\" width=\"200\">\n                    <p><span class=\"greenText\"><b>Successful harvest!</b></span><br>Your pay has increased by $0.02. Your bonus pay is now $0.76.</p>\n            ","response":0,"trial_type":"html-button-response","trial_index":114,"time_elapsed":2256465,"internal_node_id":"0.0-4.0-1.53","subject_id":"5e5d66f2101bf703d65326bc","study_id":"6197b3f67c2b5cd3b6d9596a","session_id":"619be31a6529b9e742167a2a","condition":"contingent","relevant_dimensions":["wings","pattern"],"bee_group":{"antennae":"X","wings":"2","pattern":"D","legs":"X"},"bonus":1.3800000000000014},{"rt":1405,"stimulus":"bees-with-color/bee-A1DM.svg","response":0,"trial_type":"image-button-response","trial_index":115,"time_elapsed":2257871,"internal_node_id":"0.0-4.0-0.54","subject_id":"5e5d66f2101bf703d65326bc","study_id":"6197b3f67c2b5cd3b6d9596a","session_id":"619be31a6529b9e742167a2a","condition":"contingent","relevant_dimensions":["wings","pattern"],"bee_group":{"antennae":"X","wings":"2","pattern":"D","legs":"X"},"action":"harvest","summary":"good-harvest","bonus":1.3800000000000014},{"rt":503.5,"stimulus":"\n                    <p><b>Action: <em>harvest</em></b></p>\n                    <p>This is the bee that you just saw.</p>\n                    <img src=\"bees-with-color/bee-A1DM.svg\" width=\"200\">\n                    <p><span class=\"greenText\"><b>Successful harvest!</b></span><br>Your pay has increased by $0.02. Your bonus pay is now $0.78.</p>\n            ","response":0,"trial_type":"html-button-response","trial_index":116,"time_elapsed":2258376,"internal_node_id":"0.0-4.0-1.54","subject_id":"5e5d66f2101bf703d65326bc","study_id":"6197b3f67c2b5cd3b6d9596a","session_id":"619be31a6529b9e742167a2a","condition":"contingent","relevant_dimensions":["wings","pattern"],"bee_group":{"antennae":"X","wings":"2","pattern":"D","legs":"X"},"bonus":1.3800000000000014},{"rt":1081.7000000476837,"stimulus":"bees-with-color/bee-A2DF.svg","response":1,"trial_type":"image-button-response","trial_index":117,"time_elapsed":2259459,"internal_node_id":"0.0-4.0-0.55","subject_id":"5e5d66f2101bf703d65326bc","study_id":"6197b3f67c2b5cd3b6d9596a","session_id":"619be31a6529b9e742167a2a","condition":"contingent","relevant_dimensions":["wings","pattern"],"bee_group":{"antennae":"X","wings":"2","pattern":"D","legs":"X"},"action":"avoid","summary":"good-avoid","bonus":1.3800000000000014},{"rt":584.5,"stimulus":"\n                    <p><b>Action: <em>avoid</em></b></p>\n                    <p>This is the bee that you just saw.</p>\n                    <img src=\"bees-with-color/bee-A2DF.svg\" width=\"200\">\n                    <p><br>Your bonus pay is unchanged, and remains at $0.78.</p>\n            ","response":0,"trial_type":"html-button-response","trial_index":118,"time_elapsed":2260045,"internal_node_id":"0.0-4.0-1.55","subject_id":"5e5d66f2101bf703d65326bc","study_id":"6197b3f67c2b5cd3b6d9596a","session_id":"619be31a6529b9e742167a2a","condition":"contingent","relevant_dimensions":["wings","pattern"],"bee_group":{"antennae":"X","wings":"2","pattern":"D","legs":"X"},"bonus":1.3800000000000014},{"rt":1051.9000000953674,"stimulus":"bees-with-color/bee-A2SM.svg","response":0,"trial_type":"image-button-response","trial_index":119,"time_elapsed":2261098,"internal_node_id":"0.0-4.0-0.56","subject_id":"5e5d66f2101bf703d65326bc","study_id":"6197b3f67c2b5cd3b6d9596a","session_id":"619be31a6529b9e742167a2a","condition":"contingent","relevant_dimensions":["wings","pattern"],"bee_group":{"antennae":"X","wings":"2","pattern":"D","legs":"X"},"action":"harvest","summary":"good-harvest","bonus":1.3800000000000014},{"rt":465.60000014305115,"stimulus":"\n                    <p><b>Action: <em>harvest</em></b></p>\n                    <p>This is the bee that you just saw.</p>\n                    <img src=\"bees-with-color/bee-A2SM.svg\" width=\"200\">\n                    <p><span class=\"greenText\"><b>Successful harvest!</b></span><br>Your pay has increased by $0.02. Your bonus pay is now $0.80.</p>\n            ","response":0,"trial_type":"html-button-response","trial_index":120,"time_elapsed":2261565,"internal_node_id":"0.0-4.0-1.56","subject_id":"5e5d66f2101bf703d65326bc","study_id":"6197b3f67c2b5cd3b6d9596a","session_id":"619be31a6529b9e742167a2a","condition":"contingent","relevant_dimensions":["wings","pattern"],"bee_group":{"antennae":"X","wings":"2","pattern":"D","legs":"X"},"bonus":1.3800000000000014},{"rt":792.8000001907349,"stimulus":"bees-with-color/bee-B1SF.svg","response":0,"trial_type":"image-button-response","trial_index":121,"time_elapsed":2262359,"internal_node_id":"0.0-4.0-0.57","subject_id":"5e5d66f2101bf703d65326bc","study_id":"6197b3f67c2b5cd3b6d9596a","session_id":"619be31a6529b9e742167a2a","condition":"contingent","relevant_dimensions":["wings","pattern"],"bee_group":{"antennae":"X","wings":"2","pattern":"D","legs":"X"},"action":"harvest","summary":"good-harvest","bonus":1.3800000000000014},{"rt":471.7000000476837,"stimulus":"\n                    <p><b>Action: <em>harvest</em></b></p>\n                    <p>This is the bee that you just saw.</p>\n                    <img src=\"bees-with-color/bee-B1SF.svg\" width=\"200\">\n                    <p><span class=\"greenText\"><b>Successful harvest!</b></span><br>Your pay has increased by $0.02. Your bonus pay is now $0.82.</p>\n            ","response":0,"trial_type":"html-button-response","trial_index":122,"time_elapsed":2262832,"internal_node_id":"0.0-4.0-1.57","subject_id":"5e5d66f2101bf703d65326bc","study_id":"6197b3f67c2b5cd3b6d9596a","session_id":"619be31a6529b9e742167a2a","condition":"contingent","relevant_dimensions":["wings","pattern"],"bee_group":{"antennae":"X","wings":"2","pattern":"D","legs":"X"},"bonus":1.3800000000000014},{"rt":809.7000000476837,"stimulus":"bees-with-color/bee-A1SF.svg","response":0,"trial_type":"image-button-response","trial_index":123,"time_elapsed":2263643,"internal_node_id":"0.0-4.0-0.58","subject_id":"5e5d66f2101bf703d65326bc","study_id":"6197b3f67c2b5cd3b6d9596a","session_id":"619be31a6529b9e742167a2a","condition":"contingent","relevant_dimensions":["wings","pattern"],"bee_group":{"antennae":"X","wings":"2","pattern":"D","legs":"X"},"action":"harvest","summary":"good-harvest","bonus":1.3800000000000014},{"rt":498,"stimulus":"\n                    <p><b>Action: <em>harvest</em></b></p>\n                    <p>This is the bee that you just saw.</p>\n                    <img src=\"bees-with-color/bee-A1SF.svg\" width=\"200\">\n                    <p><span class=\"greenText\"><b>Successful harvest!</b></span><br>Your pay has increased by $0.02. Your bonus pay is now $0.84.</p>\n            ","response":0,"trial_type":"html-button-response","trial_index":124,"time_elapsed":2264142,"internal_node_id":"0.0-4.0-1.58","subject_id":"5e5d66f2101bf703d65326bc","study_id":"6197b3f67c2b5cd3b6d9596a","session_id":"619be31a6529b9e742167a2a","condition":"contingent","relevant_dimensions":["wings","pattern"],"bee_group":{"antennae":"X","wings":"2","pattern":"D","legs":"X"},"bonus":1.3800000000000014},{"rt":1278.5,"stimulus":"bees-with-color/bee-B1DM.svg","response":0,"trial_type":"image-button-response","trial_index":125,"time_elapsed":2265422,"internal_node_id":"0.0-4.0-0.59","subject_id":"5e5d66f2101bf703d65326bc","study_id":"6197b3f67c2b5cd3b6d9596a","session_id":"619be31a6529b9e742167a2a","condition":"contingent","relevant_dimensions":["wings","pattern"],"bee_group":{"antennae":"X","wings":"2","pattern":"D","legs":"X"},"action":"harvest","summary":"good-harvest","bonus":1.3800000000000014},{"rt":497.80000019073486,"stimulus":"\n                    <p><b>Action: <em>harvest</em></b></p>\n                    <p>This is the bee that you just saw.</p>\n                    <img src=\"bees-with-color/bee-B1DM.svg\" width=\"200\">\n                    <p><span class=\"greenText\"><b>Successful harvest!</b></span><br>Your pay has increased by $0.02. Your bonus pay is now $0.86.</p>\n            ","response":0,"trial_type":"html-button-response","trial_index":126,"time_elapsed":2265921,"internal_node_id":"0.0-4.0-1.59","subject_id":"5e5d66f2101bf703d65326bc","study_id":"6197b3f67c2b5cd3b6d9596a","session_id":"619be31a6529b9e742167a2a","condition":"contingent","relevant_dimensions":["wings","pattern"],"bee_group":{"antennae":"X","wings":"2","pattern":"D","legs":"X"},"bonus":1.3800000000000014},{"rt":924.7999999523163,"stimulus":"bees-with-color/bee-B1DF.svg","response":0,"trial_type":"image-button-response","trial_index":127,"time_elapsed":2266847,"internal_node_id":"0.0-4.0-0.60","subject_id":"5e5d66f2101bf703d65326bc","study_id":"6197b3f67c2b5cd3b6d9596a","session_id":"619be31a6529b9e742167a2a","condition":"contingent","relevant_dimensions":["wings","pattern"],"bee_group":{"antennae":"X","wings":"2","pattern":"D","legs":"X"},"action":"harvest","summary":"good-harvest","bonus":1.3800000000000014},{"rt":494.80000019073486,"stimulus":"\n                    <p><b>Action: <em>harvest</em></b></p>\n                    <p>This is the bee that you just saw.</p>\n                    <img src=\"bees-with-color/bee-B1DF.svg\" width=\"200\">\n                    <p><span class=\"greenText\"><b>Successful harvest!</b></span><br>Your pay has increased by $0.02. Your bonus pay is now $0.88.</p>\n            ","response":0,"trial_type":"html-button-response","trial_index":128,"time_elapsed":2267343,"internal_node_id":"0.0-4.0-1.60","subject_id":"5e5d66f2101bf703d65326bc","study_id":"6197b3f67c2b5cd3b6d9596a","session_id":"619be31a6529b9e742167a2a","condition":"contingent","relevant_dimensions":["wings","pattern"],"bee_group":{"antennae":"X","wings":"2","pattern":"D","legs":"X"},"bonus":1.3800000000000014},{"rt":1550,"stimulus":"bees-with-color/bee-B2DF.svg","response":1,"trial_type":"image-button-response","trial_index":129,"time_elapsed":2268894,"internal_node_id":"0.0-4.0-0.61","subject_id":"5e5d66f2101bf703d65326bc","study_id":"6197b3f67c2b5cd3b6d9596a","session_id":"619be31a6529b9e742167a2a","condition":"contingent","relevant_dimensions":["wings","pattern"],"bee_group":{"antennae":"X","wings":"2","pattern":"D","legs":"X"},"action":"avoid","summary":"good-avoid","bonus":1.3800000000000014},{"rt":485.60000014305115,"stimulus":"\n                    <p><b>Action: <em>avoid</em></b></p>\n                    <p>This is the bee that you just saw.</p>\n                    <img src=\"bees-with-color/bee-B2DF.svg\" width=\"200\">\n                    <p><br>Your bonus pay is unchanged, and remains at $0.88.</p>\n            ","response":0,"trial_type":"html-button-response","trial_index":130,"time_elapsed":2269381,"internal_node_id":"0.0-4.0-1.61","subject_id":"5e5d66f2101bf703d65326bc","study_id":"6197b3f67c2b5cd3b6d9596a","session_id":"619be31a6529b9e742167a2a","condition":"contingent","relevant_dimensions":["wings","pattern"],"bee_group":{"antennae":"X","wings":"2","pattern":"D","legs":"X"},"bonus":1.3800000000000014},{"rt":1207,"stimulus":"bees-with-color/bee-A2SF.svg","response":0,"trial_type":"image-button-response","trial_index":131,"time_elapsed":2270589,"internal_node_id":"0.0-4.0-0.62","subject_id":"5e5d66f2101bf703d65326bc","study_id":"6197b3f67c2b5cd3b6d9596a","session_id":"619be31a6529b9e742167a2a","condition":"contingent","relevant_dimensions":["wings","pattern"],"bee_group":{"antennae":"X","wings":"2","pattern":"D","legs":"X"},"action":"harvest","summary":"good-harvest","bonus":1.3800000000000014},{"rt":497.7999999523163,"stimulus":"\n                    <p><b>Action: <em>harvest</em></b></p>\n                    <p>This is the bee that you just saw.</p>\n                    <img src=\"bees-with-color/bee-A2SF.svg\" width=\"200\">\n                    <p><span class=\"greenText\"><b>Successful harvest!</b></span><br>Your pay has increased by $0.02. Your bonus pay is now $0.90.</p>\n            ","response":0,"trial_type":"html-button-response","trial_index":132,"time_elapsed":2271088,"internal_node_id":"0.0-4.0-1.62","subject_id":"5e5d66f2101bf703d65326bc","study_id":"6197b3f67c2b5cd3b6d9596a","session_id":"619be31a6529b9e742167a2a","condition":"contingent","relevant_dimensions":["wings","pattern"],"bee_group":{"antennae":"X","wings":"2","pattern":"D","legs":"X"},"bonus":1.3800000000000014},{"rt":1046.8000001907349,"stimulus":"bees-with-color/bee-A2DM.svg","response":1,"trial_type":"image-button-response","trial_index":133,"time_elapsed":2272136,"internal_node_id":"0.0-4.0-0.63","subject_id":"5e5d66f2101bf703d65326bc","study_id":"6197b3f67c2b5cd3b6d9596a","session_id":"619be31a6529b9e742167a2a","condition":"contingent","relevant_dimensions":["wings","pattern"],"bee_group":{"antennae":"X","wings":"2","pattern":"D","legs":"X"},"action":"avoid","summary":"good-avoid","bonus":1.3800000000000014},{"rt":476.7000000476837,"stimulus":"\n                    <p><b>Action: <em>avoid</em></b></p>\n                    <p>This is the bee that you just saw.</p>\n                    <img src=\"bees-with-color/bee-A2DM.svg\" width=\"200\">\n                    <p><br>Your bonus pay is unchanged, and remains at $0.90.</p>\n            ","response":0,"trial_type":"html-button-response","trial_index":134,"time_elapsed":2272614,"internal_node_id":"0.0-4.0-1.63","subject_id":"5e5d66f2101bf703d65326bc","study_id":"6197b3f67c2b5cd3b6d9596a","session_id":"619be31a6529b9e742167a2a","condition":"contingent","relevant_dimensions":["wings","pattern"],"bee_group":{"antennae":"X","wings":"2","pattern":"D","legs":"X"},"bonus":1.3800000000000014},{"rt":8623.100000143051,"stimulus":"You have completed the first part of this experiment.<br><br>You will now begin a shorter second part, in which you will receive no feedback.<br>The same rules regarding bonus pay apply.<br><br>Press any key to begin.","response":" ","trial_type":"html-keyboard-response","trial_index":135,"time_elapsed":2281238,"internal_node_id":"0.0-5.0","subject_id":"5e5d66f2101bf703d65326bc","study_id":"6197b3f67c2b5cd3b6d9596a","session_id":"619be31a6529b9e742167a2a","condition":"contingent","relevant_dimensions":["wings","pattern"],"bee_group":{"antennae":"X","wings":"2","pattern":"D","legs":"X"},"bonus":1.3800000000000014},{"rt":1668,"stimulus":"bees-with-color/bee-A2SF.svg","response":0,"trial_type":"image-button-response","trial_index":136,"time_elapsed":2282915,"internal_node_id":"0.0-6.0-0.0","subject_id":"5e5d66f2101bf703d65326bc","study_id":"6197b3f67c2b5cd3b6d9596a","session_id":"619be31a6529b9e742167a2a","condition":"contingent","relevant_dimensions":["wings","pattern"],"bee_group":{"antennae":"X","wings":"2","pattern":"D","legs":"X"},"bonus":1.3800000000000014},{"rt":1842.2999999523163,"stimulus":"bees-with-color/bee-B2SM.svg","response":0,"trial_type":"image-button-response","trial_index":137,"time_elapsed":2284759,"internal_node_id":"0.0-6.0-0.1","subject_id":"5e5d66f2101bf703d65326bc","study_id":"6197b3f67c2b5cd3b6d9596a","session_id":"619be31a6529b9e742167a2a","condition":"contingent","relevant_dimensions":["wings","pattern"],"bee_group":{"antennae":"X","wings":"2","pattern":"D","legs":"X"},"bonus":1.3800000000000014},{"rt":1524.5,"stimulus":"bees-with-color/bee-B2DF.svg","response":1,"trial_type":"image-button-response","trial_index":138,"time_elapsed":2286285,"internal_node_id":"0.0-6.0-0.2","subject_id":"5e5d66f2101bf703d65326bc","study_id":"6197b3f67c2b5cd3b6d9596a","session_id":"619be31a6529b9e742167a2a","condition":"contingent","relevant_dimensions":["wings","pattern"],"bee_group":{"antennae":"X","wings":"2","pattern":"D","legs":"X"},"bonus":1.3800000000000014},{"rt":1022.2000000476837,"stimulus":"bees-with-color/bee-B1DF.svg","response":0,"trial_type":"image-button-response","trial_index":139,"time_elapsed":2287309,"internal_node_id":"0.0-6.0-0.3","subject_id":"5e5d66f2101bf703d65326bc","study_id":"6197b3f67c2b5cd3b6d9596a","session_id":"619be31a6529b9e742167a2a","condition":"contingent","relevant_dimensions":["wings","pattern"],"bee_group":{"antennae":"X","wings":"2","pattern":"D","legs":"X"},"bonus":1.3800000000000014},{"rt":1153.4000000953674,"stimulus":"bees-with-color/bee-A1DF.svg","response":0,"trial_type":"image-button-response","trial_index":140,"time_elapsed":2288464,"internal_node_id":"0.0-6.0-0.4","subject_id":"5e5d66f2101bf703d65326bc","study_id":"6197b3f67c2b5cd3b6d9596a","session_id":"619be31a6529b9e742167a2a","condition":"contingent","relevant_dimensions":["wings","pattern"],"bee_group":{"antennae":"X","wings":"2","pattern":"D","legs":"X"},"bonus":1.3800000000000014},{"rt":1281.1000001430511,"stimulus":"bees-with-color/bee-A2DM.svg","response":1,"trial_type":"image-button-response","trial_index":141,"time_elapsed":2289747,"internal_node_id":"0.0-6.0-0.5","subject_id":"5e5d66f2101bf703d65326bc","study_id":"6197b3f67c2b5cd3b6d9596a","session_id":"619be31a6529b9e742167a2a","condition":"contingent","relevant_dimensions":["wings","pattern"],"bee_group":{"antennae":"X","wings":"2","pattern":"D","legs":"X"},"bonus":1.3800000000000014},{"rt":1005.2999999523163,"stimulus":"bees-with-color/bee-A1DM.svg","response":0,"trial_type":"image-button-response","trial_index":142,"time_elapsed":2290754,"internal_node_id":"0.0-6.0-0.6","subject_id":"5e5d66f2101bf703d65326bc","study_id":"6197b3f67c2b5cd3b6d9596a","session_id":"619be31a6529b9e742167a2a","condition":"contingent","relevant_dimensions":["wings","pattern"],"bee_group":{"antennae":"X","wings":"2","pattern":"D","legs":"X"},"bonus":1.3800000000000014},{"rt":1132.4000000953674,"stimulus":"bees-with-color/bee-B1SF.svg","response":0,"trial_type":"image-button-response","trial_index":143,"time_elapsed":2291888,"internal_node_id":"0.0-6.0-0.7","subject_id":"5e5d66f2101bf703d65326bc","study_id":"6197b3f67c2b5cd3b6d9596a","session_id":"619be31a6529b9e742167a2a","condition":"contingent","relevant_dimensions":["wings","pattern"],"bee_group":{"antennae":"X","wings":"2","pattern":"D","legs":"X"},"bonus":1.3800000000000014},{"rt":1212.4000000953674,"stimulus":"bees-with-color/bee-B2DM.svg","response":1,"trial_type":"image-button-response","trial_index":144,"time_elapsed":2293102,"internal_node_id":"0.0-6.0-0.8","subject_id":"5e5d66f2101bf703d65326bc","study_id":"6197b3f67c2b5cd3b6d9596a","session_id":"619be31a6529b9e742167a2a","condition":"contingent","relevant_dimensions":["wings","pattern"],"bee_group":{"antennae":"X","wings":"2","pattern":"D","legs":"X"},"bonus":1.3800000000000014},{"rt":1113.1000001430511,"stimulus":"bees-with-color/bee-A1SM.svg","response":0,"trial_type":"image-button-response","trial_index":145,"time_elapsed":2294217,"internal_node_id":"0.0-6.0-0.9","subject_id":"5e5d66f2101bf703d65326bc","study_id":"6197b3f67c2b5cd3b6d9596a","session_id":"619be31a6529b9e742167a2a","condition":"contingent","relevant_dimensions":["wings","pattern"],"bee_group":{"antennae":"X","wings":"2","pattern":"D","legs":"X"},"bonus":1.3800000000000014},{"rt":1082.4000000953674,"stimulus":"bees-with-color/bee-B2SF.svg","response":0,"trial_type":"image-button-response","trial_index":146,"time_elapsed":2295301,"internal_node_id":"0.0-6.0-0.10","subject_id":"5e5d66f2101bf703d65326bc","study_id":"6197b3f67c2b5cd3b6d9596a","session_id":"619be31a6529b9e742167a2a","condition":"contingent","relevant_dimensions":["wings","pattern"],"bee_group":{"antennae":"X","wings":"2","pattern":"D","legs":"X"},"bonus":1.3800000000000014},{"rt":1049.5,"stimulus":"bees-with-color/bee-B1DM.svg","response":0,"trial_type":"image-button-response","trial_index":147,"time_elapsed":2296352,"internal_node_id":"0.0-6.0-0.11","subject_id":"5e5d66f2101bf703d65326bc","study_id":"6197b3f67c2b5cd3b6d9596a","session_id":"619be31a6529b9e742167a2a","condition":"contingent","relevant_dimensions":["wings","pattern"],"bee_group":{"antennae":"X","wings":"2","pattern":"D","legs":"X"},"bonus":1.3800000000000014},{"rt":1591.1000001430511,"stimulus":"bees-with-color/bee-A2SM.svg","response":0,"trial_type":"image-button-response","trial_index":148,"time_elapsed":2297945,"internal_node_id":"0.0-6.0-0.12","subject_id":"5e5d66f2101bf703d65326bc","study_id":"6197b3f67c2b5cd3b6d9596a","session_id":"619be31a6529b9e742167a2a","condition":"contingent","relevant_dimensions":["wings","pattern"],"bee_group":{"antennae":"X","wings":"2","pattern":"D","legs":"X"},"bonus":1.3800000000000014},{"rt":705.3000001907349,"stimulus":"bees-with-color/bee-A1SF.svg","response":0,"trial_type":"image-button-response","trial_index":149,"time_elapsed":2298652,"internal_node_id":"0.0-6.0-0.13","subject_id":"5e5d66f2101bf703d65326bc","study_id":"6197b3f67c2b5cd3b6d9596a","session_id":"619be31a6529b9e742167a2a","condition":"contingent","relevant_dimensions":["wings","pattern"],"bee_group":{"antennae":"X","wings":"2","pattern":"D","legs":"X"},"bonus":1.3800000000000014},{"rt":1198.8999998569489,"stimulus":"bees-with-color/bee-B1SM.svg","response":0,"trial_type":"image-button-response","trial_index":150,"time_elapsed":2299853,"internal_node_id":"0.0-6.0-0.14","subject_id":"5e5d66f2101bf703d65326bc","study_id":"6197b3f67c2b5cd3b6d9596a","session_id":"619be31a6529b9e742167a2a","condition":"contingent","relevant_dimensions":["wings","pattern"],"bee_group":{"antennae":"X","wings":"2","pattern":"D","legs":"X"},"bonus":1.3800000000000014},{"rt":3180.2999999523163,"stimulus":"bees-with-color/bee-A2DF.svg","response":1,"trial_type":"image-button-response","trial_index":151,"time_elapsed":2303035,"internal_node_id":"0.0-6.0-0.15","subject_id":"5e5d66f2101bf703d65326bc","study_id":"6197b3f67c2b5cd3b6d9596a","session_id":"619be31a6529b9e742167a2a","condition":"contingent","relevant_dimensions":["wings","pattern"],"bee_group":{"antennae":"X","wings":"2","pattern":"D","legs":"X"},"bonus":1.3800000000000014},{"rt":1180.2000000476837,"stimulus":"bees-with-color/bee-B2DM.svg","response":1,"trial_type":"image-button-response","trial_index":152,"time_elapsed":2304217,"internal_node_id":"0.0-6.0-0.16","subject_id":"5e5d66f2101bf703d65326bc","study_id":"6197b3f67c2b5cd3b6d9596a","session_id":"619be31a6529b9e742167a2a","condition":"contingent","relevant_dimensions":["wings","pattern"],"bee_group":{"antennae":"X","wings":"2","pattern":"D","legs":"X"},"bonus":1.3800000000000014},{"rt":826.5,"stimulus":"bees-with-color/bee-B2SM.svg","response":0,"trial_type":"image-button-response","trial_index":153,"time_elapsed":2305045,"internal_node_id":"0.0-6.0-0.17","subject_id":"5e5d66f2101bf703d65326bc","study_id":"6197b3f67c2b5cd3b6d9596a","session_id":"619be31a6529b9e742167a2a","condition":"contingent","relevant_dimensions":["wings","pattern"],"bee_group":{"antennae":"X","wings":"2","pattern":"D","legs":"X"},"bonus":1.3800000000000014},{"rt":949.6000001430511,"stimulus":"bees-with-color/bee-B1SF.svg","response":0,"trial_type":"image-button-response","trial_index":154,"time_elapsed":2305996,"internal_node_id":"0.0-6.0-0.18","subject_id":"5e5d66f2101bf703d65326bc","study_id":"6197b3f67c2b5cd3b6d9596a","session_id":"619be31a6529b9e742167a2a","condition":"contingent","relevant_dimensions":["wings","pattern"],"bee_group":{"antennae":"X","wings":"2","pattern":"D","legs":"X"},"bonus":1.3800000000000014},{"rt":1179.2999999523163,"stimulus":"bees-with-color/bee-B2DF.svg","response":1,"trial_type":"image-button-response","trial_index":155,"time_elapsed":2307177,"internal_node_id":"0.0-6.0-0.19","subject_id":"5e5d66f2101bf703d65326bc","study_id":"6197b3f67c2b5cd3b6d9596a","session_id":"619be31a6529b9e742167a2a","condition":"contingent","relevant_dimensions":["wings","pattern"],"bee_group":{"antennae":"X","wings":"2","pattern":"D","legs":"X"},"bonus":1.3800000000000014},{"rt":1241.7000000476837,"stimulus":"bees-with-color/bee-A2SM.svg","response":0,"trial_type":"image-button-response","trial_index":156,"time_elapsed":2308420,"internal_node_id":"0.0-6.0-0.20","subject_id":"5e5d66f2101bf703d65326bc","study_id":"6197b3f67c2b5cd3b6d9596a","session_id":"619be31a6529b9e742167a2a","condition":"contingent","relevant_dimensions":["wings","pattern"],"bee_group":{"antennae":"X","wings":"2","pattern":"D","legs":"X"},"bonus":1.3800000000000014},{"rt":1560.6000001430511,"stimulus":"bees-with-color/bee-A1DF.svg","response":0,"trial_type":"image-button-response","trial_index":157,"time_elapsed":2309982,"internal_node_id":"0.0-6.0-0.21","subject_id":"5e5d66f2101bf703d65326bc","study_id":"6197b3f67c2b5cd3b6d9596a","session_id":"619be31a6529b9e742167a2a","condition":"contingent","relevant_dimensions":["wings","pattern"],"bee_group":{"antennae":"X","wings":"2","pattern":"D","legs":"X"},"bonus":1.3800000000000014},{"rt":778.3999998569489,"stimulus":"bees-with-color/bee-A1SM.svg","response":0,"trial_type":"image-button-response","trial_index":158,"time_elapsed":2310762,"internal_node_id":"0.0-6.0-0.22","subject_id":"5e5d66f2101bf703d65326bc","study_id":"6197b3f67c2b5cd3b6d9596a","session_id":"619be31a6529b9e742167a2a","condition":"contingent","relevant_dimensions":["wings","pattern"],"bee_group":{"antennae":"X","wings":"2","pattern":"D","legs":"X"},"bonus":1.3800000000000014},{"rt":1018.3999998569489,"stimulus":"bees-with-color/bee-A1DM.svg","response":0,"trial_type":"image-button-response","trial_index":159,"time_elapsed":2311782,"internal_node_id":"0.0-6.0-0.23","subject_id":"5e5d66f2101bf703d65326bc","study_id":"6197b3f67c2b5cd3b6d9596a","session_id":"619be31a6529b9e742167a2a","condition":"contingent","relevant_dimensions":["wings","pattern"],"bee_group":{"antennae":"X","wings":"2","pattern":"D","legs":"X"},"bonus":1.3800000000000014},{"rt":1238.4000000953674,"stimulus":"bees-with-color/bee-A2DM.svg","response":1,"trial_type":"image-button-response","trial_index":160,"time_elapsed":2313022,"internal_node_id":"0.0-6.0-0.24","subject_id":"5e5d66f2101bf703d65326bc","study_id":"6197b3f6