[{"success":true,"trial_type":"fullscreen","trial_index":0,"time_elapsed":2934,"internal_node_id":"0.0-0.0","subject_id":"5ce9a0df0f264b0017198742","study_id":"60edd13110225f80f9f3709b","session_id":"6196c4a18b3c108f2400267b","condition":"full-information","relevant_dimensions":["pattern","legs"],"bee_group":{"antennae":"X","wings":"X","pattern":"D","legs":"M"},"bonus":1.640000000000001},{"success":true,"timeout":false,"failed_images":[],"failed_audio":[],"failed_video":[],"trial_type":"preload","trial_index":1,"time_elapsed":6379,"internal_node_id":"0.0-1.0","subject_id":"5ce9a0df0f264b0017198742","study_id":"60edd13110225f80f9f3709b","session_id":"6196c4a18b3c108f2400267b","condition":"full-information","relevant_dimensions":["pattern","legs"],"bee_group":{"antennae":"X","wings":"X","pattern":"D","legs":"M"},"bonus":1.640000000000001},{"rt":2452.7999999523163,"stimulus":"Welcome! Press any key to begin.","response":" ","trial_type":"html-keyboard-response","trial_index":2,"time_elapsed":8832,"internal_node_id":"0.0-2.0","subject_id":"5ce9a0df0f264b0017198742","study_id":"60edd13110225f80f9f3709b","session_id":"6196c4a18b3c108f2400267b","condition":"full-information","relevant_dimensions":["pattern","legs"],"bee_group":{"antennae":"X","wings":"X","pattern":"D","legs":"M"},"bonus":1.640000000000001},{"view_history":[{"page_index":0,"viewing_time":2146},{"page_index":1,"viewing_time":9425.599999904633},{"page_index":2,"viewing_time":7062.300000071526},{"page_index":3,"viewing_time":10531.600000023842},{"page_index":4,"viewing_time":5772.199999928474},{"page_index":5,"viewing_time":5716.100000023842},{"page_index":6,"viewing_time":5741.799999952316},{"page_index":7,"viewing_time":5280},{"page_index":8,"viewing_time":2962.4000000953674},{"page_index":9,"viewing_time":1759.8999999761581},{"page_index":10,"viewing_time":2470.100000023842},{"page_index":11,"viewing_time":6335.699999928474},{"page_index":12,"viewing_time":18368.200000047684},{"page_index":13,"viewing_time":1311.8999999761581},{"page_index":14,"viewing_time":1544.1000000238419}],"rt":86428.09999990463,"trial_type":"instructions","trial_index":3,"time_elapsed":95260,"internal_node_id":"0.0-3.0-0.0","subject_id":"5ce9a0df0f264b0017198742","study_id":"60edd13110225f80f9f3709b","session_id":"6196c4a18b3c108f2400267b","condition":"full-information","relevant_dimensions":["pattern","legs"],"bee_group":{"antennae":"X","wings":"X","pattern":"D","legs":"M"},"bonus":1.640000000000001},{"rt":10036.299999952316,"response":{"Q0":["Two or six legs","Stripes or spots on body","Stinger or no stinger","Single or double wings","Antennae or no antennae"]},"question_order":[0],"trial_type":"survey-multi-select","trial_index":4,"time_elapsed":105301,"internal_node_id":"0.0-3.0-1.0","subject_id":"5ce9a0df0f264b0017198742","study_id":"60edd13110225f80f9f3709b","session_id":"6196c4a18b3c108f2400267b","condition":"full-information","relevant_dimensions":["pattern","legs"],"bee_group":{"antennae":"X","wings":"X","pattern":"D","legs":"M"},"correct":false,"bonus":1.640000000000001},{"rt":12422.100000023842,"response":{"Q1":"No.","Q2":"Based on the four features of the bee.","Q3":"You learn if it was friendly or dangerous, but do not alter your bonus."},"question_order":[0,1,2],"trial_type":"survey-multi-choice","trial_index":5,"time_elapsed":117726,"internal_node_id":"0.0-3.0-2.0","subject_id":"5ce9a0df0f264b0017198742","study_id":"60edd13110225f80f9f3709b","session_id":"6196c4a18b3c108f2400267b","condition":"full-information","relevant_dimensions":["pattern","legs"],"bee_group":{"antennae":"X","wings":"X","pattern":"D","legs":"M"},"correct":true,"bonus":1.640000000000001},{"rt":2666.5,"stimulus":"<p>You did not answer all comprehension questions correctly.<br>Press <b>continue</b> to review the instructions again.</p>","response":0,"trial_type":"html-button-response","trial_index":6,"time_elapsed":120396,"internal_node_id":"0.0-3.0-3.0","subject_id":"5ce9a0df0f264b0017198742","study_id":"60edd13110225f80f9f3709b","session_id":"6196c4a18b3c108f2400267b","condition":"full-information","relevant_dimensions":["pattern","legs"],"bee_group":{"antennae":"X","wings":"X","pattern":"D","legs":"M"},"bonus":1.640000000000001},{"view_history":[{"page_index":0,"viewing_time":1417.3000000715256},{"page_index":1,"viewing_time":1320},{"page_index":2,"viewing_time":963.8999999761581},{"page_index":3,"viewing_time":771.8999999761581},{"page_index":4,"viewing_time":1886.1000000238419},{"page_index":5,"viewing_time":1680.2999999523163},{"page_index":6,"viewing_time":979.6000000238419},{"page_index":7,"viewing_time":2006.5},{"page_index":8,"viewing_time":1401.8000000715256},{"page_index":9,"viewing_time":2165.5999999046326},{"page_index":10,"viewing_time":1600.3000000715256},{"page_index":11,"viewing_time":1430},{"page_index":12,"viewing_time":977.6999999284744},{"page_index":13,"viewing_time":840},{"page_index":14,"viewing_time":552.1000000238419}],"rt":19993.200000047684,"trial_type":"instructions","trial_index":7,"time_elapsed":140390,"internal_node_id":"0.0-3.0-4.0-0.0","subject_id":"5ce9a0df0f264b0017198742","study_id":"60edd13110225f80f9f3709b","session_id":"6196c4a18b3c108f2400267b","condition":"full-information","relevant_dimensions":["pattern","legs"],"bee_group":{"antennae":"X","wings":"X","pattern":"D","legs":"M"},"bonus":1.640000000000001},{"rt":7992.400000095367,"response":{"Q0":["Two or six legs","Stripes or spots on body","Single or double wings","Antennae or no antennae"]},"question_order":[0],"trial_type":"survey-multi-select","trial_index":8,"time_elapsed":148384,"internal_node_id":"0.0-3.0-4.0-1.0","subject_id":"5ce9a0df0f264b0017198742","study_id":"60edd13110225f80f9f3709b","session_id":"6196c4a18b3c108f2400267b","condition":"full-information","relevant_dimensions":["pattern","legs"],"bee_group":{"antennae":"X","wings":"X","pattern":"D","legs":"M"},"correct":true,"bonus":1.640000000000001},{"rt":5476.199999928474,"response":{"Q1":"No.","Q2":"Based on the four features of the bee.","Q3":"You learn if it was friendly or dangerous, but do not alter your bonus."},"question_order":[0,1,2],"trial_type":"survey-multi-choice","trial_index":9,"time_elapsed":153864,"internal_node_id":"0.0-3.0-4.0-2.0","subject_id":"5ce9a0df0f264b0017198742","study_id":"60edd13110225f80f9f3709b","session_id":"6196c4a18b3c108f2400267b","condition":"full-information","relevant_dimensions":["pattern","legs"],"bee_group":{"antennae":"X","wings":"X","pattern":"D","legs":"M"},"correct":true,"bonus":1.640000000000001},{"rt":1403.1000000238419,"stimulus":"<p>Congrats, you got everything right<br>When you're ready, click the button below to continue to the experiment.</p>","response":0,"trial_type":"html-button-response","trial_index":10,"time_elapsed":155270,"internal_node_id":"0.0-3.0-4.0-3.0","subject_id":"5ce9a0df0f264b0017198742","study_id":"60edd13110225f80f9f3709b","session_id":"6196c4a18b3c108f2400267b","condition":"full-information","relevant_dimensions":["pattern","legs"],"bee_group":{"antennae":"X","wings":"X","pattern":"D","legs":"M"},"bonus":1.640000000000001},{"rt":3518.399999976158,"stimulus":"bees-with-color/bee-A1SF.svg","response":0,"trial_type":"image-button-response","trial_index":11,"time_elapsed":158790,"internal_node_id":"0.0-4.0-0.0","subject_id":"5ce9a0df0f264b0017198742","study_id":"60edd13110225f80f9f3709b","session_id":"6196c4a18b3c108f2400267b","condition":"full-information","relevant_dimensions":["pattern","legs"],"bee_group":{"antennae":"X","wings":"X","pattern":"D","legs":"M"},"action":"harvest","summary":"good-harvest","bonus":1.640000000000001},{"rt":6110.5,"stimulus":"\n                    <p><b>Action: <em>harvest</em></b></p>\n                    <p>This is the bee that you just saw.</p>\n                    <img src=\"bees-with-color/bee-A1SF.svg\" width=\"200\">\n                    <p><span class=\"greenText\"><b>Successful harvest!</b></span><br>Your pay has increased by $0.02. Your bonus pay is now $0.56.</p>\n            ","response":0,"trial_type":"html-button-response","trial_index":12,"time_elapsed":164902,"internal_node_id":"0.0-4.0-1.0","subject_id":"5ce9a0df0f264b0017198742","study_id":"60edd13110225f80f9f3709b","session_id":"6196c4a18b3c108f2400267b","condition":"full-information","relevant_dimensions":["pattern","legs"],"bee_group":{"antennae":"X","wings":"X","pattern":"D","legs":"M"},"bonus":1.640000000000001},{"rt":2092.2999999523163,"stimulus":"bees-with-color/bee-A2SM.svg","response":0,"trial_type":"image-button-response","trial_index":13,"time_elapsed":166996,"internal_node_id":"0.0-4.0-0.1","subject_id":"5ce9a0df0f264b0017198742","study_id":"60edd13110225f80f9f3709b","session_id":"6196c4a18b3c108f2400267b","condition":"full-information","relevant_dimensions":["pattern","legs"],"bee_group":{"antennae":"X","wings":"X","pattern":"D","legs":"M"},"action":"harvest","summary":"good-harvest","bonus":1.640000000000001},{"rt":5172.300000071526,"stimulus":"\n                    <p><b>Action: <em>harvest</em></b></p>\n                    <p>This is the bee that you just saw.</p>\n                    <img src=\"bees-with-color/bee-A2SM.svg\" width=\"200\">\n                    <p><span class=\"greenText\"><b>Successful harvest!</b></span><br>Your pay has increased by $0.02. Your bonus pay is now $0.58.</p>\n            ","response":0,"trial_type":"html-button-response","trial_index":14,"time_elapsed":172170,"internal_node_id":"0.0-4.0-1.1","subject_id":"5ce9a0df0f264b0017198742","study_id":"60edd13110225f80f9f3709b","session_id":"6196c4a18b3c108f2400267b","condition":"full-information","relevant_dimensions":["pattern","legs"],"bee_group":{"antennae":"X","wings":"X","pattern":"D","legs":"M"},"bonus":1.640000000000001},{"rt":1864.7000000476837,"stimulus":"bees-with-color/bee-A1DM.svg","response":0,"trial_type":"image-button-response","trial_index":15,"time_elapsed":174036,"internal_node_id":"0.0-4.0-0.2","subject_id":"5ce9a0df0f264b0017198742","study_id":"60edd13110225f80f9f3709b","session_id":"6196c4a18b3c108f2400267b","condition":"full-information","relevant_dimensions":["pattern","legs"],"bee_group":{"antennae":"X","wings":"X","pattern":"D","legs":"M"},"action":"harvest","summary":"bad-harvest","bonus":1.640000000000001},{"rt":7182.099999904633,"stimulus":"\n                    <p><b>Action: <em>harvest</em></b></p>\n                    <p>This is the bee that you just saw.</p>\n                    <img src=\"bees-with-color/bee-A1DM.svg\" width=\"200\">\n                    <p><span class=\"redText\">Bad choice, the bee was angry.</span><br><b>You have been stung!</b><br>Your pay has been decreased by $0.10. Your bonus pay is now $0.48.</p>\n            ","response":0,"trial_type":"html-button-response","trial_index":16,"time_elapsed":181220,"internal_node_id":"0.0-4.0-1.2","subject_id":"5ce9a0df0f264b0017198742","study_id":"60edd13110225f80f9f3709b","session_id":"6196c4a18b3c108f2400267b","condition":"full-information","relevant_dimensions":["pattern","legs"],"bee_group":{"antennae":"X","wings":"X","pattern":"D","legs":"M"},"bonus":1.640000000000001},{"rt":1478.8999999761581,"stimulus":"bees-with-color/bee-B1SM.svg","response":0,"trial_type":"image-button-response","trial_index":17,"time_elapsed":182700,"internal_node_id":"0.0-4.0-0.3","subject_id":"5ce9a0df0f264b0017198742","study_id":"60edd13110225f80f9f3709b","session_id":"6196c4a18b3c108f2400267b","condition":"full-information","relevant_dimensions":["pattern","legs"],"bee_group":{"antennae":"X","wings":"X","pattern":"D","legs":"M"},"action":"harvest","summary":"good-harvest","bonus":1.640000000000001},{"rt":1254,"stimulus":"\n                    <p><b>Action: <em>harvest</em></b></p>\n                    <p>This is the bee that you just saw.</p>\n                    <img src=\"bees-with-color/bee-B1SM.svg\" width=\"200\">\n                    <p><span class=\"greenText\"><b>Successful harvest!</b></span><br>Your pay has increased by $0.02. Your bonus pay is now $0.50.</p>\n            ","response":0,"trial_type":"html-button-response","trial_index":18,"time_elapsed":183955,"internal_node_id":"0.0-4.0-1.3","subject_id":"5ce9a0df0f264b0017198742","study_id":"60edd13110225f80f9f3709b","session_id":"6196c4a18b3c108f2400267b","condition":"full-information","relevant_dimensions":["pattern","legs"],"bee_group":{"antennae":"X","wings":"X","pattern":"D","legs":"M"},"bonus":1.640000000000001},{"rt":1568.2000000476837,"stimulus":"bees-with-color/bee-B2SF.svg","response":0,"trial_type":"image-button-response","trial_index":19,"time_elapsed":185524,"internal_node_id":"0.0-4.0-0.4","subject_id":"5ce9a0df0f264b0017198742","study_id":"60edd13110225f80f9f3709b","session_id":"6196c4a18b3c108f2400267b","condition":"full-information","relevant_dimensions":["pattern","legs"],"bee_group":{"antennae":"X","wings":"X","pattern":"D","legs":"M"},"action":"harvest","summary":"good-harvest","bonus":1.640000000000001},{"rt":1172.6999999284744,"stimulus":"\n                    <p><b>Action: <em>harvest</em></b></p>\n                    <p>This is the bee that you just saw.</p>\n                    <img src=\"bees-with-color/bee-B2SF.svg\" width=\"200\">\n                    <p><span class=\"greenText\"><b>Successful harvest!</b></span><br>Your pay has increased by $0.02. Your bonus pay is now $0.52.</p>\n            ","response":0,"trial_type":"html-button-response","trial_index":20,"time_elapsed":186698,"internal_node_id":"0.0-4.0-1.4","subject_id":"5ce9a0df0f264b0017198742","study_id":"60edd13110225f80f9f3709b","session_id":"6196c4a18b3c108f2400267b","condition":"full-information","relevant_dimensions":["pattern","legs"],"bee_group":{"antennae":"X","wings":"X","pattern":"D","legs":"M"},"bonus":1.640000000000001},{"rt":1258.6000000238419,"stimulus":"bees-with-color/bee-B2DM.svg","response":1,"trial_type":"image-button-response","trial_index":21,"time_elapsed":187958,"internal_node_id":"0.0-4.0-0.5","subject_id":"5ce9a0df0f264b0017198742","study_id":"60edd13110225f80f9f3709b","session_id":"6196c4a18b3c108f2400267b","condition":"full-information","relevant_dimensions":["pattern","legs"],"bee_group":{"antennae":"X","wings":"X","pattern":"D","legs":"M"},"action":"avoid","summary":"good-avoid","bonus":1.640000000000001},{"rt":2899,"stimulus":"\n                    <p><b>Action: <em>avoid</em></b></p>\n                    <p>This is the bee that you just saw.</p>\n                    <img src=\"bees-with-color/bee-B2DM.svg\" width=\"200\">\n                    <p><span class=\"greenText\">Good choice!</span>  This bee would have stung you.<br>Your bonus pay is unchanged, and remains at $0.52.</p>\n            ","response":0,"trial_type":"html-button-response","trial_index":22,"time_elapsed":190858,"internal_node_id":"0.0-4.0-1.5","subject_id":"5ce9a0df0f264b0017198742","study_id":"60edd13110225f80f9f3709b","session_id":"6196c4a18b3c108f2400267b","condition":"full-information","relevant_dimensions":["pattern","legs"],"bee_group":{"antennae":"X","wings":"X","pattern":"D","legs":"M"},"bonus":1.640000000000001},{"rt":1048.6000000238419,"stimulus":"bees-with-color/bee-B2SM.svg","response":0,"trial_type":"image-button-response","trial_index":23,"time_elapsed":191908,"internal_node_id":"0.0-4.0-0.6","subject_id":"5ce9a0df0f264b0017198742","study_id":"60edd13110225f80f9f3709b","session_id":"6196c4a18b3c108f2400267b","condition":"full-information","relevant_dimensions":["pattern","legs"],"bee_group":{"antennae":"X","wings":"X","pattern":"D","legs":"M"},"action":"harvest","summary":"good-harvest","bonus":1.640000000000001},{"rt":1114.9000000953674,"stimulus":"\n                    <p><b>Action: <em>harvest</em></b></p>\n                    <p>This is the bee that you just saw.</p>\n                    <img src=\"bees-with-color/bee-B2SM.svg\" width=\"200\">\n                    <p><span class=\"greenText\"><b>Successful harvest!</b></span><br>Your pay has increased by $0.02. Your bonus pay is now $0.54.</p>\n            ","response":0,"trial_type":"html-button-response","trial_index":24,"time_elapsed":193024,"internal_node_id":"0.0-4.0-1.6","subject_id":"5ce9a0df0f264b0017198742","study_id":"60edd13110225f80f9f3709b","session_id":"6196c4a18b3c108f2400267b","condition":"full-information","relevant_dimensions":["pattern","legs"],"bee_group":{"antennae":"X","wings":"X","pattern":"D","legs":"M"},"bonus":1.640000000000001},{"rt":907.1999999284744,"stimulus":"bees-with-color/bee-B2DF.svg","response":1,"trial_type":"image-button-response","trial_index":25,"time_elapsed":193932,"internal_node_id":"0.0-4.0-0.7","subject_id":"5ce9a0df0f264b0017198742","study_id":"60edd13110225f80f9f3709b","session_id":"6196c4a18b3c108f2400267b","condition":"full-information","relevant_dimensions":["pattern","legs"],"bee_group":{"antennae":"X","wings":"X","pattern":"D","legs":"M"},"action":"avoid","summary":"bad-avoid","bonus":1.640000000000001},{"rt":4370.199999928474,"stimulus":"\n                    <p><b>Action: <em>avoid</em></b></p>\n                    <p>This is the bee that you just saw.</p>\n                    <img src=\"bees-with-color/bee-B2DF.svg\" width=\"200\">\n                    <p><span class=\"redText\">Bad choice,</span> the bee was friendly.<br>Your bonus pay is unchanged, and remains at $0.54.</p>\n            ","response":0,"trial_type":"html-button-response","trial_index":26,"time_elapsed":198304,"internal_node_id":"0.0-4.0-1.7","subject_id":"5ce9a0df0f264b0017198742","study_id":"60edd13110225f80f9f3709b","session_id":"6196c4a18b3c108f2400267b","condition":"full-information","relevant_dimensions":["pattern","legs"],"bee_group":{"antennae":"X","wings":"X","pattern":"D","legs":"M"},"bonus":1.640000000000001},{"rt":1332.2999999523163,"stimulus":"bees-with-color/bee-A1SM.svg","response":0,"trial_type":"image-button-response","trial_index":27,"time_elapsed":199638,"internal_node_id":"0.0-4.0-0.8","subject_id":"5ce9a0df0f264b0017198742","study_id":"60edd13110225f80f9f3709b","session_id":"6196c4a18b3c108f2400267b","condition":"full-information","relevant_dimensions":["pattern","legs"],"bee_group":{"antennae":"X","wings":"X","pattern":"D","legs":"M"},"action":"harvest","summary":"good-harvest","bonus":1.640000000000001},{"rt":1149,"stimulus":"\n                    <p><b>Action: <em>harvest</em></b></p>\n                    <p>This is the bee that you just saw.</p>\n                    <img src=\"bees-with-color/bee-A1SM.svg\" width=\"200\">\n                    <p><span class=\"greenText\"><b>Successful harvest!</b></span><br>Your pay has increased by $0.02. Your bonus pay is now $0.56.</p>\n            ","response":0,"trial_type":"html-button-response","trial_index":28,"time_elapsed":200788,"internal_node_id":"0.0-4.0-1.8","subject_id":"5ce9a0df0f264b0017198742","study_id":"60edd13110225f80f9f3709b","session_id":"6196c4a18b3c108f2400267b","condition":"full-information","relevant_dimensions":["pattern","legs"],"bee_group":{"antennae":"X","wings":"X","pattern":"D","legs":"M"},"bonus":1.640000000000001},{"rt":1756.6999999284744,"stimulus":"bees-with-color/bee-A2DF.svg","response":0,"trial_type":"image-button-response","trial_index":29,"time_elapsed":202546,"internal_node_id":"0.0-4.0-0.9","subject_id":"5ce9a0df0f264b0017198742","study_id":"60edd13110225f80f9f3709b","session_id":"6196c4a18b3c108f2400267b","condition":"full-information","relevant_dimensions":["pattern","legs"],"bee_group":{"antennae":"X","wings":"X","pattern":"D","legs":"M"},"action":"harvest","summary":"good-harvest","bonus":1.640000000000001},{"rt":1090.1999999284744,"stimulus":"\n                    <p><b>Action: <em>harvest</em></b></p>\n                    <p>This is the bee that you just saw.</p>\n                    <img src=\"bees-with-color/bee-A2DF.svg\" width=\"200\">\n                    <p><span class=\"greenText\"><b>Successful harvest!</b></span><br>Your pay has increased by $0.02. Your bonus pay is now $0.58.</p>\n            ","response":0,"trial_type":"html-button-response","trial_index":30,"time_elapsed":203638,"internal_node_id":"0.0-4.0-1.9","subject_id":"5ce9a0df0f264b0017198742","study_id":"60edd13110225f80f9f3709b","session_id":"6196c4a18b3c108f2400267b","condition":"full-information","relevant_dimensions":["pattern","legs"],"bee_group":{"antennae":"X","wings":"X","pattern":"D","legs":"M"},"bonus":1.640000000000001},{"rt":1423.2000000476837,"stimulus":"bees-with-color/bee-B1DM.svg","response":1,"trial_type":"image-button-response","trial_index":31,"time_elapsed":205062,"internal_node_id":"0.0-4.0-0.10","subject_id":"5ce9a0df0f264b0017198742","study_id":"60edd13110225f80f9f3709b","session_id":"6196c4a18b3c108f2400267b","condition":"full-information","relevant_dimensions":["pattern","legs"],"bee_group":{"antennae":"X","wings":"X","pattern":"D","legs":"M"},"action":"avoid","summary":"good-avoid","bonus":1.640000000000001},{"rt":3938.899999976158,"stimulus":"\n                    <p><b>Action: <em>avoid</em></b></p>\n                    <p>This is the bee that you just saw.</p>\n                    <img src=\"bees-with-color/bee-B1DM.svg\" width=\"200\">\n                    <p><span class=\"greenText\">Good choice!</span>  This bee would have stung you.<br>Your bonus pay is unchanged, and remains at $0.58.</p>\n            ","response":0,"trial_type":"html-button-response","trial_index":32,"time_elapsed":209002,"internal_node_id":"0.0-4.0-1.10","subject_id":"5ce9a0df0f264b0017198742","study_id":"60edd13110225f80f9f3709b","session_id":"6196c4a18b3c108f2400267b","condition":"full-information","relevant_dimensions":["pattern","legs"],"bee_group":{"antennae":"X","wings":"X","pattern":"D","legs":"M"},"bonus":1.640000000000001},{"rt":1352.8000000715256,"stimulus":"bees-with-color/bee-A1DF.svg","response":0,"trial_type":"image-button-response","trial_index":33,"time_elapsed":210356,"internal_node_id":"0.0-4.0-0.11","subject_id":"5ce9a0df0f264b0017198742","study_id":"60edd13110225f80f9f3709b","session_id":"6196c4a18b3c108f2400267b","condition":"full-information","relevant_dimensions":["pattern","legs"],"bee_group":{"antennae":"X","wings":"X","pattern":"D","legs":"M"},"action":"harvest","summary":"good-harvest","bonus":1.640000000000001},{"rt":936.5,"stimulus":"\n                    <p><b>Action: <em>harvest</em></b></p>\n                    <p>This is the bee that you just saw.</p>\n                    <img src=\"bees-with-color/bee-A1DF.svg\" width=\"200\">\n                    <p><span class=\"greenText\"><b>Successful harvest!</b></span><br>Your pay has increased by $0.02. Your bonus pay is now $0.60.</p>\n            ","response":0,"trial_type":"html-button-response","trial_index":34,"time_elapsed":211294,"internal_node_id":"0.0-4.0-1.11","subject_id":"5ce9a0df0f264b0017198742","study_id":"60edd13110225f80f9f3709b","session_id":"6196c4a18b3c108f2400267b","condition":"full-information","relevant_dimensions":["pattern","legs"],"bee_group":{"antennae":"X","wings":"X","pattern":"D","legs":"M"},"bonus":1.640000000000001},{"rt":1209.5,"stimulus":"bees-with-color/bee-A2DM.svg","response":1,"trial_type":"image-button-response","trial_index":35,"time_elapsed":212504,"internal_node_id":"0.0-4.0-0.12","subject_id":"5ce9a0df0f264b0017198742","study_id":"60edd13110225f80f9f3709b","session_id":"6196c4a18b3c108f2400267b","condition":"full-information","relevant_dimensions":["pattern","legs"],"bee_group":{"antennae":"X","wings":"X","pattern":"D","legs":"M"},"action":"avoid","summary":"good-avoid","bonus":1.640000000000001},{"rt":1005,"stimulus":"\n                    <p><b>Action: <em>avoid</em></b></p>\n                    <p>This is the bee that you just saw.</p>\n                    <img src=\"bees-with-color/bee-A2DM.svg\" width=\"200\">\n                    <p><span class=\"greenText\">Good choice!</span>  This bee would have stung you.<br>Your bonus pay is unchanged, and remains at $0.60.</p>\n            ","response":0,"trial_type":"html-button-response","trial_index":36,"time_elapsed":213510,"internal_node_id":"0.0-4.0-1.12","subject_id":"5ce9a0df0f264b0017198742","study_id":"60edd13110225f80f9f3709b","session_id":"6196c4a18b3c108f2400267b","condition":"full-information","relevant_dimensions":["pattern","legs"],"bee_group":{"antennae":"X","wings":"X","pattern":"D","legs":"M"},"bonus":1.640000000000001},{"rt":2054.600000023842,"stimulus":"bees-with-color/bee-B1DF.svg","response":0,"trial_type":"image-button-response","trial_index":37,"time_elapsed":215566,"internal_node_id":"0.0-4.0-0.13","subject_id":"5ce9a0df0f264b0017198742","study_id":"60edd13110225f80f9f3709b","session_id":"6196c4a18b3c108f2400267b","condition":"full-information","relevant_dimensions":["pattern","legs"],"bee_group":{"antennae":"X","wings":"X","pattern":"D","legs":"M"},"action":"harvest","summary":"good-harvest","bonus":1.640000000000001},{"rt":10346.899999976158,"stimulus":"\n                    <p><b>Action: <em>harvest</em></b></p>\n                    <p>This is the bee that you just saw.</p>\n                    <img src=\"bees-with-color/bee-B1DF.svg\" width=\"200\">\n                    <p><span class=\"greenText\"><b>Successful harvest!</b></span><br>Your pay has increased by $0.02. Your bonus pay is now $0.62.</p>\n            ","response":0,"trial_type":"html-button-response","trial_index":38,"time_elapsed":225914,"internal_node_id":"0.0-4.0-1.13","subject_id":"5ce9a0df0f264b0017198742","study_id":"60edd13110225f80f9f3709b","session_id":"6196c4a18b3c108f2400267b","condition":"full-information","relevant_dimensions":["pattern","legs"],"bee_group":{"antennae":"X","wings":"X","pattern":"D","legs":"M"},"bonus":1.640000000000001},{"rt":2245.0999999046326,"stimulus":"bees-with-color/bee-A2SF.svg","response":0,"trial_type":"image-button-response","trial_index":39,"time_elapsed":228161,"internal_node_id":"0.0-4.0-0.14","subject_id":"5ce9a0df0f264b0017198742","study_id":"60edd13110225f80f9f3709b","session_id":"6196c4a18b3c108f2400267b","condition":"full-information","relevant_dimensions":["pattern","legs"],"bee_group":{"antennae":"X","wings":"X","pattern":"D","legs":"M"},"action":"harvest","summary":"good-harvest","bonus":1.640000000000001},{"rt":832.7999999523163,"stimulus":"\n                    <p><b>Action: <em>harvest</em></b></p>\n                    <p>This is the bee that you just saw.</p>\n                    <img src=\"bees-with-color/bee-A2SF.svg\" width=\"200\">\n                    <p><span class=\"greenText\"><b>Successful harvest!</b></span><br>Your pay has increased by $0.02. Your bonus pay is now $0.64.</p>\n            ","response":0,"trial_type":"html-button-response","trial_index":40,"time_elapsed":228995,"internal_node_id":"0.0-4.0-1.14","subject_id":"5ce9a0df0f264b0017198742","study_id":"60edd13110225f80f9f3709b","session_id":"6196c4a18b3c108f2400267b","condition":"full-information","relevant_dimensions":["pattern","legs"],"bee_group":{"antennae":"X","wings":"X","pattern":"D","legs":"M"},"bonus":1.640000000000001},{"rt":1216.2000000476837,"stimulus":"bees-with-color/bee-B1SF.svg","response":0,"trial_type":"image-button-response","trial_index":41,"time_elapsed":230212,"internal_node_id":"0.0-4.0-0.15","subject_id":"5ce9a0df0f264b0017198742","study_id":"60edd13110225f80f9f3709b","session_id":"6196c4a18b3c108f2400267b","condition":"full-information","relevant_dimensions":["pattern","legs"],"bee_group":{"antennae":"X","wings":"X","pattern":"D","legs":"M"},"action":"harvest","summary":"good-harvest","bonus":1.640000000000001},{"rt":844.8999999761581,"stimulus":"\n                    <p><b>Action: <em>harvest</em></b></p>\n                    <p>This is the bee that you just saw.</p>\n                    <img src=\"bees-with-color/bee-B1SF.svg\" width=\"200\">\n                    <p><span class=\"greenText\"><b>Successful harvest!</b></span><br>Your pay has increased by $0.02. Your bonus pay is now $0.66.</p>\n            ","response":0,"trial_type":"html-button-response","trial_index":42,"time_elapsed":231058,"internal_node_id":"0.0-4.0-1.15","subject_id":"5ce9a0df0f264b0017198742","study_id":"60edd13110225f80f9f3709b","session_id":"6196c4a18b3c108f2400267b","condition":"full-information","relevant_dimensions":["pattern","legs"],"bee_group":{"antennae":"X","wings":"X","pattern":"D","legs":"M"},"bonus":1.640000000000001},{"rt":887.2999999523163,"stimulus":"bees-with-color/bee-B1SF.svg","response":0,"trial_type":"image-button-response","trial_index":43,"time_elapsed":231946,"internal_node_id":"0.0-4.0-0.16","subject_id":"5ce9a0df0f264b0017198742","study_id":"60edd13110225f80f9f3709b","session_id":"6196c4a18b3c108f2400267b","condition":"full-information","relevant_dimensions":["pattern","legs"],"bee_group":{"antennae":"X","wings":"X","pattern":"D","legs":"M"},"action":"harvest","summary":"good-harvest","bonus":1.640000000000001},{"rt":720.5,"stimulus":"\n                    <p><b>Action: <em>harvest</em></b></p>\n                    <p>This is the bee that you just saw.</p>\n                    <img src=\"bees-with-color/bee-B1SF.svg\" width=\"200\">\n                    <p><span class=\"greenText\"><b>Successful harvest!</b></span><br>Your pay has increased by $0.02. Your bonus pay is now $0.68.</p>\n            ","response":0,"trial_type":"html-button-response","trial_index":44,"time_elapsed":232668,"internal_node_id":"0.0-4.0-1.16","subject_id":"5ce9a0df0f264b0017198742","study_id":"60edd13110225f80f9f3709b","session_id":"6196c4a18b3c108f2400267b","condition":"full-information","relevant_dimensions":["pattern","legs"],"bee_group":{"antennae":"X","wings":"X","pattern":"D","legs":"M"},"bonus":1.640000000000001},{"rt":1531,"stimulus":"bees-with-color/bee-A2SM.svg","response":0,"trial_type":"image-button-response","trial_index":45,"time_elapsed":234200,"internal_node_id":"0.0-4.0-0.17","subject_id":"5ce9a0df0f264b0017198742","study_id":"60edd13110225f80f9f3709b","session_id":"6196c4a18b3c108f2400267b","condition":"full-information","relevant_dimensions":["pattern","legs"],"bee_group":{"antennae":"X","wings":"X","pattern":"D","legs":"M"},"action":"harvest","summary":"good-harvest","bonus":1.640000000000001},{"rt":880.5,"stimulus":"\n                    <p><b>Action: <em>harvest</em></b></p>\n                    <p>This is the bee that you just saw.</p>\n                    <img src=\"bees-with-color/bee-A2SM.svg\" width=\"200\">\n                    <p><span class=\"greenText\"><b>Successful harvest!</b></span><br>Your pay has increased by $0.02. Your bonus pay is now $0.70.</p>\n            ","response":0,"trial_type":"html-button-response","trial_index":46,"time_elapsed":235082,"internal_node_id":"0.0-4.0-1.17","subject_id":"5ce9a0df0f264b0017198742","study_id":"60edd13110225f80f9f3709b","session_id":"6196c4a18b3c108f2400267b","condition":"full-information","relevant_dimensions":["pattern","legs"],"bee_group":{"antennae":"X","wings":"X","pattern":"D","legs":"M"},"bonus":1.640000000000001},{"rt":1693.5,"stimulus":"bees-with-color/bee-A2SF.svg","response":0,"trial_type":"image-button-response","trial_index":47,"time_elapsed":236777,"internal_node_id":"0.0-4.0-0.18","subject_id":"5ce9a0df0f264b0017198742","study_id":"60edd13110225f80f9f3709b","session_id":"6196c4a18b3c108f2400267b","condition":"full-information","relevant_dimensions":["pattern","legs"],"bee_group":{"antennae":"X","wings":"X","pattern":"D","legs":"M"},"action":"harvest","summary":"good-harvest","bonus":1.640000000000001},{"rt":892.6000000238419,"stimulus":"\n                    <p><b>Action: <em>harvest</em></b></p>\n                    <p>This is the bee that you just saw.</p>\n                    <img src=\"bees-with-color/bee-A2SF.svg\" width=\"200\">\n                    <p><span class=\"greenText\"><b>Successful harvest!</b></span><br>Your pay has increased by $0.02. Your bonus pay is now $0.72.</p>\n            ","response":0,"trial_type":"html-button-response","trial_index":48,"time_elapsed":237670,"internal_node_id":"0.0-4.0-1.18","subject_id":"5ce9a0df0f264b0017198742","study_id":"60edd13110225f80f9f3709b","session_id":"6196c4a18b3c108f2400267b","condition":"full-information","relevant_dimensions":["pattern","legs"],"bee_group":{"antennae":"X","wings":"X","pattern":"D","legs":"M"},"bonus":1.640000000000001},{"rt":1667.1000000238419,"stimulus":"bees-with-color/bee-B1SM.svg","response":0,"trial_type":"image-button-response","trial_index":49,"time_elapsed":239338,"internal_node_id":"0.0-4.0-0.19","subject_id":"5ce9a0df0f264b0017198742","study_id":"60edd13110225f80f9f3709b","session_id":"6196c4a18b3c108f2400267b","condition":"full-information","relevant_dimensions":["pattern","legs"],"bee_group":{"antennae":"X","wings":"X","pattern":"D","legs":"M"},"action":"harvest","summary":"good-harvest","bonus":1.640000000000001},{"rt":948.7000000476837,"stimulus":"\n                    <p><b>Action: <em>harvest</em></b></p>\n                    <p>This is the bee that you just saw.</p>\n                    <img src=\"bees-with-color/bee-B1SM.svg\" width=\"200\">\n                    <p><span class=\"greenText\"><b>Successful harvest!</b></span><br>Your pay has increased by $0.02. Your bonus pay is now $0.74.</p>\n            ","response":0,"trial_type":"html-button-response","trial_index":50,"time_elapsed":240288,"internal_node_id":"0.0-4.0-1.19","subject_id":"5ce9a0df0f264b0017198742","study_id":"60edd13110225f80f9f3709b","session_id":"6196c4a18b3c108f2400267b","condition":"full-information","relevant_dimensions":["pattern","legs"],"bee_group":{"antennae":"X","wings":"X","pattern":"D","legs":"M"},"bonus":1.640000000000001},{"rt":1702.8999999761581,"stimulus":"bees-with-color/bee-A2DM.svg","response":1,"trial_type":"image-button-response","trial_index":51,"time_elapsed":241992,"internal_node_id":"0.0-4.0-0.20","subject_id":"5ce9a0df0f264b0017198742","study_id":"60edd13110225f80f9f3709b","session_id":"6196c4a18b3c108f2400267b","condition":"full-information","relevant_dimensions":["pattern","legs"],"bee_group":{"antennae":"X","wings":"X","pattern":"D","legs":"M"},"action":"avoid","summary":"good-avoid","bonus":1.640000000000001},{"rt":971,"stimulus":"\n                    <p><b>Action: <em>avoid</em></b></p>\n                    <p>This is the bee that you just saw.</p>\n                    <img src=\"bees-with-color/bee-A2DM.svg\" width=\"200\">\n                    <p><span class=\"greenText\">Good choice!</span>  This bee would have stung you.<br>Your bonus pay is unchanged, and remains at $0.74.</p>\n            ","response":0,"trial_type":"html-button-response","trial_index":52,"time_elapsed":242964,"internal_node_id":"0.0-4.0-1.20","subject_id":"5ce9a0df0f264b0017198742","study_id":"60edd13110225f80f9f3709b","session_id":"6196c4a18b3c108f2400267b","condition":"full-information","relevant_dimensions":["pattern","legs"],"bee_group":{"antennae":"X","wings":"X","pattern":"D","legs":"M"},"bonus":1.640000000000001},{"rt":2080.600000023842,"stimulus":"bees-with-color/bee-A2DF.svg","response":0,"trial_type":"image-button-response","trial_index":53,"time_elapsed":245046,"internal_node_id":"0.0-4.0-0.21","subject_id":"5ce9a0df0f264b0017198742","study_id":"60edd13110225f80f9f3709b","session_id":"6196c4a18b3c108f2400267b","condition":"full-information","relevant_dimensions":["pattern","legs"],"bee_group":{"antennae":"X","wings":"X","pattern":"D","legs":"M"},"action":"harvest","summary":"good-harvest","bonus":1.640000000000001},{"rt":894.8999999761581,"stimulus":"\n                    <p><b>Action: <em>harvest</em></b></p>\n                    <p>This is the bee that you just saw.</p>\n                    <img src=\"bees-with-color/bee-A2DF.svg\" width=\"200\">\n                    <p><span class=\"greenText\"><b>Successful harvest!</b></span><br>Your pay has increased by $0.02. Your bonus pay is now $0.76.</p>\n            ","response":0,"trial_type":"html-button-response","trial_index":54,"time_elapsed":245942,"internal_node_id":"0.0-4.0-1.21","subject_id":"5ce9a0df0f264b0017198742","study_id":"60edd13110225f80f9f3709b","session_id":"6196c4a18b3c108f2400267b","condition":"full-information","relevant_dimensions":["pattern","legs"],"bee_group":{"antennae":"X","wings":"X","pattern":"D","legs":"M"},"bonus":1.640000000000001},{"rt":943.6000000238419,"stimulus":"bees-with-color/bee-A1SF.svg","response":0,"trial_type":"image-button-response","trial_index":55,"time_elapsed":246887,"internal_node_id":"0.0-4.0-0.22","subject_id":"5ce9a0df0f264b0017198742","study_id":"60edd13110225f80f9f3709b","session_id":"6196c4a18b3c108f2400267b","condition":"full-information","relevant_dimensions":["pattern","legs"],"bee_group":{"antennae":"X","wings":"X","pattern":"D","legs":"M"},"action":"harvest","summary":"good-harvest","bonus":1.640000000000001},{"rt":984.7000000476837,"stimulus":"\n                    <p><b>Action: <em>harvest</em></b></p>\n                    <p>This is the bee that you just saw.</p>\n                    <img src=\"bees-with-color/bee-A1SF.svg\" width=\"200\">\n                    <p><span class=\"greenText\"><b>Successful harvest!</b></span><br>Your pay has increased by $0.02. Your bonus pay is now $0.78.</p>\n            ","response":0,"trial_type":"html-button-response","trial_index":56,"time_elapsed":247872,"internal_node_id":"0.0-4.0-1.22","subject_id":"5ce9a0df0f264b0017198742","study_id":"60edd13110225f80f9f3709b","session_id":"6196c4a18b3c108f2400267b","condition":"full-information","relevant_dimensions":["pattern","legs"],"bee_group":{"antennae":"X","wings":"X","pattern":"D","legs":"M"},"bonus":1.640000000000001},{"rt":1365,"stimulus":"bees-with-color/bee-A1DM.svg","response":1,"trial_type":"image-button-response","trial_index":57,"time_elapsed":249238,"internal_node_id":"0.0-4.0-0.23","subject_id":"5ce9a0df0f264b0017198742","study_id":"60edd13110225f80f9f3709b","session_id":"6196c4a18b3c108f2400267b","condition":"full-information","relevant_dimensions":["pattern","legs"],"bee_group":{"antennae":"X","wings":"X","pattern":"D","legs":"M"},"action":"avoid","summary":"good-avoid","bonus":1.640000000000001},{"rt":959.2999999523163,"stimulus":"\n                    <p><b>Action: <em>avoid</em></b></p>\n                    <p>This is the bee that you just saw.</p>\n                    <img src=\"bees-with-color/bee-A1DM.svg\" width=\"200\">\n                    <p><span class=\"greenText\">Good choice!</span>  This bee would have stung you.<br>Your bonus pay is unchanged, and remains at $0.78.</p>\n            ","response":0,"trial_type":"html-button-response","trial_index":58,"time_elapsed":250199,"internal_node_id":"0.0-4.0-1.23","subject_id":"5ce9a0df0f264b0017198742","study_id":"60edd13110225f80f9f3709b","session_id":"6196c4a18b3c108f2400267b","condition":"full-information","relevant_dimensions":["pattern","legs"],"bee_group":{"antennae":"X","wings":"X","pattern":"D","legs":"M"},"bonus":1.640000000000001},{"rt":1687,"stimulus":"bees-with-color/bee-B2DF.svg","response":0,"trial_type":"image-button-response","trial_index":59,"time_elapsed":251887,"internal_node_id":"0.0-4.0-0.24","subject_id":"5ce9a0df0f264b0017198742","study_id":"60edd13110225f80f9f3709b","session_id":"6196c4a18b3c108f2400267b","condition":"full-information","relevant_dimensions":["pattern","legs"],"bee_group":{"antennae":"X","wings":"X","pattern":"D","legs":"M"},"action":"harvest","summary":"good-harvest","bonus":1.640000000000001},{"rt":854.7000000476837,"stimulus":"\n                    <p><b>Action: <em>harvest</em></b></p>\n                    <p>This is the bee that you just saw.</p>\n                    <img src=\"bees-with-color/bee-B2DF.svg\" width=\"200\">\n                    <p><span class=\"greenText\"><b>Successful harvest!</b></span><br>Your pay has increased by $0.02. Your bonus pay is now $0.80.</p>\n            ","response":0,"trial_type":"html-button-response","trial_index":60,"time_elapsed":252743,"internal_node_id":"0.0-4.0-1.24","subject_id":"5ce9a0df0f264b0017198742","study_id":"60edd13110225f80f9f3709b","session_id":"6196c4a18b3c108f2400267b","condition":"full-information","relevant_dimensions":["pattern","legs"],"bee_group":{"antennae":"X","wings":"X","pattern":"D","legs":"M"},"bonus":1.640000000000001},{"rt":1464.5999999046326,"stimulus":"bees-with-color/bee-B1DM.svg","response":1,"trial_type":"image-button-response","trial_index":61,"time_elapsed":254209,"internal_node_id":"0.0-4.0-0.25","subject_id":"5ce9a0df0f264b0017198742","study_id":"60edd13110225f80f9f3709b","session_id":"6196c4a18b3c108f2400267b","condition":"full-information","relevant_dimensions":["pattern","legs"],"bee_group":{"antennae":"X","wings":"X","pattern":"D","legs":"M"},"action":"avoid","summary":"good-avoid","bonus":1.640000000000001},{"rt":876.6000000238419,"stimulus":"\n                    <p><b>Action: <em>avoid</em></b></p>\n                    <p>This is the bee that you just saw.</p>\n                    <img src=\"bees-with-color/bee-B1DM.svg\" width=\"200\">\n                    <p><span class=\"greenText\">Good choice!</span>  This bee would have stung you.<br>Your bonus pay is unchanged, and remains at $0.80.</p>\n            ","response":0,"trial_type":"html-button-response","trial_index":62,"time_elapsed":255086,"internal_node_id":"0.0-4.0-1.25","subject_id":"5ce9a0df0f264b0017198742","study_id":"60edd13110225f80f9f3709b","session_id":"6196c4a18b3c108f2400267b","condition":"full-information","relevant_dimensions":["pattern","legs"],"bee_group":{"antennae":"X","wings":"X","pattern":"D","legs":"M"},"bonus":1.640000000000001},{"rt":1989.2999999523163,"stimulus":"bees-with-color/bee-B2SM.svg","response":0,"trial_type":"image-button-response","trial_index":63,"time_elapsed":257077,"internal_node_id":"0.0-4.0-0.26","subject_id":"5ce9a0df0f264b0017198742","study_id":"60edd13110225f80f9f3709b","session_id":"6196c4a18b3c108f2400267b","condition":"full-information","relevant_dimensions":["pattern","legs"],"bee_group":{"antennae":"X","wings":"X","pattern":"D","legs":"M"},"action":"harvest","summary":"good-harvest","bonus":1.640000000000001},{"rt":702.1999999284744,"stimulus":"\n                    <p><b>Action: <em>harvest</em></b></p>\n                    <p>This is the bee that you just saw.</p>\n                    <img src=\"bees-with-color/bee-B2SM.svg\" width=\"200\">\n                    <p><span class=\"greenText\"><b>Successful harvest!</b></span><br>Your pay has increased by $0.02. Your bonus pay is now $0.82.</p>\n            ","response":0,"trial_type":"html-button-response","trial_index":64,"time_elapsed":257780,"internal_node_id":"0.0-4.0-1.26","subject_id":"5ce9a0df0f264b0017198742","study_id":"60edd13110225f80f9f3709b","session_id":"6196c4a18b3c108f2400267b","condition":"full-information","relevant_dimensions":["pattern","legs"],"bee_group":{"antennae":"X","wings":"X","pattern":"D","legs":"M"},"bonus":1.640000000000001},{"rt":977.2999999523163,"stimulus":"bees-with-color/bee-A1SM.svg","response":0,"trial_type":"image-button-response","trial_index":65,"time_elapsed":258758,"internal_node_id":"0.0-4.0-0.27","subject_id":"5ce9a0df0f264b0017198742","study_id":"60edd13110225f80f9f3709b","session_id":"6196c4a18b3c108f2400267b","condition":"full-information","relevant_dimensions":["pattern","legs"],"bee_group":{"antennae":"X","wings":"X","pattern":"D","legs":"M"},"action":"harvest","summary":"good-harvest","bonus":1.640000000000001},{"rt":629.3999999761581,"stimulus":"\n                    <p><b>Action: <em>harvest</em></b></p>\n                    <p>This is the bee that you just saw.</p>\n                    <img src=\"bees-with-color/bee-A1SM.svg\" width=\"200\">\n                    <p><span class=\"greenText\"><b>Successful harvest!</b></span><br>Your pay has increased by $0.02. Your bonus pay is now $0.84.</p>\n            ","response":0,"trial_type":"html-button-response","trial_index":66,"time_elapsed":259389,"internal_node_id":"0.0-4.0-1.27","subject_id":"5ce9a0df0f264b0017198742","study_id":"60edd13110225f80f9f3709b","session_id":"6196c4a18b3c108f2400267b","condition":"full-information","relevant_dimensions":["pattern","legs"],"bee_group":{"antennae":"X","wings":"X","pattern":"D","legs":"M"},"bonus":1.640000000000001},{"rt":710.2999999523163,"stimulus":"bees-with-color/bee-B2SF.svg","response":0,"trial_type":"image-button-response","trial_index":67,"time_elapsed":260100,"internal_node_id":"0.0-4.0-0.28","subject_id":"5ce9a0df0f264b0017198742","study_id":"60edd13110225f80f9f3709b","session_id":"6196c4a18b3c108f2400267b","condition":"full-information","relevant_dimensions":["pattern","legs"],"bee_group":{"antennae":"X","wings":"X","pattern":"D","legs":"M"},"action":"harvest","summary":"good-harvest","bonus":1.640000000000001},{"rt":740.7999999523163,"stimulus":"\n                    <p><b>Action: <em>harvest</em></b></p>\n                    <p>This is the bee that you just saw.</p>\n                    <img src=\"bees-with-color/bee-B2SF.svg\" width=\"200\">\n                    <p><span class=\"greenText\"><b>Successful harvest!</b></span><br>Your pay has increased by $0.02. Your bonus pay is now $0.86.</p>\n            ","response":0,"trial_type":"html-button-response","trial_index":68,"time_elapsed":260842,"internal_node_id":"0.0-4.0-1.28","subject_id":"5ce9a0df0f264b0017198742","study_id":"60edd13110225f80f9f3709b","session_id":"6196c4a18b3c108f2400267b","condition":"full-information","relevant_dimensions":["pattern","legs"],"bee_group":{"antennae":"X","wings":"X","pattern":"D","legs":"M"},"bonus":1.640000000000001},{"rt":977.5,"stimulus":"bees-with-color/bee-B2DM.svg","response":1,"trial_type":"image-button-response","trial_index":69,"time_elapsed":261820,"internal_node_id":"0.0-4.0-0.29","subject_id":"5ce9a0df0f264b0017198742","study_id":"60edd13110225f80f9f3709b","session_id":"6196c4a18b3c108f2400267b","condition":"full-information","relevant_dimensions":["pattern","legs"],"bee_group":{"antennae":"X","wings":"X","pattern":"D","legs":"M"},"action":"avoid","summary":"good-avoid","bonus":1.640000000000001},{"rt":624.6999999284744,"stimulus":"\n                    <p><b>Action: <em>avoid</em></b></p>\n                    <p>This is the bee that you just saw.</p>\n                    <img src=\"bees-with-color/bee-B2DM.svg\" width=\"200\">\n                    <p><span class=\"greenText\">Good choice!</span>  This bee would have stung you.<br>Your bonus pay is unchanged, and remains at $0.86.</p>\n            ","response":0,"trial_type":"html-button-response","trial_index":70,"time_elapsed":262446,"internal_node_id":"0.0-4.0-1.29","subject_id":"5ce9a0df0f264b0017198742","study_id":"60edd13110225f80f9f3709b","session_id":"6196c4a18b3c108f2400267b","condition":"full-information","relevant_dimensions":["pattern","legs"],"bee_group":{"antennae":"X","wings":"X","pattern":"D","legs":"M"},"bonus":1.640000000000001},{"rt":873.2999999523163,"stimulus":"bees-with-color/bee-A1DF.svg","response":0,"trial_type":"image-button-response","trial_index":71,"time_elapsed":263320,"internal_node_id":"0.0-4.0-0.30","subject_id":"5ce9a0df0f264b0017198742","study_id":"60edd13110225f80f9f3709b","session_id":"6196c4a18b3c108f2400267b","condition":"full-information","relevant_dimensions":["pattern","legs"],"bee_group":{"antennae":"X","wings":"X","pattern":"D","legs":"M"},"action":"harvest","summary":"good-harvest","bonus":1.640000000000001},{"rt":807,"stimulus":"\n                    <p><b>Action: <em>harvest</em></b></p>\n                    <p>This is the bee that you just saw.</p>\n                    <img src=\"bees-with-color/bee-A1DF.svg\" width=\"200\">\n                    <p><span class=\"greenText\"><b>Successful harvest!</b></span><br>Your pay has increased by $0.02. Your bonus pay is now $0.88.</p>\n            ","response":0,"trial_type":"html-button-response","trial_index":72,"time_elapsed":264128,"internal_node_id":"0.0-4.0-1.30","subject_id":"5ce9a0df0f264b0017198742","study_id":"60edd13110225f80f9f3709b","session_id":"6196c4a18b3c108f2400267b","condition":"full-information","relevant_dimensions":["pattern","legs"],"bee_group":{"antennae":"X","wings":"X","pattern":"D","legs":"M"},"bonus":1.640000000000001},{"rt":2385.600000023842,"stimulus":"bees-with-color/bee-B1DF.svg","response":0,"trial_type":"image-button-response","trial_index":73,"time_elapsed":266514,"internal_node_id":"0.0-4.0-0.31","subject_id":"5ce9a0df0f264b0017198742","study_id":"60edd13110225f80f9f3709b","session_id":"6196c4a18b3c108f2400267b","condition":"full-information","relevant_dimensions":["pattern","legs"],"bee_group":{"antennae":"X","wings":"X","pattern":"D","legs":"M"},"action":"harvest","summary":"good-harvest","bonus":1.640000000000001},{"rt":1106.5999999046326,"stimulus":"\n                    <p><b>Action: <em>harvest</em></b></p>\n                    <p>This is the bee that you just saw.</p>\n                    <img src=\"bees-with-color/bee-B1DF.svg\" width=\"200\">\n                    <p><span class=\"greenText\"><b>Successful harvest!</b></span><br>Your pay has increased by $0.02. Your bonus pay is now $0.90.</p>\n            ","response":0,"trial_type":"html-button-response","trial_index":74,"time_elapsed":267622,"internal_node_id":"0.0-4.0-1.31","subject_id":"5ce9a0df0f264b0017198742","study_id":"60edd13110225f80f9f3709b","session_id":"6196c4a18b3c108f2400267b","condition":"full-information","relevant_dimensions":["pattern","legs"],"bee_group":{"antennae":"X","wings":"X","pattern":"D","legs":"M"},"bonus":1.640000000000001},{"rt":1455.1000000238419,"stimulus":"bees-with-color/bee-A2DF.svg","response":0,"trial_type":"image-button-response","trial_index":75,"time_elapsed":269078,"internal_node_id":"0.0-4.0-0.32","subject_id":"5ce9a0df0f264b0017198742","study_id":"60edd13110225f80f9f3709b","session_id":"6196c4a18b3c108f2400267b","condition":"full-information","relevant_dimensions":["pattern","legs"],"bee_group":{"antennae":"X","wings":"X","pattern":"D","legs":"M"},"action":"harvest","summary":"good-harvest","bonus":1.640000000000001},{"rt":639.1000000238419,"stimulus":"\n                    <p><b>Action: <em>harvest</em></b></p>\n                    <p>This is the bee that you just saw.</p>\n                    <img src=\"bees-with-color/bee-A2DF.svg\" width=\"200\">\n                    <p><span class=\"greenText\"><b>Successful harvest!</b></span><br>Your pay has increased by $0.02. Your bonus pay is now $0.92.</p>\n            ","response":0,"trial_type":"html-button-response","trial_index":76,"time_elapsed":269718,"internal_node_id":"0.0-4.0-1.32","subject_id":"5ce9a0df0f264b0017198742","study_id":"60edd13110225f80f9f3709b","session_id":"6196c4a18b3c108f2400267b","condition":"full-information","relevant_dimensions":["pattern","legs"],"bee_group":{"antennae":"X","wings":"X","pattern":"D","legs":"M"},"bonus":1.640000000000001},{"rt":849.7000000476837,"stimulus":"bees-with-color/bee-B2SF.svg","response":0,"trial_type":"image-button-response","trial_index":77,"time_elapsed":270569,"internal_node_id":"0.0-4.0-0.33","subject_id":"5ce9a0df0f264b0017198742","study_id":"60edd13110225f80f9f3709b","session_id":"6196c4a18b3c108f2400267b","condition":"full-information","relevant_dimensions":["pattern","legs"],"bee_group":{"antennae":"X","wings":"X","pattern":"D","legs":"M"},"action":"harvest","summary":"good-harvest","bonus":1.640000000000001},{"rt":600.3000000715256,"stimulus":"\n                    <p><b>Action: <em>harvest</em></b></p>\n                    <p>This is the bee that you just saw.</p>\n                    <img src=\"bees-with-color/bee-B2SF.svg\" width=\"200\">\n                    <p><span class=\"greenText\"><b>Successful harvest!</b></span><br>Your pay has increased by $0.02. Your bonus pay is now $0.94.</p>\n            ","response":0,"trial_type":"html-button-response","trial_index":78,"time_elapsed":271170,"internal_node_id":"0.0-4.0-1.33","subject_id":"5ce9a0df0f264b0017198742","study_id":"60edd13110225f80f9f3709b","session_id":"6196c4a18b3c108f2400267b","condition":"full-information","relevant_dimensions":["pattern","legs"],"bee_group":{"antennae":"X","wings":"X","pattern":"D","legs":"M"},"bonus":1.640000000000001},{"rt":1130.4000000953674,"stimulus":"bees-with-color/bee-A2DM.svg","response":1,"trial_type":"image-button-response","trial_index":79,"time_elapsed":272302,"internal_node_id":"0.0-4.0-0.34","subject_id":"5ce9a0df0f264b0017198742","study_id":"60edd13110225f80f9f3709b","session_id":"6196c4a18b3c108f2400267b","condition":"full-information","relevant_dimensions":["pattern","legs"],"bee_group":{"antennae":"X","wings":"X","pattern":"D","legs":"M"},"action":"avoid","summary":"good-avoid","bonus":1.640000000000001},{"rt":534.9000000953674,"stimulus":"\n                    <p><b>Action: <em>avoid</em></b></p>\n                    <p>This is the bee that you just saw.</p>\n                    <img src=\"bees-with-color/bee-A2DM.svg\" width=\"200\">\n                    <p><span class=\"greenText\">Good choice!</span>  This bee would have stung you.<br>Your bonus pay is unchanged, and remains at $0.94.</p>\n            ","response":0,"trial_type":"html-button-response","trial_index":80,"time_elapsed":272839,"internal_node_id":"0.0-4.0-1.34","subject_id":"5ce9a0df0f264b0017198742","study_id":"60edd13110225f80f9f3709b","session_id":"6196c4a18b3c108f2400267b","condition":"full-information","relevant_dimensions":["pattern","legs"],"bee_group":{"antennae":"X","wings":"X","pattern":"D","legs":"M"},"bonus":1.640000000000001},{"rt":648.8000000715256,"stimulus":"bees-with-color/bee-A2SF.svg","response":0,"trial_type":"image-button-response","trial_index":81,"time_elapsed":273488,"internal_node_id":"0.0-4.0-0.35","subject_id":"5ce9a0df0f264b0017198742","study_id":"60edd13110225f80f9f3709b","session_id":"6196c4a18b3c108f2400267b","condition":"full-information","relevant_dimensions":["pattern","legs"],"bee_group":{"antennae":"X","wings":"X","pattern":"D","legs":"M"},"action":"harvest","summary":"good-harvest","bonus":1.640000000000001},{"rt":614.6000000238419,"stimulus":"\n                    <p><b>Action: <em>harvest</em></b></p>\n                    <p>This is the bee that you just saw.</p>\n                    <img src=\"bees-with-color/bee-A2SF.svg\" width=\"200\">\n                    <p><span class=\"greenText\"><b>Successful harvest!</b></span><br>Your pay has increased by $0.02. Your bonus pay is now $0.96.</p>\n            ","response":0,"trial_type":"html-button-response","trial_index":82,"time_elapsed":274104,"internal_node_id":"0.0-4.0-1.35","subject_id":"5ce9a0df0f264b0017198742","study_id":"60edd13110225f80f9f3709b","session_id":"6196c4a18b3c108f2400267b","condition":"full-information","relevant_dimensions":["pattern","legs"],"bee_group":{"antennae":"X","wings":"X","pattern":"D","legs":"M"},"bonus":1.640000000000001},{"rt":1121.5,"stimulus":"bees-with-color/bee-A1DF.svg","response":0,"trial_type":"image-button-response","trial_index":83,"time_elapsed":275226,"internal_node_id":"0.0-4.0-0.36","subject_id":"5ce9a0df0f264b0017198742","study_id":"60edd13110225f80f9f3709b","session_id":"6196c4a18b3c108f2400267b","condition":"full-information","relevant_dimensions":["pattern","legs"],"bee_group":{"antennae":"X","wings":"X","pattern":"D","legs":"M"},"action":"harvest","summary":"good-harvest","bonus":1.640000000000001},{"rt":586.1000000238419,"stimulus":"\n                    <p><b>Action: <em>harvest</em></b></p>\n                    <p>This is the bee that you just saw.</p>\n                    <img src=\"bees-with-color/bee-A1DF.svg\" width=\"200\">\n                    <p><span class=\"greenText\"><b>Successful harvest!</b></span><br>Your pay has increased by $0.02. Your bonus pay is now $0.98.</p>\n            ","response":0,"trial_type":"html-button-response","trial_index":84,"time_elapsed":275814,"internal_node_id":"0.0-4.0-1.36","subject_id":"5ce9a0df0f264b0017198742","study_id":"60edd13110225f80f9f3709b","session_id":"6196c4a18b3c108f2400267b","condition":"full-information","relevant_dimensions":["pattern","legs"],"bee_group":{"antennae":"X","wings":"X","pattern":"D","legs":"M"},"bonus":1.640000000000001},{"rt":1013.1000000238419,"stimulus":"bees-with-color/bee-B1SF.svg","response":0,"trial_type":"image-button-response","trial_index":85,"time_elapsed":276828,"internal_node_id":"0.0-4.0-0.37","subject_id":"5ce9a0df0f264b0017198742","study_id":"60edd13110225f80f9f3709b","session_id":"6196c4a18b3c108f2400267b","condition":"full-information","relevant_dimensions":["pattern","legs"],"bee_group":{"antennae":"X","wings":"X","pattern":"D","legs":"M"},"action":"harvest","summary":"good-harvest","bonus":1.640000000000001},{"rt":506.5,"stimulus":"\n                    <p><b>Action: <em>harvest</em></b></p>\n                    <p>This is the bee that you just saw.</p>\n                    <img src=\"bees-with-color/bee-B1SF.svg\" width=\"200\">\n                    <p><span class=\"greenText\"><b>Successful harvest!</b></span><br>Your pay has increased by $0.02. Your bonus pay is now $1.00.</p>\n            ","response":0,"trial_type":"html-button-response","trial_index":86,"time_elapsed":277336,"internal_node_id":"0.0-4.0-1.37","subject_id":"5ce9a0df0f264b0017198742","study_id":"60edd13110225f80f9f3709b","session_id":"6196c4a18b3c108f2400267b","condition":"full-information","relevant_dimensions":["pattern","legs"],"bee_group":{"antennae":"X","wings":"X","pattern":"D","legs":"M"},"bonus":1.640000000000001},{"rt":1259.6000000238419,"stimulus":"bees-with-color/bee-B1DF.svg","response":0,"trial_type":"image-button-response","trial_index":87,"time_elapsed":278597,"internal_node_id":"0.0-4.0-0.38","subject_id":"5ce9a0df0f264b0017198742","study_id":"60edd13110225f80f9f3709b","session_id":"6196c4a18b3c108f2400267b","condition":"full-information","relevant_dimensions":["pattern","legs"],"bee_group":{"antennae":"X","wings":"X","pattern":"D","legs":"M"},"action":"harvest","summary":"good-harvest","bonus":1.640000000000001},{"rt":686.7999999523163,"stimulus":"\n                    <p><b>Action: <em>harvest</em></b></p>\n                    <p>This is the bee that you just saw.</p>\n                    <img src=\"bees-with-color/bee-B1DF.svg\" width=\"200\">\n                    <p><span class=\"greenText\"><b>Successful harvest!</b></span><br>Your pay has increased by $0.02. Your bonus pay is now $1.02.</p>\n            ","response":0,"trial_type":"html-button-response","trial_index":88,"time_elapsed":279285,"internal_node_id":"0.0-4.0-1.38","subject_id":"5ce9a0df0f264b0017198742","study_id":"60edd13110225f80f9f3709b","session_id":"6196c4a18b3c108f2400267b","condition":"full-information","relevant_dimensions":["pattern","legs"],"bee_group":{"antennae":"X","wings":"X","pattern":"D","legs":"M"},"bonus":1.640000000000001},{"rt":908.5,"stimulus":"bees-with-color/bee-B2DM.svg","response":1,"trial_type":"image-button-response","trial_index":89,"time_elapsed":280194,"internal_node_id":"0.0-4.0-0.39","subject_id":"5ce9a0df0f264b0017198742","study_id":"60edd13110225f80f9f3709b","session_id":"6196c4a18b3c108f2400267b","condition":"full-information","relevant_dimensions":["pattern","legs"],"bee_group":{"antennae":"X","wings":"X","pattern":"D","legs":"M"},"action":"avoid","summary":"good-avoid","bonus":1.640000000000001},{"rt":525.2999999523163,"stimulus":"\n                    <p><b>Action: <em>avoid</em></b></p>\n                    <p>This is the bee that you just saw.</p>\n                    <img src=\"bees-with-color/bee-B2DM.svg\" width=\"200\">\n                    <p><span class=\"greenText\">Good choice!</span>  This bee would have stung you.<br>Your bonus pay is unchanged, and remains at $1.02.</p>\n            ","response":0,"trial_type":"html-button-response","trial_index":90,"time_elapsed":280721,"internal_node_id":"0.0-4.0-1.39","subject_id":"5ce9a0df0f264b0017198742","study_id":"60edd13110225f80f9f3709b","session_id":"6196c4a18b3c108f2400267b","condition":"full-information","relevant_dimensions":["pattern","legs"],"bee_group":{"antennae":"X","wings":"X","pattern":"D","legs":"M"},"bonus":1.640000000000001},{"rt":560.8999999761581,"stimulus":"bees-with-color/bee-A1SF.svg","response":0,"trial_type":"image-button-response","trial_index":91,"time_elapsed":281282,"internal_node_id":"0.0-4.0-0.40","subject_id":"5ce9a0df0f264b0017198742","study_id":"60edd13110225f80f9f3709b","session_id":"6196c4a18b3c108f2400267b","condition":"full-information","relevant_dimensions":["pattern","legs"],"bee_group":{"antennae":"X","wings":"X","pattern":"D","legs":"M"},"action":"harvest","summary":"good-harvest","bonus":1.640000000000001},{"rt":582.7000000476837,"stimulus":"\n                    <p><b>Action: <em>harvest</em></b></p>\n                    <p>This is the bee that you just saw.</p>\n                    <img src=\"bees-with-color/bee-A1SF.svg\" width=\"200\">\n                    <p><span class=\"greenText\"><b>Successful harvest!</b></span><br>Your pay has increased by $0.02. Your bonus pay is now $1.04.</p>\n            ","response":0,"trial_type":"html-button-response","trial_index":92,"time_elapsed":281867,"internal_node_id":"0.0-4.0-1.40","subject_id":"5ce9a0df0f264b0017198742","study_id":"60edd13110225f80f9f3709b","session_id":"6196c4a18b3c108f2400267b","condition":"full-information","relevant_dimensions":["pattern","legs"],"bee_group":{"antennae":"X","wings":"X","pattern":"D","legs":"M"},"bonus":1.640000000000001},{"rt":1220.5,"stimulus":"bees-with-color/bee-B2DF.svg","response":0,"trial_type":"image-button-response","trial_index":93,"time_elapsed":283089,"internal_node_id":"0.0-4.0-0.41","subject_id":"5ce9a0df0f264b0017198742","study_id":"60edd13110225f80f9f3709b","session_id":"6196c4a18b3c108f2400267b","condition":"full-information","relevant_dimensions":["pattern","legs"],"bee_group":{"antennae":"X","wings":"X","pattern":"D","legs":"M"},"action":"harvest","summary":"good-harvest","bonus":1.640000000000001},{"rt":568.3999999761581,"stimulus":"\n                    <p><b>Action: <em>harvest</em></b></p>\n                    <p>This is the bee that you just saw.</p>\n                    <img src=\"bees-with-color/bee-B2DF.svg\" width=\"200\">\n                    <p><span class=\"greenText\"><b>Successful harvest!</b></span><br>Your pay has increased by $0.02. Your bonus pay is now $1.06.</p>\n            ","response":0,"trial_type":"html-button-response","trial_index":94,"time_elapsed":283659,"internal_node_id":"0.0-4.0-1.41","subject_id":"5ce9a0df0f264b0017198742","study_id":"60edd13110225f80f9f3709b","session_id":"6196c4a18b3c108f2400267b","condition":"full-information","relevant_dimensions":["pattern","legs"],"bee_group":{"antennae":"X","wings":"X","pattern":"D","legs":"M"},"bonus":1.640000000000001},{"rt":1103.1999999284744,"stimulus":"bees-with-color/bee-B2SM.svg","response":0,"trial_type":"image-button-response","trial_index":95,"time_elapsed":284763,"internal_node_id":"0.0-4.0-0.42","subject_id":"5ce9a0df0f264b0017198742","study_id":"60edd13110225f80f9f3709b","session_id":"6196c4a18b3c108f2400267b","condition":"full-information","relevant_dimensions":["pattern","legs"],"bee_group":{"antennae":"X","wings":"X","pattern":"D","legs":"M"},"action":"harvest","summary":"good-harvest","bonus":1.640000000000001},{"rt":522.2000000476837,"stimulus":"\n                    <p><b>Action: <em>harvest</em></b></p>\n                    <p>This is the bee that you just saw.</p>\n                    <img src=\"bees-with-color/bee-B2SM.svg\" width=\"200\">\n                    <p><span class=\"greenText\"><b>Successful harvest!</b></span><br>Your pay has increased by $0.02. Your bonus pay is now $1.08.</p>\n            ","response":0,"trial_type":"html-button-response","trial_index":96,"time_elapsed":285286,"internal_node_id":"0.0-4.0-1.42","subject_id":"5ce9a0df0f264b0017198742","study_id":"60edd13110225f80f9f3709b","session_id":"6196c4a18b3c108f2400267b","condition":"full-information","relevant_dimensions":["pattern","legs"],"bee_group":{"antennae":"X","wings":"X","pattern":"D","legs":"M"},"bonus":1.640000000000001},{"rt":834.7999999523163,"stimulus":"bees-with-color/bee-B1SM.svg","response":0,"trial_type":"image-button-response","trial_index":97,"time_elapsed":286122,"internal_node_id":"0.0-4.0-0.43","subject_id":"5ce9a0df0f264b0017198742","study_id":"60edd13110225f80f9f3709b","session_id":"6196c4a18b3c108f2400267b","condition":"full-information","relevant_dimensions":["pattern","legs"],"bee_group":{"antennae":"X","wings":"X","pattern":"D","legs":"M"},"action":"harvest","summary":"good-harvest","bonus":1.640000000000001},{"rt":464.6999999284744,"stimulus":"\n                    <p><b>Action: <em>harvest</em></b></p>\n                    <p>This is the bee that you just saw.</p>\n                    <img src=\"bees-with-color/bee-B1SM.svg\" width=\"200\">\n                    <p><span class=\"greenText\"><b>Successful harvest!</b></span><br>Your pay has increased by $0.02. Your bonus pay is now $1.10.</p>\n            ","response":0,"trial_type":"html-button-response","trial_index":98,"time_elapsed":286589,"internal_node_id":"0.0-4.0-1.43","subject_id":"5ce9a0df0f264b0017198742","study_id":"60edd13110225f80f9f3709b","session_id":"6196c4a18b3c108f2400267b","condition":"full-information","relevant_dimensions":["pattern","legs"],"bee_group":{"antennae":"X","wings":"X","pattern":"D","legs":"M"},"bonus":1.640000000000001},{"rt":1296.2999999523163,"stimulus":"bees-with-color/bee-B1DM.svg","response":1,"trial_type":"image-button-response","trial_index":99,"time_elapsed":287886,"internal_node_id":"0.0-4.0-0.44","subject_id":"5ce9a0df0f264b0017198742","study_id":"60edd13110225f80f9f3709b","session_id":"6196c4a18b3c108f2400267b","condition":"full-information","relevant_dimensions":["pattern","legs"],"bee_group":{"antennae":"X","wings":"X","pattern":"D","legs":"M"},"action":"avoid","summary":"good-avoid","bonus":1.640000000000001},{"rt":486.2999999523163,"stimulus":"\n                    <p><b>Action: <em>avoid</em></b></p>\n                    <p>This is the bee that you just saw.</p>\n                    <img src=\"bees-with-color/bee-B1DM.svg\" width=\"200\">\n                    <p><span class=\"greenText\">Good choice!</span>  This bee would have stung you.<br>Your bonus pay is unchanged, and remains at $1.10.</p>\n            ","response":0,"trial_type":"html-button-response","trial_index":100,"time_elapsed":288374,"internal_node_id":"0.0-4.0-1.44","subject_id":"5ce9a0df0f264b0017198742","study_id":"60edd13110225f80f9f3709b","session_id":"6196c4a18b3c108f2400267b","condition":"full-information","relevant_dimensions":["pattern","legs"],"bee_group":{"antennae":"X","wings":"X","pattern":"D","legs":"M"},"bonus":1.640000000000001},{"rt":955.3999999761581,"stimulus":"bees-with-color/bee-A2SM.svg","response":0,"trial_type":"image-button-response","trial_index":101,"time_elapsed":289330,"internal_node_id":"0.0-4.0-0.45","subject_id":"5ce9a0df0f264b0017198742","study_id":"60edd13110225f80f9f3709b","session_id":"6196c4a18b3c108f2400267b","condition":"full-information","relevant_dimensions":["pattern","legs"],"bee_group":{"antennae":"X","wings":"X","pattern":"D","legs":"M"},"action":"harvest","summary":"good-harvest","bonus":1.640000000000001},{"rt":604.2999999523163,"stimulus":"\n                    <p><b>Action: <em>harvest</em></b></p>\n                    <p>This is the bee that you just saw.</p>\n                    <img src=\"bees-with-color/bee-A2SM.svg\" width=\"200\">\n                    <p><span class=\"greenText\"><b>Successful harvest!</b></span><br>Your pay has increased by $0.02. Your bonus pay is now $1.12.</p>\n            ","response":0,"trial_type":"html-button-response","trial_index":102,"time_elapsed":289937,"internal_node_id":"0.0-4.0-1.45","subject_id":"5ce9a0df0f264b0017198742","study_id":"60edd13110225f80f9f3709b","session_id":"6196c4a18b3c108f2400267b","condition":"full-information","relevant_dimensions":["pattern","legs"],"bee_group":{"antennae":"X","wings":"X","pattern":"D","legs":"M"},"bonus":1.640000000000001},{"rt":685,"stimulus":"bees-with-color/bee-A1SM.svg","response":0,"trial_type":"image-button-response","trial_index":103,"time_elapsed":290623,"internal_node_id":"0.0-4.0-0.46","subject_id":"5ce9a0df0f264b0017198742","study_id":"60edd13110225f80f9f3709b","session_id":"6196c4a18b3c108f2400267b","condition":"full-information","relevant_dimensions":["pattern","legs"],"bee_group":{"antennae":"X","wings":"X","pattern":"D","legs":"M"},"action":"harvest","summary":"good-harvest","bonus":1.640000000000001},{"rt":506.10000002384186,"stimulus":"\n                    <p><b>Action: <em>harvest</em></b></p>\n                    <p>This is the bee that you just saw.</p>\n                    <img src=\"bees-with-color/bee-A1SM.svg\" width=\"200\">\n                    <p><span class=\"greenText\"><b>Successful harvest!</b></span><br>Your pay has increased by $0.02. Your bonus pay is now $1.14.</p>\n            ","response":0,"trial_type":"html-button-response","trial_index":104,"time_elapsed":291130,"internal_node_id":"0.0-4.0-1.46","subject_id":"5ce9a0df0f264b0017198742","study_id":"60edd13110225f80f9f3709b","session_id":"6196c4a18b3c108f2400267b","condition":"full-information","relevant_dimensions":["pattern","legs"],"bee_group":{"antennae":"X","wings":"X","pattern":"D","legs":"M"},"bonus":1.640000000000001},{"rt":907.1000000238419,"stimulus":"bees-with-color/bee-A1DM.svg","response":1,"trial_type":"image-button-response","trial_index":105,"time_elapsed":292038,"internal_node_id":"0.0-4.0-0.47","subject_id":"5ce9a0df0f264b0017198742","study_id":"60edd13110225f80f9f3709b","session_id":"6196c4a18b3c108f2400267b","condition":"full-information","relevant_dimensions":["pattern","legs"],"bee_group":{"antennae":"X","wings":"X","pattern":"D","legs":"M"},"action":"avoid","summary":"good-avoid","bonus":1.640000000000001},{"rt":526.9000000953674,"stimulus":"\n                    <p><b>Action: <em>avoid</em></b></p>\n                    <p>This is the bee that you just saw.</p>\n                    <img src=\"bees-with-color/bee-A1DM.svg\" width=\"200\">\n                    <p><span class=\"greenText\">Good choice!</span>  This bee would have stung you.<br>Your bonus pay is unchanged, and remains at $1.14.</p>\n            ","response":0,"trial_type":"html-button-response","trial_index":106,"time_elapsed":292566,"internal_node_id":"0.0-4.0-1.47","subject_id":"5ce9a0df0f264b0017198742","study_id":"60edd13110225f80f9f3709b","session_id":"6196c4a18b3c108f2400267b","condition":"full-information","relevant_dimensions":["pattern","legs"],"bee_group":{"antennae":"X","wings":"X","pattern":"D","legs":"M"},"bonus":1.640000000000001},{"rt":824.6999999284744,"stimulus":"bees-with-color/bee-A1DF.svg","response":0,"trial_type":"image-button-response","trial_index":107,"time_elapsed":293392,"internal_node_id":"0.0-4.0-0.48","subject_id":"5ce9a0df0f264b0017198742","study_id":"60edd13110225f80f9f3709b","session_id":"6196c4a18b3c108f2400267b","condition":"full-information","relevant_dimensions":["pattern","legs"],"bee_group":{"antennae":"X","wings":"X","pattern":"D","legs":"M"},"action":"harvest","summary":"good-harvest","bonus":1.640000000000001},{"rt":489.2000000476837,"stimulus":"\n                    <p><b>Action: <em>harvest</em></b></p>\n                    <p>This is the bee that you just saw.</p>\n                    <img src=\"bees-with-color/bee-A1DF.svg\" width=\"200\">\n                    <p><span class=\"greenText\"><b>Successful harvest!</b></span><br>Your pay has increased by $0.02. Your bonus pay is now $1.16.</p>\n            ","response":0,"trial_type":"html-button-response","trial_index":108,"time_elapsed":293882,"internal_node_id":"0.0-4.0-1.48","subject_id":"5ce9a0df0f264b0017198742","study_id":"60edd13110225f80f9f3709b","session_id":"6196c4a18b3c108f2400267b","condition":"full-information","relevant_dimensions":["pattern","legs"],"bee_group":{"antennae":"X","wings":"X","pattern":"D","legs":"M"},"bonus":1.640000000000001},{"rt":959.2999999523163,"stimulus":"bees-with-color/bee-B1DF.svg","response":0,"trial_type":"image-button-response","trial_index":109,"time_elapsed":294842,"internal_node_id":"0.0-4.0-0.49","subject_id":"5ce9a0df0f264b0017198742","study_id":"60edd13110225f80f9f3709b","session_id":"6196c4a18b3c108f2400267b","condition":"full-information","relevant_dimensions":["pattern","legs"],"bee_group":{"antennae":"X","wings":"X","pattern":"D","legs":"M"},"action":"harvest","summary":"good-harvest","bonus":1.640000000000001},{"rt":461.10000002384186,"stimulus":"\n                    <p><b>Action: <em>harvest</em></b></p>\n                    <p>This is the bee that you just saw.</p>\n                    <img src=\"bees-with-color/bee-B1DF.svg\" width=\"200\">\n                    <p><span class=\"greenText\"><b>Successful harvest!</b></span><br>Your pay has increased by $0.02. Your bonus pay is now $1.18.</p>\n            ","response":0,"trial_type":"html-button-response","trial_index":110,"time_elapsed":295304,"internal_node_id":"0.0-4.0-1.49","subject_id":"5ce9a0df0f264b0017198742","study_id":"60edd13110225f80f9f3709b","session_id":"6196c4a18b3c108f2400267b","condition":"full-information","relevant_dimensions":["pattern","legs"],"bee_group":{"antennae":"X","wings":"X","pattern":"D","legs":"M"},"bonus":1.640000000000001},{"rt":985.3999999761581,"stimulus":"bees-with-color/bee-B1SM.svg","response":0,"trial_type":"image-button-response","trial_index":111,"time_elapsed":296291,"internal_node_id":"0.0-4.0-0.50","subject_id":"5ce9a0df0f264b0017198742","study_id":"60edd13110225f80f9f3709b","session_id":"6196c4a18b3c108f2400267b","condition":"full-information","relevant_dimensions":["pattern","legs"],"bee_group":{"antennae":"X","wings":"X","pattern":"D","legs":"M"},"action":"harvest","summary":"good-harvest","bonus":1.640000000000001},{"rt":1324.8999999761581,"stimulus":"\n                    <p><b>Action: <em>harvest</em></b></p>\n                    <p>This is the bee that you just saw.</p>\n                    <img src=\"bees-with-color/bee-B1SM.svg\" width=\"200\">\n                    <p><span class=\"greenText\"><b>Successful harvest!</b></span><br>Your pay has increased by $0.02. Your bonus pay is now $1.20.</p>\n            ","response":0,"trial_type":"html-button-response","trial_index":112,"time_elapsed":297617,"internal_node_id":"0.0-4.0-1.50","subject_id":"5ce9a0df0f264b0017198742","study_id":"60edd13110225f80f9f3709b","session_id":"6196c4a18b3c108f2400267b","condition":"full-information","relevant_dimensions":["pattern","legs"],"bee_group":{"antennae":"X","wings":"X","pattern":"D","legs":"M"},"bonus":1.640000000000001},{"rt":1674.6000000238419,"stimulus":"bees-with-color/bee-B2DM.svg","response":1,"trial_type":"image-button-response","trial_index":113,"time_elapsed":299292,"internal_node_id":"0.0-4.0-0.51","subject_id":"5ce9a0df0f264b0017198742","study_id":"60edd13110225f80f9f3709b","session_id":"6196c4a18b3c108f2400267b","condition":"full-information","relevant_dimensions":["pattern","legs"],"bee_group":{"antennae":"X","wings":"X","pattern":"D","legs":"M"},"action":"avoid","summary":"good-avoid","bonus":1.640000000000001},{"rt":859.1000000238419,"stimulus":"\n                    <p><b>Action: <em>avoid</em></b></p>\n                    <p>This is the bee that you just saw.</p>\n                    <img src=\"bees-with-color/bee-B2DM.svg\" width=\"200\">\n                    <p><span class=\"greenText\">Good choice!</span>  This bee would have stung you.<br>Your bonus pay is unchanged, and remains at $1.20.</p>\n            ","response":0,"trial_type":"html-button-response","trial_index":114,"time_elapsed":300153,"internal_node_id":"0.0-4.0-1.51","subject_id":"5ce9a0df0f264b0017198742","study_id":"60edd13110225f80f9f3709b","session_id":"6196c4a18b3c108f2400267b","condition":"full-information","relevant_dimensions":["pattern","legs"],"bee_group":{"antennae":"X","wings":"X","pattern":"D","legs":"M"},"bonus":1.640000000000001},{"rt":1433,"stimulus":"bees-with-color/bee-B2SM.svg","response":0,"trial_type":"image-button-response","trial_index":115,"time_elapsed":301586,"internal_node_id":"0.0-4.0-0.52","subject_id":"5ce9a0df0f264b0017198742","study_id":"60edd13110225f80f9f3709b","session_id":"6196c4a18b3c108f2400267b","condition":"full-information","relevant_dimensions":["pattern","legs"],"bee_group":{"antennae":"X","wings":"X","pattern":"D","legs":"M"},"action":"harvest","summary":"good-harvest","bonus":1.640000000000001},{"rt":556.7000000476837,"stimulus":"\n                    <p><b>Action: <em>harvest</em></b></p>\n                    <p>This is the bee that you just saw.</p>\n                    <img src=\"bees-with-color/bee-B2SM.svg\" width=\"200\">\n                    <p><span class=\"greenText\"><b>Successful harvest!</b></span><br>Your pay has increased by $0.02. Your bonus pay is now $1.22.</p>\n            ","response":0,"trial_type":"html-button-response","trial_index":116,"time_elapsed":302144,"internal_node_id":"0.0-4.0-1.52","subject_id":"5ce9a0df0f264b0017198742","study_id":"60edd13110225f80f9f3709b","session_id":"6196c4a18b3c108f2400267b","condition":"full-information","relevant_dimensions":["pattern","legs"],"bee_group":{"antennae":"X","wings":"X","pattern":"D","legs":"M"},"bonus":1.640000000000001},{"rt":543.1000000238419,"stimulus":"bees-with-color/bee-A1SM.svg","response":0,"trial_type":"image-button-response","trial_index":117,"time_elapsed":302688,"internal_node_id":"0.0-4.0-0.53","subject_id":"5ce9a0df0f264b0017198742","study_id":"60edd13110225f80f9f3709b","session_id":"6196c4a18b3c108f2400267b","condition":"full-information","relevant_dimensions":["pattern","legs"],"bee_group":{"antennae":"X","wings":"X","pattern":"D","legs":"M"},"action":"harvest","summary":"good-harvest","bonus":1.640000000000001},{"rt":652.3999999761581,"stimulus":"\n                    <p><b>Action: <em>harvest</em></b></p>\n                    <p>This is the bee that you just saw.</p>\n                    <img src=\"bees-with-color/bee-A1SM.svg\" width=\"200\">\n                    <p><span class=\"greenText\"><b>Successful harvest!</b></span><br>Your pay has increased by $0.02. Your bonus pay is now $1.24.</p>\n            ","response":0,"trial_type":"html-button-response","trial_index":118,"time_elapsed":303342,"internal_node_id":"0.0-4.0-1.53","subject_id":"5ce9a0df0f264b0017198742","study_id":"60edd13110225f80f9f3709b","session_id":"6196c4a18b3c108f2400267b","condition":"full-information","relevant_dimensions":["pattern","legs"],"bee_group":{"antennae":"X","wings":"X","pattern":"D","legs":"M"},"bonus":1.640000000000001},{"rt":863.6999999284744,"stimulus":"bees-with-color/bee-A2DM.svg","response":1,"trial_type":"image-button-response","trial_index":119,"time_elapsed":304207,"internal_node_id":"0.0-4.0-0.54","subject_id":"5ce9a0df0f264b0017198742","study_id":"60edd13110225f80f9f3709b","session_id":"6196c4a18b3c108f2400267b","condition":"full-information","relevant_dimensions":["pattern","legs"],"bee_group":{"antennae":"X","wings":"X","pattern":"D","legs":"M"},"action":"avoid","summary":"good-avoid","bonus":1.640000000000001},{"rt":506.2999999523163,"stimulus":"\n                    <p><b>Action: <em>avoid</em></b></p>\n                    <p>This is the bee that you just saw.</p>\n                    <img src=\"bees-with-color/bee-A2DM.svg\" width=\"200\">\n                    <p><span class=\"greenText\">Good choice!</span>  This bee would have stung you.<br>Your bonus pay is unchanged, and remains at $1.24.</p>\n            ","response":0,"trial_type":"html-button-response","trial_index":120,"time_elapsed":304714,"internal_node_id":"0.0-4.0-1.54","subject_id":"5ce9a0df0f264b0017198742","study_id":"60edd13110225f80f9f3709b","session_id":"6196c4a18b3c108f2400267b","condition":"full-information","relevant_dimensions":["pattern","legs"],"bee_group":{"antennae":"X","wings":"X","pattern":"D","legs":"M"},"bonus":1.640000000000001},{"rt":605.1999999284744,"stimulus":"bees-with-color/bee-A2SM.svg","response":0,"trial_type":"image-button-response","trial_index":121,"time_elapsed":305320,"internal_node_id":"0.0-4.0-0.55","subject_id":"5ce9a0df0f264b0017198742","study_id":"60edd13110225f80f9f3709b","session_id":"6196c4a18b3c108f2400267b","condition":"full-information","relevant_dimensions":["pattern","legs"],"bee_group":{"antennae":"X","wings":"X","pattern":"D","legs":"M"},"action":"harvest","summary":"good-harvest","bonus":1.640000000000001},{"rt":508.6999999284744,"stimulus":"\n                    <p><b>Action: <em>harvest</em></b></p>\n                    <p>This is the bee that you just saw.</p>\n                    <img src=\"bees-with-color/bee-A2SM.svg\" width=\"200\">\n                    <p><span class=\"greenText\"><b>Successful harvest!</b></span><br>Your pay has increased by $0.02. Your bonus pay is now $1.26.</p>\n            ","response":0,"trial_type":"html-button-response","trial_index":122,"time_elapsed":305830,"internal_node_id":"0.0-4.0-1.55","subject_id":"5ce9a0df0f264b0017198742","study_id":"60edd13110225f80f9f3709b","session_id":"6196c4a18b3c108f2400267b","condition":"full-information","relevant_dimensions":["pattern","legs"],"bee_group":{"antennae":"X","wings":"X","pattern":"D","legs":"M"},"bonus":1.640000000000001},{"rt":1149.1000000238419,"stimulus":"bees-with-color/bee-B1DM.svg","response":1,"trial_type":"image-button-response","trial_index":123,"time_elapsed":306981,"internal_node_id":"0.0-4.0-0.56","subject_id":"5ce9a0df0f264b0017198742","study_id":"60edd13110225f80f9f3709b","session_id":"6196c4a18b3c108f2400267b","condition":"full-information","relevant_dimensions":["pattern","legs"],"bee_group":{"antennae":"X","wings":"X","pattern":"D","legs":"M"},"action":"avoid","summary":"good-avoid","bonus":1.640000000000001},{"rt":460.89999997615814,"stimulus":"\n                    <p><b>Action: <em>avoid</em></b></p>\n                    <p>This is the bee that you just saw.</p>\n                    <img src=\"bees-with-color/bee-B1DM.svg\" width=\"200\">\n                    <p><span class=\"greenText\">Good choice!</span>  This bee would have stung you.<br>Your bonus pay is unchanged, and remains at $1.26.</p>\n            ","response":0,"trial_type":"html-button-response","trial_index":124,"time_elapsed":307443,"internal_node_id":"0.0-4.0-1.56","subject_id":"5ce9a0df0f264b0017198742","study_id":"60edd13110225f80f9f3709b","session_id":"6196c4a18b3c108f2400267b","condition":"full-information","relevant_dimensions":["pattern","legs"],"bee_group":{"antennae":"X","wings":"X","pattern":"D","legs":"M"},"bonus":1.640000000000001},{"rt":645.0999999046326,"stimulus":"bees-with-color/bee-B1SF.svg","response":0,"trial_type":"image-button-response","trial_index":125,"time_elapsed":308089,"internal_node_id":"0.0-4.0-0.57","subject_id":"5ce9a0df0f264b0017198742","study_id":"60edd13110225f80f9f3709b","session_id":"6196c4a18b3c108f2400267b","condition":"full-information","relevant_dimensions":["pattern","legs"],"bee_group":{"antennae":"X","wings":"X","pattern":"D","legs":"M"},"action":"harvest","summary":"good-harvest","bonus":1.640000000000001},{"rt":538.8000000715256,"stimulus":"\n                    <p><b>Action: <em>harvest</em></b></p>\n                    <p>This is the bee that you just saw.</p>\n                    <img src=\"bees-with-color/bee-B1SF.svg\" width=\"200\">\n                    <p><span class=\"greenText\"><b>Successful harvest!</b></span><br>Your pay has increased by $0.02. Your bonus pay is now $1.28.</p>\n            ","response":0,"trial_type":"html-button-response","trial_index":126,"time_elapsed":308629,"internal_node_id":"0.0-4.0-1.57","subject_id":"5ce9a0df0f264b0017198742","study_id":"60edd13110225f80f9f3709b","session_id":"6196c4a18b3c108f2400267b","condition":"full-information","relevant_dimensions":["pattern","legs"],"bee_group":{"antennae":"X","wings":"X","pattern":"D","legs":"M"},"bonus":1.640000000000001},{"rt":582.7999999523163,"stimulus":"bees-with-color/bee-A1SF.svg","response":0,"trial_type":"image-button-response","trial_index":127,"time_elapsed":309213,"internal_node_id":"0.0-4.0-0.58","subject_id":"5ce9a0df0f264b0017198742","study_id":"60edd13110225f80f9f3709b","session_id":"6196c4a18b3c108f2400267b","condition":"full-information","relevant_dimensions":["pattern","legs"],"bee_group":{"antennae":"X","wings":"X","pattern":"D","legs":"M"},"action":"harvest","summary":"good-harvest","bonus":1.640000000000001},{"rt":495.89999997615814,"stimulus":"\n                    <p><b>Action: <em>harvest</em></b></p>\n                    <p>This is the bee that you just saw.</p>\n                    <img src=\"bees-with-color/bee-A1SF.svg\" width=\"200\">\n                    <p><span class=\"greenText\"><b>Successful harvest!</b></span><br>Your pay has increased by $0.02. Your bonus pay is now $1.30.</p>\n            ","response":0,"trial_type":"html-button-response","trial_index":128,"time_elapsed":309710,"internal_node_id":"0.0-4.0-1.58","subject_id":"5ce9a0df0f264b0017198742","study_id":"60edd13110225f80f9f3709b","session_id":"6196c4a18b3c108f2400267b","condition":"full-information","relevant_dimensions":["pattern","legs"],"bee_group":{"antennae":"X","wings":"X","pattern":"D","legs":"M"},"bonus":1.640000000000001},{"rt":935.5,"stimulus":"bees-with-color/bee-A1DM.svg","response":1,"trial_type":"image-button-response","trial_index":129,"time_elapsed":310646,"internal_node_id":"0.0-4.0-0.59","subject_id":"5ce9a0df0f264b0017198742","study_id":"60edd13110225f80f9f3709b","session_id":"6196c4a18b3c108f2400267b","condition":"full-information","relevant_dimensions":["pattern","legs"],"bee_group":{"antennae":"X","wings":"X","pattern":"D","legs":"M"},"action":"avoid","summary":"good-avoid","bonus":1.640000000000001},{"rt":950.6000000238419,"stimulus":"\n                    <p><b>Action: <em>avoid</em></b></p>\n                    <p>This is the bee that you just saw.</p>\n                    <img src=\"bees-with-color/bee-A1DM.svg\" width=\"200\">\n                    <p><span class=\"greenText\">Good choice!</span>  This bee would have stung you.<br>Your bonus pay is unchanged, and remains at $1.30.</p>\n            ","response":0,"trial_type":"html-button-response","trial_index":130,"time_elapsed":311598,"internal_node_id":"0.0-4.0-1.59","subject_id":"5ce9a0df0f264b0017198742","study_id":"60edd13110225f80f9f3709b","session_id":"6196c4a18b3c108f2400267b","condition":"full-information","relevant_dimensions":["pattern","legs"],"bee_group":{"antennae":"X","wings":"X","pattern":"D","legs":"M"},"bonus":1.640000000000001},{"rt":603.2000000476837,"stimulus":"bees-with-color/bee-B2SF.svg","response":0,"trial_type":"image-button-response","trial_index":131,"time_elapsed":312203,"internal_node_id":"0.0-4.0-0.60","subject_id":"5ce9a0df0f264b0017198742","study_id":"60edd13110225f80f9f3709b","session_id":"6196c4a18b3c108f2400267b","condition":"full-information","relevant_dimensions":["pattern","legs"],"bee_group":{"antennae":"X","wings":"X","pattern":"D","legs":"M"},"action":"harvest","summary":"good-harvest","bonus":1.640000000000001},{"rt":790.9000000953674,"stimulus":"\n                    <p><b>Action: <em>harvest</em></b></p>\n                    <p>This is the bee that you just saw.</p>\n                    <img src=\"bees-with-color/bee-B2SF.svg\" width=\"200\">\n                    <p><span class=\"greenText\"><b>Successful harvest!</b></span><br>Your pay has increased by $0.02. Your bonus pay is now $1.32.</p>\n            ","response":0,"trial_type":"html-button-response","trial_index":132,"time_elapsed":312995,"internal_node_id":"0.0-4.0-1.60","subject_id":"5ce9a0df0f264b0017198742","study_id":"60edd13110225f80f9f3709b","session_id":"6196c4a18b3c108f2400267b","condition":"full-information","relevant_dimensions":["pattern","legs"],"bee_group":{"antennae":"X","wings":"X","pattern":"D","legs":"M"},"bonus":1.640000000000001},{"rt":1153,"stimulus":"bees-with-color/bee-A2DF.svg","response":0,"trial_type":"image-button-response","trial_index":133,"time_elapsed":314148,"internal_node_id":"0.0-4.0-0.61","subject_id":"5ce9a0df0f264b0017198742","study_id":"60edd13110225f80f9f3709b","session_id":"6196c4a18b3c108f2400267b","condition":"full-information","relevant_dimensions":["pattern","legs"],"bee_group":{"antennae":"X","wings":"X","pattern":"D","legs":"M"},"action":"harvest","summary":"good-harvest","bonus":1.640000000000001},{"rt":517.0999999046326,"stimulus":"\n                    <p><b>Action: <em>harvest</em></b></p>\n                    <p>This is the bee that you just saw.</p>\n                    <img src=\"bees-with-color/bee-A2DF.svg\" width=\"200\">\n                    <p><span class=\"greenText\"><b>Successful harvest!</b></span><br>Your pay has increased by $0.02. Your bonus pay is now $1.34.</p>\n            ","response":0,"trial_type":"html-button-response","trial_index":134,"time_elapsed":314667,"internal_node_id":"0.0-4.0-1.61","subject_id":"5ce9a0df0f264b0017198742","study_id":"60edd13110225f80f9f3709b","session_id":"6196c4a18b3c108f2400267b","condition":"full-information","relevant_dimensions":["pattern","legs"],"bee_group":{"antennae":"X","wings":"X","pattern":"D","legs":"M"},"bonus":1.640000000000001},{"rt":729,"stimulus":"bees-with-color/bee-A2SF.svg","response":0,"trial_type":"image-button-response","trial_index":135,"time_elapsed":315397,"internal_node_id":"0.0-4.0-0.62","subject_id":"5ce9a0df0f264b0017198742","study_id":"60edd13110225f80f9f3709b","session_id":"6196c4a18b3c108f2400267b","condition":"full-information","relevant_dimensions":["pattern","legs"],"bee_group":{"antennae":"X","wings":"X","pattern":"D","legs":"M"},"action":"harvest","summary":"good-harvest","bonus":1.640000000000001},{"rt":590.8000000715256,"stimulus":"\n                    <p><b>Action: <em>harvest</em></b></p>\n                    <p>This is the bee that you just saw.</p>\n                    <img src=\"bees-with-color/bee-A2SF.svg\" width=\"200\">\n                    <p><span class=\"greenText\"><b>Successful harvest!</b></span><br>Your pay has increased by $0.02. Your bonus pay is now $1.36.</p>\n            ","response":0,"trial_type":"html-button-response","trial_index":136,"time_elapsed":315988,"internal_node_id":"0.0-4.0-1.62","subject_id":"5ce9a0df0f264b0017198742","study_id":"60edd13110225f80f9f3709b","session_id":"6196c4a18b3c108f2400267b","condition":"full-information","relevant_dimensions":["pattern","legs"],"bee_group":{"antennae":"X","wings":"X","pattern":"D","legs":"M"},"bonus":1.640000000000001},{"rt":909.2000000476837,"stimulus":"bees-with-color/bee-B2DF.svg","response":0,"trial_type":"image-button-response","trial_index":137,"time_elapsed":316898,"internal_node_id":"0.0-4.0-0.63","subject_id":"5ce9a0df0f264b0017198742","study_id":"60edd13110225f80f9f3709b","session_id":"6196c4a18b3c108f2400267b","condition":"full-information","relevant_dimensions":["pattern","legs"],"bee_group":{"antennae":"X","wings":"X","pattern":"D","legs":"M"},"action":"harvest","summary":"good-harvest","bonus":1.640000000000001},{"rt":502.1999999284744,"stimulus":"\n                    <p><b>Action: <em>harvest</em></b></p>\n                    <p>This is the bee that you just saw.</p>\n                    <img src=\"bees-with-color/bee-B2DF.svg\" width=\"200\">\n                    <p><span class=\"greenText\"><b>Successful harvest!</b></span><br>Your pay has increased by $0.02. Your bonus pay is now $1.38.</p>\n            ","response":0,"trial_type":"html-button-response","trial_index":138,"time_elapsed":317402,"internal_node_id":"0.0-4.0-1.63","subject_id":"5ce9a0df0f264b0017198742","study_id":"60edd13110225f80f9f3709b","session_id":"6196c4a18b3c108f2400267b","condition":"full-information","relevant_dimensions":["pattern","legs"],"bee_group":{"antennae":"X","wings":"X","pattern":"D","legs":"M"},"bonus":1.640000000000001},{"rt":5531.600000023842,"stimulus":"You have completed the first part of this experiment.<br><br>You will now begin a shorter second part, in which you will receive no feedback.<br>The same rules regarding bonus pay apply.<br><br>Press any key to begin.","response":" ","trial_type":"html-keyboard-response","trial_index":139,"time_elapsed":322935,"internal_node_id":"0.0-5.0","subject_id":"5ce9a0df0f264b0017198742","study_id":"60edd13110225f80f9f3709b","session_id":"6196c4a18b3c108f2400267b","condition":"full-information","relevant_dimensions":["pattern","legs"],"bee_group":{"antennae":"X","wings":"X","pattern":"D","legs":"M"},"bonus":1.640000000000001},{"rt":3814.5,"stimulus":"bees-with-color/bee-A1SF.svg","response":0,"trial_type":"image-button-response","trial_index":140,"time_elapsed":326757,"internal_node_id":"0.0-6.0-0.0","subject_id":"5ce9a0df0f264b0017198742","study_id":"60edd13110225f80f9f3709b","session_id":"6196c4a18b3c108f2400267b","condition":"full-information","relevant_dimensions":["pattern","legs"],"bee_group":{"antennae":"X","wings":"X","pattern":"D","legs":"M"},"bonus":1.640000000000001},{"rt":976.2000000476837,"stimulus":"bees-with-color/bee-B1DF.svg","response":0,"trial_type":"image-button-response","trial_index":141,"time_elapsed":327734,"internal_node_id":"0.0-6.0-0.1","subject_id":"5ce9a0df0f264b0017198742","study_id":"60edd13110225f80f9f3709b","session_id":"6196c4a18b3c108f2400267b","condition":"full-information","relevant_dimensions":["pattern","legs"],"bee_group":{"antennae":"X","wings":"X","pattern":"D","legs":"M"},"bonus":1.640000000000001},{"rt":1822.7000000476837,"stimulus":"bees-with-color/bee-B2SM.svg","response":0,"trial_type":"image-button-response","trial_index":142,"time_elapsed":329559,"internal_node_id":"0.0-6.0-0.2","subject_id":"5ce9a0df0f264b0017198742","study_id":"60edd13110225f80f9f3709b","session_id":"6196c4a18b3c108f2400267b","condition":"full-information","relevant_dimensions":["pattern","legs"],"bee_group":{"antennae":"X","wings":"X","pattern":"D","legs":"M"},"bonus":1.640000000000001},{"rt":1061.7000000476837,"stimulus":"bees-with-color/bee-A2DM.svg","response":1,"trial_type":"image-button-response","trial_index":143,"time_elapsed":330623,"internal_node_id":"0.0-6.0-0.3","subject_id":"5ce9a0df0f264b0017198742","study_id":"60edd13110225f80f9f3709b","session_id":"6196c4a18b3c108f2400267b","condition":"full-information","relevant_dimensions":["pattern","legs"],"bee_group":{"antennae":"X","wings":"X","pattern":"D","legs":"M"},"bonus":1.640000000000001},{"rt":2874.5,"stimulus":"bees-with-color/bee-B2DM.svg","response":1,"trial_type":"image-button-response","trial_index":144,"time_elapsed":333498,"internal_node_id":"0.0-6.0-0.4","subject_id":"5ce9a0df0f264b0017198742","study_id":"60edd13110225f80f9f3709b","session_id":"6196c4a18b3c108f2400267b","condition":"full-information","relevant_dimensions":["pattern","legs"],"bee_group":{"antennae":"X","wings":"X","pattern":"D","legs":"M"},"bonus":1.640000000000001},{"rt":851.2999999523163,"stimulus":"bees-with-color/bee-B1SF.svg","response":0,"trial_type":"image-button-response","trial_index":145,"time_elapsed":334351,"internal_node_id":"0.0-6.0-0.5","subject_id":"5ce9a0df0f264b0017198742","study_id":"60edd13110225f80f9f3709b","session_id":"6196c4a18b3c108f2400267b","condition":"full-information","relevant_dimensions":["pattern","legs"],"bee_group":{"antennae":"X","wings":"X","pattern":"D","legs":"M"},"bonus":1.640000000000001},{"rt":645.7000000476837,"stimulus":"bees-with-color/bee-B1SM.svg","response":0,"trial_type":"image-button-response","trial_index":146,"time_elapsed":334998,"internal_node_id":"0.0-6.0-0.6","subject_id":"5ce9a0df0f264b0017198742","study_id":"60edd13110225f80f9f3709b","session_id":"6196c4a18b3c108f2400267b","condition":"full-information","relevant_dimensions":["pattern","legs"],"bee_group":{"antennae":"X","wings":"X","pattern":"D","legs":"M"},"bonus":1.640000000000001},{"rt":908.9000000953674,"stimulus":"bees-with-color/bee-A2DF.svg","response":0,"trial_type":"image-button-response","trial_index":147,"time_elapsed":335908,"internal_node_id":"0.0-6.0-0.7","subject_id":"5ce9a0df0f264b0017198742","study_id":"60edd13110225f80f9f3709b","session_id":"6196c4a18b3c108f2400267b","condition":"full-information","relevant_dimensions":["pattern","legs"],"bee_group":{"antennae":"X","wings":"X","pattern":"D","legs":"M"},"bonus":1.640000000000001},{"rt":844.8000000715256,"stimulus":"bees-with-color/bee-B2SF.svg","response":0,"trial_type":"image-button-response","trial_index":148,"time_elapsed":336754,"internal_node_id":"0.0-6.0-0.8","subject_id":"5ce9a0df0f264b0017198742","study_id":"60edd13110225f80f9f3709b","session_id":"6196c4a18b3c108f2400267b","condition":"full-information","relevant_dimensions":["pattern","legs"],"bee_group":{"antennae":"X","wings":"X","pattern":"D","legs":"M"},"bonus":1.640000000000001},{"rt":634.5,"stimulus":"bees-with-color/bee-A2SF.svg","response":0,"trial_type":"image-button-response","trial_index":149,"time_elapsed":337390,"internal_node_id":"0.0-6.0-0.9","subject_id":"5ce9a0df0f264b0017198742","study_id":"60edd13110225f80f9f3709b","session_id":"6196c4a18b3c108f2400267b","condition":"full-information","relevant_dimensions":["pattern","legs"],"bee_group":{"antennae":"X","wings":"X","pattern":"D","legs":"M"},"bonus":1.640000000000001},{"rt":648.7000000476837,"stimulus":"bees-with-color/bee-A1SM.svg","response":0,"trial_type":"image-button-response","trial_index":150,"time_elapsed":338040,"internal_node_id":"0.0-6.0-0.10","subject_id":"5ce9a0df0f264b0017198742","study_id":"60edd13110225f80f9f3709b","session_id":"6196c4a18b3c108f2400267b","condition":"full-information","relevant_dimensions":["pattern","legs"],"bee_group":{"antennae":"X","wings":"X","pattern":"D","legs":"M"},"bonus":1.640000000000001},{"rt":1042.5,"stimulus":"bees-with-color/bee-A2SM.svg","response":0,"trial_type":"image-button-response","trial_index":151,"time_elapsed":339085,"internal_node_id":"0.0-6.0-0.11","subject_id":"5ce9a0df0f264b0017198742","study_id":"60edd13110225f80f9f3709b","session_id":"6196c4a18b3c108f2400267b","condition":"full-information","relevant_dimensions":["pattern","legs"],"bee_group":{"antennae":"X","wings":"X","pattern":"D","legs":"M"},"bonus":1.640000000000001},{"rt":1336.5,"stimulus":"bees-with-color/bee-B1DM.svg","response":1,"trial_type":"image-button-response","trial_index":152,"time_elapsed":340422,"internal_node_id":"0.0-6.0-0.12","subject_id":"5ce9a0df0f264b0017198742","study_id":"60edd13110225f80f9f3709b","session_id":"6196c4a18b3c108f2400267b","condition":"full-information","relevant_dimensions":["pattern","legs"],"bee_group":{"antennae":"X","wings":"X","pattern":"D","legs":"M"},"bonus":1.640000000000001},{"rt":922.5999999046326,"stimulus":"bees-with-color/bee-A1DM.svg","response":1,"trial_type":"image-button-response","trial_index":153,"time_elapsed":341346,"internal_node_id":"0.0-6.0-0.13","subject_id":"5ce9a0df0f264b0017198742","study_id":"60edd13110225f80f9f3709b","session_id":"6196c4a18b3c108f2400267b","condition":"full-information","relevant_dimensions":["pattern","legs"],"bee_group":{"antennae":"X","wings":"X","pattern":"D","legs":"M"},"bonus":1.640000000000001},{"rt":1277,"stimulus":"bees-with-color/bee-A1DF.svg","response":0,"trial_type":"image-button-response","trial_index":154,"time_elapsed":342624,"internal_node_id":"0.0-6.0-0.14","subject_id":"5ce9a0df0f264b0017198742","study_id":"60edd13110225f80f9f3709b","session_id":"6196c4a18b3c108f2400267b","condition":"full-information","relevant_dimensions":["pattern","legs"],"bee_group":{"antennae":"X","wings":"X","pattern":"D","legs":"M"},"bonus":1.640000000000001},{"rt":1978.8000000715256,"stimulus":"bees-with-color/bee-B2DF.svg","response":1,"trial_type":"image-button-response","trial_index":155,"time_elapsed":344605,"internal_node_id":"0.0-6.0-0.15","subject_id":"5ce9a0df0f264b0017198742","study_id":"60edd13110225f80f9f3709b","session_id":"6196c4a18b3c108f2400267b","condition":"full-information","relevant_dimensions":["pattern","legs"],"bee_group":{"antennae":"X","wings":"X","pattern":"D","legs":"M"},"bonus":1.640000000000001},{"rt":644.5,"stimulus":"bees-with-colo