[{"success":true,"trial_type":"fullscreen","trial_index":0,"time_elapsed":3386,"internal_node_id":"0.0-0.0","subject_id":"608a8c5d2cfd7a48be619632","study_id":"6197b3f67c2b5cd3b6d9596a","session_id":"6197b9ec557e22b8cf9708dd","condition":"full-information","relevant_dimensions":["wings","pattern"],"bee_group":{"antennae":"X","wings":"1","pattern":"S","legs":"X"},"bonus":1.7400000000000013},{"success":true,"timeout":false,"failed_images":[],"failed_audio":[],"failed_video":[],"trial_type":"preload","trial_index":1,"time_elapsed":6399,"internal_node_id":"0.0-1.0","subject_id":"608a8c5d2cfd7a48be619632","study_id":"6197b3f67c2b5cd3b6d9596a","session_id":"6197b9ec557e22b8cf9708dd","condition":"full-information","relevant_dimensions":["wings","pattern"],"bee_group":{"antennae":"X","wings":"1","pattern":"S","legs":"X"},"bonus":1.7400000000000013},{"rt":3243,"stimulus":"Welcome! Press any key to begin.","response":" ","trial_type":"html-keyboard-response","trial_index":2,"time_elapsed":9642,"internal_node_id":"0.0-2.0","subject_id":"608a8c5d2cfd7a48be619632","study_id":"6197b3f67c2b5cd3b6d9596a","session_id":"6197b9ec557e22b8cf9708dd","condition":"full-information","relevant_dimensions":["wings","pattern"],"bee_group":{"antennae":"X","wings":"1","pattern":"S","legs":"X"},"bonus":1.7400000000000013},{"view_history":[{"page_index":0,"viewing_time":4466.5},{"page_index":1,"viewing_time":16196.099999904633},{"page_index":2,"viewing_time":10197.900000095367},{"page_index":3,"viewing_time":13422},{"page_index":4,"viewing_time":6606.099999904633},{"page_index":5,"viewing_time":4288.600000023842},{"page_index":6,"viewing_time":6177.5},{"page_index":7,"viewing_time":5791.899999976158},{"page_index":8,"viewing_time":5432.700000047684},{"page_index":9,"viewing_time":3342.2000000476837},{"page_index":10,"viewing_time":1911.0999999046326},{"page_index":11,"viewing_time":6723.800000071526},{"page_index":12,"viewing_time":6051.5},{"page_index":13,"viewing_time":1142.6999999284744},{"page_index":14,"viewing_time":2427.5}],"rt":94178.29999995232,"trial_type":"instructions","trial_index":3,"time_elapsed":103821,"internal_node_id":"0.0-3.0-0.0","subject_id":"608a8c5d2cfd7a48be619632","study_id":"6197b3f67c2b5cd3b6d9596a","session_id":"6197b9ec557e22b8cf9708dd","condition":"full-information","relevant_dimensions":["wings","pattern"],"bee_group":{"antennae":"X","wings":"1","pattern":"S","legs":"X"},"bonus":1.7400000000000013},{"rt":12642.600000023842,"response":{"Q0":["Two or six legs","Stripes or spots on body","Single or double wings","Antennae or no antennae"]},"question_order":[0],"trial_type":"survey-multi-select","trial_index":4,"time_elapsed":116466,"internal_node_id":"0.0-3.0-1.0","subject_id":"608a8c5d2cfd7a48be619632","study_id":"6197b3f67c2b5cd3b6d9596a","session_id":"6197b9ec557e22b8cf9708dd","condition":"full-information","relevant_dimensions":["wings","pattern"],"bee_group":{"antennae":"X","wings":"1","pattern":"S","legs":"X"},"correct":true,"bonus":1.7400000000000013},{"rt":17912.800000071526,"response":{"Q1":"No.","Q2":"Based on the four features of the bee.","Q3":"You learn if it was friendly or dangerous, but do not alter your bonus."},"question_order":[0,1,2],"trial_type":"survey-multi-choice","trial_index":5,"time_elapsed":134382,"internal_node_id":"0.0-3.0-2.0","subject_id":"608a8c5d2cfd7a48be619632","study_id":"6197b3f67c2b5cd3b6d9596a","session_id":"6197b9ec557e22b8cf9708dd","condition":"full-information","relevant_dimensions":["wings","pattern"],"bee_group":{"antennae":"X","wings":"1","pattern":"S","legs":"X"},"correct":true,"bonus":1.7400000000000013},{"rt":1555.6000000238419,"stimulus":"<p>Congrats, you got everything right<br>When you're ready, click the button below to continue to the experiment.</p>","response":0,"trial_type":"html-button-response","trial_index":6,"time_elapsed":135940,"internal_node_id":"0.0-3.0-3.0","subject_id":"608a8c5d2cfd7a48be619632","study_id":"6197b3f67c2b5cd3b6d9596a","session_id":"6197b9ec557e22b8cf9708dd","condition":"full-information","relevant_dimensions":["wings","pattern"],"bee_group":{"antennae":"X","wings":"1","pattern":"S","legs":"X"},"bonus":1.7400000000000013},{"rt":6528.300000071526,"stimulus":"bees-with-color/bee-A1DF.svg","response":0,"trial_type":"image-button-response","trial_index":7,"time_elapsed":142470,"internal_node_id":"0.0-4.0-0.0","subject_id":"608a8c5d2cfd7a48be619632","study_id":"6197b3f67c2b5cd3b6d9596a","session_id":"6197b9ec557e22b8cf9708dd","condition":"full-information","relevant_dimensions":["wings","pattern"],"bee_group":{"antennae":"X","wings":"1","pattern":"S","legs":"X"},"action":"harvest","summary":"good-harvest","bonus":1.7400000000000013},{"rt":7701,"stimulus":"\n                    <p><b>Action: <em>harvest</em></b></p>\n                    <p>This is the bee that you just saw.</p>\n                    <img src=\"bees-with-color/bee-A1DF.svg\" width=\"200\">\n                    <p><span class=\"greenText\"><b>Successful harvest!</b></span><br>Your pay has increased by $0.02. Your bonus pay is now $0.56.</p>\n            ","response":0,"trial_type":"html-button-response","trial_index":8,"time_elapsed":150172,"internal_node_id":"0.0-4.0-1.0","subject_id":"608a8c5d2cfd7a48be619632","study_id":"6197b3f67c2b5cd3b6d9596a","session_id":"6197b9ec557e22b8cf9708dd","condition":"full-information","relevant_dimensions":["wings","pattern"],"bee_group":{"antennae":"X","wings":"1","pattern":"S","legs":"X"},"bonus":1.7400000000000013},{"rt":7149.5,"stimulus":"bees-with-color/bee-A1SM.svg","response":0,"trial_type":"image-button-response","trial_index":9,"time_elapsed":157323,"internal_node_id":"0.0-4.0-0.1","subject_id":"608a8c5d2cfd7a48be619632","study_id":"6197b3f67c2b5cd3b6d9596a","session_id":"6197b9ec557e22b8cf9708dd","condition":"full-information","relevant_dimensions":["wings","pattern"],"bee_group":{"antennae":"X","wings":"1","pattern":"S","legs":"X"},"action":"harvest","summary":"bad-harvest","bonus":1.7400000000000013},{"rt":2561.4000000953674,"stimulus":"\n                    <p><b>Action: <em>harvest</em></b></p>\n                    <p>This is the bee that you just saw.</p>\n                    <img src=\"bees-with-color/bee-A1SM.svg\" width=\"200\">\n                    <p><span class=\"redText\">Bad choice, the bee was angry.</span><br><b>You have been stung!</b><br>Your pay has been decreased by $0.10. Your bonus pay is now $0.46.</p>\n            ","response":0,"trial_type":"html-button-response","trial_index":10,"time_elapsed":159885,"internal_node_id":"0.0-4.0-1.1","subject_id":"608a8c5d2cfd7a48be619632","study_id":"6197b3f67c2b5cd3b6d9596a","session_id":"6197b9ec557e22b8cf9708dd","condition":"full-information","relevant_dimensions":["wings","pattern"],"bee_group":{"antennae":"X","wings":"1","pattern":"S","legs":"X"},"bonus":1.7400000000000013},{"rt":3606,"stimulus":"bees-with-color/bee-A2DF.svg","response":0,"trial_type":"image-button-response","trial_index":11,"time_elapsed":163492,"internal_node_id":"0.0-4.0-0.2","subject_id":"608a8c5d2cfd7a48be619632","study_id":"6197b3f67c2b5cd3b6d9596a","session_id":"6197b9ec557e22b8cf9708dd","condition":"full-information","relevant_dimensions":["wings","pattern"],"bee_group":{"antennae":"X","wings":"1","pattern":"S","legs":"X"},"action":"harvest","summary":"good-harvest","bonus":1.7400000000000013},{"rt":1868.5,"stimulus":"\n                    <p><b>Action: <em>harvest</em></b></p>\n                    <p>This is the bee that you just saw.</p>\n                    <img src=\"bees-with-color/bee-A2DF.svg\" width=\"200\">\n                    <p><span class=\"greenText\"><b>Successful harvest!</b></span><br>Your pay has increased by $0.02. Your bonus pay is now $0.48.</p>\n            ","response":0,"trial_type":"html-button-response","trial_index":12,"time_elapsed":165362,"internal_node_id":"0.0-4.0-1.2","subject_id":"608a8c5d2cfd7a48be619632","study_id":"6197b3f67c2b5cd3b6d9596a","session_id":"6197b9ec557e22b8cf9708dd","condition":"full-information","relevant_dimensions":["wings","pattern"],"bee_group":{"antennae":"X","wings":"1","pattern":"S","legs":"X"},"bonus":1.7400000000000013},{"rt":2137.6999999284744,"stimulus":"bees-with-color/bee-A2SM.svg","response":1,"trial_type":"image-button-response","trial_index":13,"time_elapsed":167501,"internal_node_id":"0.0-4.0-0.3","subject_id":"608a8c5d2cfd7a48be619632","study_id":"6197b3f67c2b5cd3b6d9596a","session_id":"6197b9ec557e22b8cf9708dd","condition":"full-information","relevant_dimensions":["wings","pattern"],"bee_group":{"antennae":"X","wings":"1","pattern":"S","legs":"X"},"action":"avoid","summary":"bad-avoid","bonus":1.7400000000000013},{"rt":6229.199999928474,"stimulus":"\n                    <p><b>Action: <em>avoid</em></b></p>\n                    <p>This is the bee that you just saw.</p>\n                    <img src=\"bees-with-color/bee-A2SM.svg\" width=\"200\">\n                    <p><span class=\"redText\">Bad choice,</span> the bee was friendly.<br>Your bonus pay is unchanged, and remains at $0.48.</p>\n            ","response":0,"trial_type":"html-button-response","trial_index":14,"time_elapsed":173731,"internal_node_id":"0.0-4.0-1.3","subject_id":"608a8c5d2cfd7a48be619632","study_id":"6197b3f67c2b5cd3b6d9596a","session_id":"6197b9ec557e22b8cf9708dd","condition":"full-information","relevant_dimensions":["wings","pattern"],"bee_group":{"antennae":"X","wings":"1","pattern":"S","legs":"X"},"bonus":1.7400000000000013},{"rt":2057.100000023842,"stimulus":"bees-with-color/bee-A1DM.svg","response":0,"trial_type":"image-button-response","trial_index":15,"time_elapsed":175789,"internal_node_id":"0.0-4.0-0.4","subject_id":"608a8c5d2cfd7a48be619632","study_id":"6197b3f67c2b5cd3b6d9596a","session_id":"6197b9ec557e22b8cf9708dd","condition":"full-information","relevant_dimensions":["wings","pattern"],"bee_group":{"antennae":"X","wings":"1","pattern":"S","legs":"X"},"action":"harvest","summary":"good-harvest","bonus":1.7400000000000013},{"rt":4949.5,"stimulus":"\n                    <p><b>Action: <em>harvest</em></b></p>\n                    <p>This is the bee that you just saw.</p>\n                    <img src=\"bees-with-color/bee-A1DM.svg\" width=\"200\">\n                    <p><span class=\"greenText\"><b>Successful harvest!</b></span><br>Your pay has increased by $0.02. Your bonus pay is now $0.50.</p>\n            ","response":0,"trial_type":"html-button-response","trial_index":16,"time_elapsed":180740,"internal_node_id":"0.0-4.0-1.4","subject_id":"608a8c5d2cfd7a48be619632","study_id":"6197b3f67c2b5cd3b6d9596a","session_id":"6197b9ec557e22b8cf9708dd","condition":"full-information","relevant_dimensions":["wings","pattern"],"bee_group":{"antennae":"X","wings":"1","pattern":"S","legs":"X"},"bonus":1.7400000000000013},{"rt":3149.2000000476837,"stimulus":"bees-with-color/bee-B1DF.svg","response":1,"trial_type":"image-button-response","trial_index":17,"time_elapsed":183890,"internal_node_id":"0.0-4.0-0.5","subject_id":"608a8c5d2cfd7a48be619632","study_id":"6197b3f67c2b5cd3b6d9596a","session_id":"6197b9ec557e22b8cf9708dd","condition":"full-information","relevant_dimensions":["wings","pattern"],"bee_group":{"antennae":"X","wings":"1","pattern":"S","legs":"X"},"action":"avoid","summary":"bad-avoid","bonus":1.7400000000000013},{"rt":1338.1000000238419,"stimulus":"\n                    <p><b>Action: <em>avoid</em></b></p>\n                    <p>This is the bee that you just saw.</p>\n                    <img src=\"bees-with-color/bee-B1DF.svg\" width=\"200\">\n                    <p><span class=\"redText\">Bad choice,</span> the bee was friendly.<br>Your bonus pay is unchanged, and remains at $0.50.</p>\n            ","response":0,"trial_type":"html-button-response","trial_index":18,"time_elapsed":185229,"internal_node_id":"0.0-4.0-1.5","subject_id":"608a8c5d2cfd7a48be619632","study_id":"6197b3f67c2b5cd3b6d9596a","session_id":"6197b9ec557e22b8cf9708dd","condition":"full-information","relevant_dimensions":["wings","pattern"],"bee_group":{"antennae":"X","wings":"1","pattern":"S","legs":"X"},"bonus":1.7400000000000013},{"rt":2238.3000000715256,"stimulus":"bees-with-color/bee-B1SM.svg","response":1,"trial_type":"image-button-response","trial_index":19,"time_elapsed":187469,"internal_node_id":"0.0-4.0-0.6","subject_id":"608a8c5d2cfd7a48be619632","study_id":"6197b3f67c2b5cd3b6d9596a","session_id":"6197b9ec557e22b8cf9708dd","condition":"full-information","relevant_dimensions":["wings","pattern"],"bee_group":{"antennae":"X","wings":"1","pattern":"S","legs":"X"},"action":"avoid","summary":"good-avoid","bonus":1.7400000000000013},{"rt":8825.100000023842,"stimulus":"\n                    <p><b>Action: <em>avoid</em></b></p>\n                    <p>This is the bee that you just saw.</p>\n                    <img src=\"bees-with-color/bee-B1SM.svg\" width=\"200\">\n                    <p><span class=\"greenText\">Good choice!</span>  This bee would have stung you.<br>Your bonus pay is unchanged, and remains at $0.50.</p>\n            ","response":0,"trial_type":"html-button-response","trial_index":20,"time_elapsed":196295,"internal_node_id":"0.0-4.0-1.6","subject_id":"608a8c5d2cfd7a48be619632","study_id":"6197b3f67c2b5cd3b6d9596a","session_id":"6197b9ec557e22b8cf9708dd","condition":"full-information","relevant_dimensions":["wings","pattern"],"bee_group":{"antennae":"X","wings":"1","pattern":"S","legs":"X"},"bonus":1.7400000000000013},{"rt":1480,"stimulus":"bees-with-color/bee-A2SF.svg","response":0,"trial_type":"image-button-response","trial_index":21,"time_elapsed":197776,"internal_node_id":"0.0-4.0-0.7","subject_id":"608a8c5d2cfd7a48be619632","study_id":"6197b3f67c2b5cd3b6d9596a","session_id":"6197b9ec557e22b8cf9708dd","condition":"full-information","relevant_dimensions":["wings","pattern"],"bee_group":{"antennae":"X","wings":"1","pattern":"S","legs":"X"},"action":"harvest","summary":"good-harvest","bonus":1.7400000000000013},{"rt":984.3999999761581,"stimulus":"\n                    <p><b>Action: <em>harvest</em></b></p>\n                    <p>This is the bee that you just saw.</p>\n                    <img src=\"bees-with-color/bee-A2SF.svg\" width=\"200\">\n                    <p><span class=\"greenText\"><b>Successful harvest!</b></span><br>Your pay has increased by $0.02. Your bonus pay is now $0.52.</p>\n            ","response":0,"trial_type":"html-button-response","trial_index":22,"time_elapsed":198761,"internal_node_id":"0.0-4.0-1.7","subject_id":"608a8c5d2cfd7a48be619632","study_id":"6197b3f67c2b5cd3b6d9596a","session_id":"6197b9ec557e22b8cf9708dd","condition":"full-information","relevant_dimensions":["wings","pattern"],"bee_group":{"antennae":"X","wings":"1","pattern":"S","legs":"X"},"bonus":1.7400000000000013},{"rt":2046.2999999523163,"stimulus":"bees-with-color/bee-B1SF.svg","response":1,"trial_type":"image-button-response","trial_index":23,"time_elapsed":200809,"internal_node_id":"0.0-4.0-0.8","subject_id":"608a8c5d2cfd7a48be619632","study_id":"6197b3f67c2b5cd3b6d9596a","session_id":"6197b9ec557e22b8cf9708dd","condition":"full-information","relevant_dimensions":["wings","pattern"],"bee_group":{"antennae":"X","wings":"1","pattern":"S","legs":"X"},"action":"avoid","summary":"good-avoid","bonus":1.7400000000000013},{"rt":4501,"stimulus":"\n                    <p><b>Action: <em>avoid</em></b></p>\n                    <p>This is the bee that you just saw.</p>\n                    <img src=\"bees-with-color/bee-B1SF.svg\" width=\"200\">\n                    <p><span class=\"greenText\">Good choice!</span>  This bee would have stung you.<br>Your bonus pay is unchanged, and remains at $0.52.</p>\n            ","response":0,"trial_type":"html-button-response","trial_index":24,"time_elapsed":205310,"internal_node_id":"0.0-4.0-1.8","subject_id":"608a8c5d2cfd7a48be619632","study_id":"6197b3f67c2b5cd3b6d9596a","session_id":"6197b9ec557e22b8cf9708dd","condition":"full-information","relevant_dimensions":["wings","pattern"],"bee_group":{"antennae":"X","wings":"1","pattern":"S","legs":"X"},"bonus":1.7400000000000013},{"rt":3151.7000000476837,"stimulus":"bees-with-color/bee-B2SF.svg","response":0,"trial_type":"image-button-response","trial_index":25,"time_elapsed":208463,"internal_node_id":"0.0-4.0-0.9","subject_id":"608a8c5d2cfd7a48be619632","study_id":"6197b3f67c2b5cd3b6d9596a","session_id":"6197b9ec557e22b8cf9708dd","condition":"full-information","relevant_dimensions":["wings","pattern"],"bee_group":{"antennae":"X","wings":"1","pattern":"S","legs":"X"},"action":"harvest","summary":"good-harvest","bonus":1.7400000000000013},{"rt":1482.8999999761581,"stimulus":"\n                    <p><b>Action: <em>harvest</em></b></p>\n                    <p>This is the bee that you just saw.</p>\n                    <img src=\"bees-with-color/bee-B2SF.svg\" width=\"200\">\n                    <p><span class=\"greenText\"><b>Successful harvest!</b></span><br>Your pay has increased by $0.02. Your bonus pay is now $0.54.</p>\n            ","response":0,"trial_type":"html-button-response","trial_index":26,"time_elapsed":209947,"internal_node_id":"0.0-4.0-1.9","subject_id":"608a8c5d2cfd7a48be619632","study_id":"6197b3f67c2b5cd3b6d9596a","session_id":"6197b9ec557e22b8cf9708dd","condition":"full-information","relevant_dimensions":["wings","pattern"],"bee_group":{"antennae":"X","wings":"1","pattern":"S","legs":"X"},"bonus":1.7400000000000013},{"rt":1767.1999999284744,"stimulus":"bees-with-color/bee-B2DM.svg","response":0,"trial_type":"image-button-response","trial_index":27,"time_elapsed":211715,"internal_node_id":"0.0-4.0-0.10","subject_id":"608a8c5d2cfd7a48be619632","study_id":"6197b3f67c2b5cd3b6d9596a","session_id":"6197b9ec557e22b8cf9708dd","condition":"full-information","relevant_dimensions":["wings","pattern"],"bee_group":{"antennae":"X","wings":"1","pattern":"S","legs":"X"},"action":"harvest","summary":"good-harvest","bonus":1.7400000000000013},{"rt":949.1000000238419,"stimulus":"\n                    <p><b>Action: <em>harvest</em></b></p>\n                    <p>This is the bee that you just saw.</p>\n                    <img src=\"bees-with-color/bee-B2DM.svg\" width=\"200\">\n                    <p><span class=\"greenText\"><b>Successful harvest!</b></span><br>Your pay has increased by $0.02. Your bonus pay is now $0.56.</p>\n            ","response":0,"trial_type":"html-button-response","trial_index":28,"time_elapsed":212666,"internal_node_id":"0.0-4.0-1.10","subject_id":"608a8c5d2cfd7a48be619632","study_id":"6197b3f67c2b5cd3b6d9596a","session_id":"6197b9ec557e22b8cf9708dd","condition":"full-information","relevant_dimensions":["wings","pattern"],"bee_group":{"antennae":"X","wings":"1","pattern":"S","legs":"X"},"bonus":1.7400000000000013},{"rt":2834.2000000476837,"stimulus":"bees-with-color/bee-A1SF.svg","response":1,"trial_type":"image-button-response","trial_index":29,"time_elapsed":215501,"internal_node_id":"0.0-4.0-0.11","subject_id":"608a8c5d2cfd7a48be619632","study_id":"6197b3f67c2b5cd3b6d9596a","session_id":"6197b9ec557e22b8cf9708dd","condition":"full-information","relevant_dimensions":["wings","pattern"],"bee_group":{"antennae":"X","wings":"1","pattern":"S","legs":"X"},"action":"avoid","summary":"good-avoid","bonus":1.7400000000000013},{"rt":4053.7999999523163,"stimulus":"\n                    <p><b>Action: <em>avoid</em></b></p>\n                    <p>This is the bee that you just saw.</p>\n                    <img src=\"bees-with-color/bee-A1SF.svg\" width=\"200\">\n                    <p><span class=\"greenText\">Good choice!</span>  This bee would have stung you.<br>Your bonus pay is unchanged, and remains at $0.56.</p>\n            ","response":0,"trial_type":"html-button-response","trial_index":30,"time_elapsed":219555,"internal_node_id":"0.0-4.0-1.11","subject_id":"608a8c5d2cfd7a48be619632","study_id":"6197b3f67c2b5cd3b6d9596a","session_id":"6197b9ec557e22b8cf9708dd","condition":"full-information","relevant_dimensions":["wings","pattern"],"bee_group":{"antennae":"X","wings":"1","pattern":"S","legs":"X"},"bonus":1.7400000000000013},{"rt":1345.6000000238419,"stimulus":"bees-with-color/bee-A2DM.svg","response":0,"trial_type":"image-button-response","trial_index":31,"time_elapsed":220902,"internal_node_id":"0.0-4.0-0.12","subject_id":"608a8c5d2cfd7a48be619632","study_id":"6197b3f67c2b5cd3b6d9596a","session_id":"6197b9ec557e22b8cf9708dd","condition":"full-information","relevant_dimensions":["wings","pattern"],"bee_group":{"antennae":"X","wings":"1","pattern":"S","legs":"X"},"action":"harvest","summary":"good-harvest","bonus":1.7400000000000013},{"rt":817.8999999761581,"stimulus":"\n                    <p><b>Action: <em>harvest</em></b></p>\n                    <p>This is the bee that you just saw.</p>\n                    <img src=\"bees-with-color/bee-A2DM.svg\" width=\"200\">\n                    <p><span class=\"greenText\"><b>Successful harvest!</b></span><br>Your pay has increased by $0.02. Your bonus pay is now $0.58.</p>\n            ","response":0,"trial_type":"html-button-response","trial_index":32,"time_elapsed":221721,"internal_node_id":"0.0-4.0-1.12","subject_id":"608a8c5d2cfd7a48be619632","study_id":"6197b3f67c2b5cd3b6d9596a","session_id":"6197b9ec557e22b8cf9708dd","condition":"full-information","relevant_dimensions":["wings","pattern"],"bee_group":{"antennae":"X","wings":"1","pattern":"S","legs":"X"},"bonus":1.7400000000000013},{"rt":1839.1000000238419,"stimulus":"bees-with-color/bee-B1DM.svg","response":0,"trial_type":"image-button-response","trial_index":33,"time_elapsed":223561,"internal_node_id":"0.0-4.0-0.13","subject_id":"608a8c5d2cfd7a48be619632","study_id":"6197b3f67c2b5cd3b6d9596a","session_id":"6197b9ec557e22b8cf9708dd","condition":"full-information","relevant_dimensions":["wings","pattern"],"bee_group":{"antennae":"X","wings":"1","pattern":"S","legs":"X"},"action":"harvest","summary":"good-harvest","bonus":1.7400000000000013},{"rt":900.8999999761581,"stimulus":"\n                    <p><b>Action: <em>harvest</em></b></p>\n                    <p>This is the bee that you just saw.</p>\n                    <img src=\"bees-with-color/bee-B1DM.svg\" width=\"200\">\n                    <p><span class=\"greenText\"><b>Successful harvest!</b></span><br>Your pay has increased by $0.02. Your bonus pay is now $0.60.</p>\n            ","response":0,"trial_type":"html-button-response","trial_index":34,"time_elapsed":224463,"internal_node_id":"0.0-4.0-1.13","subject_id":"608a8c5d2cfd7a48be619632","study_id":"6197b3f67c2b5cd3b6d9596a","session_id":"6197b9ec557e22b8cf9708dd","condition":"full-information","relevant_dimensions":["wings","pattern"],"bee_group":{"antennae":"X","wings":"1","pattern":"S","legs":"X"},"bonus":1.7400000000000013},{"rt":2456.2000000476837,"stimulus":"bees-with-color/bee-B2DF.svg","response":0,"trial_type":"image-button-response","trial_index":35,"time_elapsed":226920,"internal_node_id":"0.0-4.0-0.14","subject_id":"608a8c5d2cfd7a48be619632","study_id":"6197b3f67c2b5cd3b6d9596a","session_id":"6197b9ec557e22b8cf9708dd","condition":"full-information","relevant_dimensions":["wings","pattern"],"bee_group":{"antennae":"X","wings":"1","pattern":"S","legs":"X"},"action":"harvest","summary":"good-harvest","bonus":1.7400000000000013},{"rt":927.6999999284744,"stimulus":"\n                    <p><b>Action: <em>harvest</em></b></p>\n                    <p>This is the bee that you just saw.</p>\n                    <img src=\"bees-with-color/bee-B2DF.svg\" width=\"200\">\n                    <p><span class=\"greenText\"><b>Successful harvest!</b></span><br>Your pay has increased by $0.02. Your bonus pay is now $0.62.</p>\n            ","response":0,"trial_type":"html-button-response","trial_index":36,"time_elapsed":227849,"internal_node_id":"0.0-4.0-1.14","subject_id":"608a8c5d2cfd7a48be619632","study_id":"6197b3f67c2b5cd3b6d9596a","session_id":"6197b9ec557e22b8cf9708dd","condition":"full-information","relevant_dimensions":["wings","pattern"],"bee_group":{"antennae":"X","wings":"1","pattern":"S","legs":"X"},"bonus":1.7400000000000013},{"rt":2027.3000000715256,"stimulus":"bees-with-color/bee-B2SM.svg","response":0,"trial_type":"image-button-response","trial_index":37,"time_elapsed":229877,"internal_node_id":"0.0-4.0-0.15","subject_id":"608a8c5d2cfd7a48be619632","study_id":"6197b3f67c2b5cd3b6d9596a","session_id":"6197b9ec557e22b8cf9708dd","condition":"full-information","relevant_dimensions":["wings","pattern"],"bee_group":{"antennae":"X","wings":"1","pattern":"S","legs":"X"},"action":"harvest","summary":"good-harvest","bonus":1.7400000000000013},{"rt":953.8999999761581,"stimulus":"\n                    <p><b>Action: <em>harvest</em></b></p>\n                    <p>This is the bee that you just saw.</p>\n                    <img src=\"bees-with-color/bee-B2SM.svg\" width=\"200\">\n                    <p><span class=\"greenText\"><b>Successful harvest!</b></span><br>Your pay has increased by $0.02. Your bonus pay is now $0.64.</p>\n            ","response":0,"trial_type":"html-button-response","trial_index":38,"time_elapsed":230832,"internal_node_id":"0.0-4.0-1.15","subject_id":"608a8c5d2cfd7a48be619632","study_id":"6197b3f67c2b5cd3b6d9596a","session_id":"6197b9ec557e22b8cf9708dd","condition":"full-information","relevant_dimensions":["wings","pattern"],"bee_group":{"antennae":"X","wings":"1","pattern":"S","legs":"X"},"bonus":1.7400000000000013},{"rt":1050.9000000953674,"stimulus":"bees-with-color/bee-A2DM.svg","response":0,"trial_type":"image-button-response","trial_index":39,"time_elapsed":231883,"internal_node_id":"0.0-4.0-0.16","subject_id":"608a8c5d2cfd7a48be619632","study_id":"6197b3f67c2b5cd3b6d9596a","session_id":"6197b9ec557e22b8cf9708dd","condition":"full-information","relevant_dimensions":["wings","pattern"],"bee_group":{"antennae":"X","wings":"1","pattern":"S","legs":"X"},"action":"harvest","summary":"good-harvest","bonus":1.7400000000000013},{"rt":688.6000000238419,"stimulus":"\n                    <p><b>Action: <em>harvest</em></b></p>\n                    <p>This is the bee that you just saw.</p>\n                    <img src=\"bees-with-color/bee-A2DM.svg\" width=\"200\">\n                    <p><span class=\"greenText\"><b>Successful harvest!</b></span><br>Your pay has increased by $0.02. Your bonus pay is now $0.66.</p>\n            ","response":0,"trial_type":"html-button-response","trial_index":40,"time_elapsed":232573,"internal_node_id":"0.0-4.0-1.16","subject_id":"608a8c5d2cfd7a48be619632","study_id":"6197b3f67c2b5cd3b6d9596a","session_id":"6197b9ec557e22b8cf9708dd","condition":"full-information","relevant_dimensions":["wings","pattern"],"bee_group":{"antennae":"X","wings":"1","pattern":"S","legs":"X"},"bonus":1.7400000000000013},{"rt":1683.3000000715256,"stimulus":"bees-with-color/bee-A1SF.svg","response":1,"trial_type":"image-button-response","trial_index":41,"time_elapsed":234257,"internal_node_id":"0.0-4.0-0.17","subject_id":"608a8c5d2cfd7a48be619632","study_id":"6197b3f67c2b5cd3b6d9596a","session_id":"6197b9ec557e22b8cf9708dd","condition":"full-information","relevant_dimensions":["wings","pattern"],"bee_group":{"antennae":"X","wings":"1","pattern":"S","legs":"X"},"action":"avoid","summary":"good-avoid","bonus":1.7400000000000013},{"rt":792.5999999046326,"stimulus":"\n                    <p><b>Action: <em>avoid</em></b></p>\n                    <p>This is the bee that you just saw.</p>\n                    <img src=\"bees-with-color/bee-A1SF.svg\" width=\"200\">\n                    <p><span class=\"greenText\">Good choice!</span>  This bee would have stung you.<br>Your bonus pay is unchanged, and remains at $0.66.</p>\n            ","response":0,"trial_type":"html-button-response","trial_index":42,"time_elapsed":235051,"internal_node_id":"0.0-4.0-1.17","subject_id":"608a8c5d2cfd7a48be619632","study_id":"6197b3f67c2b5cd3b6d9596a","session_id":"6197b9ec557e22b8cf9708dd","condition":"full-information","relevant_dimensions":["wings","pattern"],"bee_group":{"antennae":"X","wings":"1","pattern":"S","legs":"X"},"bonus":1.7400000000000013},{"rt":1201.1999999284744,"stimulus":"bees-with-color/bee-B1DF.svg","response":0,"trial_type":"image-button-response","trial_index":43,"time_elapsed":236253,"internal_node_id":"0.0-4.0-0.18","subject_id":"608a8c5d2cfd7a48be619632","study_id":"6197b3f67c2b5cd3b6d9596a","session_id":"6197b9ec557e22b8cf9708dd","condition":"full-information","relevant_dimensions":["wings","pattern"],"bee_group":{"antennae":"X","wings":"1","pattern":"S","legs":"X"},"action":"harvest","summary":"good-harvest","bonus":1.7400000000000013},{"rt":822.2999999523163,"stimulus":"\n                    <p><b>Action: <em>harvest</em></b></p>\n                    <p>This is the bee that you just saw.</p>\n                    <img src=\"bees-with-color/bee-B1DF.svg\" width=\"200\">\n                    <p><span class=\"greenText\"><b>Successful harvest!</b></span><br>Your pay has increased by $0.02. Your bonus pay is now $0.68.</p>\n            ","response":0,"trial_type":"html-button-response","trial_index":44,"time_elapsed":237076,"internal_node_id":"0.0-4.0-1.18","subject_id":"608a8c5d2cfd7a48be619632","study_id":"6197b3f67c2b5cd3b6d9596a","session_id":"6197b9ec557e22b8cf9708dd","condition":"full-information","relevant_dimensions":["wings","pattern"],"bee_group":{"antennae":"X","wings":"1","pattern":"S","legs":"X"},"bonus":1.7400000000000013},{"rt":929.2000000476837,"stimulus":"bees-with-color/bee-A1DM.svg","response":0,"trial_type":"image-button-response","trial_index":45,"time_elapsed":238006,"internal_node_id":"0.0-4.0-0.19","subject_id":"608a8c5d2cfd7a48be619632","study_id":"6197b3f67c2b5cd3b6d9596a","session_id":"6197b9ec557e22b8cf9708dd","condition":"full-information","relevant_dimensions":["wings","pattern"],"bee_group":{"antennae":"X","wings":"1","pattern":"S","legs":"X"},"action":"harvest","summary":"good-harvest","bonus":1.7400000000000013},{"rt":961.8000000715256,"stimulus":"\n                    <p><b>Action: <em>harvest</em></b></p>\n                    <p>This is the bee that you just saw.</p>\n                    <img src=\"bees-with-color/bee-A1DM.svg\" width=\"200\">\n                    <p><span class=\"greenText\"><b>Successful harvest!</b></span><br>Your pay has increased by $0.02. Your bonus pay is now $0.70.</p>\n            ","response":0,"trial_type":"html-button-response","trial_index":46,"time_elapsed":238968,"internal_node_id":"0.0-4.0-1.19","subject_id":"608a8c5d2cfd7a48be619632","study_id":"6197b3f67c2b5cd3b6d9596a","session_id":"6197b9ec557e22b8cf9708dd","condition":"full-information","relevant_dimensions":["wings","pattern"],"bee_group":{"antennae":"X","wings":"1","pattern":"S","legs":"X"},"bonus":1.7400000000000013},{"rt":1021.7999999523163,"stimulus":"bees-with-color/bee-B1DM.svg","response":0,"trial_type":"image-button-response","trial_index":47,"time_elapsed":239991,"internal_node_id":"0.0-4.0-0.20","subject_id":"608a8c5d2cfd7a48be619632","study_id":"6197b3f67c2b5cd3b6d9596a","session_id":"6197b9ec557e22b8cf9708dd","condition":"full-information","relevant_dimensions":["wings","pattern"],"bee_group":{"antennae":"X","wings":"1","pattern":"S","legs":"X"},"action":"harvest","summary":"good-harvest","bonus":1.7400000000000013},{"rt":807.2000000476837,"stimulus":"\n                    <p><b>Action: <em>harvest</em></b></p>\n                    <p>This is the bee that you just saw.</p>\n                    <img src=\"bees-with-color/bee-B1DM.svg\" width=\"200\">\n                    <p><span class=\"greenText\"><b>Successful harvest!</b></span><br>Your pay has increased by $0.02. Your bonus pay is now $0.72.</p>\n            ","response":0,"trial_type":"html-button-response","trial_index":48,"time_elapsed":240799,"internal_node_id":"0.0-4.0-1.20","subject_id":"608a8c5d2cfd7a48be619632","study_id":"6197b3f67c2b5cd3b6d9596a","session_id":"6197b9ec557e22b8cf9708dd","condition":"full-information","relevant_dimensions":["wings","pattern"],"bee_group":{"antennae":"X","wings":"1","pattern":"S","legs":"X"},"bonus":1.7400000000000013},{"rt":689.1000000238419,"stimulus":"bees-with-color/bee-B2DF.svg","response":0,"trial_type":"image-button-response","trial_index":49,"time_elapsed":241489,"internal_node_id":"0.0-4.0-0.21","subject_id":"608a8c5d2cfd7a48be619632","study_id":"6197b3f67c2b5cd3b6d9596a","session_id":"6197b9ec557e22b8cf9708dd","condition":"full-information","relevant_dimensions":["wings","pattern"],"bee_group":{"antennae":"X","wings":"1","pattern":"S","legs":"X"},"action":"harvest","summary":"good-harvest","bonus":1.7400000000000013},{"rt":742.6000000238419,"stimulus":"\n                    <p><b>Action: <em>harvest</em></b></p>\n                    <p>This is the bee that you just saw.</p>\n                    <img src=\"bees-with-color/bee-B2DF.svg\" width=\"200\">\n                    <p><span class=\"greenText\"><b>Successful harvest!</b></span><br>Your pay has increased by $0.02. Your bonus pay is now $0.74.</p>\n            ","response":0,"trial_type":"html-button-response","trial_index":50,"time_elapsed":242232,"internal_node_id":"0.0-4.0-1.21","subject_id":"608a8c5d2cfd7a48be619632","study_id":"6197b3f67c2b5cd3b6d9596a","session_id":"6197b9ec557e22b8cf9708dd","condition":"full-information","relevant_dimensions":["wings","pattern"],"bee_group":{"antennae":"X","wings":"1","pattern":"S","legs":"X"},"bonus":1.7400000000000013},{"rt":1606.2999999523163,"stimulus":"bees-with-color/bee-B1SM.svg","response":1,"trial_type":"image-button-response","trial_index":51,"time_elapsed":243840,"internal_node_id":"0.0-4.0-0.22","subject_id":"608a8c5d2cfd7a48be619632","study_id":"6197b3f67c2b5cd3b6d9596a","session_id":"6197b9ec557e22b8cf9708dd","condition":"full-information","relevant_dimensions":["wings","pattern"],"bee_group":{"antennae":"X","wings":"1","pattern":"S","legs":"X"},"action":"avoid","summary":"good-avoid","bonus":1.7400000000000013},{"rt":859.3000000715256,"stimulus":"\n                    <p><b>Action: <em>avoid</em></b></p>\n                    <p>This is the bee that you just saw.</p>\n                    <img src=\"bees-with-color/bee-B1SM.svg\" width=\"200\">\n                    <p><span class=\"greenText\">Good choice!</span>  This bee would have stung you.<br>Your bonus pay is unchanged, and remains at $0.74.</p>\n            ","response":0,"trial_type":"html-button-response","trial_index":52,"time_elapsed":244700,"internal_node_id":"0.0-4.0-1.22","subject_id":"608a8c5d2cfd7a48be619632","study_id":"6197b3f67c2b5cd3b6d9596a","session_id":"6197b9ec557e22b8cf9708dd","condition":"full-information","relevant_dimensions":["wings","pattern"],"bee_group":{"antennae":"X","wings":"1","pattern":"S","legs":"X"},"bonus":1.7400000000000013},{"rt":1332.5999999046326,"stimulus":"bees-with-color/bee-A2SF.svg","response":0,"trial_type":"image-button-response","trial_index":53,"time_elapsed":246034,"internal_node_id":"0.0-4.0-0.23","subject_id":"608a8c5d2cfd7a48be619632","study_id":"6197b3f67c2b5cd3b6d9596a","session_id":"6197b9ec557e22b8cf9708dd","condition":"full-information","relevant_dimensions":["wings","pattern"],"bee_group":{"antennae":"X","wings":"1","pattern":"S","legs":"X"},"action":"harvest","summary":"good-harvest","bonus":1.7400000000000013},{"rt":727.0999999046326,"stimulus":"\n                    <p><b>Action: <em>harvest</em></b></p>\n                    <p>This is the bee that you just saw.</p>\n                    <img src=\"bees-with-color/bee-A2SF.svg\" width=\"200\">\n                    <p><span class=\"greenText\"><b>Successful harvest!</b></span><br>Your pay has increased by $0.02. Your bonus pay is now $0.76.</p>\n            ","response":0,"trial_type":"html-button-response","trial_index":54,"time_elapsed":246762,"internal_node_id":"0.0-4.0-1.23","subject_id":"608a8c5d2cfd7a48be619632","study_id":"6197b3f67c2b5cd3b6d9596a","session_id":"6197b9ec557e22b8cf9708dd","condition":"full-information","relevant_dimensions":["wings","pattern"],"bee_group":{"antennae":"X","wings":"1","pattern":"S","legs":"X"},"bonus":1.7400000000000013},{"rt":819.3999999761581,"stimulus":"bees-with-color/bee-A1DF.svg","response":0,"trial_type":"image-button-response","trial_index":55,"time_elapsed":247582,"internal_node_id":"0.0-4.0-0.24","subject_id":"608a8c5d2cfd7a48be619632","study_id":"6197b3f67c2b5cd3b6d9596a","session_id":"6197b9ec557e22b8cf9708dd","condition":"full-information","relevant_dimensions":["wings","pattern"],"bee_group":{"antennae":"X","wings":"1","pattern":"S","legs":"X"},"action":"harvest","summary":"good-harvest","bonus":1.7400000000000013},{"rt":921.2000000476837,"stimulus":"\n                    <p><b>Action: <em>harvest</em></b></p>\n                    <p>This is the bee that you just saw.</p>\n                    <img src=\"bees-with-color/bee-A1DF.svg\" width=\"200\">\n                    <p><span class=\"greenText\"><b>Successful harvest!</b></span><br>Your pay has increased by $0.02. Your bonus pay is now $0.78.</p>\n            ","response":0,"trial_type":"html-button-response","trial_index":56,"time_elapsed":248504,"internal_node_id":"0.0-4.0-1.24","subject_id":"608a8c5d2cfd7a48be619632","study_id":"6197b3f67c2b5cd3b6d9596a","session_id":"6197b9ec557e22b8cf9708dd","condition":"full-information","relevant_dimensions":["wings","pattern"],"bee_group":{"antennae":"X","wings":"1","pattern":"S","legs":"X"},"bonus":1.7400000000000013},{"rt":604,"stimulus":"bees-with-color/bee-B2DM.svg","response":0,"trial_type":"image-button-response","trial_index":57,"time_elapsed":249109,"internal_node_id":"0.0-4.0-0.25","subject_id":"608a8c5d2cfd7a48be619632","study_id":"6197b3f67c2b5cd3b6d9596a","session_id":"6197b9ec557e22b8cf9708dd","condition":"full-information","relevant_dimensions":["wings","pattern"],"bee_group":{"antennae":"X","wings":"1","pattern":"S","legs":"X"},"action":"harvest","summary":"good-harvest","bonus":1.7400000000000013},{"rt":864.5,"stimulus":"\n                    <p><b>Action: <em>harvest</em></b></p>\n                    <p>This is the bee that you just saw.</p>\n                    <img src=\"bees-with-color/bee-B2DM.svg\" width=\"200\">\n                    <p><span class=\"greenText\"><b>Successful harvest!</b></span><br>Your pay has increased by $0.02. Your bonus pay is now $0.80.</p>\n            ","response":0,"trial_type":"html-button-response","trial_index":58,"time_elapsed":249974,"internal_node_id":"0.0-4.0-1.25","subject_id":"608a8c5d2cfd7a48be619632","study_id":"6197b3f67c2b5cd3b6d9596a","session_id":"6197b9ec557e22b8cf9708dd","condition":"full-information","relevant_dimensions":["wings","pattern"],"bee_group":{"antennae":"X","wings":"1","pattern":"S","legs":"X"},"bonus":1.7400000000000013},{"rt":1300.6000000238419,"stimulus":"bees-with-color/bee-A2SM.svg","response":0,"trial_type":"image-button-response","trial_index":59,"time_elapsed":251276,"internal_node_id":"0.0-4.0-0.26","subject_id":"608a8c5d2cfd7a48be619632","study_id":"6197b3f67c2b5cd3b6d9596a","session_id":"6197b9ec557e22b8cf9708dd","condition":"full-information","relevant_dimensions":["wings","pattern"],"bee_group":{"antennae":"X","wings":"1","pattern":"S","legs":"X"},"action":"harvest","summary":"good-harvest","bonus":1.7400000000000013},{"rt":575.4000000953674,"stimulus":"\n                    <p><b>Action: <em>harvest</em></b></p>\n                    <p>This is the bee that you just saw.</p>\n                    <img src=\"bees-with-color/bee-A2SM.svg\" width=\"200\">\n                    <p><span class=\"greenText\"><b>Successful harvest!</b></span><br>Your pay has increased by $0.02. Your bonus pay is now $0.82.</p>\n            ","response":0,"trial_type":"html-button-response","trial_index":60,"time_elapsed":251852,"internal_node_id":"0.0-4.0-1.26","subject_id":"608a8c5d2cfd7a48be619632","study_id":"6197b3f67c2b5cd3b6d9596a","session_id":"6197b9ec557e22b8cf9708dd","condition":"full-information","relevant_dimensions":["wings","pattern"],"bee_group":{"antennae":"X","wings":"1","pattern":"S","legs":"X"},"bonus":1.7400000000000013},{"rt":1603.2999999523163,"stimulus":"bees-with-color/bee-B2SF.svg","response":0,"trial_type":"image-button-response","trial_index":61,"time_elapsed":253456,"internal_node_id":"0.0-4.0-0.27","subject_id":"608a8c5d2cfd7a48be619632","study_id":"6197b3f67c2b5cd3b6d9596a","session_id":"6197b9ec557e22b8cf9708dd","condition":"full-information","relevant_dimensions":["wings","pattern"],"bee_group":{"antennae":"X","wings":"1","pattern":"S","legs":"X"},"action":"harvest","summary":"good-harvest","bonus":1.7400000000000013},{"rt":687.5,"stimulus":"\n                    <p><b>Action: <em>harvest</em></b></p>\n                    <p>This is the bee that you just saw.</p>\n                    <img src=\"bees-with-color/bee-B2SF.svg\" width=\"200\">\n                    <p><span class=\"greenText\"><b>Successful harvest!</b></span><br>Your pay has increased by $0.02. Your bonus pay is now $0.84.</p>\n            ","response":0,"trial_type":"html-button-response","trial_index":62,"time_elapsed":254145,"internal_node_id":"0.0-4.0-1.27","subject_id":"608a8c5d2cfd7a48be619632","study_id":"6197b3f67c2b5cd3b6d9596a","session_id":"6197b9ec557e22b8cf9708dd","condition":"full-information","relevant_dimensions":["wings","pattern"],"bee_group":{"antennae":"X","wings":"1","pattern":"S","legs":"X"},"bonus":1.7400000000000013},{"rt":1352.8999999761581,"stimulus":"bees-with-color/bee-B1SF.svg","response":1,"trial_type":"image-button-response","trial_index":63,"time_elapsed":255498,"internal_node_id":"0.0-4.0-0.28","subject_id":"608a8c5d2cfd7a48be619632","study_id":"6197b3f67c2b5cd3b6d9596a","session_id":"6197b9ec557e22b8cf9708dd","condition":"full-information","relevant_dimensions":["wings","pattern"],"bee_group":{"antennae":"X","wings":"1","pattern":"S","legs":"X"},"action":"avoid","summary":"good-avoid","bonus":1.7400000000000013},{"rt":941.6000000238419,"stimulus":"\n                    <p><b>Action: <em>avoid</em></b></p>\n                    <p>This is the bee that you just saw.</p>\n                    <img src=\"bees-with-color/bee-B1SF.svg\" width=\"200\">\n                    <p><span class=\"greenText\">Good choice!</span>  This bee would have stung you.<br>Your bonus pay is unchanged, and remains at $0.84.</p>\n            ","response":0,"trial_type":"html-button-response","trial_index":64,"time_elapsed":256441,"internal_node_id":"0.0-4.0-1.28","subject_id":"608a8c5d2cfd7a48be619632","study_id":"6197b3f67c2b5cd3b6d9596a","session_id":"6197b9ec557e22b8cf9708dd","condition":"full-information","relevant_dimensions":["wings","pattern"],"bee_group":{"antennae":"X","wings":"1","pattern":"S","legs":"X"},"bonus":1.7400000000000013},{"rt":1295.1999999284744,"stimulus":"bees-with-color/bee-B2SM.svg","response":0,"trial_type":"image-button-response","trial_index":65,"time_elapsed":257737,"internal_node_id":"0.0-4.0-0.29","subject_id":"608a8c5d2cfd7a48be619632","study_id":"6197b3f67c2b5cd3b6d9596a","session_id":"6197b9ec557e22b8cf9708dd","condition":"full-information","relevant_dimensions":["wings","pattern"],"bee_group":{"antennae":"X","wings":"1","pattern":"S","legs":"X"},"action":"harvest","summary":"good-harvest","bonus":1.7400000000000013},{"rt":726.1999999284744,"stimulus":"\n                    <p><b>Action: <em>harvest</em></b></p>\n                    <p>This is the bee that you just saw.</p>\n                    <img src=\"bees-with-color/bee-B2SM.svg\" width=\"200\">\n                    <p><span class=\"greenText\"><b>Successful harvest!</b></span><br>Your pay has increased by $0.02. Your bonus pay is now $0.86.</p>\n            ","response":0,"trial_type":"html-button-response","trial_index":66,"time_elapsed":258464,"internal_node_id":"0.0-4.0-1.29","subject_id":"608a8c5d2cfd7a48be619632","study_id":"6197b3f67c2b5cd3b6d9596a","session_id":"6197b9ec557e22b8cf9708dd","condition":"full-information","relevant_dimensions":["wings","pattern"],"bee_group":{"antennae":"X","wings":"1","pattern":"S","legs":"X"},"bonus":1.7400000000000013},{"rt":800,"stimulus":"bees-with-color/bee-A1SM.svg","response":0,"trial_type":"image-button-response","trial_index":67,"time_elapsed":259265,"internal_node_id":"0.0-4.0-0.30","subject_id":"608a8c5d2cfd7a48be619632","study_id":"6197b3f67c2b5cd3b6d9596a","session_id":"6197b9ec557e22b8cf9708dd","condition":"full-information","relevant_dimensions":["wings","pattern"],"bee_group":{"antennae":"X","wings":"1","pattern":"S","legs":"X"},"action":"harvest","summary":"bad-harvest","bonus":1.7400000000000013},{"rt":3379.9000000953674,"stimulus":"\n                    <p><b>Action: <em>harvest</em></b></p>\n                    <p>This is the bee that you just saw.</p>\n                    <img src=\"bees-with-color/bee-A1SM.svg\" width=\"200\">\n                    <p><span class=\"redText\">Bad choice, the bee was angry.</span><br><b>You have been stung!</b><br>Your pay has been decreased by $0.10. Your bonus pay is now $0.76.</p>\n            ","response":0,"trial_type":"html-button-response","trial_index":68,"time_elapsed":262646,"internal_node_id":"0.0-4.0-1.30","subject_id":"608a8c5d2cfd7a48be619632","study_id":"6197b3f67c2b5cd3b6d9596a","session_id":"6197b9ec557e22b8cf9708dd","condition":"full-information","relevant_dimensions":["wings","pattern"],"bee_group":{"antennae":"X","wings":"1","pattern":"S","legs":"X"},"bonus":1.7400000000000013},{"rt":3312.1999999284744,"stimulus":"bees-with-color/bee-A2DF.svg","response":0,"trial_type":"image-button-response","trial_index":69,"time_elapsed":265959,"internal_node_id":"0.0-4.0-0.31","subject_id":"608a8c5d2cfd7a48be619632","study_id":"6197b3f67c2b5cd3b6d9596a","session_id":"6197b9ec557e22b8cf9708dd","condition":"full-information","relevant_dimensions":["wings","pattern"],"bee_group":{"antennae":"X","wings":"1","pattern":"S","legs":"X"},"action":"harvest","summary":"good-harvest","bonus":1.7400000000000013},{"rt":920.8000000715256,"stimulus":"\n                    <p><b>Action: <em>harvest</em></b></p>\n                    <p>This is the bee that you just saw.</p>\n                    <img src=\"bees-with-color/bee-A2DF.svg\" width=\"200\">\n                    <p><span class=\"greenText\"><b>Successful harvest!</b></span><br>Your pay has increased by $0.02. Your bonus pay is now $0.78.</p>\n            ","response":0,"trial_type":"html-button-response","trial_index":70,"time_elapsed":266880,"internal_node_id":"0.0-4.0-1.31","subject_id":"608a8c5d2cfd7a48be619632","study_id":"6197b3f67c2b5cd3b6d9596a","session_id":"6197b9ec557e22b8cf9708dd","condition":"full-information","relevant_dimensions":["wings","pattern"],"bee_group":{"antennae":"X","wings":"1","pattern":"S","legs":"X"},"bonus":1.7400000000000013},{"rt":937.2999999523163,"stimulus":"bees-with-color/bee-B1DF.svg","response":0,"trial_type":"image-button-response","trial_index":71,"time_elapsed":267819,"internal_node_id":"0.0-4.0-0.32","subject_id":"608a8c5d2cfd7a48be619632","study_id":"6197b3f67c2b5cd3b6d9596a","session_id":"6197b9ec557e22b8cf9708dd","condition":"full-information","relevant_dimensions":["wings","pattern"],"bee_group":{"antennae":"X","wings":"1","pattern":"S","legs":"X"},"action":"harvest","summary":"good-harvest","bonus":1.7400000000000013},{"rt":660,"stimulus":"\n                    <p><b>Action: <em>harvest</em></b></p>\n                    <p>This is the bee that you just saw.</p>\n                    <img src=\"bees-with-color/bee-B1DF.svg\" width=\"200\">\n                    <p><span class=\"greenText\"><b>Successful harvest!</b></span><br>Your pay has increased by $0.02. Your bonus pay is now $0.80.</p>\n            ","response":0,"trial_type":"html-button-response","trial_index":72,"time_elapsed":268480,"internal_node_id":"0.0-4.0-1.32","subject_id":"608a8c5d2cfd7a48be619632","study_id":"6197b3f67c2b5cd3b6d9596a","session_id":"6197b9ec557e22b8cf9708dd","condition":"full-information","relevant_dimensions":["wings","pattern"],"bee_group":{"antennae":"X","wings":"1","pattern":"S","legs":"X"},"bonus":1.7400000000000013},{"rt":752.7999999523163,"stimulus":"bees-with-color/bee-A2DF.svg","response":0,"trial_type":"image-button-response","trial_index":73,"time_elapsed":269233,"internal_node_id":"0.0-4.0-0.33","subject_id":"608a8c5d2cfd7a48be619632","study_id":"6197b3f67c2b5cd3b6d9596a","session_id":"6197b9ec557e22b8cf9708dd","condition":"full-information","relevant_dimensions":["wings","pattern"],"bee_group":{"antennae":"X","wings":"1","pattern":"S","legs":"X"},"action":"harvest","summary":"good-harvest","bonus":1.7400000000000013},{"rt":545,"stimulus":"\n                    <p><b>Action: <em>harvest</em></b></p>\n                    <p>This is the bee that you just saw.</p>\n                    <img src=\"bees-with-color/bee-A2DF.svg\" width=\"200\">\n                    <p><span class=\"greenText\"><b>Successful harvest!</b></span><br>Your pay has increased by $0.02. Your bonus pay is now $0.82.</p>\n            ","response":0,"trial_type":"html-button-response","trial_index":74,"time_elapsed":269780,"internal_node_id":"0.0-4.0-1.33","subject_id":"608a8c5d2cfd7a48be619632","study_id":"6197b3f67c2b5cd3b6d9596a","session_id":"6197b9ec557e22b8cf9708dd","condition":"full-information","relevant_dimensions":["wings","pattern"],"bee_group":{"antennae":"X","wings":"1","pattern":"S","legs":"X"},"bonus":1.7400000000000013},{"rt":909.7999999523163,"stimulus":"bees-with-color/bee-A2SM.svg","response":0,"trial_type":"image-button-response","trial_index":75,"time_elapsed":270690,"internal_node_id":"0.0-4.0-0.34","subject_id":"608a8c5d2cfd7a48be619632","study_id":"6197b3f67c2b5cd3b6d9596a","session_id":"6197b9ec557e22b8cf9708dd","condition":"full-information","relevant_dimensions":["wings","pattern"],"bee_group":{"antennae":"X","wings":"1","pattern":"S","legs":"X"},"action":"harvest","summary":"good-harvest","bonus":1.7400000000000013},{"rt":539.3000000715256,"stimulus":"\n                    <p><b>Action: <em>harvest</em></b></p>\n                    <p>This is the bee that you just saw.</p>\n                    <img src=\"bees-with-color/bee-A2SM.svg\" width=\"200\">\n                    <p><span class=\"greenText\"><b>Successful harvest!</b></span><br>Your pay has increased by $0.02. Your bonus pay is now $0.84.</p>\n            ","response":0,"trial_type":"html-button-response","trial_index":76,"time_elapsed":271230,"internal_node_id":"0.0-4.0-1.34","subject_id":"608a8c5d2cfd7a48be619632","study_id":"6197b3f67c2b5cd3b6d9596a","session_id":"6197b9ec557e22b8cf9708dd","condition":"full-information","relevant_dimensions":["wings","pattern"],"bee_group":{"antennae":"X","wings":"1","pattern":"S","legs":"X"},"bonus":1.7400000000000013},{"rt":826.3999999761581,"stimulus":"bees-with-color/bee-A1DF.svg","response":0,"trial_type":"image-button-response","trial_index":77,"time_elapsed":272058,"internal_node_id":"0.0-4.0-0.35","subject_id":"608a8c5d2cfd7a48be619632","study_id":"6197b3f67c2b5cd3b6d9596a","session_id":"6197b9ec557e22b8cf9708dd","condition":"full-information","relevant_dimensions":["wings","pattern"],"bee_group":{"antennae":"X","wings":"1","pattern":"S","legs":"X"},"action":"harvest","summary":"good-harvest","bonus":1.7400000000000013},{"rt":616.2999999523163,"stimulus":"\n                    <p><b>Action: <em>harvest</em></b></p>\n                    <p>This is the bee that you just saw.</p>\n                    <img src=\"bees-with-color/bee-A1DF.svg\" width=\"200\">\n                    <p><span class=\"greenText\"><b>Successful harvest!</b></span><br>Your pay has increased by $0.02. Your bonus pay is now $0.86.</p>\n            ","response":0,"trial_type":"html-button-response","trial_index":78,"time_elapsed":272675,"internal_node_id":"0.0-4.0-1.35","subject_id":"608a8c5d2cfd7a48be619632","study_id":"6197b3f67c2b5cd3b6d9596a","session_id":"6197b9ec557e22b8cf9708dd","condition":"full-information","relevant_dimensions":["wings","pattern"],"bee_group":{"antennae":"X","wings":"1","pattern":"S","legs":"X"},"bonus":1.7400000000000013},{"rt":744.0999999046326,"stimulus":"bees-with-color/bee-B2DF.svg","response":0,"trial_type":"image-button-response","trial_index":79,"time_elapsed":273420,"internal_node_id":"0.0-4.0-0.36","subject_id":"608a8c5d2cfd7a48be619632","study_id":"6197b3f67c2b5cd3b6d9596a","session_id":"6197b9ec557e22b8cf9708dd","condition":"full-information","relevant_dimensions":["wings","pattern"],"bee_group":{"antennae":"X","wings":"1","pattern":"S","legs":"X"},"action":"harvest","summary":"good-harvest","bonus":1.7400000000000013},{"rt":564,"stimulus":"\n                    <p><b>Action: <em>harvest</em></b></p>\n                    <p>This is the bee that you just saw.</p>\n                    <img src=\"bees-with-color/bee-B2DF.svg\" width=\"200\">\n                    <p><span class=\"greenText\"><b>Successful harvest!</b></span><br>Your pay has increased by $0.02. Your bonus pay is now $0.88.</p>\n            ","response":0,"trial_type":"html-button-response","trial_index":80,"time_elapsed":273984,"internal_node_id":"0.0-4.0-1.36","subject_id":"608a8c5d2cfd7a48be619632","study_id":"6197b3f67c2b5cd3b6d9596a","session_id":"6197b9ec557e22b8cf9708dd","condition":"full-information","relevant_dimensions":["wings","pattern"],"bee_group":{"antennae":"X","wings":"1","pattern":"S","legs":"X"},"bonus":1.7400000000000013},{"rt":1057.2000000476837,"stimulus":"bees-with-color/bee-A1SM.svg","response":1,"trial_type":"image-button-response","trial_index":81,"time_elapsed":275043,"internal_node_id":"0.0-4.0-0.37","subject_id":"608a8c5d2cfd7a48be619632","study_id":"6197b3f67c2b5cd3b6d9596a","session_id":"6197b9ec557e22b8cf9708dd","condition":"full-information","relevant_dimensions":["wings","pattern"],"bee_group":{"antennae":"X","wings":"1","pattern":"S","legs":"X"},"action":"avoid","summary":"good-avoid","bonus":1.7400000000000013},{"rt":1467.1000000238419,"stimulus":"\n                    <p><b>Action: <em>avoid</em></b></p>\n                    <p>This is the bee that you just saw.</p>\n                    <img src=\"bees-with-color/bee-A1SM.svg\" width=\"200\">\n                    <p><span class=\"greenText\">Good choice!</span>  This bee would have stung you.<br>Your bonus pay is unchanged, and remains at $0.88.</p>\n            ","response":0,"trial_type":"html-button-response","trial_index":82,"time_elapsed":276511,"internal_node_id":"0.0-4.0-1.37","subject_id":"608a8c5d2cfd7a48be619632","study_id":"6197b3f67c2b5cd3b6d9596a","session_id":"6197b9ec557e22b8cf9708dd","condition":"full-information","relevant_dimensions":["wings","pattern"],"bee_group":{"antennae":"X","wings":"1","pattern":"S","legs":"X"},"bonus":1.7400000000000013},{"rt":1201.2000000476837,"stimulus":"bees-with-color/bee-B1SF.svg","response":1,"trial_type":"image-button-response","trial_index":83,"time_elapsed":277713,"internal_node_id":"0.0-4.0-0.38","subject_id":"608a8c5d2cfd7a48be619632","study_id":"6197b3f67c2b5cd3b6d9596a","session_id":"6197b9ec557e22b8cf9708dd","condition":"full-information","relevant_dimensions":["wings","pattern"],"bee_group":{"antennae":"X","wings":"1","pattern":"S","legs":"X"},"action":"avoid","summary":"good-avoid","bonus":1.7400000000000013},{"rt":791.8999999761581,"stimulus":"\n                    <p><b>Action: <em>avoid</em></b></p>\n                    <p>This is the bee that you just saw.</p>\n                    <img src=\"bees-with-color/bee-B1SF.svg\" width=\"200\">\n                    <p><span class=\"greenText\">Good choice!</span>  This bee would have stung you.<br>Your bonus pay is unchanged, and remains at $0.88.</p>\n            ","response":0,"trial_type":"html-button-response","trial_index":84,"time_elapsed":278506,"internal_node_id":"0.0-4.0-1.38","subject_id":"608a8c5d2cfd7a48be619632","study_id":"6197b3f67c2b5cd3b6d9596a","session_id":"6197b9ec557e22b8cf9708dd","condition":"full-information","relevant_dimensions":["wings","pattern"],"bee_group":{"antennae":"X","wings":"1","pattern":"S","legs":"X"},"bonus":1.7400000000000013},{"rt":825,"stimulus":"bees-with-color/bee-A1DM.svg","response":0,"trial_type":"image-button-response","trial_index":85,"time_elapsed":279331,"internal_node_id":"0.0-4.0-0.39","subject_id":"608a8c5d2cfd7a48be619632","study_id":"6197b3f67c2b5cd3b6d9596a","session_id":"6197b9ec557e22b8cf9708dd","condition":"full-information","relevant_dimensions":["wings","pattern"],"bee_group":{"antennae":"X","wings":"1","pattern":"S","legs":"X"},"action":"harvest","summary":"good-harvest","bonus":1.7400000000000013},{"rt":731.5,"stimulus":"\n                    <p><b>Action: <em>harvest</em></b></p>\n                    <p>This is the bee that you just saw.</p>\n                    <img src=\"bees-with-color/bee-A1DM.svg\" width=\"200\">\n                    <p><span class=\"greenText\"><b>Successful harvest!</b></span><br>Your pay has increased by $0.02. Your bonus pay is now $0.90.</p>\n            ","response":0,"trial_type":"html-button-response","trial_index":86,"time_elapsed":280064,"internal_node_id":"0.0-4.0-1.39","subject_id":"608a8c5d2cfd7a48be619632","study_id":"6197b3f67c2b5cd3b6d9596a","session_id":"6197b9ec557e22b8cf9708dd","condition":"full-information","relevant_dimensions":["wings","pattern"],"bee_group":{"antennae":"X","wings":"1","pattern":"S","legs":"X"},"bonus":1.7400000000000013},{"rt":1044.8999999761581,"stimulus":"bees-with-color/bee-A1SF.svg","response":1,"trial_type":"image-button-response","trial_index":87,"time_elapsed":281110,"internal_node_id":"0.0-4.0-0.40","subject_id":"608a8c5d2cfd7a48be619632","study_id":"6197b3f67c2b5cd3b6d9596a","session_id":"6197b9ec557e22b8cf9708dd","condition":"full-information","relevant_dimensions":["wings","pattern"],"bee_group":{"antennae":"X","wings":"1","pattern":"S","legs":"X"},"action":"avoid","summary":"good-avoid","bonus":1.7400000000000013},{"rt":752.3999999761581,"stimulus":"\n                    <p><b>Action: <em>avoid</em></b></p>\n                    <p>This is the bee that you just saw.</p>\n                    <img src=\"bees-with-color/bee-A1SF.svg\" width=\"200\">\n                    <p><span class=\"greenText\">Good choice!</span>  This bee would have stung you.<br>Your bonus pay is unchanged, and remains at $0.90.</p>\n            ","response":0,"trial_type":"html-button-response","trial_index":88,"time_elapsed":281863,"internal_node_id":"0.0-4.0-1.40","subject_id":"608a8c5d2cfd7a48be619632","study_id":"6197b3f67c2b5cd3b6d9596a","session_id":"6197b9ec557e22b8cf9708dd","condition":"full-information","relevant_dimensions":["wings","pattern"],"bee_group":{"antennae":"X","wings":"1","pattern":"S","legs":"X"},"bonus":1.7400000000000013},{"rt":1012.9000000953674,"stimulus":"bees-with-color/bee-B2SM.svg","response":0,"trial_type":"image-button-response","trial_index":89,"time_elapsed":282876,"internal_node_id":"0.0-4.0-0.41","subject_id":"608a8c5d2cfd7a48be619632","study_id":"6197b3f67c2b5cd3b6d9596a","session_id":"6197b9ec557e22b8cf9708dd","condition":"full-information","relevant_dimensions":["wings","pattern"],"bee_group":{"antennae":"X","wings":"1","pattern":"S","legs":"X"},"action":"harvest","summary":"good-harvest","bonus":1.7400000000000013},{"rt":727.6999999284744,"stimulus":"\n                    <p><b>Action: <em>harvest</em></b></p>\n                    <p>This is the bee that you just saw.</p>\n                    <img src=\"bees-with-color/bee-B2SM.svg\" width=\"200\">\n                    <p><span class=\"greenText\"><b>Successful harvest!</b></span><br>Your pay has increased by $0.02. Your bonus pay is now $0.92.</p>\n            ","response":0,"trial_type":"html-button-response","trial_index":90,"time_elapsed":283605,"internal_node_id":"0.0-4.0-1.41","subject_id":"608a8c5d2cfd7a48be619632","study_id":"6197b3f67c2b5cd3b6d9596a","session_id":"6197b9ec557e22b8cf9708dd","condition":"full-information","relevant_dimensions":["wings","pattern"],"bee_group":{"antennae":"X","wings":"1","pattern":"S","legs":"X"},"bonus":1.7400000000000013},{"rt":824,"stimulus":"bees-with-color/bee-A2SF.svg","response":0,"trial_type":"image-button-response","trial_index":91,"time_elapsed":284430,"internal_node_id":"0.0-4.0-0.42","subject_id":"608a8c5d2cfd7a48be619632","study_id":"6197b3f67c2b5cd3b6d9596a","session_id":"6197b9ec557e22b8cf9708dd","condition":"full-information","relevant_dimensions":["wings","pattern"],"bee_group":{"antennae":"X","wings":"1","pattern":"S","legs":"X"},"action":"harvest","summary":"good-harvest","bonus":1.7400000000000013},{"rt":713.1999999284744,"stimulus":"\n                    <p><b>Action: <em>harvest</em></b></p>\n                    <p>This is the bee that you just saw.</p>\n                    <img src=\"bees-with-color/bee-A2SF.svg\" width=\"200\">\n                    <p><span class=\"greenText\"><b>Successful harvest!</b></span><br>Your pay has increased by $0.02. Your bonus pay is now $0.94.</p>\n            ","response":0,"trial_type":"html-button-response","trial_index":92,"time_elapsed":285144,"internal_node_id":"0.0-4.0-1.42","subject_id":"608a8c5d2cfd7a48be619632","study_id":"6197b3f67c2b5cd3b6d9596a","session_id":"6197b9ec557e22b8cf9708dd","condition":"full-information","relevant_dimensions":["wings","pattern"],"bee_group":{"antennae":"X","wings":"1","pattern":"S","legs":"X"},"bonus":1.7400000000000013},{"rt":657.3999999761581,"stimulus":"bees-with-color/bee-B1DM.svg","response":0,"trial_type":"image-button-response","trial_index":93,"time_elapsed":285802,"internal_node_id":"0.0-4.0-0.43","subject_id":"608a8c5d2cfd7a48be619632","study_id":"6197b3f67c2b5cd3b6d9596a","session_id":"6197b9ec557e22b8cf9708dd","condition":"full-information","relevant_dimensions":["wings","pattern"],"bee_group":{"antennae":"X","wings":"1","pattern":"S","legs":"X"},"action":"harvest","summary":"good-harvest","bonus":1.7400000000000013},{"rt":573.1000000238419,"stimulus":"\n                    <p><b>Action: <em>harvest</em></b></p>\n                    <p>This is the bee that you just saw.</p>\n                    <img src=\"bees-with-color/bee-B1DM.svg\" width=\"200\">\n                    <p><span class=\"greenText\"><b>Successful harvest!</b></span><br>Your pay has increased by $0.02. Your bonus pay is now $0.96.</p>\n            ","response":0,"trial_type":"html-button-response","trial_index":94,"time_elapsed":286376,"internal_node_id":"0.0-4.0-1.43","subject_id":"608a8c5d2cfd7a48be619632","study_id":"6197b3f67c2b5cd3b6d9596a","session_id":"6197b9ec557e22b8cf9708dd","condition":"full-information","relevant_dimensions":["wings","pattern"],"bee_group":{"antennae":"X","wings":"1","pattern":"S","legs":"X"},"bonus":1.7400000000000013},{"rt":606.5999999046326,"stimulus":"bees-with-color/bee-B2DM.svg","response":0,"trial_type":"image-button-response","trial_index":95,"time_elapsed":286984,"internal_node_id":"0.0-4.0-0.44","subject_id":"608a8c5d2cfd7a48be619632","study_id":"6197b3f67c2b5cd3b6d9596a","session_id":"6197b9ec557e22b8cf9708dd","condition":"full-information","relevant_dimensions":["wings","pattern"],"bee_group":{"antennae":"X","wings":"1","pattern":"S","legs":"X"},"action":"harvest","summary":"good-harvest","bonus":1.7400000000000013},{"rt":506.2999999523163,"stimulus":"\n                    <p><b>Action: <em>harvest</em></b></p>\n                    <p>This is the bee that you just saw.</p>\n                    <img src=\"bees-with-color/bee-B2DM.svg\" width=\"200\">\n                    <p><span class=\"greenText\"><b>Successful harvest!</b></span><br>Your pay has increased by $0.02. Your bonus pay is now $0.98.</p>\n            ","response":0,"trial_type":"html-button-response","trial_index":96,"time_elapsed":287492,"internal_node_id":"0.0-4.0-1.44","subject_id":"608a8c5d2cfd7a48be619632","study_id":"6197b3f67c2b5cd3b6d9596a","session_id":"6197b9ec557e22b8cf9708dd","condition":"full-information","relevant_dimensions":["wings","pattern"],"bee_group":{"antennae":"X","wings":"1","pattern":"S","legs":"X"},"bonus":1.7400000000000013},{"rt":716.2999999523163,"stimulus":"bees-with-color/bee-A2DM.svg","response":0,"trial_type":"image-button-response","trial_index":97,"time_elapsed":288209,"internal_node_id":"0.0-4.0-0.45","subject_id":"608a8c5d2cfd7a48be619632","study_id":"6197b3f67c2b5cd3b6d9596a","session_id":"6197b9ec557e22b8cf9708dd","condition":"full-information","relevant_dimensions":["wings","pattern"],"bee_group":{"antennae":"X","wings":"1","pattern":"S","legs":"X"},"action":"harvest","summary":"good-harvest","bonus":1.7400000000000013},{"rt":494.2000000476837,"stimulus":"\n                    <p><b>Action: <em>harvest</em></b></p>\n                    <p>This is the bee that you just saw.</p>\n                    <img src=\"bees-with-color/bee-A2DM.svg\" width=\"200\">\n                    <p><span class=\"greenText\"><b>Successful harvest!</b></span><br>Your pay has increased by $0.02. Your bonus pay is now $1.00.</p>\n            ","response":0,"trial_type":"html-button-response","trial_index":98,"time_elapsed":288704,"internal_node_id":"0.0-4.0-1.45","subject_id":"608a8c5d2cfd7a48be619632","study_id":"6197b3f67c2b5cd3b6d9596a","session_id":"6197b9ec557e22b8cf9708dd","condition":"full-information","relevant_dimensions":["wings","pattern"],"bee_group":{"antennae":"X","wings":"1","pattern":"S","legs":"X"},"bonus":1.7400000000000013},{"rt":1170.7000000476837,"stimulus":"bees-with-color/bee-B2SF.svg","response":0,"trial_type":"image-button-response","trial_index":99,"time_elapsed":289876,"internal_node_id":"0.0-4.0-0.46","subject_id":"608a8c5d2cfd7a48be619632","study_id":"6197b3f67c2b5cd3b6d9596a","session_id":"6197b9ec557e22b8cf9708dd","condition":"full-information","relevant_dimensions":["wings","pattern"],"bee_group":{"antennae":"X","wings":"1","pattern":"S","legs":"X"},"action":"harvest","summary":"good-harvest","bonus":1.7400000000000013},{"rt":504.7000000476837,"stimulus":"\n                    <p><b>Action: <em>harvest</em></b></p>\n                    <p>This is the bee that you just saw.</p>\n                    <img src=\"bees-with-color/bee-B2SF.svg\" width=\"200\">\n                    <p><span class=\"greenText\"><b>Successful harvest!</b></span><br>Your pay has increased by $0.02. Your bonus pay is now $1.02.</p>\n            ","response":0,"trial_type":"html-button-response","trial_index":100,"time_elapsed":290381,"internal_node_id":"0.0-4.0-1.46","subject_id":"608a8c5d2cfd7a48be619632","study_id":"6197b3f67c2b5cd3b6d9596a","session_id":"6197b9ec557e22b8cf9708dd","condition":"full-information","relevant_dimensions":["wings","pattern"],"bee_group":{"antennae":"X","wings":"1","pattern":"S","legs":"X"},"bonus":1.7400000000000013},{"rt":1011.7000000476837,"stimulus":"bees-with-color/bee-B1SM.svg","response":1,"trial_type":"image-button-response","trial_index":101,"time_elapsed":291394,"internal_node_id":"0.0-4.0-0.47","subject_id":"608a8c5d2cfd7a48be619632","study_id":"6197b3f67c2b5cd3b6d9596a","session_id":"6197b9ec557e22b8cf9708dd","condition":"full-information","relevant_dimensions":["wings","pattern"],"bee_group":{"antennae":"X","wings":"1","pattern":"S","legs":"X"},"action":"avoid","summary":"good-avoid","bonus":1.7400000000000013},{"rt":577.7000000476837,"stimulus":"\n                    <p><b>Action: <em>avoid</em></b></p>\n                    <p>This is the bee that you just saw.</p>\n                    <img src=\"bees-with-color/bee-B1SM.svg\" width=\"200\">\n                    <p><span class=\"greenText\">Good choice!</span>  This bee would have stung you.<br>Your bonus pay is unchanged, and remains at $1.02.</p>\n            ","response":0,"trial_type":"html-button-response","trial_index":102,"time_elapsed":291972,"internal_node_id":"0.0-4.0-1.47","subject_id":"608a8c5d2cfd7a48be619632","study_id":"6197b3f67c2b5cd3b6d9596a","session_id":"6197b9ec557e22b8cf9708dd","condition":"full-information","relevant_dimensions":["wings","pattern"],"bee_group":{"antennae":"X","wings":"1","pattern":"S","legs":"X"},"bonus":1.7400000000000013},{"rt":1082.5,"stimulus":"bees-with-color/bee-B2SF.svg","response":0,"trial_type":"image-button-response","trial_index":103,"time_elapsed":293056,"internal_node_id":"0.0-4.0-0.48","subject_id":"608a8c5d2cfd7a48be619632","study_id":"6197b3f67c2b5cd3b6d9596a","session_id":"6197b9ec557e22b8cf9708dd","condition":"full-information","relevant_dimensions":["wings","pattern"],"bee_group":{"antennae":"X","wings":"1","pattern":"S","legs":"X"},"action":"harvest","summary":"good-harvest","bonus":1.7400000000000013},{"rt":698.3999999761581,"stimulus":"\n                    <p><b>Action: <em>harvest</em></b></p>\n                    <p>This is the bee that you just saw.</p>\n                    <img src=\"bees-with-color/bee-B2SF.svg\" width=\"200\">\n                    <p><span class=\"greenText\"><b>Successful harvest!</b></span><br>Your pay has increased by $0.02. Your bonus pay is now $1.04.</p>\n            ","response":0,"trial_type":"html-button-response","trial_index":104,"time_elapsed":293755,"internal_node_id":"0.0-4.0-1.48","subject_id":"608a8c5d2cfd7a48be619632","study_id":"6197b3f67c2b5cd3b6d9596a","session_id":"6197b9ec557e22b8cf9708dd","condition":"full-information","relevant_dimensions":["wings","pattern"],"bee_group":{"antennae":"X","wings":"1","pattern":"S","legs":"X"},"bonus":1.7400000000000013},{"rt":1061.8999999761581,"stimulus":"bees-with-color/bee-B1DF.svg","response":0,"trial_type":"image-button-response","trial_index":105,"time_elapsed":294818,"internal_node_id":"0.0-4.0-0.49","subject_id":"608a8c5d2cfd7a48be619632","study_id":"6197b3f67c2b5cd3b6d9596a","session_id":"6197b9ec557e22b8cf9708dd","condition":"full-information","relevant_dimensions":["wings","pattern"],"bee_group":{"antennae":"X","wings":"1","pattern":"S","legs":"X"},"action":"harvest","summary":"good-harvest","bonus":1.7400000000000013},{"rt":831.4000000953674,"stimulus":"\n                    <p><b>Action: <em>harvest</em></b></p>\n                    <p>This is the bee that you just saw.</p>\n                    <img src=\"bees-with-color/bee-B1DF.svg\" width=\"200\">\n                    <p><span class=\"greenText\"><b>Successful harvest!</b></span><br>Your pay has increased by $0.02. Your bonus pay is now $1.06.</p>\n            ","response":0,"trial_type":"html-button-response","trial_index":106,"time_elapsed":295651,"internal_node_id":"0.0-4.0-1.49","subject_id":"608a8c5d2cfd7a48be619632","study_id":"6197b3f67c2b5cd3b6d9596a","session_id":"6197b9ec557e22b8cf9708dd","condition":"full-information","relevant_dimensions":["wings","pattern"],"bee_group":{"antennae":"X","wings":"1","pattern":"S","legs":"X"},"bonus":1.7400000000000013},{"rt":973.1999999284744,"stimulus":"bees-with-color/bee-A1DM.svg","response":0,"trial_type":"image-button-response","trial_index":107,"time_elapsed":296625,"internal_node_id":"0.0-4.0-0.50","subject_id":"608a8c5d2cfd7a48be619632","study_id":"6197b3f67c2b5cd3b6d9596a","session_id":"6197b9ec557e22b8cf9708dd","condition":"full-information","relevant_dimensions":["wings","pattern"],"bee_group":{"antennae":"X","wings":"1","pattern":"S","legs":"X"},"action":"harvest","summary":"good-harvest","bonus":1.7400000000000013},{"rt":572.3999999761581,"stimulus":"\n                    <p><b>Action: <em>harvest</em></b></p>\n                    <p>This is the bee that you just saw.</p>\n                    <img src=\"bees-with-color/bee-A1DM.svg\" width=\"200\">\n                    <p><span class=\"greenText\"><b>Successful harvest!</b></span><br>Your pay has increased by $0.02. Your bonus pay is now $1.08.</p>\n            ","response":0,"trial_type":"html-button-response","trial_index":108,"time_elapsed":297198,"internal_node_id":"0.0-4.0-1.50","subject_id":"608a8c5d2cfd7a48be619632","study_id":"6197b3f67c2b5cd3b6d9596a","session_id":"6197b9ec557e22b8cf9708dd","condition":"full-information","relevant_dimensions":["wings","pattern"],"bee_group":{"antennae":"X","wings":"1","pattern":"S","legs":"X"},"bonus":1.7400000000000013},{"rt":1231.2000000476837,"stimulus":"bees-with-color/bee-A2DF.svg","response":0,"trial_type":"image-button-response","trial_index":109,"time_elapsed":298430,"internal_node_id":"0.0-4.0-0.51","subject_id":"608a8c5d2cfd7a48be619632","study_id":"6197b3f67c2b5cd3b6d9596a","session_id":"6197b9ec557e22b8cf9708dd","condition":"full-information","relevant_dimensions":["wings","pattern"],"bee_group":{"antennae":"X","wings":"1","pattern":"S","legs":"X"},"action":"harvest","summary":"good-harvest","bonus":1.7400000000000013},{"rt":475.3000000715256,"stimulus":"\n                    <p><b>Action: <em>harvest</em></b></p>\n                    <p>This is the bee that you just saw.</p>\n                    <img src=\"bees-with-color/bee-A2DF.svg\" width=\"200\">\n                    <p><span class=\"greenText\"><b>Successful harvest!</b></span><br>Your pay has increased by $0.02. Your bonus pay is now $1.10.</p>\n            ","response":0,"trial_type":"html-button-response","trial_index":110,"time_elapsed":298906,"internal_node_id":"0.0-4.0-1.51","subject_id":"608a8c5d2cfd7a48be619632","study_id":"6197b3f67c2b5cd3b6d9596a","session_id":"6197b9ec557e22b8cf9708dd","condition":"full-information","relevant_dimensions":["wings","pattern"],"bee_group":{"antennae":"X","wings":"1","pattern":"S","legs":"X"},"bonus":1.7400000000000013},{"rt":692.6000000238419,"stimulus":"bees-with-color/bee-B2DF.svg","response":0,"trial_type":"image-button-response","trial_index":111,"time_elapsed":299600,"internal_node_id":"0.0-4.0-0.52","subject_id":"608a8c5d2cfd7a48be619632","study_id":"6197b3f67c2b5cd3b6d9596a","session_id":"6197b9ec557e22b8cf9708dd","condition":"full-information","relevant_dimensions":["wings","pattern"],"bee_group":{"antennae":"X","wings":"1","pattern":"S","legs":"X"},"action":"harvest","summary":"good-harvest","bonus":1.7400000000000013},{"rt":437.7000000476837,"stimulus":"\n                    <p><b>Action: <em>harvest</em></b></p>\n                    <p>This is the bee that you just saw.</p>\n                    <img src=\"bees-with-color/bee-B2DF.svg\" width=\"200\">\n                    <p><span class=\"greenText\"><b>Successful harvest!</b></span><br>Your pay has increased by $0.02. Your bonus pay is now $1.12.</p>\n            ","response":0,"trial_type":"html-button-response","trial_index":112,"time_elapsed":300038,"internal_node_id":"0.0-4.0-1.52","subject_id":"608a8c5d2cfd7a48be619632","study_id":"6197b3f67c2b5cd3b6d9596a","session_id":"6197b9ec557e22b8cf9708dd","condition":"full-information","relevant_dimensions":["wings","pattern"],"bee_group":{"antennae":"X","wings":"1","pattern":"S","legs":"X"},"bonus":1.7400000000000013},{"rt":1008.1999999284744,"stimulus":"bees-with-color/bee-B1SF.svg","response":1,"trial_type":"image-button-response","trial_index":113,"time_elapsed":301047,"internal_node_id":"0.0-4.0-0.53","subject_id":"608a8c5d2cfd7a48be619632","study_id":"6197b3f67c2b5cd3b6d9596a","session_id":"6197b9ec557e22b8cf9708dd","condition":"full-information","relevant_dimensions":["wings","pattern"],"bee_group":{"antennae":"X","wings":"1","pattern":"S","legs":"X"},"action":"avoid","summary":"good-avoid","bonus":1.7400000000000013},{"rt":657.5,"stimulus":"\n                    <p><b>Action: <em>avoid</em></b></p>\n                    <p>This is the bee that you just saw.</p>\n                    <img src=\"bees-with-color/bee-B1SF.svg\" width=\"200\">\n                    <p><span class=\"greenText\">Good choice!</span>  This bee would have stung you.<br>Your bonus pay is unchanged, and remains at $1.12.</p>\n            ","response":0,"trial_type":"html-button-response","trial_index":114,"time_elapsed":301706,"internal_node_id":"0.0-4.0-1.53","subject_id":"608a8c5d2cfd7a48be619632","study_id":"6197b3f67c2b5cd3b6d9596a","session_id":"6197b9ec557e22b8cf9708dd","condition":"full-information","relevant_dimensions":["wings","pattern"],"bee_group":{"antennae":"X","wings":"1","pattern":"S","legs":"X"},"bonus":1.7400000000000013},{"rt":2037,"stimulus":"bees-with-color/bee-A1SF.svg","response":1,"trial_type":"image-button-response","trial_index":115,"time_elapsed":303743,"internal_node_id":"0.0-4.0-0.54","subject_id":"608a8c5d2cfd7a48be619632","study_id":"6197b3f67c2b5cd3b6d9596a","session_id":"6197b9ec557e22b8cf9708dd","condition":"full-information","relevant_dimensions":["wings","pattern"],"bee_group":{"antennae":"X","wings":"1","pattern":"S","legs":"X"},"action":"avoid","summary":"good-avoid","bonus":1.7400000000000013},{"rt":848,"stimulus":"\n                    <p><b>Action: <em>avoid</em></b></p>\n                    <p>This is the bee that you just saw.</p>\n                    <img src=\"bees-with-color/bee-A1SF.svg\" width=\"200\">\n                    <p><span class=\"greenText\">Good choice!</span>  This bee would have stung you.<br>Your bonus pay is unchanged, and remains at $1.12.</p>\n            ","response":0,"trial_type":"html-button-response","trial_index":116,"time_elapsed":304592,"internal_node_id":"0.0-4.0-1.54","subject_id":"608a8c5d2cfd7a48be619632","study_id":"6197b3f67c2b5cd3b6d9596a","session_id":"6197b9ec557e22b8cf9708dd","condition":"full-information","relevant_dimensions":["wings","pattern"],"bee_group":{"antennae":"X","wings":"1","pattern":"S","legs":"X"},"bonus":1.7400000000000013},{"rt":734.2999999523163,"stimulus":"bees-with-color/bee-B2DM.svg","response":0,"trial_type":"image-button-response","trial_index":117,"time_elapsed":305327,"internal_node_id":"0.0-4.0-0.55","subject_id":"608a8c5d2cfd7a48be619632","study_id":"6197b3f67c2b5cd3b6d9596a","session_id":"6197b9ec557e22b8cf9708dd","condition":"full-information","relevant_dimensions":["wings","pattern"],"bee_group":{"antennae":"X","wings":"1","pattern":"S","legs":"X"},"action":"harvest","summary":"good-harvest","bonus":1.7400000000000013},{"rt":553,"stimulus":"\n                    <p><b>Action: <em>harvest</em></b></p>\n                    <p>This is the bee that you just saw.</p>\n                    <img src=\"bees-with-color/bee-B2DM.svg\" width=\"200\">\n                    <p><span class=\"greenText\"><b>Successful harvest!</b></span><br>Your pay has increased by $0.02. Your bonus pay is now $1.14.</p>\n            ","response":0,"trial_type":"html-button-response","trial_index":118,"time_elapsed":305881,"internal_node_id":"0.0-4.0-1.55","subject_id":"608a8c5d2cfd7a48be619632","study_id":"6197b3f67c2b5cd3b6d9596a","session_id":"6197b9ec557e22b8cf9708dd","condition":"full-information","relevant_dimensions":["wings","pattern"],"bee_group":{"antennae":"X","wings":"1","pattern":"S","legs":"X"},"bonus":1.7400000000000013},{"rt":1088.3000000715256,"stimulus":"bees-with-color/bee-B1SM.svg","response":1,"trial_type":"image-button-response","trial_index":119,"time_elapsed":306970,"internal_node_id":"0.0-4.0-0.56","subject_id":"608a8c5d2cfd7a48be619632","study_id":"6197b3f67c2b5cd3b6d9596a","session_id":"6197b9ec557e22b8cf9708dd","condition":"full-information","relevant_dimensions":["wings","pattern"],"bee_group":{"antennae":"X","wings":"1","pattern":"S","legs":"X"},"action":"avoid","summary":"good-avoid","bonus":1.7400000000000013},{"rt":533.5,"stimulus":"\n                    <p><b>Action: <em>avoid</em></b></p>\n                    <p>This is the bee that you just saw.</p>\n                    <img src=\"bees-with-color/bee-B1SM.svg\" width=\"200\">\n                    <p><span class=\"greenText\">Good choice!</span>  This bee would have stung you.<br>Your bonus pay is unchanged, and remains at $1.14.</p>\n            ","response":0,"trial_type":"html-button-response","trial_index":120,"time_elapsed":307505,"internal_node_id":"0.0-4.0-1.56","subject_id":"608a8c5d2cfd7a48be619632","study_id":"6197b3f67c2b5cd3b6d9596a","session_id":"6197b9ec557e22b8cf9708dd","condition":"full-information","relevant_dimensions":["wings","pattern"],"bee_group":{"antennae":"X","wings":"1","pattern":"S","legs":"X"},"bonus":1.7400000000000013},{"rt":827.8999999761581,"stimulus":"bees-with-color/bee-B1DM.svg","response":0,"trial_type":"image-button-response","trial_index":121,"time_elapsed":308333,"internal_node_id":"0.0-4.0-0.57","subject_id":"608a8c5d2cfd7a48be619632","study_id":"6197b3f67c2b5cd3b6d9596a","session_id":"6197b9ec557e22b8cf9708dd","condition":"full-information","relevant_dimensions":["wings","pattern"],"bee_group":{"antennae":"X","wings":"1","pattern":"S","legs":"X"},"action":"harvest","summary":"good-harvest","bonus":1.7400000000000013},{"rt":640.3999999761581,"stimulus":"\n                    <p><b>Action: <em>harvest</em></b></p>\n                    <p>This is the bee that you just saw.</p>\n                    <img src=\"bees-with-color/bee-B1DM.svg\" width=\"200\">\n                    <p><span class=\"greenText\"><b>Successful harvest!</b></span><br>Your pay has increased by $0.02. Your bonus pay is now $1.16.</p>\n            ","response":0,"trial_type":"html-button-response","trial_index":122,"time_elapsed":308975,"internal_node_id":"0.0-4.0-1.57","subject_id":"608a8c5d2cfd7a48be619632","study_id":"6197b3f67c2b5cd3b6d9596a","session_id":"6197b9ec557e22b8cf9708dd","condition":"full-information","relevant_dimensions":["wings","pattern"],"bee_group":{"antennae":"X","wings":"1","pattern":"S","legs":"X"},"bonus":1.7400000000000013},{"rt":857.3999999761581,"stimulus":"bees-with-color/bee-A2SF.svg","response":0,"trial_type":"image-button-response","trial_index":123,"time_elapsed":309833,"internal_node_id":"0.0-4.0-0.58","subject_id":"608a8c5d2cfd7a48be619632","study_id":"6197b3f67c2b5cd3b6d9596a","session_id":"6197b9ec557e22b8cf9708dd","condition":"full-information","relevant_dimensions":["wings","pattern"],"bee_group":{"antennae":"X","wings":"1","pattern":"S","legs":"X"},"action":"harvest","summary":"good-harvest","bonus":1.7400000000000013},{"rt":619.5,"stimulus":"\n                    <p><b>Action: <em>harvest</em></b></p>\n                    <p>This is the bee that you just saw.</p>\n                    <img src=\"bees-with-color/bee-A2SF.svg\" width=\"200\">\n                    <p><span class=\"greenText\"><b>Successful harvest!</b></span><br>Your pay has increased by $0.02. Your bonus pay is now $1.18.</p>\n            ","response":0,"trial_type":"html-button-response","trial_index":124,"time_elapsed":310453,"internal_node_id":"0.0-4.0-1.58","subject_id":"608a8c5d2cfd7a48be619632","study_id":"6197b3f67c2b5cd3b6d9596a","session_id":"6197b9ec557e22b8cf9708dd","condition":"full-information","relevant_dimensions":["wings","pattern"],"bee_group":{"antennae":"X","wings":"1","pattern":"S","legs":"X"},"bonus":1.7400000000000013},{"rt":1081.1000000238419,"stimulus":"bees-with-color/bee-A1DF.svg","response":0,"trial_type":"image-button-response","trial_index":125,"time_elapsed":311535,"internal_node_id":"0.0-4.0-0.59","subject_id":"608a8c5d2cfd7a48be619632","study_id":"6197b3f67c2b5cd3b6d9596a","session_id":"6197b9ec557e22b8cf9708dd","condition":"full-information","relevant_dimensions":["wings","pattern"],"bee_group":{"antennae":"X","wings":"1","pattern":"S","legs":"X"},"action":"harvest","summary":"good-harvest","bonus":1.7400000000000013},{"rt":483.1999999284744,"stimulus":"\n                    <p><b>Action: <em>harvest</em></b></p>\n                    <p>This is the bee that you just saw.</p>\n                    <img src=\"bees-with-color/bee-A1DF.svg\" width=\"200\">\n                    <p><span class=\"greenText\"><b>Successful harvest!</b></span><br>Your pay has increased by $0.02. Your bonus pay is now $1.20.</p>\n            ","response":0,"trial_type":"html-button-response","trial_index":126,"time_elapsed":312019,"internal_node_id":"0.0-4.0-1.59","subject_id":"608a8c5d2cfd7a48be619632","study_id":"6197b3f67c2b5cd3b6d9596a","session_id":"6197b9ec557e22b8cf9708dd","condition":"full-information","relevant_dimensions":["wings","pattern"],"bee_group":{"antennae":"X","wings":"1","pattern":"S","legs":"X"},"bonus":1.7400000000000013},{"rt":1381.6000000238419,"stimulus":"bees-with-color/bee-A1SM.svg","response":1,"trial_type":"image-button-response","trial_index":127,"time_elapsed":313402,"internal_node_id":"0.0-4.0-0.60","subject_id":"608a8c5d2cfd7a48be619632","study_id":"6197b3f67c2b5cd3b6d9596a","session_id":"6197b9ec557e22b8cf9708dd","condition":"full-information","relevant_dimensions":["wings","pattern"],"bee_group":{"antennae":"X","wings":"1","pattern":"S","legs":"X"},"action":"avoid","summary":"good-avoid","bonus":1.7400000000000013},{"rt":850.1000000238419,"stimulus":"\n                    <p><b>Action: <em>avoid</em></b></p>\n                    <p>This is the bee that you just saw.</p>\n                    <img src=\"bees-with-color/bee-A1SM.svg\" width=\"200\">\n                    <p><span class=\"greenText\">Good choice!</span>  This bee would have stung you.<br>Your bonus pay is unchanged, and remains at $1.20.</p>\n            ","response":0,"trial_type":"html-button-response","trial_index":128,"time_elapsed":314253,"internal_node_id":"0.0-4.0-1.60","subject_id":"608a8c5d2cfd7a48be619632","study_id":"6197b3f67c2b5cd3b6d9596a","session_id":"6197b9ec557e22b8cf9708dd","condition":"full-information","relevant_dimensions":["wings","pattern"],"bee_group":{"antennae":"X","wings":"1","pattern":"S","legs":"X"},"bonus":1.7400000000000013},{"rt":1286.5,"stimulus":"bees-with-color/bee-A2DM.svg","response":0,"trial_type":"image-button-response","trial_index":129,"time_elapsed":315540,"internal_node_id":"0.0-4.0-0.61","subject_id":"608a8c5d2cfd7a48be619632","study_id":"6197b3f67c2b5cd3b6d9596a","session_id":"6197b9ec557e22b8cf9708dd","condition":"full-information","relevant_dimensions":["wings","pattern"],"bee_group":{"antennae":"X","wings":"1","pattern":"S","legs":"X"},"action":"harvest","summary":"good-harvest","bonus":1.7400000000000013},{"rt":557.8000000715256,"stimulus":"\n                    <p><b>Action: <em>harvest</em></b></p>\n                    <p>This is the bee that you just saw.</p>\n                    <img src=\"bees-with-color/bee-A2DM.svg\" width=\"200\">\n                    <p><span class=\"greenText\"><b>Successful harvest!</b></span><br>Your pay has increased by $0.02. Your bonus pay is now $1.22.</p>\n            ","response":0,"trial_type":"html-button-response","trial_index":130,"time_elapsed":316099,"internal_node_id":"0.0-4.0-1.61","subject_id":"608a8c5d2cfd7a48be619632","study_id":"6197b3f67c2b5cd3b6d9596a","session_id":"6197b9ec557e22b8cf9708dd","condition":"full-information","relevant_dimensions":["wings","pattern"],"bee_group":{"antennae":"X","wings":"1","pattern":"S","legs":"X"},"bonus":1.7400000000000013},{"rt":930.3999999761581,"stimulus":"bees-with-color/bee-B2SM.svg","response":0,"trial_type":"image-button-response","trial_index":131,"time_elapsed":317030,"internal_node_id":"0.0-4.0-0.62","subject_id":"608a8c5d2cfd7a48be619632","study_id":"6197b3f67c2b5cd3b6d9596a","session_id":"6197b9ec557e22b8cf9708dd","condition":"full-information","relevant_dimensions":["wings","pattern"],"bee_group":{"antennae":"X","wings":"1","pattern":"S","legs":"X"},"action":"harvest","summary":"good-harvest","bonus":1.7400000000000013},{"rt":489.8000000715256,"stimulus":"\n                    <p><b>Action: <em>harvest</em></b></p>\n                    <p>This is the bee that you just saw.</p>\n                    <img src=\"bees-with-color/bee-B2SM.svg\" width=\"200\">\n                    <p><span class=\"greenText\"><b>Successful harvest!</b></span><br>Your pay has increased by $0.02. Your bonus pay is now $1.24.</p>\n            ","response":0,"trial_type":"html-button-response","trial_index":132,"time_elapsed":317521,"internal_node_id":"0.0-4.0-1.62","subject_id":"608a8c5d2cfd7a48be619632","study_id":"6197b3f67c2b5cd3b6d9596a","session_id":"6197b9ec557e22b8cf9708dd","condition":"full-information","relevant_dimensions":["wings","pattern"],"bee_group":{"antennae":"X","wings":"1","pattern":"S","legs":"X"},"bonus":1.7400000000000013},{"rt":750,"stimulus":"bees-with-color/bee-A2SM.svg","response":0,"trial_type":"image-button-response","trial_index":133,"time_elapsed":318272,"internal_node_id":"0.0-4.0-0.63","subject_id":"608a8c5d2cfd7a48be619632","study_id":"6197b3f67c2b5cd3b6d9596a","session_id":"6197b9ec557e22b8cf9708dd","condition":"full-information","relevant_dimensions":["wings","pattern"],"bee_group":{"antennae":"X","wings":"1","pattern":"S","legs":"X"},"action":"harvest","summary":"good-harvest","bonus":1.7400000000000013},{"rt":989.4000000953674,"stimulus":"\n                    <p><b>Action: <em>harvest</em></b></p>\n                    <p>This is the bee that you just saw.</p>\n                    <img src=\"bees-with-color/bee-A2SM.svg\" width=\"200\">\n                    <p><span class=\"greenText\"><b>Successful harvest!</b></span><br>Your pay has increased by $0.02. Your bonus pay is now $1.26.</p>\n            ","response":0,"trial_type":"html-button-response","trial_index":134,"time_elapsed":319262,"internal_node_id":"0.0-4.0-1.63","subject_id":"608a8c5d2cfd7a48be619632","study_id":"6197b3f67c2b5cd3b6d9596a","session_id":"6197b9ec557e22b8cf9708dd","condition":"full-information","relevant_dimensions":["wings","pattern"],"bee_group":{"antennae":"X","wings":"1","pattern":"S","legs":"X"},"bonus":1.7400000000000013},{"rt":11126.299999952316,"stimulus":"You have completed the first part of this experiment.<br><br>You will now begin a shorter second part, in which you will receive no feedback.<br>The same rules regarding bonus pay apply.<br><br>Press any key to begin.","response":" ","trial_type":"html-keyboard-response","trial_index":135,"time_elapsed":330389,"internal_node_id":"0.0-5.0","subject_id":"608a8c5d2cfd7a48be619632","study_id":"6197b3f67c2b5cd3b6d9596a","session_id":"6197b9ec557e22b8cf9708dd","condition":"full-information","relevant_dimensions":["wings","pattern"],"bee_group":{"antennae":"X","wings":"1","pattern":"S","legs":"X"},"bonus":1.7400000000000013},{"rt":4220.799999952316,"stimulus":"bees-with-color/bee-B1DM.svg","response":0,"trial_type":"image-button-response","trial_index":136,"time_elapsed":334614,"internal_node_id":"0.0-6.0-0.0","subject_id":"608a8c5d2cfd7a48be619632","study_id":"6197b3f67c2b5cd3b6d9596a","session_id":"6197b9ec557e22b8cf9708dd","condition":"full-information","relevant_dimensions":["wings","pattern"],"bee_group":{"antennae":"X","wings":"1","pattern":"S","legs":"X"},"bonus":1.7400000000000013},{"rt":801.2000000476837,"stimulus":"bees-with-color/bee-A2DM.svg","response":0,"trial_type":"image-button-response","trial_index":137,"time_elapsed":335416,"internal_node_id":"0.0-6.0-0.1","subject_id":"608a8c5d2cfd7a48be619632","study_id":"6197b3f67c2b5cd3b6d9596a","session_id":"6197b9ec557e22b8cf9708dd","condition":"full-information","relevant_dimensions":["wings","pattern"],"bee_group":{"antennae":"X","wings":"1","pattern":"S","legs":"X"},"bonus":1.7400000000000013},{"rt":904.5,"stimulus":"bees-with-color/bee-A1SF.svg","response":1,"trial_type":"image-button-response","trial_index":138,"time_elapsed":336322,"internal_node_id":"0.0-6.0-0.2","subject_id":"608a8c5d2cfd7a48be619632","study_id":"6197b3f67c2b5cd3b6d9596a","session_id":"6197b9ec557e22b8cf9708dd","condition":"full-information","relevant_dimensions":["wings","pattern"],"bee_group":{"antennae":"X","wings":"1","pattern":"S","legs":"X"},"bonus":1.7400000000000013},{"rt":2023.5,"stimulus":"bees-with-color/bee-A2SF.svg","response":0,"trial_type":"image-button-response","trial_index":139,"time_elapsed":338347,"internal_node_id":"0.0-6.0-0.3","subject_id":"608a8c5d2cfd7a48be619632","study_id":"6197b3f67c2b5cd3b6d9596a","session_id":"6197b9ec557e22b8cf9708dd","condition":"full-information","relevant_dimensions":["wings","pattern"],"bee_group":{"antennae":"X","wings":"1","pattern":"S","legs":"X"},"bonus":1.7400000000000013},{"rt":880.5,"stimulus":"bees-with-color/bee-B1SF.svg","response":1,"trial_type":"image-button-response","trial_index":140,"time_elapsed":339229,"internal_node_id":"0.0-6.0-0.4","subject_id":"608a8c5d2cfd7a48be619632","study_id":"6197b3f67c2b5cd3b6d9596a","session_id":"6197b9ec557e22b8cf9708dd","condition":"full-information","relevant_dimensions":["wings","pattern"],"bee_group":{"antennae":"X","wings":"1","pattern":"S","legs":"X"},"bonus":1.7400000000000013},{"rt":551.2000000476837,"stimulus":"bees-with-color/bee-B1DF.svg","response":0,"trial_type":"image-button-response","trial_index":141,"time_elapsed":339781,"internal_node_id":"0.0-6.0-0.5","subject_id":"608a8c5d2cfd7a48be619632","study_id":"6197b3f67c2b5cd3b6d9596a","session_id":"6197b9ec557e22b8cf9708dd","condition":"full-information","relevant_dimensions":["wings","pattern"],"bee_group":{"antennae":"X","wings":"1","pattern":"S","legs":"X"},"bonus":1.7400000000000013},{"rt":710.8999999761581,"stimulus":"bees-with-color/bee-A2DF.svg","response":0,"trial_type":"image-button-response","trial_index":142,"time_elapsed":340494,"internal_node_id":"0.0-6.0-0.6","subject_id":"608a8c5d2cfd7a48be619632","study_id":"6197b3f67c2b5cd3b6d9596a","session_id":"6197b9ec557e22b8cf9708dd","condition":"full-information","relevant_dimensions":["wings","pattern"],"bee_group":{"antennae":"X","wings":"1","pattern":"S","legs":"X"},"bonus":1.7400000000000013},{"rt":921.2999999523163,"stimulus":"bees-with-color/bee-A2SM.svg","response":0,"trial_type":"image-button-response","trial_index":143,"time_elapsed":341416,"internal_node_id":"0.0-6.0-0.7","subject_id":"608a8c5d2cfd7a48be619632","study_id":"6197b3f67c2b5cd3b6d9596a","session_id":"6197b9ec557e22b8cf9708dd","condition":"full-information","relevant_dimensions":["wings","pattern"],"bee_group":{"antennae":"X","wings":"1","pattern":"S","legs":"X"},"bonus":1.7400000000000013},{"rt":746,"stimulus":"bees-with-color/bee-A1DF.svg","response":0,"trial_type":"image-button-response","trial_index":144,"time_elapsed":342163,"internal_node_id":"0.0-6.0-0.8","subject_id":"608a8c5d2cfd7a48be619632","study_id":"6197b3f67c2b5cd3b6d9596a","session_id":"6197b9ec557e22b8cf9708dd","condition":"full-information","relevant_dimensions":["wings","pattern"],"bee_group":{"antennae":"X","wings":"1","pattern":"S","legs":"X"},"bonus":1.7400000000000013},{"rt":1921.6000000238419,"stimulus":"bees-with-color/bee-B2SF.svg","response":0,"trial_type":"image-button-response","trial_index":145,"time_elapsed":344086,"internal_node_id":"0.0-6.0-0.9","subject_id":"608a8c5d2cfd7a48be619632","study_id":"6197b3f67c2b5cd3b6d9596a","session_id":"6197b9ec557e22b8cf9708dd","condition":"full-information","relevant_dimensions":["wings","pattern"],"bee_group":{"antennae":"X","wings":"1","pattern":"S","legs":"X"},"bonus":1.7400000000000013},{"rt":657.5,"stimulus":"bees-with-color/bee-A1DM.svg","response":0,"trial_type":"image-button-response","trial_index":146,"time_elapsed":344745,"internal_node_id":"0.0-6.0-0.10","subject_id":"608a8c5d2cfd7a48be619632","study_id":"6197b3f67c2b5cd3b6d9596a","session_id":"6197b9ec557e22b8cf9708dd","condition":"full-information","relevant_dimensions":["wings","pattern"],"bee_group":{"antennae":"X","wings":"1","pattern":"S","legs":"X"},"bonus":1.7400000000000013},{"rt":718.6999999284744,"stimulus":"bees-with-color/bee-B2DF.svg","response":0,"trial_type":"image-button-response","trial_index":147,"time_elapsed":345464,"internal_node_id":"0.0-6.0-0.11","subject_id":"608a8c5d2cfd7a48be619632","study_id":"6197b3f67c2b5cd3b6d9596a","session_id":"6197b9ec557e22b8cf9708dd","condition":"full-information","relevant_dimensions":["wings","pattern"],"bee_group":{"antennae":"X","wings":"1","pattern":"S","legs":"X"},"bonus":1.7400000000000013},{"rt":840.6000000238419,"stimulus":"bees-with-color/bee-B2SM.svg","response":0,"trial_type":"image-button-response","trial_index":148,"time_elapsed":346306,"internal_node_id":"0.0-6.0-0.12","subject_id":"608a8c5d2cfd7a48be619632","study_id":"6197b3f67c2b5cd3b6d9596a","session_id":"6197b9ec557e22b8cf9708dd","condition":"full-information","relevant_dimensions":["wings","pattern"],"bee_group":{"antennae":"X","wings":"1","pattern":"S","legs":"X"},"bonus":1.7400000000000013},{"rt":1220,"stimulus":"bees-with-color/bee-A1SM.svg","response":1,"trial_type":"image-button-response","trial_index":149,"time_elapsed":347527,"internal_node_id":"0.0-6.0-0.13","subject_id":"608a8c5d2cfd7a48be619632","study_id":"6197b3f67c2b5cd3b6d9596a","session_id":"6197b9ec557e22b8cf9708dd","condition":"full-information","relevant_dimensions":["wings","pattern"],"bee_group":{"antennae":"X","wings":"1","pattern":"S","legs":"X"},"bonus":1.7400000000000013},{"rt":864.6000000238419,"stimulus":"bees-with-color/bee-B1SM.svg","response":1,"trial_type":"image-button-response","trial_index":150,"time_elapsed":348393,"internal_node_id":"0.0-6.0-0.14","subject_id":"608a8c5d2cfd7a48be619632","study_id":"6197b3f67c2b5cd3b6d9596a","session_id":"6197b9ec557e22b8cf9708dd","condition":"full-information","relevant_dimensions":["wings","pattern"],"bee_group":{"antennae":"X","wings":"1","pattern":"S","legs":"X"},"bonus":1.7400000000000013},{"rt":952.2999999523163,"stimulus":"bees-with-color/bee-B2DM.svg","response":0,"trial_type":"image-button-response","trial_index":151,"time_elapsed":349347,"internal_node_id":"0.0-6.0-0.15","subject_id":"608a8c5d2cfd7a48be619632","study_id":"6197b3f67c2b5cd3b6d9596a","session_id":"6197b9ec557e22b8cf9708dd","condition":"full-information","relevant_dimensions":["wings","pattern"],"bee_group":{"antennae":"X","wings":"1","pattern":"S","legs":"X"},"bonus":1.7400000000000013},{"rt":962.2000000476837,"stimulus":"bees-with-color/bee-B2SM.svg","response":0,"trial_type":"image-button-response","trial_index":152,"time_elapsed":350310,"internal_node_id":"0.0-6.0-0.16","subject_id":"608a8c5d2cfd7a48be619632","study_id":"6197b3f67c2b5cd3b6d9596a","session_id":"6197b9ec557e22b8cf9708dd","condition":"full-information","relevant_dimensions":["wings","pattern"],"bee_group":{"antennae":"X","wings":"1","pattern":"S","legs":"X"},"bonus":1.7400000000000013},{"rt":1170.5,"stimulus":"bees-with-color/bee-B2DF.svg","response":0,"trial_type":"image-button-response","trial_index":153,"time_elapsed":351481,"internal_node_id":"0.0-6.0-0.17","subject_id":"608a8c5d2cfd7a48be619632","study_id":"6197b3f67c2b5cd3b6d9596a","session_id":"6197b9ec557e22b8cf9708dd","condition":"full-information","relevant_dimensions":["wings","pattern"],"bee_group":{"antennae":"X","wings":"1","pattern":"S","legs":"X"},"bonus":1.7400000000000013},{"rt":822.7999999523163,"stimulus":"bees-with-color/bee-B2SF.svg","response":0,"trial_type":"image-button-response","trial_index":154,"time_elapsed":352305,"internal_node_id":"0.0-6.0-0.18","subject_id":"608a8c5d2cfd7a48be619632","study_id":"6197b3f67c2b5cd3b6d9596a","session_id":"6197b9ec557e22b8cf9708dd","condition":"full-information","relevant_dimensions":["wings","pattern"],"bee_group":{"antennae":"X","wings":"1","pattern":"S","legs":"X"},"bonus":1.7400000000000013},{"rt":953.7000000476837,"stimulus":"bees-with-color/bee-B1DF.svg","response":0,"trial_type":"image-button-response","trial_index":155,"time_elapsed":353260,"internal_node_id":"0.0-6.0-0.19","subject_id":"608a8c5d2cfd7a48be619632","study_id":"6197b3f67c2b5cd3b6d9596a","session_id":"6197b9ec557e22b8cf9708dd","condition":"full-information","relevant_dimensions":["wings","pattern"],"bee_group":{"antennae":"X","wings":"1","pattern":"S","legs":"X"},"bonus":1.7400000000000013},{"rt":567.4000000953674,"stimulus":"bees-with-color/bee-A2DF.svg","response":0,"trial_type":"image-button-response","trial_index":156,"time_elapsed":353828,"internal_node_id":"0.0-6.0-0.20","subject_id":"608a8c5d2cfd7a48be619632","study_id":"6197b3f67c2b5cd3b6d9596a","session_id":"6197b9ec557e22b8cf9708dd","condition":"full-information","relevant_dimensions":["wings","pattern"],"bee_group":{"antennae":"X","wings":"1","pattern":"S","legs":"X"},"bonus":1.7400000000000013},{"rt":954.6999999284744,"stimulus":"bees-with-color/bee-A1SF.svg","response":1,"trial_type":"image-button-response","trial_index":157,"time_elapsed":354784,"internal_node_id":"0.0-6.0-0.21","subject_id":"608a8c5d2cfd7a48be619632","study_id":"6197b3f67c2b5cd3b6d9596a","session_id":"6197b9ec557e22b8cf9708dd","condi