[{"success":true,"trial_type":"fullscreen","trial_index":0,"time_elapsed":9151,"internal_node_id":"0.0-0.0","subject_id":"60e228622e17c4ed597d92eb","study_id":"6197b3f67c2b5cd3b6d9596a","session_id":"619be31def96acdc0fda0d2a","condition":"contingent","relevant_dimensions":["antennae","wings"],"bee_group":{"antennae":"A","wings":"1","pattern":"X","legs":"X"},"bonus":0.9000000000000007},{"success":true,"timeout":false,"failed_images":[],"failed_audio":[],"failed_video":[],"trial_type":"preload","trial_index":1,"time_elapsed":10644,"internal_node_id":"0.0-1.0","subject_id":"60e228622e17c4ed597d92eb","study_id":"6197b3f67c2b5cd3b6d9596a","session_id":"619be31def96acdc0fda0d2a","condition":"contingent","relevant_dimensions":["antennae","wings"],"bee_group":{"antennae":"A","wings":"1","pattern":"X","legs":"X"},"bonus":0.9000000000000007},{"rt":5436.5,"stimulus":"Welcome! Press any key to begin.","response":" ","trial_type":"html-keyboard-response","trial_index":2,"time_elapsed":16083,"internal_node_id":"0.0-2.0","subject_id":"60e228622e17c4ed597d92eb","study_id":"6197b3f67c2b5cd3b6d9596a","session_id":"619be31def96acdc0fda0d2a","condition":"contingent","relevant_dimensions":["antennae","wings"],"bee_group":{"antennae":"A","wings":"1","pattern":"X","legs":"X"},"bonus":0.9000000000000007},{"view_history":[{"page_index":0,"viewing_time":2440.9000000003725},{"page_index":1,"viewing_time":5744.5},{"page_index":2,"viewing_time":22863.299999999814},{"page_index":3,"viewing_time":16351.700000000186},{"page_index":4,"viewing_time":26065.599999999627},{"page_index":5,"viewing_time":8430.599999999627},{"page_index":6,"viewing_time":16391.700000000186},{"page_index":7,"viewing_time":5570},{"page_index":8,"viewing_time":2287.2999999998137},{"page_index":9,"viewing_time":2438.9000000003725},{"page_index":10,"viewing_time":1456.2999999998137},{"page_index":11,"viewing_time":18136.700000000186},{"page_index":12,"viewing_time":11794.599999999627},{"page_index":13,"viewing_time":1407.300000000745},{"page_index":14,"viewing_time":1657.699999999255}],"rt":143038,"trial_type":"instructions","trial_index":3,"time_elapsed":159123,"internal_node_id":"0.0-3.0-0.0","subject_id":"60e228622e17c4ed597d92eb","study_id":"6197b3f67c2b5cd3b6d9596a","session_id":"619be31def96acdc0fda0d2a","condition":"contingent","relevant_dimensions":["antennae","wings"],"bee_group":{"antennae":"A","wings":"1","pattern":"X","legs":"X"},"bonus":0.9000000000000007},{"rt":27098,"response":{"Q0":["Two or six legs","Stripes or spots on body","Single or double wings","Antennae or no antennae"]},"question_order":[0],"trial_type":"survey-multi-select","trial_index":4,"time_elapsed":186226,"internal_node_id":"0.0-3.0-1.0","subject_id":"60e228622e17c4ed597d92eb","study_id":"6197b3f67c2b5cd3b6d9596a","session_id":"619be31def96acdc0fda0d2a","condition":"contingent","relevant_dimensions":["antennae","wings"],"bee_group":{"antennae":"A","wings":"1","pattern":"X","legs":"X"},"correct":true,"bonus":0.9000000000000007},{"rt":29895.39999999944,"response":{"Q1":"Yes.","Q2":"Based on the four features of the bee.","Q3":"You do not learn if it was friendly or dangerous, and do not alter your bonus."},"question_order":[0,1,2],"trial_type":"survey-multi-choice","trial_index":5,"time_elapsed":216128,"internal_node_id":"0.0-3.0-2.0","subject_id":"60e228622e17c4ed597d92eb","study_id":"6197b3f67c2b5cd3b6d9596a","session_id":"619be31def96acdc0fda0d2a","condition":"contingent","relevant_dimensions":["antennae","wings"],"bee_group":{"antennae":"A","wings":"1","pattern":"X","legs":"X"},"correct":false,"bonus":0.9000000000000007},{"rt":4656.700000000186,"stimulus":"<p>You did not answer all comprehension questions correctly.<br>Press <b>continue</b> to review the instructions again.</p>","response":0,"trial_type":"html-button-response","trial_index":6,"time_elapsed":220791,"internal_node_id":"0.0-3.0-3.0","subject_id":"60e228622e17c4ed597d92eb","study_id":"6197b3f67c2b5cd3b6d9596a","session_id":"619be31def96acdc0fda0d2a","condition":"contingent","relevant_dimensions":["antennae","wings"],"bee_group":{"antennae":"A","wings":"1","pattern":"X","legs":"X"},"bonus":0.9000000000000007},{"view_history":[{"page_index":0,"viewing_time":4751.700000000186},{"page_index":1,"viewing_time":13074.5},{"page_index":2,"viewing_time":14614.700000000186},{"page_index":3,"viewing_time":9135.699999999255},{"page_index":4,"viewing_time":5960.9000000003725},{"page_index":5,"viewing_time":6689.9000000003725},{"page_index":6,"viewing_time":4567.399999999441},{"page_index":7,"viewing_time":2042.1000000005588},{"page_index":8,"viewing_time":876.2999999998137},{"page_index":9,"viewing_time":739.7000000001863},{"page_index":10,"viewing_time":1174.5},{"page_index":11,"viewing_time":1293.699999999255},{"page_index":12,"viewing_time":1150.1000000005588},{"page_index":13,"viewing_time":1133.7999999998137},{"page_index":14,"viewing_time":1069.9000000003725}],"rt":68275.09999999963,"trial_type":"instructions","trial_index":7,"time_elapsed":289068,"internal_node_id":"0.0-3.0-4.0-0.0","subject_id":"60e228622e17c4ed597d92eb","study_id":"6197b3f67c2b5cd3b6d9596a","session_id":"619be31def96acdc0fda0d2a","condition":"contingent","relevant_dimensions":["antennae","wings"],"bee_group":{"antennae":"A","wings":"1","pattern":"X","legs":"X"},"bonus":0.9000000000000007},{"rt":6774.5999999996275,"response":{"Q0":["Two or six legs","Stripes or spots on body","Single or double wings","Antennae or no antennae"]},"question_order":[0],"trial_type":"survey-multi-select","trial_index":8,"time_elapsed":295846,"internal_node_id":"0.0-3.0-4.0-1.0","subject_id":"60e228622e17c4ed597d92eb","study_id":"6197b3f67c2b5cd3b6d9596a","session_id":"619be31def96acdc0fda0d2a","condition":"contingent","relevant_dimensions":["antennae","wings"],"bee_group":{"antennae":"A","wings":"1","pattern":"X","legs":"X"},"correct":true,"bonus":0.9000000000000007},{"rt":6667.700000000186,"response":{"Q1":"No.","Q2":"Based on the four features of the bee.","Q3":"You do not learn if it was friendly or dangerous, and do not alter your bonus."},"question_order":[0,1,2],"trial_type":"survey-multi-choice","trial_index":9,"time_elapsed":302519,"internal_node_id":"0.0-3.0-4.0-2.0","subject_id":"60e228622e17c4ed597d92eb","study_id":"6197b3f67c2b5cd3b6d9596a","session_id":"619be31def96acdc0fda0d2a","condition":"contingent","relevant_dimensions":["antennae","wings"],"bee_group":{"antennae":"A","wings":"1","pattern":"X","legs":"X"},"correct":true,"bonus":0.9000000000000007},{"rt":1819.199999999255,"stimulus":"<p>Congrats, you got everything right<br>When you're ready, click the button below to continue to the experiment.</p>","response":0,"trial_type":"html-button-response","trial_index":10,"time_elapsed":304345,"internal_node_id":"0.0-3.0-4.0-3.0","subject_id":"60e228622e17c4ed597d92eb","study_id":"6197b3f67c2b5cd3b6d9596a","session_id":"619be31def96acdc0fda0d2a","condition":"contingent","relevant_dimensions":["antennae","wings"],"bee_group":{"antennae":"A","wings":"1","pattern":"X","legs":"X"},"bonus":0.9000000000000007},{"rt":7937.799999999814,"stimulus":"bees-with-color/bee-B2SF.svg","response":0,"trial_type":"image-button-response","trial_index":11,"time_elapsed":312286,"internal_node_id":"0.0-4.0-0.0","subject_id":"60e228622e17c4ed597d92eb","study_id":"6197b3f67c2b5cd3b6d9596a","session_id":"619be31def96acdc0fda0d2a","condition":"contingent","relevant_dimensions":["antennae","wings"],"bee_group":{"antennae":"A","wings":"1","pattern":"X","legs":"X"},"action":"harvest","summary":"good-harvest","bonus":0.9000000000000007},{"rt":16513.299999999814,"stimulus":"\n                    <p><b>Action: <em>harvest</em></b></p>\n                    <p>This is the bee that you just saw.</p>\n                    <img src=\"bees-with-color/bee-B2SF.svg\" width=\"200\">\n                    <p><span class=\"greenText\"><b>Successful harvest!</b></span><br>Your pay has increased by $0.02. Your bonus pay is now $0.56.</p>\n            ","response":0,"trial_type":"html-button-response","trial_index":12,"time_elapsed":328804,"internal_node_id":"0.0-4.0-1.0","subject_id":"60e228622e17c4ed597d92eb","study_id":"6197b3f67c2b5cd3b6d9596a","session_id":"619be31def96acdc0fda0d2a","condition":"contingent","relevant_dimensions":["antennae","wings"],"bee_group":{"antennae":"A","wings":"1","pattern":"X","legs":"X"},"bonus":0.9000000000000007},{"rt":2264.399999999441,"stimulus":"bees-with-color/bee-B2DM.svg","response":1,"trial_type":"image-button-response","trial_index":13,"time_elapsed":331071,"internal_node_id":"0.0-4.0-0.1","subject_id":"60e228622e17c4ed597d92eb","study_id":"6197b3f67c2b5cd3b6d9596a","session_id":"619be31def96acdc0fda0d2a","condition":"contingent","relevant_dimensions":["antennae","wings"],"bee_group":{"antennae":"A","wings":"1","pattern":"X","legs":"X"},"action":"avoid","summary":"bad-avoid","bonus":0.9000000000000007},{"rt":3568.100000000559,"stimulus":"\n                    <p><b>Action: <em>avoid</em></b></p>\n                    <p>This is the bee that you just saw.</p>\n                    <img src=\"bees-with-color/bee-B2DM.svg\" width=\"200\">\n                    <p><br>Your bonus pay is unchanged, and remains at $0.56.</p>\n            ","response":0,"trial_type":"html-button-response","trial_index":14,"time_elapsed":334641,"internal_node_id":"0.0-4.0-1.1","subject_id":"60e228622e17c4ed597d92eb","study_id":"6197b3f67c2b5cd3b6d9596a","session_id":"619be31def96acdc0fda0d2a","condition":"contingent","relevant_dimensions":["antennae","wings"],"bee_group":{"antennae":"A","wings":"1","pattern":"X","legs":"X"},"bonus":0.9000000000000007},{"rt":6065,"stimulus":"bees-with-color/bee-A1DF.svg","response":1,"trial_type":"image-button-response","trial_index":15,"time_elapsed":340709,"internal_node_id":"0.0-4.0-0.2","subject_id":"60e228622e17c4ed597d92eb","study_id":"6197b3f67c2b5cd3b6d9596a","session_id":"619be31def96acdc0fda0d2a","condition":"contingent","relevant_dimensions":["antennae","wings"],"bee_group":{"antennae":"A","wings":"1","pattern":"X","legs":"X"},"action":"avoid","summary":"good-avoid","bonus":0.9000000000000007},{"rt":1758.2000000001863,"stimulus":"\n                    <p><b>Action: <em>avoid</em></b></p>\n                    <p>This is the bee that you just saw.</p>\n                    <img src=\"bees-with-color/bee-A1DF.svg\" width=\"200\">\n                    <p><br>Your bonus pay is unchanged, and remains at $0.56.</p>\n            ","response":0,"trial_type":"html-button-response","trial_index":16,"time_elapsed":342470,"internal_node_id":"0.0-4.0-1.2","subject_id":"60e228622e17c4ed597d92eb","study_id":"6197b3f67c2b5cd3b6d9596a","session_id":"619be31def96acdc0fda0d2a","condition":"contingent","relevant_dimensions":["antennae","wings"],"bee_group":{"antennae":"A","wings":"1","pattern":"X","legs":"X"},"bonus":0.9000000000000007},{"rt":2225.5999999996275,"stimulus":"bees-with-color/bee-B2DF.svg","response":1,"trial_type":"image-button-response","trial_index":17,"time_elapsed":344698,"internal_node_id":"0.0-4.0-0.3","subject_id":"60e228622e17c4ed597d92eb","study_id":"6197b3f67c2b5cd3b6d9596a","session_id":"619be31def96acdc0fda0d2a","condition":"contingent","relevant_dimensions":["antennae","wings"],"bee_group":{"antennae":"A","wings":"1","pattern":"X","legs":"X"},"action":"avoid","summary":"bad-avoid","bonus":0.9000000000000007},{"rt":1252.7999999998137,"stimulus":"\n                    <p><b>Action: <em>avoid</em></b></p>\n                    <p>This is the bee that you just saw.</p>\n                    <img src=\"bees-with-color/bee-B2DF.svg\" width=\"200\">\n                    <p><br>Your bonus pay is unchanged, and remains at $0.56.</p>\n            ","response":0,"trial_type":"html-button-response","trial_index":18,"time_elapsed":345954,"internal_node_id":"0.0-4.0-1.3","subject_id":"60e228622e17c4ed597d92eb","study_id":"6197b3f67c2b5cd3b6d9596a","session_id":"619be31def96acdc0fda0d2a","condition":"contingent","relevant_dimensions":["antennae","wings"],"bee_group":{"antennae":"A","wings":"1","pattern":"X","legs":"X"},"bonus":0.9000000000000007},{"rt":5993.700000000186,"stimulus":"bees-with-color/bee-B1SM.svg","response":0,"trial_type":"image-button-response","trial_index":19,"time_elapsed":351950,"internal_node_id":"0.0-4.0-0.4","subject_id":"60e228622e17c4ed597d92eb","study_id":"6197b3f67c2b5cd3b6d9596a","session_id":"619be31def96acdc0fda0d2a","condition":"contingent","relevant_dimensions":["antennae","wings"],"bee_group":{"antennae":"A","wings":"1","pattern":"X","legs":"X"},"action":"harvest","summary":"good-harvest","bonus":0.9000000000000007},{"rt":13208.899999999441,"stimulus":"\n                    <p><b>Action: <em>harvest</em></b></p>\n                    <p>This is the bee that you just saw.</p>\n                    <img src=\"bees-with-color/bee-B1SM.svg\" width=\"200\">\n                    <p><span class=\"greenText\"><b>Successful harvest!</b></span><br>Your pay has increased by $0.02. Your bonus pay is now $0.58.</p>\n            ","response":0,"trial_type":"html-button-response","trial_index":20,"time_elapsed":365162,"internal_node_id":"0.0-4.0-1.4","subject_id":"60e228622e17c4ed597d92eb","study_id":"6197b3f67c2b5cd3b6d9596a","session_id":"619be31def96acdc0fda0d2a","condition":"contingent","relevant_dimensions":["antennae","wings"],"bee_group":{"antennae":"A","wings":"1","pattern":"X","legs":"X"},"bonus":0.9000000000000007},{"rt":2224.2000000001863,"stimulus":"bees-with-color/bee-A1SF.svg","response":0,"trial_type":"image-button-response","trial_index":21,"time_elapsed":367389,"internal_node_id":"0.0-4.0-0.5","subject_id":"60e228622e17c4ed597d92eb","study_id":"6197b3f67c2b5cd3b6d9596a","session_id":"619be31def96acdc0fda0d2a","condition":"contingent","relevant_dimensions":["antennae","wings"],"bee_group":{"antennae":"A","wings":"1","pattern":"X","legs":"X"},"action":"harvest","summary":"bad-harvest","bonus":0.9000000000000007},{"rt":6485.299999999814,"stimulus":"\n                    <p><b>Action: <em>harvest</em></b></p>\n                    <p>This is the bee that you just saw.</p>\n                    <img src=\"bees-with-color/bee-A1SF.svg\" width=\"200\">\n                    <p><span class=\"redText\">Bad choice, the bee was angry.</span><br><b>You have been stung!</b><br>Your pay has been decreased by $0.10. Your bonus pay is now $0.48.</p>\n            ","response":0,"trial_type":"html-button-response","trial_index":22,"time_elapsed":373877,"internal_node_id":"0.0-4.0-1.5","subject_id":"60e228622e17c4ed597d92eb","study_id":"6197b3f67c2b5cd3b6d9596a","session_id":"619be31def96acdc0fda0d2a","condition":"contingent","relevant_dimensions":["antennae","wings"],"bee_group":{"antennae":"A","wings":"1","pattern":"X","legs":"X"},"bonus":0.9000000000000007},{"rt":1547.300000000745,"stimulus":"bees-with-color/bee-A2DM.svg","response":1,"trial_type":"image-button-response","trial_index":23,"time_elapsed":375427,"internal_node_id":"0.0-4.0-0.6","subject_id":"60e228622e17c4ed597d92eb","study_id":"6197b3f67c2b5cd3b6d9596a","session_id":"619be31def96acdc0fda0d2a","condition":"contingent","relevant_dimensions":["antennae","wings"],"bee_group":{"antennae":"A","wings":"1","pattern":"X","legs":"X"},"action":"avoid","summary":"bad-avoid","bonus":0.9000000000000007},{"rt":1272.5,"stimulus":"\n                    <p><b>Action: <em>avoid</em></b></p>\n                    <p>This is the bee that you just saw.</p>\n                    <img src=\"bees-with-color/bee-A2DM.svg\" width=\"200\">\n                    <p><br>Your bonus pay is unchanged, and remains at $0.48.</p>\n            ","response":0,"trial_type":"html-button-response","trial_index":24,"time_elapsed":376702,"internal_node_id":"0.0-4.0-1.6","subject_id":"60e228622e17c4ed597d92eb","study_id":"6197b3f67c2b5cd3b6d9596a","session_id":"619be31def96acdc0fda0d2a","condition":"contingent","relevant_dimensions":["antennae","wings"],"bee_group":{"antennae":"A","wings":"1","pattern":"X","legs":"X"},"bonus":0.9000000000000007},{"rt":2960.7000000001863,"stimulus":"bees-with-color/bee-A2DF.svg","response":1,"trial_type":"image-button-response","trial_index":25,"time_elapsed":379665,"internal_node_id":"0.0-4.0-0.7","subject_id":"60e228622e17c4ed597d92eb","study_id":"6197b3f67c2b5cd3b6d9596a","session_id":"619be31def96acdc0fda0d2a","condition":"contingent","relevant_dimensions":["antennae","wings"],"bee_group":{"antennae":"A","wings":"1","pattern":"X","legs":"X"},"action":"avoid","summary":"bad-avoid","bonus":0.9000000000000007},{"rt":923.0999999996275,"stimulus":"\n                    <p><b>Action: <em>avoid</em></b></p>\n                    <p>This is the bee that you just saw.</p>\n                    <img src=\"bees-with-color/bee-A2DF.svg\" width=\"200\">\n                    <p><br>Your bonus pay is unchanged, and remains at $0.48.</p>\n            ","response":0,"trial_type":"html-button-response","trial_index":26,"time_elapsed":380590,"internal_node_id":"0.0-4.0-1.7","subject_id":"60e228622e17c4ed597d92eb","study_id":"6197b3f67c2b5cd3b6d9596a","session_id":"619be31def96acdc0fda0d2a","condition":"contingent","relevant_dimensions":["antennae","wings"],"bee_group":{"antennae":"A","wings":"1","pattern":"X","legs":"X"},"bonus":0.9000000000000007},{"rt":1294.2999999998137,"stimulus":"bees-with-color/bee-B2SM.svg","response":0,"trial_type":"image-button-response","trial_index":27,"time_elapsed":381886,"internal_node_id":"0.0-4.0-0.8","subject_id":"60e228622e17c4ed597d92eb","study_id":"6197b3f67c2b5cd3b6d9596a","session_id":"619be31def96acdc0fda0d2a","condition":"contingent","relevant_dimensions":["antennae","wings"],"bee_group":{"antennae":"A","wings":"1","pattern":"X","legs":"X"},"action":"harvest","summary":"good-harvest","bonus":0.9000000000000007},{"rt":1129.5,"stimulus":"\n                    <p><b>Action: <em>harvest</em></b></p>\n                    <p>This is the bee that you just saw.</p>\n                    <img src=\"bees-with-color/bee-B2SM.svg\" width=\"200\">\n                    <p><span class=\"greenText\"><b>Successful harvest!</b></span><br>Your pay has increased by $0.02. Your bonus pay is now $0.50.</p>\n            ","response":0,"trial_type":"html-button-response","trial_index":28,"time_elapsed":383019,"internal_node_id":"0.0-4.0-1.8","subject_id":"60e228622e17c4ed597d92eb","study_id":"6197b3f67c2b5cd3b6d9596a","session_id":"619be31def96acdc0fda0d2a","condition":"contingent","relevant_dimensions":["antennae","wings"],"bee_group":{"antennae":"A","wings":"1","pattern":"X","legs":"X"},"bonus":0.9000000000000007},{"rt":3386.800000000745,"stimulus":"bees-with-color/bee-B1DF.svg","response":0,"trial_type":"image-button-response","trial_index":29,"time_elapsed":386407,"internal_node_id":"0.0-4.0-0.9","subject_id":"60e228622e17c4ed597d92eb","study_id":"6197b3f67c2b5cd3b6d9596a","session_id":"619be31def96acdc0fda0d2a","condition":"contingent","relevant_dimensions":["antennae","wings"],"bee_group":{"antennae":"A","wings":"1","pattern":"X","legs":"X"},"action":"harvest","summary":"good-harvest","bonus":0.9000000000000007},{"rt":1236.800000000745,"stimulus":"\n                    <p><b>Action: <em>harvest</em></b></p>\n                    <p>This is the bee that you just saw.</p>\n                    <img src=\"bees-with-color/bee-B1DF.svg\" width=\"200\">\n                    <p><span class=\"greenText\"><b>Successful harvest!</b></span><br>Your pay has increased by $0.02. Your bonus pay is now $0.52.</p>\n            ","response":0,"trial_type":"html-button-response","trial_index":30,"time_elapsed":387646,"internal_node_id":"0.0-4.0-1.9","subject_id":"60e228622e17c4ed597d92eb","study_id":"6197b3f67c2b5cd3b6d9596a","session_id":"619be31def96acdc0fda0d2a","condition":"contingent","relevant_dimensions":["antennae","wings"],"bee_group":{"antennae":"A","wings":"1","pattern":"X","legs":"X"},"bonus":0.9000000000000007},{"rt":3540.5,"stimulus":"bees-with-color/bee-B1SF.svg","response":0,"trial_type":"image-button-response","trial_index":31,"time_elapsed":391190,"internal_node_id":"0.0-4.0-0.10","subject_id":"60e228622e17c4ed597d92eb","study_id":"6197b3f67c2b5cd3b6d9596a","session_id":"619be31def96acdc0fda0d2a","condition":"contingent","relevant_dimensions":["antennae","wings"],"bee_group":{"antennae":"A","wings":"1","pattern":"X","legs":"X"},"action":"harvest","summary":"good-harvest","bonus":0.9000000000000007},{"rt":1121.5,"stimulus":"\n                    <p><b>Action: <em>harvest</em></b></p>\n                    <p>This is the bee that you just saw.</p>\n                    <img src=\"bees-with-color/bee-B1SF.svg\" width=\"200\">\n                    <p><span class=\"greenText\"><b>Successful harvest!</b></span><br>Your pay has increased by $0.02. Your bonus pay is now $0.54.</p>\n            ","response":0,"trial_type":"html-button-response","trial_index":32,"time_elapsed":392315,"internal_node_id":"0.0-4.0-1.10","subject_id":"60e228622e17c4ed597d92eb","study_id":"6197b3f67c2b5cd3b6d9596a","session_id":"619be31def96acdc0fda0d2a","condition":"contingent","relevant_dimensions":["antennae","wings"],"bee_group":{"antennae":"A","wings":"1","pattern":"X","legs":"X"},"bonus":0.9000000000000007},{"rt":1985.1000000005588,"stimulus":"bees-with-color/bee-B1DM.svg","response":0,"trial_type":"image-button-response","trial_index":33,"time_elapsed":394303,"internal_node_id":"0.0-4.0-0.11","subject_id":"60e228622e17c4ed597d92eb","study_id":"6197b3f67c2b5cd3b6d9596a","session_id":"619be31def96acdc0fda0d2a","condition":"contingent","relevant_dimensions":["antennae","wings"],"bee_group":{"antennae":"A","wings":"1","pattern":"X","legs":"X"},"action":"harvest","summary":"good-harvest","bonus":0.9000000000000007},{"rt":1822.3999999994412,"stimulus":"\n                    <p><b>Action: <em>harvest</em></b></p>\n                    <p>This is the bee that you just saw.</p>\n                    <img src=\"bees-with-color/bee-B1DM.svg\" width=\"200\">\n                    <p><span class=\"greenText\"><b>Successful harvest!</b></span><br>Your pay has increased by $0.02. Your bonus pay is now $0.56.</p>\n            ","response":0,"trial_type":"html-button-response","trial_index":34,"time_elapsed":396128,"internal_node_id":"0.0-4.0-1.11","subject_id":"60e228622e17c4ed597d92eb","study_id":"6197b3f67c2b5cd3b6d9596a","session_id":"619be31def96acdc0fda0d2a","condition":"contingent","relevant_dimensions":["antennae","wings"],"bee_group":{"antennae":"A","wings":"1","pattern":"X","legs":"X"},"bonus":0.9000000000000007},{"rt":6410.200000000186,"stimulus":"bees-with-color/bee-A1SM.svg","response":1,"trial_type":"image-button-response","trial_index":35,"time_elapsed":402541,"internal_node_id":"0.0-4.0-0.12","subject_id":"60e228622e17c4ed597d92eb","study_id":"6197b3f67c2b5cd3b6d9596a","session_id":"619be31def96acdc0fda0d2a","condition":"contingent","relevant_dimensions":["antennae","wings"],"bee_group":{"antennae":"A","wings":"1","pattern":"X","legs":"X"},"action":"avoid","summary":"good-avoid","bonus":0.9000000000000007},{"rt":1292.8999999994412,"stimulus":"\n                    <p><b>Action: <em>avoid</em></b></p>\n                    <p>This is the bee that you just saw.</p>\n                    <img src=\"bees-with-color/bee-A1SM.svg\" width=\"200\">\n                    <p><br>Your bonus pay is unchanged, and remains at $0.56.</p>\n            ","response":0,"trial_type":"html-button-response","trial_index":36,"time_elapsed":403837,"internal_node_id":"0.0-4.0-1.12","subject_id":"60e228622e17c4ed597d92eb","study_id":"6197b3f67c2b5cd3b6d9596a","session_id":"619be31def96acdc0fda0d2a","condition":"contingent","relevant_dimensions":["antennae","wings"],"bee_group":{"antennae":"A","wings":"1","pattern":"X","legs":"X"},"bonus":0.9000000000000007},{"rt":10116.200000000186,"stimulus":"bees-with-color/bee-A1DM.svg","response":1,"trial_type":"image-button-response","trial_index":37,"time_elapsed":413956,"internal_node_id":"0.0-4.0-0.13","subject_id":"60e228622e17c4ed597d92eb","study_id":"6197b3f67c2b5cd3b6d9596a","session_id":"619be31def96acdc0fda0d2a","condition":"contingent","relevant_dimensions":["antennae","wings"],"bee_group":{"antennae":"A","wings":"1","pattern":"X","legs":"X"},"action":"avoid","summary":"good-avoid","bonus":0.9000000000000007},{"rt":989,"stimulus":"\n                    <p><b>Action: <em>avoid</em></b></p>\n                    <p>This is the bee that you just saw.</p>\n                    <img src=\"bees-with-color/bee-A1DM.svg\" width=\"200\">\n                    <p><br>Your bonus pay is unchanged, and remains at $0.56.</p>\n            ","response":0,"trial_type":"html-button-response","trial_index":38,"time_elapsed":414947,"internal_node_id":"0.0-4.0-1.13","subject_id":"60e228622e17c4ed597d92eb","study_id":"6197b3f67c2b5cd3b6d9596a","session_id":"619be31def96acdc0fda0d2a","condition":"contingent","relevant_dimensions":["antennae","wings"],"bee_group":{"antennae":"A","wings":"1","pattern":"X","legs":"X"},"bonus":0.9000000000000007},{"rt":1409,"stimulus":"bees-with-color/bee-A2SM.svg","response":1,"trial_type":"image-button-response","trial_index":39,"time_elapsed":416359,"internal_node_id":"0.0-4.0-0.14","subject_id":"60e228622e17c4ed597d92eb","study_id":"6197b3f67c2b5cd3b6d9596a","session_id":"619be31def96acdc0fda0d2a","condition":"contingent","relevant_dimensions":["antennae","wings"],"bee_group":{"antennae":"A","wings":"1","pattern":"X","legs":"X"},"action":"avoid","summary":"bad-avoid","bonus":0.9000000000000007},{"rt":899.5,"stimulus":"\n                    <p><b>Action: <em>avoid</em></b></p>\n                    <p>This is the bee that you just saw.</p>\n                    <img src=\"bees-with-color/bee-A2SM.svg\" width=\"200\">\n                    <p><br>Your bonus pay is unchanged, and remains at $0.56.</p>\n            ","response":0,"trial_type":"html-button-response","trial_index":40,"time_elapsed":417262,"internal_node_id":"0.0-4.0-1.14","subject_id":"60e228622e17c4ed597d92eb","study_id":"6197b3f67c2b5cd3b6d9596a","session_id":"619be31def96acdc0fda0d2a","condition":"contingent","relevant_dimensions":["antennae","wings"],"bee_group":{"antennae":"A","wings":"1","pattern":"X","legs":"X"},"bonus":0.9000000000000007},{"rt":8801,"stimulus":"bees-with-color/bee-A2SF.svg","response":1,"trial_type":"image-button-response","trial_index":41,"time_elapsed":426065,"internal_node_id":"0.0-4.0-0.15","subject_id":"60e228622e17c4ed597d92eb","study_id":"6197b3f67c2b5cd3b6d9596a","session_id":"619be31def96acdc0fda0d2a","condition":"contingent","relevant_dimensions":["antennae","wings"],"bee_group":{"antennae":"A","wings":"1","pattern":"X","legs":"X"},"action":"avoid","summary":"bad-avoid","bonus":0.9000000000000007},{"rt":876.0999999996275,"stimulus":"\n                    <p><b>Action: <em>avoid</em></b></p>\n                    <p>This is the bee that you just saw.</p>\n                    <img src=\"bees-with-color/bee-A2SF.svg\" width=\"200\">\n                    <p><br>Your bonus pay is unchanged, and remains at $0.56.</p>\n            ","response":0,"trial_type":"html-button-response","trial_index":42,"time_elapsed":426944,"internal_node_id":"0.0-4.0-1.15","subject_id":"60e228622e17c4ed597d92eb","study_id":"6197b3f67c2b5cd3b6d9596a","session_id":"619be31def96acdc0fda0d2a","condition":"contingent","relevant_dimensions":["antennae","wings"],"bee_group":{"antennae":"A","wings":"1","pattern":"X","legs":"X"},"bonus":0.9000000000000007},{"rt":1973.9000000003725,"stimulus":"bees-with-color/bee-B2DM.svg","response":0,"trial_type":"image-button-response","trial_index":43,"time_elapsed":428921,"internal_node_id":"0.0-4.0-0.16","subject_id":"60e228622e17c4ed597d92eb","study_id":"6197b3f67c2b5cd3b6d9596a","session_id":"619be31def96acdc0fda0d2a","condition":"contingent","relevant_dimensions":["antennae","wings"],"bee_group":{"antennae":"A","wings":"1","pattern":"X","legs":"X"},"action":"harvest","summary":"good-harvest","bonus":0.9000000000000007},{"rt":1211,"stimulus":"\n                    <p><b>Action: <em>harvest</em></b></p>\n                    <p>This is the bee that you just saw.</p>\n                    <img src=\"bees-with-color/bee-B2DM.svg\" width=\"200\">\n                    <p><span class=\"greenText\"><b>Successful harvest!</b></span><br>Your pay has increased by $0.02. Your bonus pay is now $0.58.</p>\n            ","response":0,"trial_type":"html-button-response","trial_index":44,"time_elapsed":430135,"internal_node_id":"0.0-4.0-1.16","subject_id":"60e228622e17c4ed597d92eb","study_id":"6197b3f67c2b5cd3b6d9596a","session_id":"619be31def96acdc0fda0d2a","condition":"contingent","relevant_dimensions":["antennae","wings"],"bee_group":{"antennae":"A","wings":"1","pattern":"X","legs":"X"},"bonus":0.9000000000000007},{"rt":1364.2000000001863,"stimulus":"bees-with-color/bee-A1SF.svg","response":1,"trial_type":"image-button-response","trial_index":45,"time_elapsed":431503,"internal_node_id":"0.0-4.0-0.17","subject_id":"60e228622e17c4ed597d92eb","study_id":"6197b3f67c2b5cd3b6d9596a","session_id":"619be31def96acdc0fda0d2a","condition":"contingent","relevant_dimensions":["antennae","wings"],"bee_group":{"antennae":"A","wings":"1","pattern":"X","legs":"X"},"action":"avoid","summary":"good-avoid","bonus":0.9000000000000007},{"rt":782.6000000005588,"stimulus":"\n                    <p><b>Action: <em>avoid</em></b></p>\n                    <p>This is the bee that you just saw.</p>\n                    <img src=\"bees-with-color/bee-A1SF.svg\" width=\"200\">\n                    <p><br>Your bonus pay is unchanged, and remains at $0.58.</p>\n            ","response":0,"trial_type":"html-button-response","trial_index":46,"time_elapsed":432289,"internal_node_id":"0.0-4.0-1.17","subject_id":"60e228622e17c4ed597d92eb","study_id":"6197b3f67c2b5cd3b6d9596a","session_id":"619be31def96acdc0fda0d2a","condition":"contingent","relevant_dimensions":["antennae","wings"],"bee_group":{"antennae":"A","wings":"1","pattern":"X","legs":"X"},"bonus":0.9000000000000007},{"rt":1544.2999999998137,"stimulus":"bees-with-color/bee-A1DM.svg","response":1,"trial_type":"image-button-response","trial_index":47,"time_elapsed":433835,"internal_node_id":"0.0-4.0-0.18","subject_id":"60e228622e17c4ed597d92eb","study_id":"6197b3f67c2b5cd3b6d9596a","session_id":"619be31def96acdc0fda0d2a","condition":"contingent","relevant_dimensions":["antennae","wings"],"bee_group":{"antennae":"A","wings":"1","pattern":"X","legs":"X"},"action":"avoid","summary":"good-avoid","bonus":0.9000000000000007},{"rt":719.7000000001863,"stimulus":"\n                    <p><b>Action: <em>avoid</em></b></p>\n                    <p>This is the bee that you just saw.</p>\n                    <img src=\"bees-with-color/bee-A1DM.svg\" width=\"200\">\n                    <p><br>Your bonus pay is unchanged, and remains at $0.58.</p>\n            ","response":0,"trial_type":"html-button-response","trial_index":48,"time_elapsed":434557,"internal_node_id":"0.0-4.0-1.18","subject_id":"60e228622e17c4ed597d92eb","study_id":"6197b3f67c2b5cd3b6d9596a","session_id":"619be31def96acdc0fda0d2a","condition":"contingent","relevant_dimensions":["antennae","wings"],"bee_group":{"antennae":"A","wings":"1","pattern":"X","legs":"X"},"bonus":0.9000000000000007},{"rt":1258.0999999996275,"stimulus":"bees-with-color/bee-B1SF.svg","response":0,"trial_type":"image-button-response","trial_index":49,"time_elapsed":435818,"internal_node_id":"0.0-4.0-0.19","subject_id":"60e228622e17c4ed597d92eb","study_id":"6197b3f67c2b5cd3b6d9596a","session_id":"619be31def96acdc0fda0d2a","condition":"contingent","relevant_dimensions":["antennae","wings"],"bee_group":{"antennae":"A","wings":"1","pattern":"X","legs":"X"},"action":"harvest","summary":"good-harvest","bonus":0.9000000000000007},{"rt":906.8000000007451,"stimulus":"\n                    <p><b>Action: <em>harvest</em></b></p>\n                    <p>This is the bee that you just saw.</p>\n                    <img src=\"bees-with-color/bee-B1SF.svg\" width=\"200\">\n                    <p><span class=\"greenText\"><b>Successful harvest!</b></span><br>Your pay has increased by $0.02. Your bonus pay is now $0.60.</p>\n            ","response":0,"trial_type":"html-button-response","trial_index":50,"time_elapsed":436727,"internal_node_id":"0.0-4.0-1.19","subject_id":"60e228622e17c4ed597d92eb","study_id":"6197b3f67c2b5cd3b6d9596a","session_id":"619be31def96acdc0fda0d2a","condition":"contingent","relevant_dimensions":["antennae","wings"],"bee_group":{"antennae":"A","wings":"1","pattern":"X","legs":"X"},"bonus":0.9000000000000007},{"rt":1251.0999999996275,"stimulus":"bees-with-color/bee-B2SM.svg","response":0,"trial_type":"image-button-response","trial_index":51,"time_elapsed":437981,"internal_node_id":"0.0-4.0-0.20","subject_id":"60e228622e17c4ed597d92eb","study_id":"6197b3f67c2b5cd3b6d9596a","session_id":"619be31def96acdc0fda0d2a","condition":"contingent","relevant_dimensions":["antennae","wings"],"bee_group":{"antennae":"A","wings":"1","pattern":"X","legs":"X"},"action":"harvest","summary":"good-harvest","bonus":0.9000000000000007},{"rt":705.8999999994412,"stimulus":"\n                    <p><b>Action: <em>harvest</em></b></p>\n                    <p>This is the bee that you just saw.</p>\n                    <img src=\"bees-with-color/bee-B2SM.svg\" width=\"200\">\n                    <p><span class=\"greenText\"><b>Successful harvest!</b></span><br>Your pay has increased by $0.02. Your bonus pay is now $0.62.</p>\n            ","response":0,"trial_type":"html-button-response","trial_index":52,"time_elapsed":438689,"internal_node_id":"0.0-4.0-1.20","subject_id":"60e228622e17c4ed597d92eb","study_id":"6197b3f67c2b5cd3b6d9596a","session_id":"619be31def96acdc0fda0d2a","condition":"contingent","relevant_dimensions":["antennae","wings"],"bee_group":{"antennae":"A","wings":"1","pattern":"X","legs":"X"},"bonus":0.9000000000000007},{"rt":963.0999999996275,"stimulus":"bees-with-color/bee-B1DM.svg","response":0,"trial_type":"image-button-response","trial_index":53,"time_elapsed":439655,"internal_node_id":"0.0-4.0-0.21","subject_id":"60e228622e17c4ed597d92eb","study_id":"6197b3f67c2b5cd3b6d9596a","session_id":"619be31def96acdc0fda0d2a","condition":"contingent","relevant_dimensions":["antennae","wings"],"bee_group":{"antennae":"A","wings":"1","pattern":"X","legs":"X"},"action":"harvest","summary":"good-harvest","bonus":0.9000000000000007},{"rt":887.5,"stimulus":"\n                    <p><b>Action: <em>harvest</em></b></p>\n                    <p>This is the bee that you just saw.</p>\n                    <img src=\"bees-with-color/bee-B1DM.svg\" width=\"200\">\n                    <p><span class=\"greenText\"><b>Successful harvest!</b></span><br>Your pay has increased by $0.02. Your bonus pay is now $0.64.</p>\n            ","response":0,"trial_type":"html-button-response","trial_index":54,"time_elapsed":440547,"internal_node_id":"0.0-4.0-1.21","subject_id":"60e228622e17c4ed597d92eb","study_id":"6197b3f67c2b5cd3b6d9596a","session_id":"619be31def96acdc0fda0d2a","condition":"contingent","relevant_dimensions":["antennae","wings"],"bee_group":{"antennae":"A","wings":"1","pattern":"X","legs":"X"},"bonus":0.9000000000000007},{"rt":987.7000000001863,"stimulus":"bees-with-color/bee-A2DM.svg","response":1,"trial_type":"image-button-response","trial_index":55,"time_elapsed":441538,"internal_node_id":"0.0-4.0-0.22","subject_id":"60e228622e17c4ed597d92eb","study_id":"6197b3f67c2b5cd3b6d9596a","session_id":"619be31def96acdc0fda0d2a","condition":"contingent","relevant_dimensions":["antennae","wings"],"bee_group":{"antennae":"A","wings":"1","pattern":"X","legs":"X"},"action":"avoid","summary":"bad-avoid","bonus":0.9000000000000007},{"rt":862,"stimulus":"\n                    <p><b>Action: <em>avoid</em></b></p>\n                    <p>This is the bee that you just saw.</p>\n                    <img src=\"bees-with-color/bee-A2DM.svg\" width=\"200\">\n                    <p><br>Your bonus pay is unchanged, and remains at $0.64.</p>\n            ","response":0,"trial_type":"html-button-response","trial_index":56,"time_elapsed":442404,"internal_node_id":"0.0-4.0-1.22","subject_id":"60e228622e17c4ed597d92eb","study_id":"6197b3f67c2b5cd3b6d9596a","session_id":"619be31def96acdc0fda0d2a","condition":"contingent","relevant_dimensions":["antennae","wings"],"bee_group":{"antennae":"A","wings":"1","pattern":"X","legs":"X"},"bonus":0.9000000000000007},{"rt":915.4000000003725,"stimulus":"bees-with-color/bee-B2DF.svg","response":0,"trial_type":"image-button-response","trial_index":57,"time_elapsed":443323,"internal_node_id":"0.0-4.0-0.23","subject_id":"60e228622e17c4ed597d92eb","study_id":"6197b3f67c2b5cd3b6d9596a","session_id":"619be31def96acdc0fda0d2a","condition":"contingent","relevant_dimensions":["antennae","wings"],"bee_group":{"antennae":"A","wings":"1","pattern":"X","legs":"X"},"action":"harvest","summary":"good-harvest","bonus":0.9000000000000007},{"rt":676.6000000005588,"stimulus":"\n                    <p><b>Action: <em>harvest</em></b></p>\n                    <p>This is the bee that you just saw.</p>\n                    <img src=\"bees-with-color/bee-B2DF.svg\" width=\"200\">\n                    <p><span class=\"greenText\"><b>Successful harvest!</b></span><br>Your pay has increased by $0.02. Your bonus pay is now $0.66.</p>\n            ","response":0,"trial_type":"html-button-response","trial_index":58,"time_elapsed":444004,"internal_node_id":"0.0-4.0-1.23","subject_id":"60e228622e17c4ed597d92eb","study_id":"6197b3f67c2b5cd3b6d9596a","session_id":"619be31def96acdc0fda0d2a","condition":"contingent","relevant_dimensions":["antennae","wings"],"bee_group":{"antennae":"A","wings":"1","pattern":"X","legs":"X"},"bonus":0.9000000000000007},{"rt":1150.1000000005588,"stimulus":"bees-with-color/bee-A1SM.svg","response":1,"trial_type":"image-button-response","trial_index":59,"time_elapsed":445158,"internal_node_id":"0.0-4.0-0.24","subject_id":"60e228622e17c4ed597d92eb","study_id":"6197b3f67c2b5cd3b6d9596a","session_id":"619be31def96acdc0fda0d2a","condition":"contingent","relevant_dimensions":["antennae","wings"],"bee_group":{"antennae":"A","wings":"1","pattern":"X","legs":"X"},"action":"avoid","summary":"good-avoid","bonus":0.9000000000000007},{"rt":673,"stimulus":"\n                    <p><b>Action: <em>avoid</em></b></p>\n                    <p>This is the bee that you just saw.</p>\n                    <img src=\"bees-with-color/bee-A1SM.svg\" width=\"200\">\n                    <p><br>Your bonus pay is unchanged, and remains at $0.66.</p>\n            ","response":0,"trial_type":"html-button-response","trial_index":60,"time_elapsed":445833,"internal_node_id":"0.0-4.0-1.24","subject_id":"60e228622e17c4ed597d92eb","study_id":"6197b3f67c2b5cd3b6d9596a","session_id":"619be31def96acdc0fda0d2a","condition":"contingent","relevant_dimensions":["antennae","wings"],"bee_group":{"antennae":"A","wings":"1","pattern":"X","legs":"X"},"bonus":0.9000000000000007},{"rt":12935.700000000186,"stimulus":"bees-with-color/bee-A2DF.svg","response":1,"trial_type":"image-button-response","trial_index":61,"time_elapsed":458772,"internal_node_id":"0.0-4.0-0.25","subject_id":"60e228622e17c4ed597d92eb","study_id":"6197b3f67c2b5cd3b6d9596a","session_id":"619be31def96acdc0fda0d2a","condition":"contingent","relevant_dimensions":["antennae","wings"],"bee_group":{"antennae":"A","wings":"1","pattern":"X","legs":"X"},"action":"avoid","summary":"bad-avoid","bonus":0.9000000000000007},{"rt":678.7999999998137,"stimulus":"\n                    <p><b>Action: <em>avoid</em></b></p>\n                    <p>This is the bee that you just saw.</p>\n                    <img src=\"bees-with-color/bee-A2DF.svg\" width=\"200\">\n                    <p><br>Your bonus pay is unchanged, and remains at $0.66.</p>\n            ","response":0,"trial_type":"html-button-response","trial_index":62,"time_elapsed":459453,"internal_node_id":"0.0-4.0-1.25","subject_id":"60e228622e17c4ed597d92eb","study_id":"6197b3f67c2b5cd3b6d9596a","session_id":"619be31def96acdc0fda0d2a","condition":"contingent","relevant_dimensions":["antennae","wings"],"bee_group":{"antennae":"A","wings":"1","pattern":"X","legs":"X"},"bonus":0.9000000000000007},{"rt":859.0999999996275,"stimulus":"bees-with-color/bee-A2SF.svg","response":1,"trial_type":"image-button-response","trial_index":63,"time_elapsed":460315,"internal_node_id":"0.0-4.0-0.26","subject_id":"60e228622e17c4ed597d92eb","study_id":"6197b3f67c2b5cd3b6d9596a","session_id":"619be31def96acdc0fda0d2a","condition":"contingent","relevant_dimensions":["antennae","wings"],"bee_group":{"antennae":"A","wings":"1","pattern":"X","legs":"X"},"action":"avoid","summary":"bad-avoid","bonus":0.9000000000000007},{"rt":606.7999999998137,"stimulus":"\n                    <p><b>Action: <em>avoid</em></b></p>\n                    <p>This is the bee that you just saw.</p>\n                    <img src=\"bees-with-color/bee-A2SF.svg\" width=\"200\">\n                    <p><br>Your bonus pay is unchanged, and remains at $0.66.</p>\n            ","response":0,"trial_type":"html-button-response","trial_index":64,"time_elapsed":460924,"internal_node_id":"0.0-4.0-1.26","subject_id":"60e228622e17c4ed597d92eb","study_id":"6197b3f67c2b5cd3b6d9596a","session_id":"619be31def96acdc0fda0d2a","condition":"contingent","relevant_dimensions":["antennae","wings"],"bee_group":{"antennae":"A","wings":"1","pattern":"X","legs":"X"},"bonus":0.9000000000000007},{"rt":844.5999999996275,"stimulus":"bees-with-color/bee-A1DF.svg","response":1,"trial_type":"image-button-response","trial_index":65,"time_elapsed":461770,"internal_node_id":"0.0-4.0-0.27","subject_id":"60e228622e17c4ed597d92eb","study_id":"6197b3f67c2b5cd3b6d9596a","session_id":"619be31def96acdc0fda0d2a","condition":"contingent","relevant_dimensions":["antennae","wings"],"bee_group":{"antennae":"A","wings":"1","pattern":"X","legs":"X"},"action":"avoid","summary":"good-avoid","bonus":0.9000000000000007},{"rt":745.4000000003725,"stimulus":"\n                    <p><b>Action: <em>avoid</em></b></p>\n                    <p>This is the bee that you just saw.</p>\n                    <img src=\"bees-with-color/bee-A1DF.svg\" width=\"200\">\n                    <p><br>Your bonus pay is unchanged, and remains at $0.66.</p>\n            ","response":0,"trial_type":"html-button-response","trial_index":66,"time_elapsed":462519,"internal_node_id":"0.0-4.0-1.27","subject_id":"60e228622e17c4ed597d92eb","study_id":"6197b3f67c2b5cd3b6d9596a","session_id":"619be31def96acdc0fda0d2a","condition":"contingent","relevant_dimensions":["antennae","wings"],"bee_group":{"antennae":"A","wings":"1","pattern":"X","legs":"X"},"bonus":0.9000000000000007},{"rt":1273.2999999998137,"stimulus":"bees-with-color/bee-B2SF.svg","response":0,"trial_type":"image-button-response","trial_index":67,"time_elapsed":463795,"internal_node_id":"0.0-4.0-0.28","subject_id":"60e228622e17c4ed597d92eb","study_id":"6197b3f67c2b5cd3b6d9596a","session_id":"619be31def96acdc0fda0d2a","condition":"contingent","relevant_dimensions":["antennae","wings"],"bee_group":{"antennae":"A","wings":"1","pattern":"X","legs":"X"},"action":"harvest","summary":"good-harvest","bonus":0.9000000000000007},{"rt":752.9000000003725,"stimulus":"\n                    <p><b>Action: <em>harvest</em></b></p>\n                    <p>This is the bee that you just saw.</p>\n                    <img src=\"bees-with-color/bee-B2SF.svg\" width=\"200\">\n                    <p><span class=\"greenText\"><b>Successful harvest!</b></span><br>Your pay has increased by $0.02. Your bonus pay is now $0.68.</p>\n            ","response":0,"trial_type":"html-button-response","trial_index":68,"time_elapsed":464551,"internal_node_id":"0.0-4.0-1.28","subject_id":"60e228622e17c4ed597d92eb","study_id":"6197b3f67c2b5cd3b6d9596a","session_id":"619be31def96acdc0fda0d2a","condition":"contingent","relevant_dimensions":["antennae","wings"],"bee_group":{"antennae":"A","wings":"1","pattern":"X","legs":"X"},"bonus":0.9000000000000007},{"rt":1542.4000000003725,"stimulus":"bees-with-color/bee-A2SM.svg","response":1,"trial_type":"image-button-response","trial_index":69,"time_elapsed":466095,"internal_node_id":"0.0-4.0-0.29","subject_id":"60e228622e17c4ed597d92eb","study_id":"6197b3f67c2b5cd3b6d9596a","session_id":"619be31def96acdc0fda0d2a","condition":"contingent","relevant_dimensions":["antennae","wings"],"bee_group":{"antennae":"A","wings":"1","pattern":"X","legs":"X"},"action":"avoid","summary":"bad-avoid","bonus":0.9000000000000007},{"rt":634.2000000001863,"stimulus":"\n                    <p><b>Action: <em>avoid</em></b></p>\n                    <p>This is the bee that you just saw.</p>\n                    <img src=\"bees-with-color/bee-A2SM.svg\" width=\"200\">\n                    <p><br>Your bonus pay is unchanged, and remains at $0.68.</p>\n            ","response":0,"trial_type":"html-button-response","trial_index":70,"time_elapsed":466732,"internal_node_id":"0.0-4.0-1.29","subject_id":"60e228622e17c4ed597d92eb","study_id":"6197b3f67c2b5cd3b6d9596a","session_id":"619be31def96acdc0fda0d2a","condition":"contingent","relevant_dimensions":["antennae","wings"],"bee_group":{"antennae":"A","wings":"1","pattern":"X","legs":"X"},"bonus":0.9000000000000007},{"rt":928.2000000001863,"stimulus":"bees-with-color/bee-B1SM.svg","response":0,"trial_type":"image-button-response","trial_index":71,"time_elapsed":467663,"internal_node_id":"0.0-4.0-0.30","subject_id":"60e228622e17c4ed597d92eb","study_id":"6197b3f67c2b5cd3b6d9596a","session_id":"619be31def96acdc0fda0d2a","condition":"contingent","relevant_dimensions":["antennae","wings"],"bee_group":{"antennae":"A","wings":"1","pattern":"X","legs":"X"},"action":"harvest","summary":"good-harvest","bonus":0.9000000000000007},{"rt":640.5,"stimulus":"\n                    <p><b>Action: <em>harvest</em></b></p>\n                    <p>This is the bee that you just saw.</p>\n                    <img src=\"bees-with-color/bee-B1SM.svg\" width=\"200\">\n                    <p><span class=\"greenText\"><b>Successful harvest!</b></span><br>Your pay has increased by $0.02. Your bonus pay is now $0.70.</p>\n            ","response":0,"trial_type":"html-button-response","trial_index":72,"time_elapsed":468306,"internal_node_id":"0.0-4.0-1.30","subject_id":"60e228622e17c4ed597d92eb","study_id":"6197b3f67c2b5cd3b6d9596a","session_id":"619be31def96acdc0fda0d2a","condition":"contingent","relevant_dimensions":["antennae","wings"],"bee_group":{"antennae":"A","wings":"1","pattern":"X","legs":"X"},"bonus":0.9000000000000007},{"rt":922.0999999996275,"stimulus":"bees-with-color/bee-B1DF.svg","response":0,"trial_type":"image-button-response","trial_index":73,"time_elapsed":469231,"internal_node_id":"0.0-4.0-0.31","subject_id":"60e228622e17c4ed597d92eb","study_id":"6197b3f67c2b5cd3b6d9596a","session_id":"619be31def96acdc0fda0d2a","condition":"contingent","relevant_dimensions":["antennae","wings"],"bee_group":{"antennae":"A","wings":"1","pattern":"X","legs":"X"},"action":"harvest","summary":"good-harvest","bonus":0.9000000000000007},{"rt":592.2000000001863,"stimulus":"\n                    <p><b>Action: <em>harvest</em></b></p>\n                    <p>This is the bee that you just saw.</p>\n                    <img src=\"bees-with-color/bee-B1DF.svg\" width=\"200\">\n                    <p><span class=\"greenText\"><b>Successful harvest!</b></span><br>Your pay has increased by $0.02. Your bonus pay is now $0.72.</p>\n            ","response":0,"trial_type":"html-button-response","trial_index":74,"time_elapsed":469826,"internal_node_id":"0.0-4.0-1.31","subject_id":"60e228622e17c4ed597d92eb","study_id":"6197b3f67c2b5cd3b6d9596a","session_id":"619be31def96acdc0fda0d2a","condition":"contingent","relevant_dimensions":["antennae","wings"],"bee_group":{"antennae":"A","wings":"1","pattern":"X","legs":"X"},"bonus":0.9000000000000007},{"rt":843,"stimulus":"bees-with-color/bee-B2SM.svg","response":0,"trial_type":"image-button-response","trial_index":75,"time_elapsed":470671,"internal_node_id":"0.0-4.0-0.32","subject_id":"60e228622e17c4ed597d92eb","study_id":"6197b3f67c2b5cd3b6d9596a","session_id":"619be31def96acdc0fda0d2a","condition":"contingent","relevant_dimensions":["antennae","wings"],"bee_group":{"antennae":"A","wings":"1","pattern":"X","legs":"X"},"action":"harvest","summary":"good-harvest","bonus":0.9000000000000007},{"rt":678,"stimulus":"\n                    <p><b>Action: <em>harvest</em></b></p>\n                    <p>This is the bee that you just saw.</p>\n                    <img src=\"bees-with-color/bee-B2SM.svg\" width=\"200\">\n                    <p><span class=\"greenText\"><b>Successful harvest!</b></span><br>Your pay has increased by $0.02. Your bonus pay is now $0.74.</p>\n            ","response":0,"trial_type":"html-button-response","trial_index":76,"time_elapsed":471352,"internal_node_id":"0.0-4.0-1.32","subject_id":"60e228622e17c4ed597d92eb","study_id":"6197b3f67c2b5cd3b6d9596a","session_id":"619be31def96acdc0fda0d2a","condition":"contingent","relevant_dimensions":["antennae","wings"],"bee_group":{"antennae":"A","wings":"1","pattern":"X","legs":"X"},"bonus":0.9000000000000007},{"rt":802.7999999998137,"stimulus":"bees-with-color/bee-B2SF.svg","response":0,"trial_type":"image-button-response","trial_index":77,"time_elapsed":472157,"internal_node_id":"0.0-4.0-0.33","subject_id":"60e228622e17c4ed597d92eb","study_id":"6197b3f67c2b5cd3b6d9596a","session_id":"619be31def96acdc0fda0d2a","condition":"contingent","relevant_dimensions":["antennae","wings"],"bee_group":{"antennae":"A","wings":"1","pattern":"X","legs":"X"},"action":"harvest","summary":"good-harvest","bonus":0.9000000000000007},{"rt":601.9000000003725,"stimulus":"\n                    <p><b>Action: <em>harvest</em></b></p>\n                    <p>This is the bee that you just saw.</p>\n                    <img src=\"bees-with-color/bee-B2SF.svg\" width=\"200\">\n                    <p><span class=\"greenText\"><b>Successful harvest!</b></span><br>Your pay has increased by $0.02. Your bonus pay is now $0.76.</p>\n            ","response":0,"trial_type":"html-button-response","trial_index":78,"time_elapsed":472761,"internal_node_id":"0.0-4.0-1.33","subject_id":"60e228622e17c4ed597d92eb","study_id":"6197b3f67c2b5cd3b6d9596a","session_id":"619be31def96acdc0fda0d2a","condition":"contingent","relevant_dimensions":["antennae","wings"],"bee_group":{"antennae":"A","wings":"1","pattern":"X","legs":"X"},"bonus":0.9000000000000007},{"rt":841,"stimulus":"bees-with-color/bee-B1SM.svg","response":0,"trial_type":"image-button-response","trial_index":79,"time_elapsed":473605,"internal_node_id":"0.0-4.0-0.34","subject_id":"60e228622e17c4ed597d92eb","study_id":"6197b3f67c2b5cd3b6d9596a","session_id":"619be31def96acdc0fda0d2a","condition":"contingent","relevant_dimensions":["antennae","wings"],"bee_group":{"antennae":"A","wings":"1","pattern":"X","legs":"X"},"action":"harvest","summary":"good-harvest","bonus":0.9000000000000007},{"rt":704.8000000007451,"stimulus":"\n                    <p><b>Action: <em>harvest</em></b></p>\n                    <p>This is the bee that you just saw.</p>\n                    <img src=\"bees-with-color/bee-B1SM.svg\" width=\"200\">\n                    <p><span class=\"greenText\"><b>Successful harvest!</b></span><br>Your pay has increased by $0.02. Your bonus pay is now $0.78.</p>\n            ","response":0,"trial_type":"html-button-response","trial_index":80,"time_elapsed":474313,"internal_node_id":"0.0-4.0-1.34","subject_id":"60e228622e17c4ed597d92eb","study_id":"6197b3f67c2b5cd3b6d9596a","session_id":"619be31def96acdc0fda0d2a","condition":"contingent","relevant_dimensions":["antennae","wings"],"bee_group":{"antennae":"A","wings":"1","pattern":"X","legs":"X"},"bonus":0.9000000000000007},{"rt":1531.5,"stimulus":"bees-with-color/bee-B1SF.svg","response":0,"trial_type":"image-button-response","trial_index":81,"time_elapsed":475847,"internal_node_id":"0.0-4.0-0.35","subject_id":"60e228622e17c4ed597d92eb","study_id":"6197b3f67c2b5cd3b6d9596a","session_id":"619be31def96acdc0fda0d2a","condition":"contingent","relevant_dimensions":["antennae","wings"],"bee_group":{"antennae":"A","wings":"1","pattern":"X","legs":"X"},"action":"harvest","summary":"good-harvest","bonus":0.9000000000000007},{"rt":595.5999999996275,"stimulus":"\n                    <p><b>Action: <em>harvest</em></b></p>\n                    <p>This is the bee that you just saw.</p>\n                    <img src=\"bees-with-color/bee-B1SF.svg\" width=\"200\">\n                    <p><span class=\"greenText\"><b>Successful harvest!</b></span><br>Your pay has increased by $0.02. Your bonus pay is now $0.80.</p>\n            ","response":0,"trial_type":"html-button-response","trial_index":82,"time_elapsed":476444,"internal_node_id":"0.0-4.0-1.35","subject_id":"60e228622e17c4ed597d92eb","study_id":"6197b3f67c2b5cd3b6d9596a","session_id":"619be31def96acdc0fda0d2a","condition":"contingent","relevant_dimensions":["antennae","wings"],"bee_group":{"antennae":"A","wings":"1","pattern":"X","legs":"X"},"bonus":0.9000000000000007},{"rt":1218.5,"stimulus":"bees-with-color/bee-A2DF.svg","response":1,"trial_type":"image-button-response","trial_index":83,"time_elapsed":477665,"internal_node_id":"0.0-4.0-0.36","subject_id":"60e228622e17c4ed597d92eb","study_id":"6197b3f67c2b5cd3b6d9596a","session_id":"619be31def96acdc0fda0d2a","condition":"contingent","relevant_dimensions":["antennae","wings"],"bee_group":{"antennae":"A","wings":"1","pattern":"X","legs":"X"},"action":"avoid","summary":"bad-avoid","bonus":0.9000000000000007},{"rt":802.7000000001863,"stimulus":"\n                    <p><b>Action: <em>avoid</em></b></p>\n                    <p>This is the bee that you just saw.</p>\n                    <img src=\"bees-with-color/bee-A2DF.svg\" width=\"200\">\n                    <p><br>Your bonus pay is unchanged, and remains at $0.80.</p>\n            ","response":0,"trial_type":"html-button-response","trial_index":84,"time_elapsed":478471,"internal_node_id":"0.0-4.0-1.36","subject_id":"60e228622e17c4ed597d92eb","study_id":"6197b3f67c2b5cd3b6d9596a","session_id":"619be31def96acdc0fda0d2a","condition":"contingent","relevant_dimensions":["antennae","wings"],"bee_group":{"antennae":"A","wings":"1","pattern":"X","legs":"X"},"bonus":0.9000000000000007},{"rt":1250.0999999996275,"stimulus":"bees-with-color/bee-A2DM.svg","response":1,"trial_type":"image-button-response","trial_index":85,"time_elapsed":479723,"internal_node_id":"0.0-4.0-0.37","subject_id":"60e228622e17c4ed597d92eb","study_id":"6197b3f67c2b5cd3b6d9596a","session_id":"619be31def96acdc0fda0d2a","condition":"contingent","relevant_dimensions":["antennae","wings"],"bee_group":{"antennae":"A","wings":"1","pattern":"X","legs":"X"},"action":"avoid","summary":"bad-avoid","bonus":0.9000000000000007},{"rt":721.7000000001863,"stimulus":"\n                    <p><b>Action: <em>avoid</em></b></p>\n                    <p>This is the bee that you just saw.</p>\n                    <img src=\"bees-with-color/bee-A2DM.svg\" width=\"200\">\n                    <p><br>Your bonus pay is unchanged, and remains at $0.80.</p>\n            ","response":0,"trial_type":"html-button-response","trial_index":86,"time_elapsed":480448,"internal_node_id":"0.0-4.0-1.37","subject_id":"60e228622e17c4ed597d92eb","study_id":"6197b3f67c2b5cd3b6d9596a","session_id":"619be31def96acdc0fda0d2a","condition":"contingent","relevant_dimensions":["antennae","wings"],"bee_group":{"antennae":"A","wings":"1","pattern":"X","legs":"X"},"bonus":0.9000000000000007},{"rt":1804.800000000745,"stimulus":"bees-with-color/bee-A1SM.svg","response":1,"trial_type":"image-button-response","trial_index":87,"time_elapsed":482255,"internal_node_id":"0.0-4.0-0.38","subject_id":"60e228622e17c4ed597d92eb","study_id":"6197b3f67c2b5cd3b6d9596a","session_id":"619be31def96acdc0fda0d2a","condition":"contingent","relevant_dimensions":["antennae","wings"],"bee_group":{"antennae":"A","wings":"1","pattern":"X","legs":"X"},"action":"avoid","summary":"good-avoid","bonus":0.9000000000000007},{"rt":577,"stimulus":"\n                    <p><b>Action: <em>avoid</em></b></p>\n                    <p>This is the bee that you just saw.</p>\n                    <img src=\"bees-with-color/bee-A1SM.svg\" width=\"200\">\n                    <p><br>Your bonus pay is unchanged, and remains at $0.80.</p>\n            ","response":0,"trial_type":"html-button-response","trial_index":88,"time_elapsed":482834,"internal_node_id":"0.0-4.0-1.38","subject_id":"60e228622e17c4ed597d92eb","study_id":"6197b3f67c2b5cd3b6d9596a","session_id":"619be31def96acdc0fda0d2a","condition":"contingent","relevant_dimensions":["antennae","wings"],"bee_group":{"antennae":"A","wings":"1","pattern":"X","legs":"X"},"bonus":0.9000000000000007},{"rt":827.2999999998137,"stimulus":"bees-with-color/bee-A1SF.svg","response":1,"trial_type":"image-button-response","trial_index":89,"time_elapsed":483664,"internal_node_id":"0.0-4.0-0.39","subject_id":"60e228622e17c4ed597d92eb","study_id":"6197b3f67c2b5cd3b6d9596a","session_id":"619be31def96acdc0fda0d2a","condition":"contingent","relevant_dimensions":["antennae","wings"],"bee_group":{"antennae":"A","wings":"1","pattern":"X","legs":"X"},"action":"avoid","summary":"good-avoid","bonus":0.9000000000000007},{"rt":597.9000000003725,"stimulus":"\n                    <p><b>Action: <em>avoid</em></b></p>\n                    <p>This is the bee that you just saw.</p>\n                    <img src=\"bees-with-color/bee-A1SF.svg\" width=\"200\">\n                    <p><br>Your bonus pay is unchanged, and remains at $0.80.</p>\n            ","response":0,"trial_type":"html-button-response","trial_index":90,"time_elapsed":484265,"internal_node_id":"0.0-4.0-1.39","subject_id":"60e228622e17c4ed597d92eb","study_id":"6197b3f67c2b5cd3b6d9596a","session_id":"619be31def96acdc0fda0d2a","condition":"contingent","relevant_dimensions":["antennae","wings"],"bee_group":{"antennae":"A","wings":"1","pattern":"X","legs":"X"},"bonus":0.9000000000000007},{"rt":924,"stimulus":"bees-with-color/bee-A1DM.svg","response":1,"trial_type":"image-button-response","trial_index":91,"time_elapsed":485191,"internal_node_id":"0.0-4.0-0.40","subject_id":"60e228622e17c4ed597d92eb","study_id":"6197b3f67c2b5cd3b6d9596a","session_id":"619be31def96acdc0fda0d2a","condition":"contingent","relevant_dimensions":["antennae","wings"],"bee_group":{"antennae":"A","wings":"1","pattern":"X","legs":"X"},"action":"avoid","summary":"good-avoid","bonus":0.9000000000000007},{"rt":608.7000000001863,"stimulus":"\n                    <p><b>Action: <em>avoid</em></b></p>\n                    <p>This is the bee that you just saw.</p>\n                    <img src=\"bees-with-color/bee-A1DM.svg\" width=\"200\">\n                    <p><br>Your bonus pay is unchanged, and remains at $0.80.</p>\n            ","response":0,"trial_type":"html-button-response","trial_index":92,"time_elapsed":485803,"internal_node_id":"0.0-4.0-1.40","subject_id":"60e228622e17c4ed597d92eb","study_id":"6197b3f67c2b5cd3b6d9596a","session_id":"619be31def96acdc0fda0d2a","condition":"contingent","relevant_dimensions":["antennae","wings"],"bee_group":{"antennae":"A","wings":"1","pattern":"X","legs":"X"},"bonus":0.9000000000000007},{"rt":855.0999999996275,"stimulus":"bees-with-color/bee-B1DF.svg","response":0,"trial_type":"image-button-response","trial_index":93,"time_elapsed":486661,"internal_node_id":"0.0-4.0-0.41","subject_id":"60e228622e17c4ed597d92eb","study_id":"6197b3f67c2b5cd3b6d9596a","session_id":"619be31def96acdc0fda0d2a","condition":"contingent","relevant_dimensions":["antennae","wings"],"bee_group":{"antennae":"A","wings":"1","pattern":"X","legs":"X"},"action":"harvest","summary":"good-harvest","bonus":0.9000000000000007},{"rt":593.2999999998137,"stimulus":"\n                    <p><b>Action: <em>harvest</em></b></p>\n                    <p>This is the bee that you just saw.</p>\n                    <img src=\"bees-with-color/bee-B1DF.svg\" width=\"200\">\n                    <p><span class=\"greenText\"><b>Successful harvest!</b></span><br>Your pay has increased by $0.02. Your bonus pay is now $0.82.</p>\n            ","response":0,"trial_type":"html-button-response","trial_index":94,"time_elapsed":487257,"internal_node_id":"0.0-4.0-1.41","subject_id":"60e228622e17c4ed597d92eb","study_id":"6197b3f67c2b5cd3b6d9596a","session_id":"619be31def96acdc0fda0d2a","condition":"contingent","relevant_dimensions":["antennae","wings"],"bee_group":{"antennae":"A","wings":"1","pattern":"X","legs":"X"},"bonus":0.9000000000000007},{"rt":985.5,"stimulus":"bees-with-color/bee-A1DF.svg","response":1,"trial_type":"image-button-response","trial_index":95,"time_elapsed":488246,"internal_node_id":"0.0-4.0-0.42","subject_id":"60e228622e17c4ed597d92eb","study_id":"6197b3f67c2b5cd3b6d9596a","session_id":"619be31def96acdc0fda0d2a","condition":"contingent","relevant_dimensions":["antennae","wings"],"bee_group":{"antennae":"A","wings":"1","pattern":"X","legs":"X"},"action":"avoid","summary":"good-avoid","bonus":0.9000000000000007},{"rt":705,"stimulus":"\n                    <p><b>Action: <em>avoid</em></b></p>\n                    <p>This is the bee that you just saw.</p>\n                    <img src=\"bees-with-color/bee-A1DF.svg\" width=\"200\">\n                    <p><br>Your bonus pay is unchanged, and remains at $0.82.</p>\n            ","response":0,"trial_type":"html-button-response","trial_index":96,"time_elapsed":488954,"internal_node_id":"0.0-4.0-1.42","subject_id":"60e228622e17c4ed597d92eb","study_id":"6197b3f67c2b5cd3b6d9596a","session_id":"619be31def96acdc0fda0d2a","condition":"contingent","relevant_dimensions":["antennae","wings"],"bee_group":{"antennae":"A","wings":"1","pattern":"X","legs":"X"},"bonus":0.9000000000000007},{"rt":808.7000000001863,"stimulus":"bees-with-color/bee-B1DM.svg","response":0,"trial_type":"image-button-response","trial_index":97,"time_elapsed":489766,"internal_node_id":"0.0-4.0-0.43","subject_id":"60e228622e17c4ed597d92eb","study_id":"6197b3f67c2b5cd3b6d9596a","session_id":"619be31def96acdc0fda0d2a","condition":"contingent","relevant_dimensions":["antennae","wings"],"bee_group":{"antennae":"A","wings":"1","pattern":"X","legs":"X"},"action":"harvest","summary":"good-harvest","bonus":0.9000000000000007},{"rt":536.0999999996275,"stimulus":"\n                    <p><b>Action: <em>harvest</em></b></p>\n                    <p>This is the bee that you just saw.</p>\n                    <img src=\"bees-with-color/bee-B1DM.svg\" width=\"200\">\n                    <p><span class=\"greenText\"><b>Successful harvest!</b></span><br>Your pay has increased by $0.02. Your bonus pay is now $0.84.</p>\n            ","response":0,"trial_type":"html-button-response","trial_index":98,"time_elapsed":490304,"internal_node_id":"0.0-4.0-1.43","subject_id":"60e228622e17c4ed597d92eb","study_id":"6197b3f67c2b5cd3b6d9596a","session_id":"619be31def96acdc0fda0d2a","condition":"contingent","relevant_dimensions":["antennae","wings"],"bee_group":{"antennae":"A","wings":"1","pattern":"X","legs":"X"},"bonus":0.9000000000000007},{"rt":826.5,"stimulus":"bees-with-color/bee-B2DF.svg","response":0,"trial_type":"image-button-response","trial_index":99,"time_elapsed":491134,"internal_node_id":"0.0-4.0-0.44","subject_id":"60e228622e17c4ed597d92eb","study_id":"6197b3f67c2b5cd3b6d9596a","session_id":"619be31def96acdc0fda0d2a","condition":"contingent","relevant_dimensions":["antennae","wings"],"bee_group":{"antennae":"A","wings":"1","pattern":"X","legs":"X"},"action":"harvest","summary":"good-harvest","bonus":0.9000000000000007},{"rt":630.7000000001863,"stimulus":"\n                    <p><b>Action: <em>harvest</em></b></p>\n                    <p>This is the bee that you just saw.</p>\n                    <img src=\"bees-with-color/bee-B2DF.svg\" width=\"200\">\n                    <p><span class=\"greenText\"><b>Successful harvest!</b></span><br>Your pay has increased by $0.02. Your bonus pay is now $0.86.</p>\n            ","response":0,"trial_type":"html-button-response","trial_index":100,"time_elapsed":491768,"internal_node_id":"0.0-4.0-1.44","subject_id":"60e228622e17c4ed597d92eb","study_id":"6197b3f67c2b5cd3b6d9596a","session_id":"619be31def96acdc0fda0d2a","condition":"contingent","relevant_dimensions":["antennae","wings"],"bee_group":{"antennae":"A","wings":"1","pattern":"X","legs":"X"},"bonus":0.9000000000000007},{"rt":2127.5,"stimulus":"bees-with-color/bee-A2SF.svg","response":1,"trial_type":"image-button-response","trial_index":101,"time_elapsed":493899,"internal_node_id":"0.0-4.0-0.45","subject_id":"60e228622e17c4ed597d92eb","study_id":"6197b3f67c2b5cd3b6d9596a","session_id":"619be31def96acdc0fda0d2a","condition":"contingent","relevant_dimensions":["antennae","wings"],"bee_group":{"antennae":"A","wings":"1","pattern":"X","legs":"X"},"action":"avoid","summary":"bad-avoid","bonus":0.9000000000000007},{"rt":670.2999999998137,"stimulus":"\n                    <p><b>Action: <em>avoid</em></b></p>\n                    <p>This is the bee that you just saw.</p>\n                    <img src=\"bees-with-color/bee-A2SF.svg\" width=\"200\">\n                    <p><br>Your bonus pay is unchanged, and remains at $0.86.</p>\n            ","response":0,"trial_type":"html-button-response","trial_index":102,"time_elapsed":494573,"internal_node_id":"0.0-4.0-1.45","subject_id":"60e228622e17c4ed597d92eb","study_id":"6197b3f67c2b5cd3b6d9596a","session_id":"619be31def96acdc0fda0d2a","condition":"contingent","relevant_dimensions":["antennae","wings"],"bee_group":{"antennae":"A","wings":"1","pattern":"X","legs":"X"},"bonus":0.9000000000000007},{"rt":1213.0999999996275,"stimulus":"bees-with-color/bee-B2DM.svg","response":0,"trial_type":"image-button-response","trial_index":103,"time_elapsed":495789,"internal_node_id":"0.0-4.0-0.46","subject_id":"60e228622e17c4ed597d92eb","study_id":"6197b3f67c2b5cd3b6d9596a","session_id":"619be31def96acdc0fda0d2a","condition":"contingent","relevant_dimensions":["antennae","wings"],"bee_group":{"antennae":"A","wings":"1","pattern":"X","legs":"X"},"action":"harvest","summary":"good-harvest","bonus":0.9000000000000007},{"rt":664,"stimulus":"\n                    <p><b>Action: <em>harvest</em></b></p>\n                    <p>This is the bee that you just saw.</p>\n                    <img src=\"bees-with-color/bee-B2DM.svg\" width=\"200\">\n                    <p><span class=\"greenText\"><b>Successful harvest!</b></span><br>Your pay has increased by $0.02. Your bonus pay is now $0.88.</p>\n            ","response":0,"trial_type":"html-button-response","trial_index":104,"time_elapsed":496456,"internal_node_id":"0.0-4.0-1.46","subject_id":"60e228622e17c4ed597d92eb","study_id":"6197b3f67c2b5cd3b6d9596a","session_id":"619be31def96acdc0fda0d2a","condition":"contingent","relevant_dimensions":["antennae","wings"],"bee_group":{"antennae":"A","wings":"1","pattern":"X","legs":"X"},"bonus":0.9000000000000007},{"rt":1220.0999999996275,"stimulus":"bees-with-color/bee-A2SM.svg","response":1,"trial_type":"image-button-response","trial_index":105,"time_elapsed":497678,"internal_node_id":"0.0-4.0-0.47","subject_id":"60e228622e17c4ed597d92eb","study_id":"6197b3f67c2b5cd3b6d9596a","session_id":"619be31def96acdc0fda0d2a","condition":"contingent","relevant_dimensions":["antennae","wings"],"bee_group":{"antennae":"A","wings":"1","pattern":"X","legs":"X"},"action":"avoid","summary":"bad-avoid","bonus":0.9000000000000007},{"rt":881.2999999998137,"stimulus":"\n                    <p><b>Action: <em>avoid</em></b></p>\n                    <p>This is the bee that you just saw.</p>\n                    <img src=\"bees-with-color/bee-A2SM.svg\" width=\"200\">\n                    <p><br>Your bonus pay is unchanged, and remains at $0.88.</p>\n            ","response":0,"trial_type":"html-button-response","trial_index":106,"time_elapsed":498562,"internal_node_id":"0.0-4.0-1.47","subject_id":"60e228622e17c4ed597d92eb","study_id":"6197b3f67c2b5cd3b6d9596a","session_id":"619be31def96acdc0fda0d2a","condition":"contingent","relevant_dimensions":["antennae","wings"],"bee_group":{"antennae":"A","wings":"1","pattern":"X","legs":"X"},"bonus":0.9000000000000007},{"rt":867.7000000001863,"stimulus":"bees-with-color/bee-B2SM.svg","response":0,"trial_type":"image-button-response","trial_index":107,"time_elapsed":499433,"internal_node_id":"0.0-4.0-0.48","subject_id":"60e228622e17c4ed597d92eb","study_id":"6197b3f67c2b5cd3b6d9596a","session_id":"619be31def96acdc0fda0d2a","condition":"contingent","relevant_dimensions":["antennae","wings"],"bee_group":{"antennae":"A","wings":"1","pattern":"X","legs":"X"},"action":"harvest","summary":"good-harvest","bonus":0.9000000000000007},{"rt":589.7999999998137,"stimulus":"\n                    <p><b>Action: <em>harvest</em></b></p>\n                    <p>This is the bee that you just saw.</p>\n                    <img src=\"bees-with-color/bee-B2SM.svg\" width=\"200\">\n                    <p><span class=\"greenText\"><b>Successful harvest!</b></span><br>Your pay has increased by $0.02. Your bonus pay is now $0.90.</p>\n            ","response":0,"trial_type":"html-button-response","trial_index":108,"time_elapsed":500025,"internal_node_id":"0.0-4.0-1.48","subject_id":"60e228622e17c4ed597d92eb","study_id":"6197b3f67c2b5cd3b6d9596a","session_id":"619be31def96acdc0fda0d2a","condition":"contingent","relevant_dimensions":["antennae","wings"],"bee_group":{"antennae":"A","wings":"1","pattern":"X","legs":"X"},"bonus":0.9000000000000007},{"rt":1488.8999999994412,"stimulus":"bees-with-color/bee-A1DM.svg","response":1,"trial_type":"image-button-response","trial_index":109,"time_elapsed":501516,"internal_node_id":"0.0-4.0-0.49","subject_id":"60e228622e17c4ed597d92eb","study_id":"6197b3f67c2b5cd3b6d9596a","session_id":"619be31def96acdc0fda0d2a","condition":"contingent","relevant_dimensions":["antennae","wings"],"bee_group":{"antennae":"A","wings":"1","pattern":"X","legs":"X"},"action":"avoid","summary":"good-avoid","bonus":0.9000000000000007},{"rt":673.5,"stimulus":"\n                    <p><b>Action: <em>avoid</em></b></p>\n                    <p>This is the bee that you just saw.</p>\n                    <img src=\"bees-with-color/bee-A1DM.svg\" width=\"200\">\n                    <p><br>Your bonus pay is unchanged, and remains at $0.90.</p>\n            ","response":0,"trial_type":"html-button-response","trial_index":110,"time_elapsed":502191,"internal_node_id":"0.0-4.0-1.49","subject_id":"60e228622e17c4ed597d92eb","study_id":"6197b3f67c2b5cd3b6d9596a","session_id":"619be31def96acdc0fda0d2a","condition":"contingent","relevant_dimensions":["antennae","wings"],"bee_group":{"antennae":"A","wings":"1","pattern":"X","legs":"X"},"bonus":0.9000000000000007},{"rt":1011.7000000001863,"stimulus":"bees-with-color/bee-B1SF.svg","response":0,"trial_type":"image-button-response","trial_index":111,"time_elapsed":503205,"internal_node_id":"0.0-4.0-0.50","subject_id":"60e228622e17c4ed597d92eb","study_id":"6197b3f67c2b5cd3b6d9596a","session_id":"619be31def96acdc0fda0d2a","condition":"contingent","relevant_dimensions":["antennae","wings"],"bee_group":{"antennae":"A","wings":"1","pattern":"X","legs":"X"},"action":"harvest","summary":"good-harvest","bonus":0.9000000000000007},{"rt":705,"stimulus":"\n                    <p><b>Action: <em>harvest</em></b></p>\n                    <p>This is the bee that you just saw.</p>\n                    <img src=\"bees-with-color/bee-B1SF.svg\" width=\"200\">\n                    <p><span class=\"greenText\"><b>Successful harvest!</b></span><br>Your pay has increased by $0.02. Your bonus pay is now $0.92.</p>\n            ","response":0,"trial_type":"html-button-response","trial_index":112,"time_elapsed":503912,"internal_node_id":"0.0-4.0-1.50","subject_id":"60e228622e17c4ed597d92eb","study_id":"6197b3f67c2b5cd3b6d9596a","session_id":"619be31def96acdc0fda0d2a","condition":"contingent","relevant_dimensions":["antennae","wings"],"bee_group":{"antennae":"A","wings":"1","pattern":"X","legs":"X"},"bonus":0.9000000000000007},{"rt":963.7000000001863,"stimulus":"bees-with-color/bee-A1DF.svg","response":1,"trial_type":"image-button-response","trial_index":113,"time_elapsed":504877,"internal_node_id":"0.0-4.0-0.51","subject_id":"60e228622e17c4ed597d92eb","study_id":"6197b3f67c2b5cd3b6d9596a","session_id":"619be31def96acdc0fda0d2a","condition":"contingent","relevant_dimensions":["antennae","wings"],"bee_group":{"antennae":"A","wings":"1","pattern":"X","legs":"X"},"action":"avoid","summary":"good-avoid","bonus":0.9000000000000007},{"rt":665.6000000005588,"stimulus":"\n                    <p><b>Action: <em>avoid</em></b></p>\n                    <p>This is the bee that you just saw.</p>\n                    <img src=\"bees-with-color/bee-A1DF.svg\" width=\"200\">\n                    <p><br>Your bonus pay is unchanged, and remains at $0.92.</p>\n            ","response":0,"trial_type":"html-button-response","trial_index":114,"time_elapsed":505544,"internal_node_id":"0.0-4.0-1.51","subject_id":"60e228622e17c4ed597d92eb","study_id":"6197b3f67c2b5cd3b6d9596a","session_id":"619be31def96acdc0fda0d2a","condition":"contingent","relevant_dimensions":["antennae","wings"],"bee_group":{"antennae":"A","wings":"1","pattern":"X","legs":"X"},"bonus":0.9000000000000007},{"rt":954.7999999998137,"stimulus":"bees-with-color/bee-A2DM.svg","response":1,"trial_type":"image-button-response","trial_index":115,"time_elapsed":506501,"internal_node_id":"0.0-4.0-0.52","subject_id":"60e228622e17c4ed597d92eb","study_id":"6197b3f67c2b5cd3b6d9596a","session_id":"619be31def96acdc0fda0d2a","condition":"contingent","relevant_dimensions":["antennae","wings"],"bee_group":{"antennae":"A","wings":"1","pattern":"X","legs":"X"},"action":"avoid","summary":"bad-avoid","bonus":0.9000000000000007},{"rt":810.1000000005588,"stimulus":"\n                    <p><b>Action: <em>avoid</em></b></p>\n                    <p>This is the bee that you just saw.</p>\n                    <img src=\"bees-with-color/bee-A2DM.svg\" width=\"200\">\n                    <p><br>Your bonus pay is unchanged, and remains at $0.92.</p>\n            ","response":0,"trial_type":"html-button-response","trial_index":116,"time_elapsed":507313,"internal_node_id":"0.0-4.0-1.52","subject_id":"60e228622e17c4ed597d92eb","study_id":"6197b3f67c2b5cd3b6d9596a","session_id":"619be31def96acdc0fda0d2a","condition":"contingent","relevant_dimensions":["antennae","wings"],"bee_group":{"antennae":"A","wings":"1","pattern":"X","legs":"X"},"bonus":0.9000000000000007},{"rt":1027.9000000003725,"stimulus":"bees-with-color/bee-B2DM.svg","response":0,"trial_type":"image-button-response","trial_index":117,"time_elapsed":508343,"internal_node_id":"0.0-4.0-0.53","subject_id":"60e228622e17c4ed597d92eb","study_id":"6197b3f67c2b5cd3b6d9596a","session_id":"619be31def96acdc0fda0d2a","condition":"contingent","relevant_dimensions":["antennae","wings"],"bee_group":{"antennae":"A","wings":"1","pattern":"X","legs":"X"},"action":"harvest","summary":"good-harvest","bonus":0.9000000000000007},{"rt":664.5,"stimulus":"\n                    <p><b>Action: <em>harvest</em></b></p>\n                    <p>This is the bee that you just saw.</p>\n                    <img src=\"bees-with-color/bee-B2DM.svg\" width=\"200\">\n                    <p><span class=\"greenText\"><b>Successful harvest!</b></span><br>Your pay has increased by $0.02. Your bonus pay is now $0.94.</p>\n            ","response":0,"trial_type":"html-button-response","trial_index":118,"time_elapsed":509009,"internal_node_id":"0.0-4.0-1.53","subject_id":"60e228622e17c4ed597d92eb","study_id":"6197b3f67c2b5cd3b6d9596a","session_id":"619be31def96acdc0fda0d2a","condition":"contingent","relevant_dimensions":["antennae","wings"],"bee_group":{"antennae":"A","wings":"1","pattern":"X","legs":"X"},"bonus":0.9000000000000007},{"rt":1284.8999999994412,"stimulus":"bees-with-color/bee-B1DF.svg","response":0,"trial_type":"image-button-response","trial_index":119,"time_elapsed":510296,"internal_node_id":"0.0-4.0-0.54","subject_id":"60e228622e17c4ed597d92eb","study_id":"6197b3f67c2b5cd3b6d9596a","session_id":"619be31def96acdc0fda0d2a","condition":"contingent","relevant_dimensions":["antennae","wings"],"bee_group":{"antennae":"A","wings":"1","pattern":"X","legs":"X"},"action":"harvest","summary":"good-harvest","bonus":0.9000000000000007},{"rt":625.7000000001863,"stimulus":"\n                    <p><b>Action: <em>harvest</em></b></p>\n                    <p>This is the bee that you just saw.</p>\n                    <img src=\"bees-with-color/bee-B1DF.svg\" width=\"200\">\n                    <p><span class=\"greenText\"><b>Successful harvest!</b></span><br>Your pay has increased by $0.02. Your bonus pay is now $0.96.</p>\n            ","response":0,"trial_type":"html-button-response","trial_index":120,"time_elapsed":510924,"internal_node_id":"0.0-4.0-1.54","subject_id":"60e228622e17c4ed597d92eb","study_id":"6197b3f67c2b5cd3b6d9596a","session_id":"619be31def96acdc0fda0d2a","condition":"contingent","relevant_dimensions":["antennae","wings"],"bee_group":{"antennae":"A","wings":"1","pattern":"X","legs":"X"},"bonus":0.9000000000000007},{"rt":1139.6000000005588,"stimulus":"bees-with-color/bee-B2DF.svg","response":0,"trial_type":"image-button-response","trial_index":121,"time_elapsed":512065,"internal_node_id":"0.0-4.0-0.55","subject_id":"60e228622e17c4ed597d92eb","study_id":"6197b3f67c2b5cd3b6d9596a","session_id":"619be31def96acdc0fda0d2a","condition":"contingent","relevant_dimensions":["antennae","wings"],"bee_group":{"antennae":"A","wings":"1","pattern":"X","legs":"X"},"action":"harvest","summary":"good-harvest","bonus":0.9000000000000007},{"rt":712.9000000003725,"stimulus":"\n                    <p><b>Action: <em>harvest</em></b></p>\n                    <p>This is the bee that you just saw.</p>\n                    <img src=\"bees-with-color/bee-B2DF.svg\" width=\"200\">\n                    <p><span class=\"greenText\"><b>Successful harvest!</b></span><br>Your pay has increased by $0.02. Your bonus pay is now $0.98.</p>\n            ","response":0,"trial_type":"html-button-response","trial_index":122,"time_elapsed":512780,"internal_node_id":"0.0-4.0-1.55","subject_id":"60e228622e17c4ed597d92eb","study_id":"6197b3f67c2b5cd3b6d9596a","session_id":"619be31def96acdc0fda0d2a","condition":"contingent","relevant_dimensions":["antennae","wings"],"bee_group":{"antennae":"A","wings":"1","pattern":"X","legs":"X"},"bonus":0.9000000000000007},{"rt":1051.0999999996275,"stimulus":"bees-with-color/bee-A1SM.svg","response":1,"trial_type":"image-button-response","trial_index":123,"time_elapsed":513833,"internal_node_id":"0.0-4.0-0.56","subject_id":"60e228622e17c4ed597d92eb","study_id":"6197b3f67c2b5cd3b6d9596a","session_id":"619be31def96acdc0fda0d2a","condition":"contingent","relevant_dimensions":["antennae","wings"],"bee_group":{"antennae":"A","wings":"1","pattern":"X","legs":"X"},"action":"avoid","summary":"good-avoid","bonus":0.9000000000000007},{"rt":681.2000000001863,"stimulus":"\n                    <p><b>Action: <em>avoid</em></b></p>\n                    <p>This is the bee that you just saw.</p>\n                    <img src=\"bees-with-color/bee-A1SM.svg\" width=\"200\">\n                    <p><br>Your bonus pay is unchanged, and remains at $0.98.</p>\n            ","response":0,"trial_type":"html-button-response","trial_index":124,"time_elapsed":514516,"internal_node_id":"0.0-4.0-1.56","subject_id":"60e228622e17c4ed597d92eb","study_id":"6197b3f67c2b5cd3b6d9596a","session_id":"619be31def96acdc0fda0d2a","condition":"contingent","relevant_dimensions":["antennae","wings"],"bee_group":{"antennae":"A","wings":"1","pattern":"X","legs":"X"},"bonus":0.9000000000000007},{"rt":883.9000000003725,"stimulus":"bees-with-color/bee-A2SF.svg","response":1,"trial_type":"image-button-response","trial_index":125,"time_elapsed":515402,"internal_node_id":"0.0-4.0-0.57","subject_id":"60e228622e17c4ed597d92eb","study_id":"6197b3f67c2b5cd3b6d9596a","session_id":"619be31def96acdc0fda0d2a","condition":"contingent","relevant_dimensions":["antennae","wings"],"bee_group":{"antennae":"A","wings":"1","pattern":"X","legs":"X"},"action":"avoid","summary":"bad-avoid","bonus":0.9000000000000007},{"rt":688.0999999996275,"stimulus":"\n                    <p><b>Action: <em>avoid</em></b></p>\n                    <p>This is the bee that you just saw.</p>\n                    <img src=\"bees-with-color/bee-A2SF.svg\" width=\"200\">\n                    <p><br>Your bonus pay is unchanged, and remains at $0.98.</p>\n            ","response":0,"trial_type":"html-button-response","trial_index":126,"time_elapsed":516093,"internal_node_id":"0.0-4.0-1.57","subject_id":"60e228622e17c4ed597d92eb","study_id":"6197b3f67c2b5cd3b6d9596a","session_id":"619be31def96acdc0fda0d2a","condition":"contingent","relevant_dimensions":["antennae","wings"],"bee_group":{"antennae":"A","wings":"1","pattern":"X","legs":"X"},"bonus":0.9000000000000007},{"rt":882.5,"stimulus":"bees-with-color/bee-A2SM.svg","response":1,"trial_type":"image-button-response","trial_index":127,"time_elapsed":516977,"internal_node_id":"0.0-4.0-0.58","subject_id":"60e228622e17c4ed597d92eb","study_id":"6197b3f67c2b5cd3b6d9596a","session_id":"619be31def96acdc0fda0d2a","condition":"contingent","relevant_dimensions":["antennae","wings"],"bee_group":{"antennae":"A","wings":"1","pattern":"X","legs":"X"},"action":"avoid","summary":"bad-avoid","bonus":0.9000000000000007},{"rt":745.2999999998137,"stimulus":"\n                    <p><b>Action: <em>avoid</em></b></p>\n                    <p>This is the bee that you just saw.</p>\n                    <img src=\"bees-with-color/bee-A2SM.svg\" width=\"200\">\n                    <p><br>Your bonus pay is unchanged, and remains at $0.98.</p>\n            ","response":0,"trial_type":"html-button-response","trial_index":128,"time_elapsed":517725,"internal_node_id":"0.0-4.0-1.58","subject_id":"60e228622e17c4ed597d92eb","study_id":"6197b3f67c2b5cd3b6d9596a","session_id":"619be31def96acdc0fda0d2a","condition":"contingent","relevant_dimensions":["antennae","wings"],"bee_group":{"antennae":"A","wings":"1","pattern":"X","legs":"X"},"bonus":0.9000000000000007},{"rt":905.7999999998137,"stimulus":"bees-with-color/bee-B1SM.svg","response":0,"trial_type":"image-button-response","trial_index":129,"time_elapsed":518633,"internal_node_id":"0.0-4.0-0.59","subject_id":"60e228622e17c4ed597d92eb","study_id":"6197b3f67c2b5cd3b6d9596a","session_id":"619be31def96acdc0fda0d2a","condition":"contingent","relevant_dimensions":["antennae","wings"],"bee_group":{"antennae":"A","wings":"1","pattern":"X","legs":"X"},"action":"harvest","summary":"good-harvest","bonus":0.9000000000000007},{"rt":625.5999999996275,"stimulus":"\n                    <p><b>Action: <em>harvest</em></b></p>\n                    <p>This is the bee that you just saw.</p>\n                    <img src=\"bees-with-color/bee-B1SM.svg\" width=\"200\">\n                    <p><span class=\"greenText\"><b>Successful harvest!</b></span><br>Your pay has increased by $0.02. Your bonus pay is now $1.00.</p>\n            ","response":0,"trial_type":"html-button-response","trial_index":130,"time_elapsed":519260,"internal_node_id":"0.0-4.0-1.59","subject_id":"60e228622e17c4ed597d92eb","study_id":"6197b3f67c2b5cd3b6d9596a","session_id":"619be31def96acdc0fda0d2a","condition":"contingent","relevant_dimensions":["antennae","wings"],"bee_group":{"antennae":"A","wings":"1","pattern":"X","legs":"X"},"bonus":0.9000000000000007},{"rt":995.0999999996275,"stimulus":"bees-with-color/bee-A2DF.svg","response":1,"trial_type":"image-button-response","trial_index":131,"time_elapsed":520258,"internal_node_id":"0.0-4.0-0.60","subject_id":"60e228622e17c4ed597d92eb","study_id":"6197b3f67c2b5cd3b6d9596a","session_id":"619be31def96acdc0fda0d2a","condition":"contingent","relevant_dimensions":["antennae","wings"],"bee_group":{"antennae":"A","wings":"1","pattern":"X","legs":"X"},"action":"avoid","summary":"bad-avoid","bonus":0.9000000000000007},{"rt":841.8999999994412,"stimulus":"\n                    <p><b>Action: <em>avoid</em></b></p>\n                    <p>This is the bee that you just saw.</p>\n                    <img src=\"bees-with-color/bee-A2DF.svg\" width=\"200\">\n                    <p><br>Your bonus pay is unchanged, and remains at $1.00.</p>\n            ","response":0,"trial_type":"html-button-response","trial_index":132,"time_elapsed":521102,"internal_node_id":"0.0-4.0-1.60","subject_id":"60e228622e17c4ed597d92eb","study_id":"6197b3f67c2b5cd3b6d9596a","session_id":"619be31def96acdc0fda0d2a","condition":"contingent","relevant_dimensions":["antennae","wings"],"bee_group":{"antennae":"A","wings":"1","pattern":"X","legs":"X"},"bonus":0.9000000000000007},{"rt":842.3000000007451,"stimulus":"bees-with-color/bee-B1DM.svg","response":0,"trial_type":"image-button-response","trial_index":133,"time_elapsed":521946,"internal_node_id":"0.0-4.0-0.61","subject_id":"60e228622e17c4ed597d92eb","study_id":"6197b3f67c2b5cd3b6d9596a","session_id":"619be31def96acdc0fda0d2a","condition":"contingent","relevant_dimensions":["antennae","wings"],"bee_group":{"antennae":"A","wings":"1","pattern":"X","legs":"X"},"action":"harvest","summary":"good-harvest","bonus":0.9000000000000007},{"rt":658,"stimulus":"\n                    <p><b>Action: <em>harvest</em></b></p>\n                    <p>This is the bee that you just saw.</p>\n                    <img src=\"bees-with-color/bee-B1DM.svg\" width=\"200\">\n                    <p><span class=\"greenText\"><b>Successful harvest!</b></span><br>Your pay has increased by $0.02. Your bonus pay is now $1.02.</p>\n            ","response":0,"trial_type":"html-button-response","trial_index":134,"time_elapsed":522606,"internal_node_id":"0.0-4.0-1.61","subject_id":"60e228622e17c4ed597d92eb","study_id":"6197b3f67c2b5cd3b6d9596a","session_id":"619be31def96acdc0fda0d2a","condition":"contingent","relevant_dimensions":["antennae","wings"],"bee_group":{"antennae":"A","wings":"1","pattern":"X","legs":"X"},"bonus":0.9000000000000007},{"rt":4061.7999999998137,"stimulus":"bees-with-color/bee-A1SF.svg","response":1,"trial_type":"image-button-response","trial_index":135,"time_elapsed":526670,"internal_node_id":"0.0-4.0-0.62","subject_id":"60e228622e17c4ed597d92eb","study_id":"6197b3f67c2b5cd3b6d9596a","session_id":"619be31def96acdc0fda0d2a","condition":"contingent","relevant_dimensions":["antennae","wings"],"bee_group":{"antennae":"A","wings":"1","pattern":"X","legs":"X"},"action":"avoid","summary":"good-avoid","bonus":0.9000000000000007},{"rt":583.9000000003725,"stimulus":"\n                    <p><b>Action: <em>avoid</em></b></p>\n                    <p>This is the bee that you just saw.</p>\n                    <img src=\"bees-with-color/bee-A1SF.svg\" width=\"200\">\n                    <p><br>Your bonus pay is unchanged, and remains at $1.02.</p>\n            ","response":0,"trial_type":"html-button-response","trial_index":136,"time_elapsed":527257,"internal_node_id":"0.0-4.0-1.62","subject_id":"60e228622e17c4ed597d92eb","study_id":"6197b3f67c2b5cd3b6d9596a","session_id":"619be31def96acdc0fda0d2a","condition":"contingent","relevant_dimensions":["antennae","wings"],"bee_group":{"antennae":"A","wings":"1","pattern":"X","legs":"X"},"bonus":0.9000000000000007},{"rt":888.5,"stimulus":"bees-with-color/bee-B2SF.svg","response":0,"trial_type":"image-button-response","trial_index":137,"time_elapsed":528149,"internal_node_id":"0.0-4.0-0.63","subject_id":"60e228622e17c4ed597d92eb","study_id":"6197b3f67c2b5cd3b6d9596a","session_id":"619be31def96acdc0fda0d2a","condition":"contingent","relevant_dimensions":["antennae","wings"],"bee_group":{"antennae":"A","wings":"1","pattern":"X","legs":"X"},"action":"harvest","summary":"good-harvest","bonus":0.9000000000000007},{"rt":552.9000000003725,"stimulus":"\n                    <p><b>Action: <em>harvest</em></b></p>\n                    <p>This is the bee that you just saw.</p>\n                    <img src=\"bees-with-color/bee-B2SF.svg\" width=\"200\">\n                    <p><span class=\"greenText\"><b>Successful harvest!</b></span><br>Your pay has increased by $0.02. Your bonus pay is now $1.04.</p>\n            ","response":0,"trial_type":"html-button-response","trial_index":138,"time_elapsed":528706,"internal_node_id":"0.0-4.0-1.63","subject_id":"60e228622e17c4ed597d92eb","study_id":"6197b3f67c2b5cd3b6d9596a","session_id":"619be31def96acdc0fda0d2a","condition":"contingent","relevant_dimensions":["antennae","wings"],"bee_group":{"antennae":"A","wings":"1","pattern":"X","legs":"X"},"bonus":0.9000000000000007},{"rt":6020.600000000559,"stimulus":"You have completed the first part of this experiment.<br><br>You will now begin a shorter second part, in which you will receive no feedback.<br>The same rules regarding bonus pay apply.<br><br>Press any key to begin.","response":" ","trial_type":"html-keyboard-response","trial_index":139,"time_elapsed":534730,"internal_node_id":"0.0-5.0","subject_id":"60e228622e17c4ed597d92eb","study_id":"6197b3f67c2b5cd3b6d9596a","session_id":"619be31def96acdc0fda0d2a","condition":"contingent","relevant_dimensions":["antennae","wings"],"bee_group":{"antennae":"A","wings":"1","pattern":"X","legs":"X"},"bonus":0.9000000000000007},{"rt":3682.7999999998137,"stimulus":"bees-with-color/bee-B1SF.svg","response":1,"trial_type":"image-button-response","trial_index":140,"time_elapsed":538424,"internal_node_id":"0.0-6.0-0.0","subject_id":"60e228622e17c4ed597d92eb","study_id":"6197b3f67c2b5cd3b6d9596a","session_id":"619be31def96acdc0fda0d2a","condition":"contingent","relevant_dimensions":["antennae","wings"],"bee_group":{"antennae":"A","wings":"1","pattern":"X","legs":"X"},"bonus":0.9000000000000007},{"rt":19572,"stimulus":"bees-with-color/bee-A1SM.svg","response":0,"trial_type":"image-button-response","trial_index":141,"time_elapsed":558000,"internal_node_id":"0.0-6.0-0.1","subject_id":"60e228622e17c4ed597d92eb","study_id":"6197b3f67c2b5cd3b6d9596a","session_id":"619be31def96acdc0fda0d2a","condition":"contingent","relevant_dimensions":["antennae","wings"],"bee_group":{"antennae":"A","wings":"1","pattern":"X","legs":"X"},"bonus":0.9000000000000007},{"rt":1637,"stimulus":"bees-with-color/bee-B2DM.svg","response":0,"trial_type":"image-button-response","trial_index":142,"time_elapsed":559641,"internal_node_id":"0.0-6.0-0.2","subject_id":"60e228622e17c4ed597d92eb","study_id":"6197b3f67c2b5cd3b6d9596a","session_id":"619be31def96acdc0fda0d2a","condition":"contingent","relevant_dimensions":["antennae","wings"],"bee_group":{"antennae":"A","wings":"1","pattern":"X","legs":"X"},"bonus":0.9000000000000007},{"rt":1709.699999999255,"stimulus":"bees-with-color/bee-B2SM.svg","response":0,"trial_type":"image-button-response","trial_index":143,"time_elapsed":561354,"internal_node_id":"0.0-6.0-0.3","subject_id":"60e228622e17c4ed597d92eb","study_id":"6197b3f67c2b5cd3b6d9596a","session_id":"619be31def96acdc0fda0d2a","condition":"contingent","relevant_dimensions":["antennae","wings"],"bee_group":{"antennae":"A","wings":"1","pattern":"X","legs":"X"},"bonus":0.9000000000000007},{"rt":2126.7000000001863,"stimulus":"bees-with-color/bee-A2DF.svg","response":1,"trial_type":"image-button-response","trial_index":144,"time_elapsed":563483,"internal_node_id":"0.0-6.0-0.4","subject_id":"60e228622e17c4ed597d92eb","study_id":"6197b3f67c2b5cd3b6d9596a","session_id":"619be31def96acdc0fda0d2a","condition":"contingent","relevant_dimensions":["antennae","wings"],"bee_group":{"antennae":"A","wings":"1","pattern":"X","legs":"X"},"bonus":0.9000000000000007},{"rt":1662.4000000003725,"stimulus":"bees-with-color/bee-A1SF.svg","response":1,"trial_type":"image-button-response","trial_index":145,"time_elapsed":565149,"internal_node_id":"0.0-6.0-0.5","subject_id":"60e228622e17c4ed597d92eb","study_id":"6197b3f67c2b5cd3b6d9596a","session_id":"619be31def96acdc0fda0d2a","condition":"contingent","relevant_dimensions":["antennae","wings"],"bee_group":{"antennae":"A","wings":"1","pattern":"X","legs":"X"},"bonus":0.9000000000000007},{"rt":1017.2999999998137,"stimulus":"bees-with-color/bee-A2DM.svg","response":0,"trial_type":"image-button-response","trial_index":146,"time_elapsed":566169,"internal_node_id":"0.0-6.0-0.6","subject_id":"60e228622e17c4ed597d92eb","study_id":"6197b3f67c2b5cd3b6d9596a","session_id":"619be31def96acdc0fda0d2a","condition":"contingent","relevant_dimensions":["antennae","wings"],"bee_group":{"antennae":"A","wings":"1","pattern":"X","legs":"X"},"bonus":0.9000000000000007},{"rt":809.5999999996275,"stimulus":"bees-with-color/bee-A2SM.svg","response":0,"trial_type":"image-button-response","trial_index":147,"time_elapsed":566981,"internal_node_id":"0.0-6.0-0.7","subject_id":"60e228622e17c4ed597d92eb","study_id":"6197b3f67c2b5cd3b6d9596a","session_id":"619be31def96acdc0fda0d2a","condition":"contingent","relevant_dimensions":["antennae","wings"],"bee_group":{"antennae":"A","wings":"1","pattern":"X","legs":"X"},"bonus":0.9000000000000007},{"rt":616.7000000001863,"stimulus":"bees-with-color/bee-A1DM.svg","response":0,"trial_type":"image-button-response","trial_index":148,"time_elapsed":567601,"internal_node_id":"0.0-6.0-0.8","subject_id":"60e228622e17c4ed597d92eb","study_id":"6197b3f67c2b5cd3b6d9596a","session_id":"619be31def96acdc0fda0d2a","condition":"contingent","relevant_dimensions":["antennae","wings"],"bee_group":{"antennae":"A","wings":"1","pattern":"X","legs":"X"},"bonus":0.9000000000000007},{"rt":1204,"stimulus":"bees-with-color/bee-B2DF.svg","response":1,"trial_type":"image-button-response","trial_index":149,"time_elapsed":568807,"internal_node_id":"0.0-6.0-0.9","subject_id":"60e228622e17c4ed597d92eb","study_id":"6197b3f67c2b5cd3b6d9596a","session_id":"619be31def96acdc0fda0d2a","condition":"contingent","relevant_dimensions":["antennae","wings"],"bee_group":{"antennae":"A","wings":"1","pattern":"X","legs":"X"},"bonus":0.9000000000000007},{"rt":480.09999999962747,"stimulus":"bees-with-color/bee-A2SF.svg","response":1,"trial_type":"image-button-response","trial_index":150,"time_elapsed":569290,"internal_node_id":"0.0-6.0-0.10","subject_id":"60e228622e17c4ed597d92eb","study_id":"6197b3f67c2b5cd3b6d9596a","session_id":"619be31def96acdc0fda0d2a","condition":"contingent","relevant_dimensions":["antennae","wings"],"bee_group":{"antennae":"A","wings":"1","pattern":"X","legs":"X"},"bonus":0.9000000000000007},{"rt":624.6000000005588,"stimulus":"bees-with-color/bee-B1DF.svg","response":1,"trial_type":"image-button-response","trial_index":151,"time_elapsed":569917,"internal_node_id":"0.0-6.0-0.11","subject_id":"60e228622e17c4ed597d92eb","study_id":"6197b3f67c2b5cd3b6d9596a","session_id":"619be31def96acdc0fda0d2a","condition":"contingent","relevant_dimensions":["antennae","wings"],"bee_group":{"antennae":"A","wings":"1","pattern":"X","legs":"X"},"bonus":0.9000000000000007},{"rt":559.7000000001863,"stimulus":"bees-with-color/bee-A1DF.svg","response":1,"trial_type":"image-button-response","trial_index":152,"time_elapsed":570479,"internal_node_id":"0.0-6.0-0.12","subject_id":"60e228622e17c4ed597d92eb","study_id":"6197b3f67c2b5cd3b6d9596a","session_id":"619be31def96acdc0fda0d2a","condition":"contingent","relevant_dimensions":["antennae","wings"],"bee_group":{"antennae":"A","wings":"1","pattern":"X","legs":"X"},"bonus":0.9000000000000007},{"rt":480.3999999994412,"stimulus":"bees-with-color/bee-B2SF.svg","response":1,"trial_type":"image-button-response","trial_index":153,"time_elapsed":570962,"internal_node_id":"0.0-6.0-0.13","subject_id":"60e228622e17c4ed597d92eb","study_id":"6197b3f67c2b5cd3b6d9596a","session_id":"619be31def96acdc0fda0d2a","condition":"contingent","relevant_dimensions":["antennae","wings"],"bee_group":{"antennae":"A","wings":"1","pattern":"X","legs":"X"},"bonus":0.9000000000000007},{"rt":1010.2999999998137,"stimulus":"bees-with-color/bee-B1DM.svg","response":0,"trial_type":"image-button-response","trial_index":154,"time_elapsed":571974,"internal_node_id":"0.0-6.0-0.14","subject_id":"60e228622e17c4ed597d92eb","study_id":"6197b3f67c2b5cd3b6d9596a","session_id":"619be31def96acdc0fda0d2a","condition":"contingent","relevant_dimensions":["antennae","wings"],"bee_group":{"antennae":"A","wings":"1","pattern":"X","legs":"X"},"bonus":0.9000000000000007},{"rt":673.8000000007451,"stimulus":"bees-with-color/bee-B1SM.svg","response":0,"trial_type":"image-button-response","trial_index":155,"time_elapsed":572650,"internal_node_id":"0.0-6.0-0.15","subject_id":"60e228622e17c4ed597d92eb","study_id":"6197b3f67c2b5cd3b6d9596a","session_id":"619be31def96acdc0fda0d2a","condition":"contingent","relevant_dimensions":["antennae","wings"],"bee_group":{"antennae":"A","wings":"1","pattern":"X","legs":"X"},"bonus":0.9000000000000007},{"rt":899.0999999996275,"stimulus":"bees-with-color/bee-A1DF.svg","response":1,"trial_type":"image-button-response","trial_index":156,"time_elapsed":573551,"internal_node_id":"0.0-6.0-0.16","subject_id":"60e228622e17c4ed597d92eb","study_id":"6197b3f67c2b5cd3b6d9596a","session_id":"619be31def96acdc0fda0d2a","condition":"contingent","relevant_dimensions":["antennae","wings"],"bee_group":{"antennae":"A","wings":"1","pattern":"X","legs":"X"},"bonus":0.9000000000000007},{"rt":553.2000000001863,"stimulus":"bees-with-color/bee-B1DF.svg","response":1,"trial_type":"image-button-response","trial_index":157,"time_elapsed":574107,"internal_node_id":"0.0-6.0-0.17","subject_id":"60e228622e17c4ed597d92eb","study_id":"6197b3f67c2b5cd3b6d9596a","session_id":"619be31def96acdc0fda0d2a","condition":"contingent","relevant_dimensions":["antennae","wings"],"bee_group":{"antennae":"A","wings":"1","pattern":"X","legs":"X"},"bonus":0.9000000000000007},{"rt":824.8999999994412,"stimulus":"bees-with-color/bee-A2SM.svg","response":0,"trial_type":"image-button-response","trial_index":158,"time_elapsed":574934,"internal_node_id":"0.0-6.0-0.18","subject_id":"60e228622e17c4ed597d92eb","study_id":"6197b3f67c2b5cd3b6d9596a","session_id":"619be31def96acdc0fda0d2a","condition":"contingent","relevant_dimensions":["antennae","wings"],"bee_group":{"antennae":"A","wings":"1","pattern":"X","legs":"X"},"bonus":0.9000000000000007},{"rt":1251.5,"stimulus":"bees-with-color/bee-A1DM.svg","response":0,"trial_type":"image-button-response","trial_index":159,"time_elapsed":576187,"internal_node_id":"0.0-6.0-0.19","subject_id":"60e228622e17c4ed597d92eb","study_id":"6197b3f67c2b5cd3b6d9596a","session_id":"619be31def96acdc0fda0d2a","condition":"contingent","relevant_dimensions":["antennae","wings"],"bee_group":{"antennae":"A","wings":"1","pattern":"X","legs":"X"},"bonus":0.9000000000000007},{"rt":900.3999999994412,"stimulus":"bees-with-color/bee-B2SF.svg","response":1,"trial_type":"image-button-response","trial_index":160,"time_elapsed":577089,"internal_node_id":"0.0-6.0-0.20","subject_id":"60e228622e17c4ed597d92eb","study_id":"6197b3f67c2b5cd3b6d9596a","session_id":"619be31def96acdc0fda0d2a","condition":"contingent","relevant_dimensions":["antennae","wings"],"bee_group":{"antennae":"A","wings":"1","pattern":"X","legs":"X"},"bonus":0.9000000000000007},{"rt":712.4000000003725,"stimulus":"bees-with-color/bee-B1DM.svg","response":0,"trial_type":"image-button-response","trial_index":161,"time_elapsed":577804,"internal_node_id":"0.0-6.0-0.21","subject_id":"60e228622e17c4ed597d92eb","study_id":"6197b3f67c2b5cd3b6d9596a","session_id":"619be31def96acdc0fda0d2a","condition":"contingent","relevant_dimensions":["antennae","wings"],"bee_group":{"antennae":"A","wings":"1","pattern":"X","legs":"X"},"bonus":0.9000000000000007},{"rt":697.5999999996275,"stimulus":"bees-with-color/bee-B2SM.svg","response":0,"trial_type":"image-button-response","trial_index":162,"time_elapsed":578503,"internal_node_id":"0.0-6.0-0.22","subject_id":"60e228622e17c4ed597d92eb","study_id":"6197b3f67c2b5cd3b6d9596a","session_id":"6