[{"success":true,"trial_type":"fullscreen","trial_index":0,"time_elapsed":5884,"internal_node_id":"0.0-0.0","subject_id":"6092f5798557f50d14d13327","study_id":"60edd13110225f80f9f3709b","session_id":"6196ba9dbcb542ad26486479","condition":"full-information","relevant_dimensions":["wings","legs"],"bee_group":{"antennae":"X","wings":"1","pattern":"X","legs":"M"},"bonus":0.6800000000000009},{"success":true,"timeout":false,"failed_images":[],"failed_audio":[],"failed_video":[],"trial_type":"preload","trial_index":1,"time_elapsed":7968,"internal_node_id":"0.0-1.0","subject_id":"6092f5798557f50d14d13327","study_id":"60edd13110225f80f9f3709b","session_id":"6196ba9dbcb542ad26486479","condition":"full-information","relevant_dimensions":["wings","legs"],"bee_group":{"antennae":"X","wings":"1","pattern":"X","legs":"M"},"bonus":0.6800000000000009},{"rt":2556.89999999851,"stimulus":"Welcome! Press any key to begin.","response":"n","trial_type":"html-keyboard-response","trial_index":2,"time_elapsed":10527,"internal_node_id":"0.0-2.0","subject_id":"6092f5798557f50d14d13327","study_id":"60edd13110225f80f9f3709b","session_id":"6196ba9dbcb542ad26486479","condition":"full-information","relevant_dimensions":["wings","legs"],"bee_group":{"antennae":"X","wings":"1","pattern":"X","legs":"M"},"bonus":0.6800000000000009},{"view_history":[{"page_index":0,"viewing_time":3852.10000000149},{"page_index":1,"viewing_time":11197.60000000149},{"page_index":2,"viewing_time":12250},{"page_index":3,"viewing_time":18417.29999999702},{"page_index":4,"viewing_time":7080.79999999702},{"page_index":5,"viewing_time":11201.90000000596},{"page_index":6,"viewing_time":13630.09999999404},{"page_index":7,"viewing_time":6805.80000000447},{"page_index":8,"viewing_time":4498.39999999851},{"page_index":9,"viewing_time":6039.79999999702},{"page_index":10,"viewing_time":6022.20000000298},{"page_index":11,"viewing_time":8636.79999999702},{"page_index":12,"viewing_time":19101.10000000149},{"page_index":13,"viewing_time":1935.3999999985099},{"page_index":14,"viewing_time":2072.7000000029802}],"rt":132742.79999999702,"trial_type":"instructions","trial_index":3,"time_elapsed":143272,"internal_node_id":"0.0-3.0-0.0","subject_id":"6092f5798557f50d14d13327","study_id":"60edd13110225f80f9f3709b","session_id":"6196ba9dbcb542ad26486479","condition":"full-information","relevant_dimensions":["wings","legs"],"bee_group":{"antennae":"X","wings":"1","pattern":"X","legs":"M"},"bonus":0.6800000000000009},{"rt":12742.5,"response":{"Q0":["Two or six legs","Stripes or spots on body","Single or double wings","Antennae or no antennae"]},"question_order":[0],"trial_type":"survey-multi-select","trial_index":4,"time_elapsed":156024,"internal_node_id":"0.0-3.0-1.0","subject_id":"6092f5798557f50d14d13327","study_id":"60edd13110225f80f9f3709b","session_id":"6196ba9dbcb542ad26486479","condition":"full-information","relevant_dimensions":["wings","legs"],"bee_group":{"antennae":"X","wings":"1","pattern":"X","legs":"M"},"correct":true,"bonus":0.6800000000000009},{"rt":17046.69999999553,"response":{"Q1":"No.","Q2":"Based on the four features of the bee.","Q3":"You learn if it was friendly or dangerous, but do not alter your bonus."},"question_order":[0,1,2],"trial_type":"survey-multi-choice","trial_index":5,"time_elapsed":173075,"internal_node_id":"0.0-3.0-2.0","subject_id":"6092f5798557f50d14d13327","study_id":"60edd13110225f80f9f3709b","session_id":"6196ba9dbcb542ad26486479","condition":"full-information","relevant_dimensions":["wings","legs"],"bee_group":{"antennae":"X","wings":"1","pattern":"X","legs":"M"},"correct":true,"bonus":0.6800000000000009},{"rt":3602.2999999970198,"stimulus":"<p>Congrats, you got everything right<br>When you're ready, click the button below to continue to the experiment.</p>","response":0,"trial_type":"html-button-response","trial_index":6,"time_elapsed":176681,"internal_node_id":"0.0-3.0-3.0","subject_id":"6092f5798557f50d14d13327","study_id":"60edd13110225f80f9f3709b","session_id":"6196ba9dbcb542ad26486479","condition":"full-information","relevant_dimensions":["wings","legs"],"bee_group":{"antennae":"X","wings":"1","pattern":"X","legs":"M"},"bonus":0.6800000000000009},{"rt":4806.60000000149,"stimulus":"bees-with-color/bee-A2DM.svg","response":0,"trial_type":"image-button-response","trial_index":7,"time_elapsed":181767,"internal_node_id":"0.0-4.0-0.0","subject_id":"6092f5798557f50d14d13327","study_id":"60edd13110225f80f9f3709b","session_id":"6196ba9dbcb542ad26486479","condition":"full-information","relevant_dimensions":["wings","legs"],"bee_group":{"antennae":"X","wings":"1","pattern":"X","legs":"M"},"action":"harvest","summary":"good-harvest","bonus":0.6800000000000009},{"rt":11005.5,"stimulus":"\n                    <p><b>Action: <em>harvest</em></b></p>\n                    <p>This is the bee that you just saw.</p>\n                    <img src=\"bees-with-color/bee-A2DM.svg\" width=\"200\">\n                    <p><span class=\"greenText\"><b>Successful harvest!</b></span><br>Your pay has increased by $0.02. Your bonus pay is now $0.56.</p>\n            ","response":0,"trial_type":"html-button-response","trial_index":8,"time_elapsed":192779,"internal_node_id":"0.0-4.0-1.0","subject_id":"6092f5798557f50d14d13327","study_id":"60edd13110225f80f9f3709b","session_id":"6196ba9dbcb542ad26486479","condition":"full-information","relevant_dimensions":["wings","legs"],"bee_group":{"antennae":"X","wings":"1","pattern":"X","legs":"M"},"bonus":0.6800000000000009},{"rt":5468,"stimulus":"bees-with-color/bee-A1DM.svg","response":0,"trial_type":"image-button-response","trial_index":9,"time_elapsed":198251,"internal_node_id":"0.0-4.0-0.1","subject_id":"6092f5798557f50d14d13327","study_id":"60edd13110225f80f9f3709b","session_id":"6196ba9dbcb542ad26486479","condition":"full-information","relevant_dimensions":["wings","legs"],"bee_group":{"antennae":"X","wings":"1","pattern":"X","legs":"M"},"action":"harvest","summary":"bad-harvest","bonus":0.6800000000000009},{"rt":7794.79999999702,"stimulus":"\n                    <p><b>Action: <em>harvest</em></b></p>\n                    <p>This is the bee that you just saw.</p>\n                    <img src=\"bees-with-color/bee-A1DM.svg\" width=\"200\">\n                    <p><span class=\"redText\">Bad choice, the bee was angry.</span><br><b>You have been stung!</b><br>Your pay has been decreased by $0.10. Your bonus pay is now $0.46.</p>\n            ","response":0,"trial_type":"html-button-response","trial_index":10,"time_elapsed":206049,"internal_node_id":"0.0-4.0-1.1","subject_id":"6092f5798557f50d14d13327","study_id":"60edd13110225f80f9f3709b","session_id":"6196ba9dbcb542ad26486479","condition":"full-information","relevant_dimensions":["wings","legs"],"bee_group":{"antennae":"X","wings":"1","pattern":"X","legs":"M"},"bonus":0.6800000000000009},{"rt":3191.7000000029802,"stimulus":"bees-with-color/bee-B2SF.svg","response":0,"trial_type":"image-button-response","trial_index":11,"time_elapsed":209244,"internal_node_id":"0.0-4.0-0.2","subject_id":"6092f5798557f50d14d13327","study_id":"60edd13110225f80f9f3709b","session_id":"6196ba9dbcb542ad26486479","condition":"full-information","relevant_dimensions":["wings","legs"],"bee_group":{"antennae":"X","wings":"1","pattern":"X","legs":"M"},"action":"harvest","summary":"good-harvest","bonus":0.6800000000000009},{"rt":5472.60000000149,"stimulus":"\n                    <p><b>Action: <em>harvest</em></b></p>\n                    <p>This is the bee that you just saw.</p>\n                    <img src=\"bees-with-color/bee-B2SF.svg\" width=\"200\">\n                    <p><span class=\"greenText\"><b>Successful harvest!</b></span><br>Your pay has increased by $0.02. Your bonus pay is now $0.48.</p>\n            ","response":0,"trial_type":"html-button-response","trial_index":12,"time_elapsed":214719,"internal_node_id":"0.0-4.0-1.2","subject_id":"6092f5798557f50d14d13327","study_id":"60edd13110225f80f9f3709b","session_id":"6196ba9dbcb542ad26486479","condition":"full-information","relevant_dimensions":["wings","legs"],"bee_group":{"antennae":"X","wings":"1","pattern":"X","legs":"M"},"bonus":0.6800000000000009},{"rt":4864.89999999851,"stimulus":"bees-with-color/bee-A1SM.svg","response":0,"trial_type":"image-button-response","trial_index":13,"time_elapsed":219587,"internal_node_id":"0.0-4.0-0.3","subject_id":"6092f5798557f50d14d13327","study_id":"60edd13110225f80f9f3709b","session_id":"6196ba9dbcb542ad26486479","condition":"full-information","relevant_dimensions":["wings","legs"],"bee_group":{"antennae":"X","wings":"1","pattern":"X","legs":"M"},"action":"harvest","summary":"bad-harvest","bonus":0.6800000000000009},{"rt":3224.7000000029802,"stimulus":"\n                    <p><b>Action: <em>harvest</em></b></p>\n                    <p>This is the bee that you just saw.</p>\n                    <img src=\"bees-with-color/bee-A1SM.svg\" width=\"200\">\n                    <p><span class=\"redText\">Bad choice, the bee was angry.</span><br><b>You have been stung!</b><br>Your pay has been decreased by $0.10. Your bonus pay is now $0.38.</p>\n            ","response":0,"trial_type":"html-button-response","trial_index":14,"time_elapsed":222815,"internal_node_id":"0.0-4.0-1.3","subject_id":"6092f5798557f50d14d13327","study_id":"60edd13110225f80f9f3709b","session_id":"6196ba9dbcb542ad26486479","condition":"full-information","relevant_dimensions":["wings","legs"],"bee_group":{"antennae":"X","wings":"1","pattern":"X","legs":"M"},"bonus":0.6800000000000009},{"rt":5039,"stimulus":"bees-with-color/bee-B2DF.svg","response":1,"trial_type":"image-button-response","trial_index":15,"time_elapsed":227858,"internal_node_id":"0.0-4.0-0.4","subject_id":"6092f5798557f50d14d13327","study_id":"60edd13110225f80f9f3709b","session_id":"6196ba9dbcb542ad26486479","condition":"full-information","relevant_dimensions":["wings","legs"],"bee_group":{"antennae":"X","wings":"1","pattern":"X","legs":"M"},"action":"avoid","summary":"bad-avoid","bonus":0.6800000000000009},{"rt":3306.8000000044703,"stimulus":"\n                    <p><b>Action: <em>avoid</em></b></p>\n                    <p>This is the bee that you just saw.</p>\n                    <img src=\"bees-with-color/bee-B2DF.svg\" width=\"200\">\n                    <p><span class=\"redText\">Bad choice,</span> the bee was friendly.<br>Your bonus pay is unchanged, and remains at $0.38.</p>\n            ","response":0,"trial_type":"html-button-response","trial_index":16,"time_elapsed":231167,"internal_node_id":"0.0-4.0-1.4","subject_id":"6092f5798557f50d14d13327","study_id":"60edd13110225f80f9f3709b","session_id":"6196ba9dbcb542ad26486479","condition":"full-information","relevant_dimensions":["wings","legs"],"bee_group":{"antennae":"X","wings":"1","pattern":"X","legs":"M"},"bonus":0.6800000000000009},{"rt":4764.70000000298,"stimulus":"bees-with-color/bee-A2DF.svg","response":0,"trial_type":"image-button-response","trial_index":17,"time_elapsed":235935,"internal_node_id":"0.0-4.0-0.5","subject_id":"6092f5798557f50d14d13327","study_id":"60edd13110225f80f9f3709b","session_id":"6196ba9dbcb542ad26486479","condition":"full-information","relevant_dimensions":["wings","legs"],"bee_group":{"antennae":"X","wings":"1","pattern":"X","legs":"M"},"action":"harvest","summary":"good-harvest","bonus":0.6800000000000009},{"rt":3964.6999999955297,"stimulus":"\n                    <p><b>Action: <em>harvest</em></b></p>\n                    <p>This is the bee that you just saw.</p>\n                    <img src=\"bees-with-color/bee-A2DF.svg\" width=\"200\">\n                    <p><span class=\"greenText\"><b>Successful harvest!</b></span><br>Your pay has increased by $0.02. Your bonus pay is now $0.40.</p>\n            ","response":0,"trial_type":"html-button-response","trial_index":18,"time_elapsed":239903,"internal_node_id":"0.0-4.0-1.5","subject_id":"6092f5798557f50d14d13327","study_id":"60edd13110225f80f9f3709b","session_id":"6196ba9dbcb542ad26486479","condition":"full-information","relevant_dimensions":["wings","legs"],"bee_group":{"antennae":"X","wings":"1","pattern":"X","legs":"M"},"bonus":0.6800000000000009},{"rt":3577.2000000029802,"stimulus":"bees-with-color/bee-A1DF.svg","response":1,"trial_type":"image-button-response","trial_index":19,"time_elapsed":243483,"internal_node_id":"0.0-4.0-0.6","subject_id":"6092f5798557f50d14d13327","study_id":"60edd13110225f80f9f3709b","session_id":"6196ba9dbcb542ad26486479","condition":"full-information","relevant_dimensions":["wings","legs"],"bee_group":{"antennae":"X","wings":"1","pattern":"X","legs":"M"},"action":"avoid","summary":"bad-avoid","bonus":0.6800000000000009},{"rt":2644.0999999940395,"stimulus":"\n                    <p><b>Action: <em>avoid</em></b></p>\n                    <p>This is the bee that you just saw.</p>\n                    <img src=\"bees-with-color/bee-A1DF.svg\" width=\"200\">\n                    <p><span class=\"redText\">Bad choice,</span> the bee was friendly.<br>Your bonus pay is unchanged, and remains at $0.40.</p>\n            ","response":0,"trial_type":"html-button-response","trial_index":20,"time_elapsed":246130,"internal_node_id":"0.0-4.0-1.6","subject_id":"6092f5798557f50d14d13327","study_id":"60edd13110225f80f9f3709b","session_id":"6196ba9dbcb542ad26486479","condition":"full-information","relevant_dimensions":["wings","legs"],"bee_group":{"antennae":"X","wings":"1","pattern":"X","legs":"M"},"bonus":0.6800000000000009},{"rt":3432.7999999970198,"stimulus":"bees-with-color/bee-B1DF.svg","response":0,"trial_type":"image-button-response","trial_index":21,"time_elapsed":249566,"internal_node_id":"0.0-4.0-0.7","subject_id":"6092f5798557f50d14d13327","study_id":"60edd13110225f80f9f3709b","session_id":"6196ba9dbcb542ad26486479","condition":"full-information","relevant_dimensions":["wings","legs"],"bee_group":{"antennae":"X","wings":"1","pattern":"X","legs":"M"},"action":"harvest","summary":"good-harvest","bonus":0.6800000000000009},{"rt":4529.0999999940395,"stimulus":"\n                    <p><b>Action: <em>harvest</em></b></p>\n                    <p>This is the bee that you just saw.</p>\n                    <img src=\"bees-with-color/bee-B1DF.svg\" width=\"200\">\n                    <p><span class=\"greenText\"><b>Successful harvest!</b></span><br>Your pay has increased by $0.02. Your bonus pay is now $0.42.</p>\n            ","response":0,"trial_type":"html-button-response","trial_index":22,"time_elapsed":254098,"internal_node_id":"0.0-4.0-1.7","subject_id":"6092f5798557f50d14d13327","study_id":"60edd13110225f80f9f3709b","session_id":"6196ba9dbcb542ad26486479","condition":"full-information","relevant_dimensions":["wings","legs"],"bee_group":{"antennae":"X","wings":"1","pattern":"X","legs":"M"},"bonus":0.6800000000000009},{"rt":2218.4000000059605,"stimulus":"bees-with-color/bee-B1SM.svg","response":0,"trial_type":"image-button-response","trial_index":23,"time_elapsed":256320,"internal_node_id":"0.0-4.0-0.8","subject_id":"6092f5798557f50d14d13327","study_id":"60edd13110225f80f9f3709b","session_id":"6196ba9dbcb542ad26486479","condition":"full-information","relevant_dimensions":["wings","legs"],"bee_group":{"antennae":"X","wings":"1","pattern":"X","legs":"M"},"action":"harvest","summary":"bad-harvest","bonus":0.6800000000000009},{"rt":4343.10000000149,"stimulus":"\n                    <p><b>Action: <em>harvest</em></b></p>\n                    <p>This is the bee that you just saw.</p>\n                    <img src=\"bees-with-color/bee-B1SM.svg\" width=\"200\">\n                    <p><span class=\"redText\">Bad choice, the bee was angry.</span><br><b>You have been stung!</b><br>Your pay has been decreased by $0.10. Your bonus pay is now $0.32.</p>\n            ","response":0,"trial_type":"html-button-response","trial_index":24,"time_elapsed":260666,"internal_node_id":"0.0-4.0-1.8","subject_id":"6092f5798557f50d14d13327","study_id":"60edd13110225f80f9f3709b","session_id":"6196ba9dbcb542ad26486479","condition":"full-information","relevant_dimensions":["wings","legs"],"bee_group":{"antennae":"X","wings":"1","pattern":"X","legs":"M"},"bonus":0.6800000000000009},{"rt":3816.7000000029802,"stimulus":"bees-with-color/bee-A2SF.svg","response":0,"trial_type":"image-button-response","trial_index":25,"time_elapsed":264486,"internal_node_id":"0.0-4.0-0.9","subject_id":"6092f5798557f50d14d13327","study_id":"60edd13110225f80f9f3709b","session_id":"6196ba9dbcb542ad26486479","condition":"full-information","relevant_dimensions":["wings","legs"],"bee_group":{"antennae":"X","wings":"1","pattern":"X","legs":"M"},"action":"harvest","summary":"good-harvest","bonus":0.6800000000000009},{"rt":2803.2999999970198,"stimulus":"\n                    <p><b>Action: <em>harvest</em></b></p>\n                    <p>This is the bee that you just saw.</p>\n                    <img src=\"bees-with-color/bee-A2SF.svg\" width=\"200\">\n                    <p><span class=\"greenText\"><b>Successful harvest!</b></span><br>Your pay has increased by $0.02. Your bonus pay is now $0.34.</p>\n            ","response":0,"trial_type":"html-button-response","trial_index":26,"time_elapsed":267292,"internal_node_id":"0.0-4.0-1.9","subject_id":"6092f5798557f50d14d13327","study_id":"60edd13110225f80f9f3709b","session_id":"6196ba9dbcb542ad26486479","condition":"full-information","relevant_dimensions":["wings","legs"],"bee_group":{"antennae":"X","wings":"1","pattern":"X","legs":"M"},"bonus":0.6800000000000009},{"rt":2213.2000000029802,"stimulus":"bees-with-color/bee-A2SM.svg","response":1,"trial_type":"image-button-response","trial_index":27,"time_elapsed":269507,"internal_node_id":"0.0-4.0-0.10","subject_id":"6092f5798557f50d14d13327","study_id":"60edd13110225f80f9f3709b","session_id":"6196ba9dbcb542ad26486479","condition":"full-information","relevant_dimensions":["wings","legs"],"bee_group":{"antennae":"X","wings":"1","pattern":"X","legs":"M"},"action":"avoid","summary":"bad-avoid","bonus":0.6800000000000009},{"rt":3390.10000000149,"stimulus":"\n                    <p><b>Action: <em>avoid</em></b></p>\n                    <p>This is the bee that you just saw.</p>\n                    <img src=\"bees-with-color/bee-A2SM.svg\" width=\"200\">\n                    <p><span class=\"redText\">Bad choice,</span> the bee was friendly.<br>Your bonus pay is unchanged, and remains at $0.34.</p>\n            ","response":0,"trial_type":"html-button-response","trial_index":28,"time_elapsed":272900,"internal_node_id":"0.0-4.0-1.10","subject_id":"6092f5798557f50d14d13327","study_id":"60edd13110225f80f9f3709b","session_id":"6196ba9dbcb542ad26486479","condition":"full-information","relevant_dimensions":["wings","legs"],"bee_group":{"antennae":"X","wings":"1","pattern":"X","legs":"M"},"bonus":0.6800000000000009},{"rt":2744.8000000044703,"stimulus":"bees-with-color/bee-B1SF.svg","response":0,"trial_type":"image-button-response","trial_index":29,"time_elapsed":275648,"internal_node_id":"0.0-4.0-0.11","subject_id":"6092f5798557f50d14d13327","study_id":"60edd13110225f80f9f3709b","session_id":"6196ba9dbcb542ad26486479","condition":"full-information","relevant_dimensions":["wings","legs"],"bee_group":{"antennae":"X","wings":"1","pattern":"X","legs":"M"},"action":"harvest","summary":"good-harvest","bonus":0.6800000000000009},{"rt":5327.60000000149,"stimulus":"\n                    <p><b>Action: <em>harvest</em></b></p>\n                    <p>This is the bee that you just saw.</p>\n                    <img src=\"bees-with-color/bee-B1SF.svg\" width=\"200\">\n                    <p><span class=\"greenText\"><b>Successful harvest!</b></span><br>Your pay has increased by $0.02. Your bonus pay is now $0.36.</p>\n            ","response":0,"trial_type":"html-button-response","trial_index":30,"time_elapsed":280978,"internal_node_id":"0.0-4.0-1.11","subject_id":"6092f5798557f50d14d13327","study_id":"60edd13110225f80f9f3709b","session_id":"6196ba9dbcb542ad26486479","condition":"full-information","relevant_dimensions":["wings","legs"],"bee_group":{"antennae":"X","wings":"1","pattern":"X","legs":"M"},"bonus":0.6800000000000009},{"rt":4922.5999999940395,"stimulus":"bees-with-color/bee-B2DM.svg","response":1,"trial_type":"image-button-response","trial_index":31,"time_elapsed":285904,"internal_node_id":"0.0-4.0-0.12","subject_id":"6092f5798557f50d14d13327","study_id":"60edd13110225f80f9f3709b","session_id":"6196ba9dbcb542ad26486479","condition":"full-information","relevant_dimensions":["wings","legs"],"bee_group":{"antennae":"X","wings":"1","pattern":"X","legs":"M"},"action":"avoid","summary":"bad-avoid","bonus":0.6800000000000009},{"rt":2077.10000000149,"stimulus":"\n                    <p><b>Action: <em>avoid</em></b></p>\n                    <p>This is the bee that you just saw.</p>\n                    <img src=\"bees-with-color/bee-B2DM.svg\" width=\"200\">\n                    <p><span class=\"redText\">Bad choice,</span> the bee was friendly.<br>Your bonus pay is unchanged, and remains at $0.36.</p>\n            ","response":0,"trial_type":"html-button-response","trial_index":32,"time_elapsed":287984,"internal_node_id":"0.0-4.0-1.12","subject_id":"6092f5798557f50d14d13327","study_id":"60edd13110225f80f9f3709b","session_id":"6196ba9dbcb542ad26486479","condition":"full-information","relevant_dimensions":["wings","legs"],"bee_group":{"antennae":"X","wings":"1","pattern":"X","legs":"M"},"bonus":0.6800000000000009},{"rt":2230.7000000029802,"stimulus":"bees-with-color/bee-B2SM.svg","response":0,"trial_type":"image-button-response","trial_index":33,"time_elapsed":290218,"internal_node_id":"0.0-4.0-0.13","subject_id":"6092f5798557f50d14d13327","study_id":"60edd13110225f80f9f3709b","session_id":"6196ba9dbcb542ad26486479","condition":"full-information","relevant_dimensions":["wings","legs"],"bee_group":{"antennae":"X","wings":"1","pattern":"X","legs":"M"},"action":"harvest","summary":"good-harvest","bonus":0.6800000000000009},{"rt":4613.19999999553,"stimulus":"\n                    <p><b>Action: <em>harvest</em></b></p>\n                    <p>This is the bee that you just saw.</p>\n                    <img src=\"bees-with-color/bee-B2SM.svg\" width=\"200\">\n                    <p><span class=\"greenText\"><b>Successful harvest!</b></span><br>Your pay has increased by $0.02. Your bonus pay is now $0.38.</p>\n            ","response":0,"trial_type":"html-button-response","trial_index":34,"time_elapsed":294834,"internal_node_id":"0.0-4.0-1.13","subject_id":"6092f5798557f50d14d13327","study_id":"60edd13110225f80f9f3709b","session_id":"6196ba9dbcb542ad26486479","condition":"full-information","relevant_dimensions":["wings","legs"],"bee_group":{"antennae":"X","wings":"1","pattern":"X","legs":"M"},"bonus":0.6800000000000009},{"rt":2388.89999999851,"stimulus":"bees-with-color/bee-B1DM.svg","response":1,"trial_type":"image-button-response","trial_index":35,"time_elapsed":297227,"internal_node_id":"0.0-4.0-0.14","subject_id":"6092f5798557f50d14d13327","study_id":"60edd13110225f80f9f3709b","session_id":"6196ba9dbcb542ad26486479","condition":"full-information","relevant_dimensions":["wings","legs"],"bee_group":{"antennae":"X","wings":"1","pattern":"X","legs":"M"},"action":"avoid","summary":"good-avoid","bonus":0.6800000000000009},{"rt":3360.5999999940395,"stimulus":"\n                    <p><b>Action: <em>avoid</em></b></p>\n                    <p>This is the bee that you just saw.</p>\n                    <img src=\"bees-with-color/bee-B1DM.svg\" width=\"200\">\n                    <p><span class=\"greenText\">Good choice!</span>  This bee would have stung you.<br>Your bonus pay is unchanged, and remains at $0.38.</p>\n            ","response":0,"trial_type":"html-button-response","trial_index":36,"time_elapsed":300590,"internal_node_id":"0.0-4.0-1.14","subject_id":"6092f5798557f50d14d13327","study_id":"60edd13110225f80f9f3709b","session_id":"6196ba9dbcb542ad26486479","condition":"full-information","relevant_dimensions":["wings","legs"],"bee_group":{"antennae":"X","wings":"1","pattern":"X","legs":"M"},"bonus":0.6800000000000009},{"rt":3175.8000000044703,"stimulus":"bees-with-color/bee-A1SF.svg","response":0,"trial_type":"image-button-response","trial_index":37,"time_elapsed":303769,"internal_node_id":"0.0-4.0-0.15","subject_id":"6092f5798557f50d14d13327","study_id":"60edd13110225f80f9f3709b","session_id":"6196ba9dbcb542ad26486479","condition":"full-information","relevant_dimensions":["wings","legs"],"bee_group":{"antennae":"X","wings":"1","pattern":"X","legs":"M"},"action":"harvest","summary":"good-harvest","bonus":0.6800000000000009},{"rt":3195.3000000044703,"stimulus":"\n                    <p><b>Action: <em>harvest</em></b></p>\n                    <p>This is the bee that you just saw.</p>\n                    <img src=\"bees-with-color/bee-A1SF.svg\" width=\"200\">\n                    <p><span class=\"greenText\"><b>Successful harvest!</b></span><br>Your pay has increased by $0.02. Your bonus pay is now $0.40.</p>\n            ","response":0,"trial_type":"html-button-response","trial_index":38,"time_elapsed":306967,"internal_node_id":"0.0-4.0-1.15","subject_id":"6092f5798557f50d14d13327","study_id":"60edd13110225f80f9f3709b","session_id":"6196ba9dbcb542ad26486479","condition":"full-information","relevant_dimensions":["wings","legs"],"bee_group":{"antennae":"X","wings":"1","pattern":"X","legs":"M"},"bonus":0.6800000000000009},{"rt":3814.39999999851,"stimulus":"bees-with-color/bee-B1DM.svg","response":1,"trial_type":"image-button-response","trial_index":39,"time_elapsed":310785,"internal_node_id":"0.0-4.0-0.16","subject_id":"6092f5798557f50d14d13327","study_id":"60edd13110225f80f9f3709b","session_id":"6196ba9dbcb542ad26486479","condition":"full-information","relevant_dimensions":["wings","legs"],"bee_group":{"antennae":"X","wings":"1","pattern":"X","legs":"M"},"action":"avoid","summary":"good-avoid","bonus":0.6800000000000009},{"rt":3405,"stimulus":"\n                    <p><b>Action: <em>avoid</em></b></p>\n                    <p>This is the bee that you just saw.</p>\n                    <img src=\"bees-with-color/bee-B1DM.svg\" width=\"200\">\n                    <p><span class=\"greenText\">Good choice!</span>  This bee would have stung you.<br>Your bonus pay is unchanged, and remains at $0.40.</p>\n            ","response":0,"trial_type":"html-button-response","trial_index":40,"time_elapsed":314193,"internal_node_id":"0.0-4.0-1.16","subject_id":"6092f5798557f50d14d13327","study_id":"60edd13110225f80f9f3709b","session_id":"6196ba9dbcb542ad26486479","condition":"full-information","relevant_dimensions":["wings","legs"],"bee_group":{"antennae":"X","wings":"1","pattern":"X","legs":"M"},"bonus":0.6800000000000009},{"rt":2874.10000000149,"stimulus":"bees-with-color/bee-A2SF.svg","response":0,"trial_type":"image-button-response","trial_index":41,"time_elapsed":317070,"internal_node_id":"0.0-4.0-0.17","subject_id":"6092f5798557f50d14d13327","study_id":"60edd13110225f80f9f3709b","session_id":"6196ba9dbcb542ad26486479","condition":"full-information","relevant_dimensions":["wings","legs"],"bee_group":{"antennae":"X","wings":"1","pattern":"X","legs":"M"},"action":"harvest","summary":"good-harvest","bonus":0.6800000000000009},{"rt":3864.3000000044703,"stimulus":"\n                    <p><b>Action: <em>harvest</em></b></p>\n                    <p>This is the bee that you just saw.</p>\n                    <img src=\"bees-with-color/bee-A2SF.svg\" width=\"200\">\n                    <p><span class=\"greenText\"><b>Successful harvest!</b></span><br>Your pay has increased by $0.02. Your bonus pay is now $0.42.</p>\n            ","response":0,"trial_type":"html-button-response","trial_index":42,"time_elapsed":320937,"internal_node_id":"0.0-4.0-1.17","subject_id":"6092f5798557f50d14d13327","study_id":"60edd13110225f80f9f3709b","session_id":"6196ba9dbcb542ad26486479","condition":"full-information","relevant_dimensions":["wings","legs"],"bee_group":{"antennae":"X","wings":"1","pattern":"X","legs":"M"},"bonus":0.6800000000000009},{"rt":3257.10000000149,"stimulus":"bees-with-color/bee-B2DF.svg","response":0,"trial_type":"image-button-response","trial_index":43,"time_elapsed":324197,"internal_node_id":"0.0-4.0-0.18","subject_id":"6092f5798557f50d14d13327","study_id":"60edd13110225f80f9f3709b","session_id":"6196ba9dbcb542ad26486479","condition":"full-information","relevant_dimensions":["wings","legs"],"bee_group":{"antennae":"X","wings":"1","pattern":"X","legs":"M"},"action":"harvest","summary":"good-harvest","bonus":0.6800000000000009},{"rt":3999.1999999955297,"stimulus":"\n                    <p><b>Action: <em>harvest</em></b></p>\n                    <p>This is the bee that you just saw.</p>\n                    <img src=\"bees-with-color/bee-B2DF.svg\" width=\"200\">\n                    <p><span class=\"greenText\"><b>Successful harvest!</b></span><br>Your pay has increased by $0.02. Your bonus pay is now $0.44.</p>\n            ","response":0,"trial_type":"html-button-response","trial_index":44,"time_elapsed":328199,"internal_node_id":"0.0-4.0-1.18","subject_id":"6092f5798557f50d14d13327","study_id":"60edd13110225f80f9f3709b","session_id":"6196ba9dbcb542ad26486479","condition":"full-information","relevant_dimensions":["wings","legs"],"bee_group":{"antennae":"X","wings":"1","pattern":"X","legs":"M"},"bonus":0.6800000000000009},{"rt":4970.60000000149,"stimulus":"bees-with-color/bee-B2DM.svg","response":0,"trial_type":"image-button-response","trial_index":45,"time_elapsed":333173,"internal_node_id":"0.0-4.0-0.19","subject_id":"6092f5798557f50d14d13327","study_id":"60edd13110225f80f9f3709b","session_id":"6196ba9dbcb542ad26486479","condition":"full-information","relevant_dimensions":["wings","legs"],"bee_group":{"antennae":"X","wings":"1","pattern":"X","legs":"M"},"action":"harvest","summary":"good-harvest","bonus":0.6800000000000009},{"rt":2453.2999999970198,"stimulus":"\n                    <p><b>Action: <em>harvest</em></b></p>\n                    <p>This is the bee that you just saw.</p>\n                    <img src=\"bees-with-color/bee-B2DM.svg\" width=\"200\">\n                    <p><span class=\"greenText\"><b>Successful harvest!</b></span><br>Your pay has increased by $0.02. Your bonus pay is now $0.46.</p>\n            ","response":0,"trial_type":"html-button-response","trial_index":46,"time_elapsed":335629,"internal_node_id":"0.0-4.0-1.19","subject_id":"6092f5798557f50d14d13327","study_id":"60edd13110225f80f9f3709b","session_id":"6196ba9dbcb542ad26486479","condition":"full-information","relevant_dimensions":["wings","legs"],"bee_group":{"antennae":"X","wings":"1","pattern":"X","legs":"M"},"bonus":0.6800000000000009},{"rt":2596.39999999851,"stimulus":"bees-with-color/bee-B1SM.svg","response":1,"trial_type":"image-button-response","trial_index":47,"time_elapsed":338228,"internal_node_id":"0.0-4.0-0.20","subject_id":"6092f5798557f50d14d13327","study_id":"60edd13110225f80f9f3709b","session_id":"6196ba9dbcb542ad26486479","condition":"full-information","relevant_dimensions":["wings","legs"],"bee_group":{"antennae":"X","wings":"1","pattern":"X","legs":"M"},"action":"avoid","summary":"good-avoid","bonus":0.6800000000000009},{"rt":3157.7000000029802,"stimulus":"\n                    <p><b>Action: <em>avoid</em></b></p>\n                    <p>This is the bee that you just saw.</p>\n                    <img src=\"bees-with-color/bee-B1SM.svg\" width=\"200\">\n                    <p><span class=\"greenText\">Good choice!</span>  This bee would have stung you.<br>Your bonus pay is unchanged, and remains at $0.46.</p>\n            ","response":0,"trial_type":"html-button-response","trial_index":48,"time_elapsed":341389,"internal_node_id":"0.0-4.0-1.20","subject_id":"6092f5798557f50d14d13327","study_id":"60edd13110225f80f9f3709b","session_id":"6196ba9dbcb542ad26486479","condition":"full-information","relevant_dimensions":["wings","legs"],"bee_group":{"antennae":"X","wings":"1","pattern":"X","legs":"M"},"bonus":0.6800000000000009},{"rt":3814.8000000044703,"stimulus":"bees-with-color/bee-A1SF.svg","response":0,"trial_type":"image-button-response","trial_index":49,"time_elapsed":345207,"internal_node_id":"0.0-4.0-0.21","subject_id":"6092f5798557f50d14d13327","study_id":"60edd13110225f80f9f3709b","session_id":"6196ba9dbcb542ad26486479","condition":"full-information","relevant_dimensions":["wings","legs"],"bee_group":{"antennae":"X","wings":"1","pattern":"X","legs":"M"},"action":"harvest","summary":"good-harvest","bonus":0.6800000000000009},{"rt":4541.39999999851,"stimulus":"\n                    <p><b>Action: <em>harvest</em></b></p>\n                    <p>This is the bee that you just saw.</p>\n                    <img src=\"bees-with-color/bee-A1SF.svg\" width=\"200\">\n                    <p><span class=\"greenText\"><b>Successful harvest!</b></span><br>Your pay has increased by $0.02. Your bonus pay is now $0.48.</p>\n            ","response":0,"trial_type":"html-button-response","trial_index":50,"time_elapsed":349751,"internal_node_id":"0.0-4.0-1.21","subject_id":"6092f5798557f50d14d13327","study_id":"60edd13110225f80f9f3709b","session_id":"6196ba9dbcb542ad26486479","condition":"full-information","relevant_dimensions":["wings","legs"],"bee_group":{"antennae":"X","wings":"1","pattern":"X","legs":"M"},"bonus":0.6800000000000009},{"rt":3538.7000000029802,"stimulus":"bees-with-color/bee-B2SM.svg","response":1,"trial_type":"image-button-response","trial_index":51,"time_elapsed":353293,"internal_node_id":"0.0-4.0-0.22","subject_id":"6092f5798557f50d14d13327","study_id":"60edd13110225f80f9f3709b","session_id":"6196ba9dbcb542ad26486479","condition":"full-information","relevant_dimensions":["wings","legs"],"bee_group":{"antennae":"X","wings":"1","pattern":"X","legs":"M"},"action":"avoid","summary":"bad-avoid","bonus":0.6800000000000009},{"rt":2035.3000000044703,"stimulus":"\n                    <p><b>Action: <em>avoid</em></b></p>\n                    <p>This is the bee that you just saw.</p>\n                    <img src=\"bees-with-color/bee-B2SM.svg\" width=\"200\">\n                    <p><span class=\"redText\">Bad choice,</span> the bee was friendly.<br>Your bonus pay is unchanged, and remains at $0.48.</p>\n            ","response":0,"trial_type":"html-button-response","trial_index":52,"time_elapsed":355331,"internal_node_id":"0.0-4.0-1.22","subject_id":"6092f5798557f50d14d13327","study_id":"60edd13110225f80f9f3709b","session_id":"6196ba9dbcb542ad26486479","condition":"full-information","relevant_dimensions":["wings","legs"],"bee_group":{"antennae":"X","wings":"1","pattern":"X","legs":"M"},"bonus":0.6800000000000009},{"rt":6210.69999999553,"stimulus":"bees-with-color/bee-A2SM.svg","response":1,"trial_type":"image-button-response","trial_index":53,"time_elapsed":361545,"internal_node_id":"0.0-4.0-0.23","subject_id":"6092f5798557f50d14d13327","study_id":"60edd13110225f80f9f3709b","session_id":"6196ba9dbcb542ad26486479","condition":"full-information","relevant_dimensions":["wings","legs"],"bee_group":{"antennae":"X","wings":"1","pattern":"X","legs":"M"},"action":"avoid","summary":"bad-avoid","bonus":0.6800000000000009},{"rt":1859.2000000029802,"stimulus":"\n                    <p><b>Action: <em>avoid</em></b></p>\n                    <p>This is the bee that you just saw.</p>\n                    <img src=\"bees-with-color/bee-A2SM.svg\" width=\"200\">\n                    <p><span class=\"redText\">Bad choice,</span> the bee was friendly.<br>Your bonus pay is unchanged, and remains at $0.48.</p>\n            ","response":0,"trial_type":"html-button-response","trial_index":54,"time_elapsed":363407,"internal_node_id":"0.0-4.0-1.23","subject_id":"6092f5798557f50d14d13327","study_id":"60edd13110225f80f9f3709b","session_id":"6196ba9dbcb542ad26486479","condition":"full-information","relevant_dimensions":["wings","legs"],"bee_group":{"antennae":"X","wings":"1","pattern":"X","legs":"M"},"bonus":0.6800000000000009},{"rt":3298.60000000149,"stimulus":"bees-with-color/bee-A1DF.svg","response":0,"trial_type":"image-button-response","trial_index":55,"time_elapsed":366709,"internal_node_id":"0.0-4.0-0.24","subject_id":"6092f5798557f50d14d13327","study_id":"60edd13110225f80f9f3709b","session_id":"6196ba9dbcb542ad26486479","condition":"full-information","relevant_dimensions":["wings","legs"],"bee_group":{"antennae":"X","wings":"1","pattern":"X","legs":"M"},"action":"harvest","summary":"good-harvest","bonus":0.6800000000000009},{"rt":4989.5,"stimulus":"\n                    <p><b>Action: <em>harvest</em></b></p>\n                    <p>This is the bee that you just saw.</p>\n                    <img src=\"bees-with-color/bee-A1DF.svg\" width=\"200\">\n                    <p><span class=\"greenText\"><b>Successful harvest!</b></span><br>Your pay has increased by $0.02. Your bonus pay is now $0.50.</p>\n            ","response":0,"trial_type":"html-button-response","trial_index":56,"time_elapsed":371702,"internal_node_id":"0.0-4.0-1.24","subject_id":"6092f5798557f50d14d13327","study_id":"60edd13110225f80f9f3709b","session_id":"6196ba9dbcb542ad26486479","condition":"full-information","relevant_dimensions":["wings","legs"],"bee_group":{"antennae":"X","wings":"1","pattern":"X","legs":"M"},"bonus":0.6800000000000009},{"rt":4268.20000000298,"stimulus":"bees-with-color/bee-A1DM.svg","response":0,"trial_type":"image-button-response","trial_index":57,"time_elapsed":375973,"internal_node_id":"0.0-4.0-0.25","subject_id":"6092f5798557f50d14d13327","study_id":"60edd13110225f80f9f3709b","session_id":"6196ba9dbcb542ad26486479","condition":"full-information","relevant_dimensions":["wings","legs"],"bee_group":{"antennae":"X","wings":"1","pattern":"X","legs":"M"},"action":"harvest","summary":"bad-harvest","bonus":0.6800000000000009},{"rt":3151.7000000029802,"stimulus":"\n                    <p><b>Action: <em>harvest</em></b></p>\n                    <p>This is the bee that you just saw.</p>\n                    <img src=\"bees-with-color/bee-A1DM.svg\" width=\"200\">\n                    <p><span class=\"redText\">Bad choice, the bee was angry.</span><br><b>You have been stung!</b><br>Your pay has been decreased by $0.10. Your bonus pay is now $0.40.</p>\n            ","response":0,"trial_type":"html-button-response","trial_index":58,"time_elapsed":379128,"internal_node_id":"0.0-4.0-1.25","subject_id":"6092f5798557f50d14d13327","study_id":"60edd13110225f80f9f3709b","session_id":"6196ba9dbcb542ad26486479","condition":"full-information","relevant_dimensions":["wings","legs"],"bee_group":{"antennae":"X","wings":"1","pattern":"X","legs":"M"},"bonus":0.6800000000000009},{"rt":2012.2999999970198,"stimulus":"bees-with-color/bee-B1DF.svg","response":0,"trial_type":"image-button-response","trial_index":59,"time_elapsed":381144,"internal_node_id":"0.0-4.0-0.26","subject_id":"6092f5798557f50d14d13327","study_id":"60edd13110225f80f9f3709b","session_id":"6196ba9dbcb542ad26486479","condition":"full-information","relevant_dimensions":["wings","legs"],"bee_group":{"antennae":"X","wings":"1","pattern":"X","legs":"M"},"action":"harvest","summary":"good-harvest","bonus":0.6800000000000009},{"rt":2087.5,"stimulus":"\n                    <p><b>Action: <em>harvest</em></b></p>\n                    <p>This is the bee that you just saw.</p>\n                    <img src=\"bees-with-color/bee-B1DF.svg\" width=\"200\">\n                    <p><span class=\"greenText\"><b>Successful harvest!</b></span><br>Your pay has increased by $0.02. Your bonus pay is now $0.42.</p>\n            ","response":0,"trial_type":"html-button-response","trial_index":60,"time_elapsed":383234,"internal_node_id":"0.0-4.0-1.26","subject_id":"6092f5798557f50d14d13327","study_id":"60edd13110225f80f9f3709b","session_id":"6196ba9dbcb542ad26486479","condition":"full-information","relevant_dimensions":["wings","legs"],"bee_group":{"antennae":"X","wings":"1","pattern":"X","legs":"M"},"bonus":0.6800000000000009},{"rt":4142.30000000447,"stimulus":"bees-with-color/bee-A2DF.svg","response":0,"trial_type":"image-button-response","trial_index":61,"time_elapsed":387380,"internal_node_id":"0.0-4.0-0.27","subject_id":"6092f5798557f50d14d13327","study_id":"60edd13110225f80f9f3709b","session_id":"6196ba9dbcb542ad26486479","condition":"full-information","relevant_dimensions":["wings","legs"],"bee_group":{"antennae":"X","wings":"1","pattern":"X","legs":"M"},"action":"harvest","summary":"good-harvest","bonus":0.6800000000000009},{"rt":2507.0999999940395,"stimulus":"\n                    <p><b>Action: <em>harvest</em></b></p>\n                    <p>This is the bee that you just saw.</p>\n                    <img src=\"bees-with-color/bee-A2DF.svg\" width=\"200\">\n                    <p><span class=\"greenText\"><b>Successful harvest!</b></span><br>Your pay has increased by $0.02. Your bonus pay is now $0.44.</p>\n            ","response":0,"trial_type":"html-button-response","trial_index":62,"time_elapsed":389890,"internal_node_id":"0.0-4.0-1.27","subject_id":"6092f5798557f50d14d13327","study_id":"60edd13110225f80f9f3709b","session_id":"6196ba9dbcb542ad26486479","condition":"full-information","relevant_dimensions":["wings","legs"],"bee_group":{"antennae":"X","wings":"1","pattern":"X","legs":"M"},"bonus":0.6800000000000009},{"rt":6067.89999999851,"stimulus":"bees-with-color/bee-A2DM.svg","response":0,"trial_type":"image-button-response","trial_index":63,"time_elapsed":395961,"internal_node_id":"0.0-4.0-0.28","subject_id":"6092f5798557f50d14d13327","study_id":"60edd13110225f80f9f3709b","session_id":"6196ba9dbcb542ad26486479","condition":"full-information","relevant_dimensions":["wings","legs"],"bee_group":{"antennae":"X","wings":"1","pattern":"X","legs":"M"},"action":"harvest","summary":"good-harvest","bonus":0.6800000000000009},{"rt":14822.5,"stimulus":"\n                    <p><b>Action: <em>harvest</em></b></p>\n                    <p>This is the bee that you just saw.</p>\n                    <img src=\"bees-with-color/bee-A2DM.svg\" width=\"200\">\n                    <p><span class=\"greenText\"><b>Successful harvest!</b></span><br>Your pay has increased by $0.02. Your bonus pay is now $0.46.</p>\n            ","response":0,"trial_type":"html-button-response","trial_index":64,"time_elapsed":410786,"internal_node_id":"0.0-4.0-1.28","subject_id":"6092f5798557f50d14d13327","study_id":"60edd13110225f80f9f3709b","session_id":"6196ba9dbcb542ad26486479","condition":"full-information","relevant_dimensions":["wings","legs"],"bee_group":{"antennae":"X","wings":"1","pattern":"X","legs":"M"},"bonus":0.6800000000000009},{"rt":4466.89999999851,"stimulus":"bees-with-color/bee-A1SM.svg","response":0,"trial_type":"image-button-response","trial_index":65,"time_elapsed":415256,"internal_node_id":"0.0-4.0-0.29","subject_id":"6092f5798557f50d14d13327","study_id":"60edd13110225f80f9f3709b","session_id":"6196ba9dbcb542ad26486479","condition":"full-information","relevant_dimensions":["wings","legs"],"bee_group":{"antennae":"X","wings":"1","pattern":"X","legs":"M"},"action":"harvest","summary":"bad-harvest","bonus":0.6800000000000009},{"rt":2576.2000000029802,"stimulus":"\n                    <p><b>Action: <em>harvest</em></b></p>\n                    <p>This is the bee that you just saw.</p>\n                    <img src=\"bees-with-color/bee-A1SM.svg\" width=\"200\">\n                    <p><span class=\"redText\">Bad choice, the bee was angry.</span><br><b>You have been stung!</b><br>Your pay has been decreased by $0.10. Your bonus pay is now $0.36.</p>\n            ","response":0,"trial_type":"html-button-response","trial_index":66,"time_elapsed":417835,"internal_node_id":"0.0-4.0-1.29","subject_id":"6092f5798557f50d14d13327","study_id":"60edd13110225f80f9f3709b","session_id":"6196ba9dbcb542ad26486479","condition":"full-information","relevant_dimensions":["wings","legs"],"bee_group":{"antennae":"X","wings":"1","pattern":"X","legs":"M"},"bonus":0.6800000000000009},{"rt":3751.5,"stimulus":"bees-with-color/bee-B2SF.svg","response":0,"trial_type":"image-button-response","trial_index":67,"time_elapsed":421590,"internal_node_id":"0.0-4.0-0.30","subject_id":"6092f5798557f50d14d13327","study_id":"60edd13110225f80f9f3709b","session_id":"6196ba9dbcb542ad26486479","condition":"full-information","relevant_dimensions":["wings","legs"],"bee_group":{"antennae":"X","wings":"1","pattern":"X","legs":"M"},"action":"harvest","summary":"good-harvest","bonus":0.6800000000000009},{"rt":4659.29999999702,"stimulus":"\n                    <p><b>Action: <em>harvest</em></b></p>\n                    <p>This is the bee that you just saw.</p>\n                    <img src=\"bees-with-color/bee-B2SF.svg\" width=\"200\">\n                    <p><span class=\"greenText\"><b>Successful harvest!</b></span><br>Your pay has increased by $0.02. Your bonus pay is now $0.38.</p>\n            ","response":0,"trial_type":"html-button-response","trial_index":68,"time_elapsed":426252,"internal_node_id":"0.0-4.0-1.30","subject_id":"6092f5798557f50d14d13327","study_id":"60edd13110225f80f9f3709b","session_id":"6196ba9dbcb542ad26486479","condition":"full-information","relevant_dimensions":["wings","legs"],"bee_group":{"antennae":"X","wings":"1","pattern":"X","legs":"M"},"bonus":0.6800000000000009},{"rt":4704.39999999851,"stimulus":"bees-with-color/bee-B1SF.svg","response":0,"trial_type":"image-button-response","trial_index":69,"time_elapsed":430960,"internal_node_id":"0.0-4.0-0.31","subject_id":"6092f5798557f50d14d13327","study_id":"60edd13110225f80f9f3709b","session_id":"6196ba9dbcb542ad26486479","condition":"full-information","relevant_dimensions":["wings","legs"],"bee_group":{"antennae":"X","wings":"1","pattern":"X","legs":"M"},"action":"harvest","summary":"good-harvest","bonus":0.6800000000000009},{"rt":4059.39999999851,"stimulus":"\n                    <p><b>Action: <em>harvest</em></b></p>\n                    <p>This is the bee that you just saw.</p>\n                    <img src=\"bees-with-color/bee-B1SF.svg\" width=\"200\">\n                    <p><span class=\"greenText\"><b>Successful harvest!</b></span><br>Your pay has increased by $0.02. Your bonus pay is now $0.40.</p>\n            ","response":0,"trial_type":"html-button-response","trial_index":70,"time_elapsed":435022,"internal_node_id":"0.0-4.0-1.31","subject_id":"6092f5798557f50d14d13327","study_id":"60edd13110225f80f9f3709b","session_id":"6196ba9dbcb542ad26486479","condition":"full-information","relevant_dimensions":["wings","legs"],"bee_group":{"antennae":"X","wings":"1","pattern":"X","legs":"M"},"bonus":0.6800000000000009},{"rt":3096.89999999851,"stimulus":"bees-with-color/bee-B2DM.svg","response":1,"trial_type":"image-button-response","trial_index":71,"time_elapsed":438123,"internal_node_id":"0.0-4.0-0.32","subject_id":"6092f5798557f50d14d13327","study_id":"60edd13110225f80f9f3709b","session_id":"6196ba9dbcb542ad26486479","condition":"full-information","relevant_dimensions":["wings","legs"],"bee_group":{"antennae":"X","wings":"1","pattern":"X","legs":"M"},"action":"avoid","summary":"bad-avoid","bonus":0.6800000000000009},{"rt":2701.10000000149,"stimulus":"\n                    <p><b>Action: <em>avoid</em></b></p>\n                    <p>This is the bee that you just saw.</p>\n                    <img src=\"bees-with-color/bee-B2DM.svg\" width=\"200\">\n                    <p><span class=\"redText\">Bad choice,</span> the bee was friendly.<br>Your bonus pay is unchanged, and remains at $0.40.</p>\n            ","response":0,"trial_type":"html-button-response","trial_index":72,"time_elapsed":440826,"internal_node_id":"0.0-4.0-1.32","subject_id":"6092f5798557f50d14d13327","study_id":"60edd13110225f80f9f3709b","session_id":"6196ba9dbcb542ad26486479","condition":"full-information","relevant_dimensions":["wings","legs"],"bee_group":{"antennae":"X","wings":"1","pattern":"X","legs":"M"},"bonus":0.6800000000000009},{"rt":7699.10000000149,"stimulus":"bees-with-color/bee-A2SF.svg","response":1,"trial_type":"image-button-response","trial_index":73,"time_elapsed":448529,"internal_node_id":"0.0-4.0-0.33","subject_id":"6092f5798557f50d14d13327","study_id":"60edd13110225f80f9f3709b","session_id":"6196ba9dbcb542ad26486479","condition":"full-information","relevant_dimensions":["wings","legs"],"bee_group":{"antennae":"X","wings":"1","pattern":"X","legs":"M"},"action":"avoid","summary":"bad-avoid","bonus":0.6800000000000009},{"rt":6054.70000000298,"stimulus":"\n                    <p><b>Action: <em>avoid</em></b></p>\n                    <p>This is the bee that you just saw.</p>\n                    <img src=\"bees-with-color/bee-A2SF.svg\" width=\"200\">\n                    <p><span class=\"redText\">Bad choice,</span> the bee was friendly.<br>Your bonus pay is unchanged, and remains at $0.40.</p>\n            ","response":0,"trial_type":"html-button-response","trial_index":74,"time_elapsed":454587,"internal_node_id":"0.0-4.0-1.33","subject_id":"6092f5798557f50d14d13327","study_id":"60edd13110225f80f9f3709b","session_id":"6196ba9dbcb542ad26486479","condition":"full-information","relevant_dimensions":["wings","legs"],"bee_group":{"antennae":"X","wings":"1","pattern":"X","legs":"M"},"bonus":0.6800000000000009},{"rt":8709.20000000298,"stimulus":"bees-with-color/bee-B2DF.svg","response":1,"trial_type":"image-button-response","trial_index":75,"time_elapsed":463299,"internal_node_id":"0.0-4.0-0.34","subject_id":"6092f5798557f50d14d13327","study_id":"60edd13110225f80f9f3709b","session_id":"6196ba9dbcb542ad26486479","condition":"full-information","relevant_dimensions":["wings","legs"],"bee_group":{"antennae":"X","wings":"1","pattern":"X","legs":"M"},"action":"avoid","summary":"bad-avoid","bonus":0.6800000000000009},{"rt":1504.5,"stimulus":"\n                    <p><b>Action: <em>avoid</em></b></p>\n                    <p>This is the bee that you just saw.</p>\n                    <img src=\"bees-with-color/bee-B2DF.svg\" width=\"200\">\n                    <p><span class=\"redText\">Bad choice,</span> the bee was friendly.<br>Your bonus pay is unchanged, and remains at $0.40.</p>\n            ","response":0,"trial_type":"html-button-response","trial_index":76,"time_elapsed":464806,"internal_node_id":"0.0-4.0-1.34","subject_id":"6092f5798557f50d14d13327","study_id":"60edd13110225f80f9f3709b","session_id":"6196ba9dbcb542ad26486479","condition":"full-information","relevant_dimensions":["wings","legs"],"bee_group":{"antennae":"X","wings":"1","pattern":"X","legs":"M"},"bonus":0.6800000000000009},{"rt":8211.89999999851,"stimulus":"bees-with-color/bee-B1DM.svg","response":1,"trial_type":"image-button-response","trial_index":77,"time_elapsed":473021,"internal_node_id":"0.0-4.0-0.35","subject_id":"6092f5798557f50d14d13327","study_id":"60edd13110225f80f9f3709b","session_id":"6196ba9dbcb542ad26486479","condition":"full-information","relevant_dimensions":["wings","legs"],"bee_group":{"antennae":"X","wings":"1","pattern":"X","legs":"M"},"action":"avoid","summary":"good-avoid","bonus":0.6800000000000009},{"rt":1722.7000000029802,"stimulus":"\n                    <p><b>Action: <em>avoid</em></b></p>\n                    <p>This is the bee that you just saw.</p>\n                    <img src=\"bees-with-color/bee-B1DM.svg\" width=\"200\">\n                    <p><span class=\"greenText\">Good choice!</span>  This bee would have stung you.<br>Your bonus pay is unchanged, and remains at $0.40.</p>\n            ","response":0,"trial_type":"html-button-response","trial_index":78,"time_elapsed":474746,"internal_node_id":"0.0-4.0-1.35","subject_id":"6092f5798557f50d14d13327","study_id":"60edd13110225f80f9f3709b","session_id":"6196ba9dbcb542ad26486479","condition":"full-information","relevant_dimensions":["wings","legs"],"bee_group":{"antennae":"X","wings":"1","pattern":"X","legs":"M"},"bonus":0.6800000000000009},{"rt":9900.80000000447,"stimulus":"bees-with-color/bee-B1SM.svg","response":1,"trial_type":"image-button-response","trial_index":79,"time_elapsed":484650,"internal_node_id":"0.0-4.0-0.36","subject_id":"6092f5798557f50d14d13327","study_id":"60edd13110225f80f9f3709b","session_id":"6196ba9dbcb542ad26486479","condition":"full-information","relevant_dimensions":["wings","legs"],"bee_group":{"antennae":"X","wings":"1","pattern":"X","legs":"M"},"action":"avoid","summary":"good-avoid","bonus":0.6800000000000009},{"rt":1815.1999999955297,"stimulus":"\n                    <p><b>Action: <em>avoid</em></b></p>\n                    <p>This is the bee that you just saw.</p>\n                    <img src=\"bees-with-color/bee-B1SM.svg\" width=\"200\">\n                    <p><span class=\"greenText\">Good choice!</span>  This bee would have stung you.<br>Your bonus pay is unchanged, and remains at $0.40.</p>\n            ","response":0,"trial_type":"html-button-response","trial_index":80,"time_elapsed":486467,"internal_node_id":"0.0-4.0-1.36","subject_id":"6092f5798557f50d14d13327","study_id":"60edd13110225f80f9f3709b","session_id":"6196ba9dbcb542ad26486479","condition":"full-information","relevant_dimensions":["wings","legs"],"bee_group":{"antennae":"X","wings":"1","pattern":"X","legs":"M"},"bonus":0.6800000000000009},{"rt":6818.70000000298,"stimulus":"bees-with-color/bee-A2DM.svg","response":0,"trial_type":"image-button-response","trial_index":81,"time_elapsed":493289,"internal_node_id":"0.0-4.0-0.37","subject_id":"6092f5798557f50d14d13327","study_id":"60edd13110225f80f9f3709b","session_id":"6196ba9dbcb542ad26486479","condition":"full-information","relevant_dimensions":["wings","legs"],"bee_group":{"antennae":"X","wings":"1","pattern":"X","legs":"M"},"action":"harvest","summary":"good-harvest","bonus":0.6800000000000009},{"rt":1827.2999999970198,"stimulus":"\n                    <p><b>Action: <em>harvest</em></b></p>\n                    <p>This is the bee that you just saw.</p>\n                    <img src=\"bees-with-color/bee-A2DM.svg\" width=\"200\">\n                    <p><span class=\"greenText\"><b>Successful harvest!</b></span><br>Your pay has increased by $0.02. Your bonus pay is now $0.42.</p>\n            ","response":0,"trial_type":"html-button-response","trial_index":82,"time_elapsed":495119,"internal_node_id":"0.0-4.0-1.37","subject_id":"6092f5798557f50d14d13327","study_id":"60edd13110225f80f9f3709b","session_id":"6196ba9dbcb542ad26486479","condition":"full-information","relevant_dimensions":["wings","legs"],"bee_group":{"antennae":"X","wings":"1","pattern":"X","legs":"M"},"bonus":0.6800000000000009},{"rt":5573,"stimulus":"bees-with-color/bee-A1DF.svg","response":1,"trial_type":"image-button-response","trial_index":83,"time_elapsed":500695,"internal_node_id":"0.0-4.0-0.38","subject_id":"6092f5798557f50d14d13327","study_id":"60edd13110225f80f9f3709b","session_id":"6196ba9dbcb542ad26486479","condition":"full-information","relevant_dimensions":["wings","legs"],"bee_group":{"antennae":"X","wings":"1","pattern":"X","legs":"M"},"action":"avoid","summary":"bad-avoid","bonus":0.6800000000000009},{"rt":6837.20000000298,"stimulus":"\n                    <p><b>Action: <em>avoid</em></b></p>\n                    <p>This is the bee that you just saw.</p>\n                    <img src=\"bees-with-color/bee-A1DF.svg\" width=\"200\">\n                    <p><span class=\"redText\">Bad choice,</span> the bee was friendly.<br>Your bonus pay is unchanged, and remains at $0.42.</p>\n            ","response":0,"trial_type":"html-button-response","trial_index":84,"time_elapsed":507535,"internal_node_id":"0.0-4.0-1.38","subject_id":"6092f5798557f50d14d13327","study_id":"60edd13110225f80f9f3709b","session_id":"6196ba9dbcb542ad26486479","condition":"full-information","relevant_dimensions":["wings","legs"],"bee_group":{"antennae":"X","wings":"1","pattern":"X","legs":"M"},"bonus":0.6800000000000009},{"rt":8036.89999999851,"stimulus":"bees-with-color/bee-B1DF.svg","response":1,"trial_type":"image-button-response","trial_index":85,"time_elapsed":515576,"internal_node_id":"0.0-4.0-0.39","subject_id":"6092f5798557f50d14d13327","study_id":"60edd13110225f80f9f3709b","session_id":"6196ba9dbcb542ad26486479","condition":"full-information","relevant_dimensions":["wings","legs"],"bee_group":{"antennae":"X","wings":"1","pattern":"X","legs":"M"},"action":"avoid","summary":"bad-avoid","bonus":0.6800000000000009},{"rt":5679,"stimulus":"\n                    <p><b>Action: <em>avoid</em></b></p>\n                    <p>This is the bee that you just saw.</p>\n                    <img src=\"bees-with-color/bee-B1DF.svg\" width=\"200\">\n                    <p><span class=\"redText\">Bad choice,</span> the bee was friendly.<br>Your bonus pay is unchanged, and remains at $0.42.</p>\n            ","response":0,"trial_type":"html-button-response","trial_index":86,"time_elapsed":521258,"internal_node_id":"0.0-4.0-1.39","subject_id":"6092f5798557f50d14d13327","study_id":"60edd13110225f80f9f3709b","session_id":"6196ba9dbcb542ad26486479","condition":"full-information","relevant_dimensions":["wings","legs"],"bee_group":{"antennae":"X","wings":"1","pattern":"X","legs":"M"},"bonus":0.6800000000000009},{"rt":10296.70000000298,"stimulus":"bees-with-color/bee-A1SM.svg","response":1,"trial_type":"image-button-response","trial_index":87,"time_elapsed":531558,"internal_node_id":"0.0-4.0-0.40","subject_id":"6092f5798557f50d14d13327","study_id":"60edd13110225f80f9f3709b","session_id":"6196ba9dbcb542ad26486479","condition":"full-information","relevant_dimensions":["wings","legs"],"bee_group":{"antennae":"X","wings":"1","pattern":"X","legs":"M"},"action":"avoid","summary":"good-avoid","bonus":0.6800000000000009},{"rt":1391,"stimulus":"\n                    <p><b>Action: <em>avoid</em></b></p>\n                    <p>This is the bee that you just saw.</p>\n                    <img src=\"bees-with-color/bee-A1SM.svg\" width=\"200\">\n                    <p><span class=\"greenText\">Good choice!</span>  This bee would have stung you.<br>Your bonus pay is unchanged, and remains at $0.42.</p>\n            ","response":0,"trial_type":"html-button-response","trial_index":88,"time_elapsed":532952,"internal_node_id":"0.0-4.0-1.40","subject_id":"6092f5798557f50d14d13327","study_id":"60edd13110225f80f9f3709b","session_id":"6196ba9dbcb542ad26486479","condition":"full-information","relevant_dimensions":["wings","legs"],"bee_group":{"antennae":"X","wings":"1","pattern":"X","legs":"M"},"bonus":0.6800000000000009},{"rt":9987,"stimulus":"bees-with-color/bee-B2SM.svg","response":1,"trial_type":"image-button-response","trial_index":89,"time_elapsed":542942,"internal_node_id":"0.0-4.0-0.41","subject_id":"6092f5798557f50d14d13327","study_id":"60edd13110225f80f9f3709b","session_id":"6196ba9dbcb542ad26486479","condition":"full-information","relevant_dimensions":["wings","legs"],"bee_group":{"antennae":"X","wings":"1","pattern":"X","legs":"M"},"action":"avoid","summary":"bad-avoid","bonus":0.6800000000000009},{"rt":5583.30000000447,"stimulus":"\n                    <p><b>Action: <em>avoid</em></b></p>\n                    <p>This is the bee that you just saw.</p>\n                    <img src=\"bees-with-color/bee-B2SM.svg\" width=\"200\">\n                    <p><span class=\"redText\">Bad choice,</span> the bee was friendly.<br>Your bonus pay is unchanged, and remains at $0.42.</p>\n            ","response":0,"trial_type":"html-button-response","trial_index":90,"time_elapsed":548528,"internal_node_id":"0.0-4.0-1.41","subject_id":"6092f5798557f50d14d13327","study_id":"60edd13110225f80f9f3709b","session_id":"6196ba9dbcb542ad26486479","condition":"full-information","relevant_dimensions":["wings","legs"],"bee_group":{"antennae":"X","wings":"1","pattern":"X","legs":"M"},"bonus":0.6800000000000009},{"rt":10114.5,"stimulus":"bees-with-color/bee-A1DM.svg","response":0,"trial_type":"image-button-response","trial_index":91,"time_elapsed":558646,"internal_node_id":"0.0-4.0-0.42","subject_id":"6092f5798557f50d14d13327","study_id":"60edd13110225f80f9f3709b","session_id":"6196ba9dbcb542ad26486479","condition":"full-information","relevant_dimensions":["wings","legs"],"bee_group":{"antennae":"X","wings":"1","pattern":"X","legs":"M"},"action":"harvest","summary":"bad-harvest","bonus":0.6800000000000009},{"rt":2103.39999999851,"stimulus":"\n                    <p><b>Action: <em>harvest</em></b></p>\n                    <p>This is the bee that you just saw.</p>\n                    <img src=\"bees-with-color/bee-A1DM.svg\" width=\"200\">\n                    <p><span class=\"redText\">Bad choice, the bee was angry.</span><br><b>You have been stung!</b><br>Your pay has been decreased by $0.10. Your bonus pay is now $0.32.</p>\n            ","response":0,"trial_type":"html-button-response","trial_index":92,"time_elapsed":560752,"internal_node_id":"0.0-4.0-1.42","subject_id":"6092f5798557f50d14d13327","study_id":"60edd13110225f80f9f3709b","session_id":"6196ba9dbcb542ad26486479","condition":"full-information","relevant_dimensions":["wings","legs"],"bee_group":{"antennae":"X","wings":"1","pattern":"X","legs":"M"},"bonus":0.6800000000000009},{"rt":9551.79999999702,"stimulus":"bees-with-color/bee-A2SM.svg","response":1,"trial_type":"image-button-response","trial_index":93,"time_elapsed":570308,"internal_node_id":"0.0-4.0-0.43","subject_id":"6092f5798557f50d14d13327","study_id":"60edd13110225f80f9f3709b","session_id":"6196ba9dbcb542ad26486479","condition":"full-information","relevant_dimensions":["wings","legs"],"bee_group":{"antennae":"X","wings":"1","pattern":"X","legs":"M"},"action":"avoid","summary":"bad-avoid","bonus":0.6800000000000009},{"rt":6172.19999999553,"stimulus":"\n                    <p><b>Action: <em>avoid</em></b></p>\n                    <p>This is the bee that you just saw.</p>\n                    <img src=\"bees-with-color/bee-A2SM.svg\" width=\"200\">\n                    <p><span class=\"redText\">Bad choice,</span> the bee was friendly.<br>Your bonus pay is unchanged, and remains at $0.32.</p>\n            ","response":0,"trial_type":"html-button-response","trial_index":94,"time_elapsed":576483,"internal_node_id":"0.0-4.0-1.43","subject_id":"6092f5798557f50d14d13327","study_id":"60edd13110225f80f9f3709b","session_id":"6196ba9dbcb542ad26486479","condition":"full-information","relevant_dimensions":["wings","legs"],"bee_group":{"antennae":"X","wings":"1","pattern":"X","legs":"M"},"bonus":0.6800000000000009},{"rt":7972.89999999851,"stimulus":"bees-with-color/bee-A2DF.svg","response":1,"trial_type":"image-button-response","trial_index":95,"time_elapsed":584459,"internal_node_id":"0.0-4.0-0.44","subject_id":"6092f5798557f50d14d13327","study_id":"60edd13110225f80f9f3709b","session_id":"6196ba9dbcb542ad26486479","condition":"full-information","relevant_dimensions":["wings","legs"],"bee_group":{"antennae":"X","wings":"1","pattern":"X","legs":"M"},"action":"avoid","summary":"bad-avoid","bonus":0.6800000000000009},{"rt":4583,"stimulus":"\n                    <p><b>Action: <em>avoid</em></b></p>\n                    <p>This is the bee that you just saw.</p>\n                    <img src=\"bees-with-color/bee-A2DF.svg\" width=\"200\">\n                    <p><span class=\"redText\">Bad choice,</span> the bee was friendly.<br>Your bonus pay is unchanged, and remains at $0.32.</p>\n            ","response":0,"trial_type":"html-button-response","trial_index":96,"time_elapsed":589045,"internal_node_id":"0.0-4.0-1.44","subject_id":"6092f5798557f50d14d13327","study_id":"60edd13110225f80f9f3709b","session_id":"6196ba9dbcb542ad26486479","condition":"full-information","relevant_dimensions":["wings","legs"],"bee_group":{"antennae":"X","wings":"1","pattern":"X","legs":"M"},"bonus":0.6800000000000009},{"rt":14104.19999999553,"stimulus":"bees-with-color/bee-A1SF.svg","response":1,"trial_type":"image-button-response","trial_index":97,"time_elapsed":603152,"internal_node_id":"0.0-4.0-0.45","subject_id":"6092f5798557f50d14d13327","study_id":"60edd13110225f80f9f3709b","session_id":"6196ba9dbcb542ad26486479","condition":"full-information","relevant_dimensions":["wings","legs"],"bee_group":{"antennae":"X","wings":"1","pattern":"X","legs":"M"},"action":"avoid","summary":"bad-avoid","bonus":0.6800000000000009},{"rt":4769.9000000059605,"stimulus":"\n                    <p><b>Action: <em>avoid</em></b></p>\n                    <p>This is the bee that you just saw.</p>\n                    <img src=\"bees-with-color/bee-A1SF.svg\" width=\"200\">\n                    <p><span class=\"redText\">Bad choice,</span> the bee was friendly.<br>Your bonus pay is unchanged, and remains at $0.32.</p>\n            ","response":0,"trial_type":"html-button-response","trial_index":98,"time_elapsed":607925,"internal_node_id":"0.0-4.0-1.45","subject_id":"6092f5798557f50d14d13327","study_id":"60edd13110225f80f9f3709b","session_id":"6196ba9dbcb542ad26486479","condition":"full-information","relevant_dimensions":["wings","legs"],"bee_group":{"antennae":"X","wings":"1","pattern":"X","legs":"M"},"bonus":0.6800000000000009},{"rt":8602.70000000298,"stimulus":"bees-with-color/bee-B1SF.svg","response":0,"trial_type":"image-button-response","trial_index":99,"time_elapsed":616531,"internal_node_id":"0.0-4.0-0.46","subject_id":"6092f5798557f50d14d13327","study_id":"60edd13110225f80f9f3709b","session_id":"6196ba9dbcb542ad26486479","condition":"full-information","relevant_dimensions":["wings","legs"],"bee_group":{"antennae":"X","wings":"1","pattern":"X","legs":"M"},"action":"harvest","summary":"good-harvest","bonus":0.6800000000000009},{"rt":1541.1000000014901,"stimulus":"\n                    <p><b>Action: <em>harvest</em></b></p>\n                    <p>This is the bee that you just saw.</p>\n                    <img src=\"bees-with-color/bee-B1SF.svg\" width=\"200\">\n                    <p><span class=\"greenText\"><b>Successful harvest!</b></span><br>Your pay has increased by $0.02. Your bonus pay is now $0.34.</p>\n            ","response":0,"trial_type":"html-button-response","trial_index":100,"time_elapsed":618075,"internal_node_id":"0.0-4.0-1.46","subject_id":"6092f5798557f50d14d13327","study_id":"60edd13110225f80f9f3709b","session_id":"6196ba9dbcb542ad26486479","condition":"full-information","relevant_dimensions":["wings","legs"],"bee_group":{"antennae":"X","wings":"1","pattern":"X","legs":"M"},"bonus":0.6800000000000009},{"rt":5096.19999999553,"stimulus":"bees-with-color/bee-B2SF.svg","response":0,"trial_type":"image-button-response","trial_index":101,"time_elapsed":623175,"internal_node_id":"0.0-4.0-0.47","subject_id":"6092f5798557f50d14d13327","study_id":"60edd13110225f80f9f3709b","session_id":"6196ba9dbcb542ad26486479","condition":"full-information","relevant_dimensions":["wings","legs"],"bee_group":{"antennae":"X","wings":"1","pattern":"X","legs":"M"},"action":"harvest","summary":"good-harvest","bonus":0.6800000000000009},{"rt":2638.89999999851,"stimulus":"\n                    <p><b>Action: <em>harvest</em></b></p>\n                    <p>This is the bee that you just saw.</p>\n                    <img src=\"bees-with-color/bee-B2SF.svg\" width=\"200\">\n                    <p><span class=\"greenText\"><b>Successful harvest!</b></span><br>Your pay has increased by $0.02. Your bonus pay is now $0.36.</p>\n            ","response":0,"trial_type":"html-button-response","trial_index":102,"time_elapsed":625817,"internal_node_id":"0.0-4.0-1.47","subject_id":"6092f5798557f50d14d13327","study_id":"60edd13110225f80f9f3709b","session_id":"6196ba9dbcb542ad26486479","condition":"full-information","relevant_dimensions":["wings","legs"],"bee_group":{"antennae":"X","wings":"1","pattern":"X","legs":"M"},"bonus":0.6800000000000009},{"rt":4242.10000000149,"stimulus":"bees-with-color/bee-A1SM.svg","response":1,"trial_type":"image-button-response","trial_index":103,"time_elapsed":630063,"internal_node_id":"0.0-4.0-0.48","subject_id":"6092f5798557f50d14d13327","study_id":"60edd13110225f80f9f3709b","session_id":"6196ba9dbcb542ad26486479","condition":"full-information","relevant_dimensions":["wings","legs"],"bee_group":{"antennae":"X","wings":"1","pattern":"X","legs":"M"},"action":"avoid","summary":"good-avoid","bonus":0.6800000000000009},{"rt":1610.1999999955297,"stimulus":"\n                    <p><b>Action: <em>avoid</em></b></p>\n                    <p>This is the bee that you just saw.</p>\n                    <img src=\"bees-with-color/bee-A1SM.svg\" width=\"200\">\n                    <p><span class=\"greenText\">Good choice!</span>  This bee would have stung you.<br>Your bonus pay is unchanged, and remains at $0.36.</p>\n            ","response":0,"trial_type":"html-button-response","trial_index":104,"time_elapsed":631675,"internal_node_id":"0.0-4.0-1.48","subject_id":"6092f5798557f50d14d13327","study_id":"60edd13110225f80f9f3709b","session_id":"6196ba9dbcb542ad26486479","condition":"full-information","relevant_dimensions":["wings","legs"],"bee_group":{"antennae":"X","wings":"1","pattern":"X","legs":"M"},"bonus":0.6800000000000009},{"rt":6394.5,"stimulus":"bees-with-color/bee-B1SM.svg","response":1,"trial_type":"image-button-response","trial_index":105,"time_elapsed":638073,"internal_node_id":"0.0-4.0-0.49","subject_id":"6092f5798557f50d14d13327","study_id":"60edd13110225f80f9f3709b","session_id":"6196ba9dbcb542ad26486479","condition":"full-information","relevant_dimensions":["wings","legs"],"bee_group":{"antennae":"X","wings":"1","pattern":"X","legs":"M"},"action":"avoid","summary":"good-avoid","bonus":0.6800000000000009},{"rt":1217.4000000059605,"stimulus":"\n                    <p><b>Action: <em>avoid</em></b></p>\n                    <p>This is the bee that you just saw.</p>\n                    <img src=\"bees-with-color/bee-B1SM.svg\" width=\"200\">\n                    <p><span class=\"greenText\">Good choice!</span>  This bee would have stung you.<br>Your bonus pay is unchanged, and remains at $0.36.</p>\n            ","response":0,"trial_type":"html-button-response","trial_index":106,"time_elapsed":639293,"internal_node_id":"0.0-4.0-1.49","subject_id":"6092f5798557f50d14d13327","study_id":"60edd13110225f80f9f3709b","session_id":"6196ba9dbcb542ad26486479","condition":"full-information","relevant_dimensions":["wings","legs"],"bee_group":{"antennae":"X","wings":"1","pattern":"X","legs":"M"},"bonus":0.6800000000000009},{"rt":5205.10000000149,"stimulus":"bees-with-color/bee-B1SF.svg","response":0,"trial_type":"image-button-response","trial_index":107,"time_elapsed":644501,"internal_node_id":"0.0-4.0-0.50","subject_id":"6092f5798557f50d14d13327","study_id":"60edd13110225f80f9f3709b","session_id":"6196ba9dbcb542ad26486479","condition":"full-information","relevant_dimensions":["wings","legs"],"bee_group":{"antennae":"X","wings":"1","pattern":"X","legs":"M"},"action":"harvest","summary":"good-harvest","bonus":0.6800000000000009},{"rt":3235.60000000149,"stimulus":"\n                    <p><b>Action: <em>harvest</em></b></p>\n                    <p>This is the bee that you just saw.</p>\n                    <img src=\"bees-with-color/bee-B1SF.svg\" width=\"200\">\n                    <p><span class=\"greenText\"><b>Successful harvest!</b></span><br>Your pay has increased by $0.02. Your bonus pay is now $0.38.</p>\n            ","response":0,"trial_type":"html-button-response","trial_index":108,"time_elapsed":647739,"internal_node_id":"0.0-4.0-1.50","subject_id":"6092f5798557f50d14d13327","study_id":"60edd13110225f80f9f3709b","session_id":"6196ba9dbcb542ad26486479","condition":"full-information","relevant_dimensions":["wings","legs"],"bee_group":{"antennae":"X","wings":"1","pattern":"X","legs":"M"},"bonus":0.6800000000000009},{"rt":8231.10000000149,"stimulus":"bees-with-color/bee-A2DF.svg","response":0,"trial_type":"image-button-response","trial_index":109,"time_elapsed":655974,"internal_node_id":"0.0-4.0-0.51","subject_id":"6092f5798557f50d14d13327","study_id":"60edd13110225f80f9f3709b","session_id":"6196ba9dbcb542ad26486479","condition":"full-information","relevant_dimensions":["wings","legs"],"bee_group":{"antennae":"X","wings":"1","pattern":"X","legs":"M"},"action":"harvest","summary":"good-harvest","bonus":0.6800000000000009},{"rt":1323.2999999970198,"stimulus":"\n                    <p><b>Action: <em>harvest</em></b></p>\n                    <p>This is the bee that you just saw.</p>\n                    <img src=\"bees-with-color/bee-A2DF.svg\" width=\"200\">\n                    <p><span class=\"greenText\"><b>Successful harvest!</b></span><br>Your pay has increased by $0.02. Your bonus pay is now $0.40.</p>\n            ","response":0,"trial_type":"html-button-response","trial_index":110,"time_elapsed":657299,"internal_node_id":"0.0-4.0-1.51","subject_id":"6092f5798557f50d14d13327","study_id":"60edd13110225f80f9f3709b","session_id":"6196ba9dbcb542ad26486479","condition":"full-information","relevant_dimensions":["wings","legs"],"bee_group":{"antennae":"X","wings":"1","pattern":"X","legs":"M"},"bonus":0.6800000000000009},{"rt":7636,"stimulus":"bees-with-color/bee-B2SF.svg","response":1,"trial_type":"image-button-response","trial_index":111,"time_elapsed":664938,"internal_node_id":"0.0-4.0-0.52","subject_id":"6092f5798557f50d14d13327","study_id":"60edd13110225f80f9f3709b","session_id":"6196ba9dbcb542ad26486479","condition":"full-information","relevant_dimensions":["wings","legs"],"bee_group":{"antennae":"X","wings":"1","pattern":"X","legs":"M"},"action":"avoid","summary":"bad-avoid","bonus":0.6800000000000009},{"rt":6011.79999999702,"stimulus":"\n                    <p><b>Action: <em>avoid</em></b></p>\n                    <p>This is the bee that you just saw.</p>\n                    <img src=\"bees-with-color/bee-B2SF.svg\" width=\"200\">\n                    <p><span class=\"redText\">Bad choice,</span> the bee was friendly.<br>Your bonus pay is unchanged, and remains at $0.40.</p>\n            ","response":0,"trial_type":"html-button-response","trial_index":112,"time_elapsed":670952,"internal_node_id":"0.0-4.0-1.52","subject_id":"6092f5798557f50d14d13327","study_id":"60edd13110225f80f9f3709b","session_id":"6196ba9dbcb542ad26486479","condition":"full-information","relevant_dimensions":["wings","legs"],"bee_group":{"antennae":"X","wings":"1","pattern":"X","legs":"M"},"bonus":0.6800000000000009},{"rt":7538.5,"stimulus":"bees-with-color/bee-B1DF.svg","response":0,"trial_type":"image-button-response","trial_index":113,"time_elapsed":678494,"internal_node_id":"0.0-4.0-0.53","subject_id":"6092f5798557f50d14d13327","study_id":"60edd13110225f80f9f3709b","session_id":"6196ba9dbcb542ad26486479","condition":"full-information","relevant_dimensions":["wings","legs"],"bee_group":{"antennae":"X","wings":"1","pattern":"X","legs":"M"},"action":"harvest","summary":"good-harvest","bonus":0.6800000000000009},{"rt":1219.1000000014901,"stimulus":"\n                    <p><b>Action: <em>harvest</em></b></p>\n                    <p>This is the bee that you just saw.</p>\n                    <img src=\"bees-with-color/bee-B1DF.svg\" width=\"200\">\n                    <p><span class=\"greenText\"><b>Successful harvest!</b></span><br>Your pay has increased by $0.02. Your bonus pay is now $0.42.</p>\n            ","response":0,"trial_type":"html-button-response","trial_index":114,"time_elapsed":679716,"internal_node_id":"0.0-4.0-1.53","subject_id":"6092f5798557f50d14d13327","study_id":"60edd13110225f80f9f3709b","session_id":"6196ba9dbcb542ad26486479","condition":"full-information","relevant_dimensions":["wings","legs"],"bee_group":{"antennae":"X","wings":"1","pattern":"X","legs":"M"},"bonus":0.6800000000000009},{"rt":8964.59999999404,"stimulus":"bees-with-color/bee-A1SF.svg","response":1,"trial_type":"image-button-response","trial_index":115,"time_elapsed":688684,"internal_node_id":"0.0-4.0-0.54","subject_id":"6092f5798557f50d14d13327","study_id":"60edd13110225f80f9f3709b","session_id":"6196ba9dbcb542ad26486479","condition":"full-information","relevant_dimensions":["wings","legs"],"bee_group":{"antennae":"X","wings":"1","pattern":"X","legs":"M"},"action":"avoid","summary":"bad-avoid","bonus":0.6800000000000009},{"rt":4518.39999999851,"stimulus":"\n                    <p><b>Action: <em>avoid</em></b></p>\n                    <p>This is the bee that you just saw.</p>\n                    <img src=\"bees-with-color/bee-A1SF.svg\" width=\"200\">\n                    <p><span class=\"redText\">Bad choice,</span> the bee was friendly.<br>Your bonus pay is unchanged, and remains at $0.42.</p>\n            ","response":0,"trial_type":"html-button-response","trial_index":116,"time_elapsed":693205,"internal_node_id":"0.0-4.0-1.54","subject_id":"6092f5798557f50d14d13327","study_id":"60edd13110225f80f9f3709b","session_id":"6196ba9dbcb542ad26486479","condition":"full-information","relevant_dimensions":["wings","legs"],"bee_group":{"antennae":"X","wings":"1","pattern":"X","legs":"M"},"bonus":0.6800000000000009},{"rt":14027.90000000596,"stimulus":"bees-with-color/bee-B2SM.svg","response":0,"trial_type":"image-button-response","trial_index":117,"time_elapsed":707236,"internal_node_id":"0.0-4.0-0.55","subject_id":"6092f5798557f50d14d13327","study_id":"60edd13110225f80f9f3709b","session_id":"6196ba9dbcb542ad26486479","condition":"full-information","relevant_dimensions":["wings","legs"],"bee_group":{"antennae":"X","wings":"1","pattern":"X","legs":"M"},"action":"harvest","summary":"good-harvest","bonus":0.6800000000000009},{"rt":1537.6000000014901,"stimulus":"\n                    <p><b>Action: <em>harvest</em></b></p>\n                    <p>This is the bee that you just saw.</p>\n                    <img src=\"bees-with-color/bee-B2SM.svg\" width=\"200\">\n                    <p><span class=\"greenText\"><b>Successful harvest!</b></span><br>Your pay has increased by $0.02. Your bonus pay is now $0.44.</p>\n            ","response":0,"trial_type":"html-button-response","trial_index":118,"time_elapsed":708776,"internal_node_id":"0.0-4.0-1.55","subject_id":"6092f5798557f50d14d13327","study_id":"60edd13110225f80f9f3709b","session_id":"6196ba9dbcb542ad26486479","condition":"full-information","relevant_dimensions":["wings","legs"],"bee_group":{"antennae":"X","wings":"1","pattern":"X","legs":"M"},"bonus":0.6800000000000009},{"rt":11967.69999999553,"stimulus":"bees-with-color/bee-A1DF.svg","response":0,"trial_type":"image-button-response","trial_index":119,"time_elapsed":720748,"internal_node_id":"0.0-4.0-0.56","subject_id":"6092f5798557f50d14d13327","study_id":"60edd13110225f80f9f3709b","session_id":"6196ba9dbcb542ad26486479","condition":"full-information","relevant_dimensions":["wings","legs"],"bee_group":{"antennae":"X","wings":"1","pattern":"X","legs":"M"},"action":"harvest","summary":"good-harvest","bonus":0.6800000000000009},{"rt":1217.9000000059605,"stimulus":"\n                    <p><b>Action: <em>harvest</em></b></p>\n                    <p>This is the bee that you just saw.</p>\n                    <img src=\"bees-with-color/bee-A1DF.svg\" width=\"200\">\n                    <p><span class=\"greenText\"><b>Successful harvest!</b></span><br>Your pay has increased by $0.02. Your bonus pay is now $0.46.</p>\n            ","response":0,"trial_type":"html-button-response","trial_index":120,"time_elapsed":721969,"internal_node_id":"0.0-4.0-1.56","subject_id":"6092f5798557f50d14d13327","study_id":"60edd13110225f80f9f3709b","session_id":"6196ba9dbcb542ad26486479","condition":"full-information","relevant_dimensions":["wings","legs"],"bee_group":{"antennae":"X","wings":"1","pattern":"X","legs":"M"},"bonus":0.6800000000000009},{"rt":9778.19999999553,"stimulus":"bees-with-color/bee-B2DM.svg","response":1,"trial_type":"image-button-response","trial_index":121,"time_elapsed":731750,"internal_node_id":"0.0-4.0-0.57","subject_id":"6092f5798557f50d14d13327","study_id":"60edd13110225f80f9f3709b","session_id":"6196ba9dbcb542ad26486479","condition":"full-information","relevant_dimensions":["wings","legs"],"bee_group":{"antennae":"X","wings":"1","pattern":"X","legs":"M"},"action":"avoid","summary":"bad-avoid","bonus":0.6800000000000009},{"rt":1283.5999999940395,"stimulus":"\n                    <p><b>Action: <em>avoid</em></b></p>\n                    <p>This is the bee that you just saw.</p>\n                    <img src=\"bees-with-color/bee-B2DM.svg\" width=\"200\">\n                    <p><span class=\"redText\">Bad choice,</span> the bee was friendly.<br>Your bonus pay is unchanged, and remains at $0.46.</p>\n            ","response":0,"trial_type":"html-button-response","trial_index":122,"time_elapsed":733036,"internal_node_id":"0.0-4.0-1.57","subject_id":"6092f5798557f50d14d13327","study_id":"60edd13110225f80f9f3709b","session_id":"6196ba9dbcb542ad26486479","condition":"full-information","relevant_dimensions":["wings","legs"],"bee_group":{"antennae":"X","wings":"1","pattern":"X","legs":"M"},"bonus":0.6800000000000009},{"rt":3852.8000000044703,"stimulus":"bees-with-color/bee-A1DM.svg","response":1,"trial_type":"image-button-response","trial_index":123,"time_elapsed":736892,"internal_node_id":"0.0-4.0-0.58","subject_id":"6092f5798557f50d14d13327","study_id":"60edd13110225f80f9f3709b","session_id":"6196ba9dbcb542ad26486479","condition":"full-information","relevant_dimensions":["wings","legs"],"bee_group":{"antennae":"X","wings":"1","pattern":"X","legs":"M"},"action":"avoid","summary":"good-avoid","bonus":0.6800000000000009},{"rt":1482.1000000014901,"stimulus":"\n                    <p><b>Action: <em>avoid</em></b></p>\n                    <p>This is the bee that you just saw.</p>\n                    <img src=\"bees-with-color/bee-A1DM.svg\" width=\"200\">\n                    <p><span class=\"greenText\">Good choice!</span>  This bee would have stung you.<br>Your bonus pay is unchanged, and remains at $0.46.</p>\n            ","response":0,"trial_type":"html-button-response","trial_index":124,"time_elapsed":738377,"internal_node_id":"0.0-4.0-1.58","subject_id":"6092f5798557f50d14d13327","study_id":"60edd13110225f80f9f3709b","session_id":"6196ba9dbcb542ad26486479","condition":"full-information","relevant_dimensions":["wings","legs"],"bee_group":{"antennae":"X","wings":"1","pattern":"X","legs":"M"},"bonus":0.6800000000000009},{"rt":3020.5,"stimulus":"bees-with-color/bee-A2DM.svg","response":0,"trial_type":"image-button-response","trial_index":125,"time_elapsed":741400,"internal_node_id":"0.0-4.0-0.59","subject_id":"6092f5798557f50d14d13327","study_id":"60edd13110225f80f9f3709b","session_id":"6196ba9dbcb542ad26486479","condition":"full-information","relevant_dimensions":["wings","legs"],"bee_group":{"antennae":"X","wings":"1","pattern":"X","legs":"M"},"action":"harvest","summary":"good-harvest","bonus":0.6800000000000009},{"rt":1619.8999999985099,"stimulus":"\n                    <p><b>Action: <em>harvest</em></b></p>\n                    <p>This is the bee that you just saw.</p>\n                    <img src=\"bees-with-color/bee-A2DM.svg\" width=\"200\">\n                    <p><span class=\"greenText\"><b>Successful harvest!</b></span><br>Your pay has increased by $0.02. Your bonus pay is now $0.48.</p>\n            ","response":0,"trial_type":"html-button-response","trial_index":126,"time_elapsed":743023,"internal_node_id":"0.0-4.0-1.59","subject_id":"6092f5798557f50d14d13327","study_id":"60edd13110225f80f9f3709b","session_id":"6196ba9dbcb542ad26486479","condition":"full-information","relevant_dimensions":["wings","legs"],"bee_group":{"antennae":"X","wings":"1","pattern":"X","legs":"M"},"bonus":0.6800000000000009},{"rt":16253.29999999702,"stimulus":"bees-with-color/bee-B1DM.svg","response":1,"trial_type":"image-button-response","trial_index":127,"time_elapsed":759279,"internal_node_id":"0.0-4.0-0.60","subject_id":"6092f5798557f50d14d13327","study_id":"60edd13110225f80f9f3709b","session_id":"6196ba9dbcb542ad26486479","condition":"full-information","relevant_dimensions":["wings","legs"],"bee_group":{"antennae":"X","wings":"1","pattern":"X","legs":"M"},"action":"avoid","summary":"good-avoid","bonus":0.6800000000000009},{"rt":1208.3000000044703,"stimulus":"\n                    <p><b>Action: <em>avoid</em></b></p>\n                    <p>This is the bee that you just saw.</p>\n                    <img src=\"bees-with-color/bee-B1DM.svg\" width=\"200\">\n                    <p><span class=\"greenText\">Good choice!</span>  This bee would have stung you.<br>Your bonus pay is unchanged, and remains at $0.48.</p>\n            ","response":0,"trial_type":"html-button-response","trial_index":128,"time_elapsed":760489,"internal_node_id":"0.0-4.0-1.60","subject_id":"6092f5798557f50d14d13327","study_id":"60edd13110225f80f9f3709b","session_id":"6196ba9dbcb542ad26486479","condition":"full-information","relevant_dimensions":["wings","legs"],"bee_group":{"antennae":"X","wings":"1","pattern":"X","legs":"M"},"bonus":0.6800000000000009},{"rt":15427.10000000149,"stimulus":"bees-with-color/bee-B2DF.svg","response":1,"trial_type":"image-button-response","trial_index":129,"time_elapsed":775919,"internal_node_id":"0.0-4.0-0.61","subject_id":"6092f5798557f50d14d13327","study_id":"60edd13110225f80f9f3709b","session_id":"6196ba9dbcb542ad26486479","condition":"full-information","relevant_dimensions":["wings","legs"],"bee_group":{"antennae":"X","wings":"1","pattern":"X","legs":"M"},"action":"avoid","summary":"bad-avoid","bonus":0.6800000000000009},{"rt":1277.5,"stimulus":"\n                    <p><b>Action: <em>avoid</em></b></p>\n                    <p>This is the bee that you just saw.</p>\n                    <img src=\"bees-with-color/bee-B2DF.svg\" width=\"200\">\n                    <p><span class=\"redText\">Bad choice,</span> the bee was friendly.<br>Your bonus pay is unchanged, and remains at $0.48.</p>\n            ","response":0,"trial_type":"html-button-response","trial_index":130,"time_elapsed":777199,"internal_node_id":"0.0-4.0-1.61","subject_id":"6092f5798557f50d14d13327","study_id":"60edd13110225f80f9f3709b","session_id":"6196ba9dbcb542ad26486479","condition":"full-information","relevant_dimensions":["wings","legs"],"bee_group":{"antennae":"X","wings":"1","pattern":"X","legs":"M"},"bonus":0.6800000000000009},{"rt":10997.29999999702,"stimulus":"bees-with-color/bee-A2SM.svg","response":0,"trial_type":"image-button-response","trial_index":131,"time_elapsed":788200,"internal_node_id":"0.0-4.0-0.62","subject_id":"6092f5798557f50d14d13327","study_id":"60edd13110225f80f9f3709b","session_id":"6196ba9dbcb542ad26486479","condition":"full-information","relevant_dimensions":["wings","legs"],"bee_group":{"antennae":"X","wings":"1","pattern":"X","legs":"M"},"action":"harvest","summary":"good-harvest","bonus":0.6800000000000009},{"rt":1350.2000000029802,"stimulus":"\n                    <p><b>Action: <em>harvest</em></b></p>\n                    <p>This is the bee that you just saw.</p>\n                    <img src=\"bees-with-color/bee-A2SM.svg\" width=\"200\">\n                    <p><span class=\"greenText\"><b>Successful harvest!</b></span><br>Your pay has increased by $0.02. Your bonus pay is now $0.50.</p>\n            ","response":0,"trial_type":"html-button-response","trial_index":132,"time_elapsed":789554,"internal_node_id":"0.0-4.0-1.62","subject_id":"6092f5798557f50d14d13327","study_id":"60edd13110225f80f9f3709b","session_id":"6196ba9dbcb542ad26486479","condition":"full-information","relevant_dimensions":["wings","legs"],"bee_group":{"antennae":"X","wings":"1","pattern":"X","legs":"M"},"bonus":0.6800000000000009},{"rt":9917,"stimulus":"bees-with-color/bee-A2SF.svg","response":1,"trial_type":"image-button-response","trial_index":133,"time_elapsed":799474,"internal_node_id":"0.0-4.0-0.63","subject_id":"6092f5798557f50d14d13327","study_id":"60edd13110225f80f9f3709b","session_id":"6196ba9dbcb542ad26486479","condition":"full-information","relevant_dimensions":["wings","legs"],"bee_group":{"antennae":"X","wings":"1","pattern":"X","legs":"M"},"action":"avoid","summary":"bad-avoid","bonus":0.6800000000000009},{"rt":1535.2000000029802,"stimulus":"\n                    <p><b>Action: <em>avoid</em></b></p>\n                    <p>This is the bee that you just saw.</p>\n                    <img src=\"bees-with-color/bee-A2SF.svg\" width=\"200\">\n                    <p><span class=\"redText\">Bad choice,</span> the bee was friendly.<br>Your bonus pay is unchanged, and remains at $0.50.</p>\n            ","response":0,"trial_type":"html-button-response","trial_index":134,"time_elapsed":801011,"internal_node_id":"0.0-4.0-1.63","subject_id":"6092f5798557f50d14d13327","study_id":"60edd13110225f80f9f3709b","session_id":"6196ba9dbcb542ad26486479","condition":"full-information","relevant_dimensions":["wings","legs"],"bee_group":{"antennae":"X","wings":"1","pattern":"X","legs":"M"},"bonus":0.6800000000000009},{"rt":5203,"stimulus":"You have completed the first part of this experiment.<br><br>You will now begin a shorter second part, in which you will receive no feedback.<br>The same rules regarding bonus pay apply.<br><br>Press any key to begin.","response":"h","trial_type":"html-keyboard-response","trial_index":135,"time_elapsed":806217,"internal_node_id":"0.0-5.0","subject_id":"6092f5798557f50d14d13327","study_id":"60edd13110225f80f9f3709b","session_id":"6196ba9dbcb542ad26486479","condition":"full-information","relevant_dimensions":["wings","legs"],"bee_group":{"antennae":"X","wings":"1","pattern":"X","legs":"M"},"bonus":0.6800000000000009},{"rt":15835.5,"stimulus":"bees-with-color/bee-B2SM.svg","response":0,"trial_type":"image-button-response","trial_index":136,"time_elapsed":822075,"internal_node_id":"0.0-6.0-0.0","subject_id":"6092f5798557f50d14d13327","study_id":"60edd13110225f80f9f3709b","session_id":"6196ba9dbcb542ad26486479","condition":"full-information","relevant_dimensions":["wings","legs"],"bee_group":{"antennae":"X","wings":"1","pattern":"X","legs":"M"},"bonus":0.6800000000000009},{"rt":8826.19999999553,"stimulus":"bees-with-color/bee-A1SF.svg","response":0,"trial_type":"image-button-response","trial_index":137,"time_elapsed":830906,"internal_node_id":"0.0-6.0-0.1","subject_id":"6092f5798557f50d14d13327","study_id":"60edd13110225f80f9f3709b","session_id":"6196ba9dbcb542ad26486479","condition":"full-information","relevant_dimensions":["wings","legs"],"bee_group":{"antennae":"X","wings":"1","pattern":"X","legs":"M"},"bonus":0.6800000000000009},{"rt":8996.5,"stimulus":"bees-with-color/bee-B1DF.svg","response":0,"trial_type":"image-button-response","trial_index":138,"time_elapsed":839908,"internal_node_id":"0.0-6.0-0.2","subject_id":"6092f5798557f50d14d13327","study_id":"60edd13110225f80f9f3709b","session_id":"6196ba9dbcb542ad26486479","condition":"full-information","relevant_dimensions":["wings","legs"],"bee_group":{"antennae":"X","wings":"1","pattern":"X","legs":"M"},"bonus":0.6800000000000009},{"rt":2996.2999999970198,"stimulus":"bees-with-color/bee-A1DM.svg","response":0,"trial_type":"image-button-response","trial_index":139,"time_elapsed":842911,"internal_node_id":"0.0-6.0-0.3","subject_id":"6092f5798557f50d14d13327","study_id":"60edd13110225f80f9f3709b","session_id":"6196ba9dbcb542ad26486479","condition":"full-information","relevant_dimensions":["wings","legs"],"bee_group":{"antennae":"X","wings":"1","pattern":"X","legs":"M"},"bonus":0.6800000000000009},{"rt":7807.29999999702,"stimulus":"bees-with-color/bee-A2SF.svg","response":0,"trial_type":"image-button-response","trial_index":140,"time_elapsed":850722,"internal_node_id":"0.0-6.0-0.4","subject_id":"6092f5798557f50d14d13327","study_id":"60edd13110225f80f9f3709b","session_id":"6196ba9dbcb542ad26486479","condition":"full-information","relevant_dimensions":["wings","legs"],"bee_group":{"antennae":"X","wings":"1","pattern":"X","legs":"M"},"bonus":0.6800000000000009},{"rt":6066.10000000149,"stimulus":"bees-with-color/bee-B1SM.svg","response":1,"trial_type":"image-button-response","trial_index":141,"time_elapsed":856795,"internal_node_id":"0.0-6.0-0.5","subject_id":"6092f5798557f50d14d13327","study_id":"60edd13110225f80f9f3709b","session_id":"6196ba9dbcb542ad26486479","condition":"full-information","relevant_dimensions":["wings","legs"],"bee_group":{"antennae":"X","wings":"1","pattern":"X","legs":"M"},"bonus":0.6800000000000009},{"rt":13408.19999999553,"stimulus":"bees-with-color/bee-B2DF.svg","response":1,"trial_type":"image-button-response","trial_index":142,"time_elapsed":870209,"internal_node_id":"0.0-6.0-0.6","subject_id":"6092f5798557f50d14d13327","study_id":"60edd13110225f80f9f3709b","session_id":"6196ba9dbcb542ad26486479","condition":"full-information","relevant_dimensions":["wings","legs"],"bee_group":{"antennae":"X","wings":"1","pattern":"X","legs":"M"},"bonus":0.6800000000000009},{"rt":9225.29999999702,"stimulus":"bees-with-color/bee-B1SF.svg","response":1,"trial_type":"image-button-response","trial_index":143,"time_elapsed":879439,"internal_node_id":"0.0-6.0-0.7","subject_id":"6092f5798557f50d14d13327","study_id":"60edd13110225f80f9f3709b","session_id":"6196ba9dbcb542ad26486479","condition":"full-information","relevant_dimensions":["wings","legs"],"bee_group":{"antennae":"X","wings":"1","pattern":"X","legs":"M"},"bonus":0.6800000000000009},{"rt":6660.19999999553,"stimulus":"bees-with-color/bee-A2DF.svg","response":0,"trial_type":"image-button-response","trial_index":144,"time_elapsed":886105,"internal_node_id":"0.0-6.0-0.8","subject_id":"6092f5798557f50d14d13327","study_id":"60edd13110225f80f9f3709b","session_id":"6196ba9dbcb542ad26486479","condition":"full-information","relevant_dimensions":["wings","legs"],"bee_group":{"antennae":"X","wings":"1","pattern":"X","legs":"M"},"bonus":0.6800000000000009},{"rt":18006,"stimulus":"bees-with-color/bee-A1SM.svg","response":1,"trial_type":"image-button-response","trial_index":145,"time_elapsed":904115,"internal_node_id":"0.0-6.0-0.9","subject_id":"6092f5798557f50d14d13327","study_id":"60edd13110225f80f9f3709b","session_id":"6196ba9dbcb542ad26486479","condition":"full-information","relevant_dimensions":["wings","legs"],"bee_group":{"antennae":"X","wings":"1","pattern":"X","legs":"M"},"bonus":0.6800000000000009},{"rt":9893.29999999702,"stimulus":"bees-with-color/bee-B2DM.svg","response":1,"trial_type":"image-button-response","trial_index":146,"time_elapsed":914014,"internal_node_id":"0.0-6.0-0.10","subject_id":"6092f5798557f50d14d13327","study_id":"60edd13110225f80f9f3709b","session_id":"6196ba9dbcb542ad26486479","condition":"full-information","relevant_dimensions":["wings","legs"],"bee_group":{"antennae":"X","wings":"1","pattern":"X","legs":"M"},"bonus":0.6800000000000009},{"rt":5725.39999999851,"stimulus":"bees-with-color/bee-B2SF.svg","response":0,"trial_type":"image-button-response","trial_index":147,"time_elapsed":919744,"internal_node_id":"0.0-6.0-0.11","subject_id":"6092f5798557f50d14d13327","study_id":"60edd13110225f80f9f3709b","session_id":"6196ba9dbcb542ad26486479","condition":"full-information","relevant_dimensions":["wings","legs"],"bee_group":{"antennae":"X","wings":"1","pattern":"X","legs":"M"},"bonus":0.6800000000000009},{"rt":10160.80000000447,"stimulus":"bees-with-color/bee-B1DM.svg","response":1,"trial_type":"image-button-response","trial_index":148,"time_elapsed":929910,"internal_node_id":"0.0-6.0-0.12","subject_id":"6092f5798557f50d14d13327","study_id":"60edd13110225f80f9f3709b","session_id":"6196ba9dbcb542ad26486479","condition":"full-information","relevant_dimensions":["wings","legs"],"bee_group":{"antennae":"X","wings":"1","pattern":"X","legs":"M"},"bonus":0.6800000000000009},{"rt":4187.70000000298,"stimulus":"bees-with-color/bee-A1DF.svg","response":0,"trial_type":"image-button-response","trial_index":149,"time_elapsed":934102,"internal_node_id":"0.0-6.0-0.13","subject_id":"6092f5798557f50d14d13327","study_id":"60edd13110225f80f9f3709b","session_id":"6196ba9dbcb542ad26486479","condition":"full-information","relevant_dimensions":["wings","legs"],"bee_group":{"antennae":"X","wings":"1","pattern":"X","legs":"M"},"bonus":0.6800000000000009},{"rt":6833.10000000149,"stimulus":"bees-with-color/bee-A2SM.svg","response":0,"trial_type":"image-button-response","trial_index":150,"time_elapsed":940940,"internal_node_id":"0.0-6.0-0.14","subject_id":"6092f5798557f50d14d13327","study_id":"60edd13110225f80f9f3709b","session_id":"6196ba9dbcb542ad26486479","condition":"full-information","relevant_dimensions":["wings","legs"],"bee_group":{"antennae":"X","wings":"1","pattern":"X","legs":"M"},"bonus":0.6800000000000009},{"rt":5207.29999999702,"stimulus":"bees-with-color/bee-A2DM.svg","response":1,"trial_type":"image-button-response","trial_index":151,"time_elapsed":946152,"internal_node_id":"0.0-6.0-0.15","subject_id":"6092f5798557f50d14d13327","study_id":"60edd13110225f80f9f3709b","session_id":"6196ba9dbcb542ad26486479","condition":"full-information","relevant_dimensions":["wings","legs"],"bee_group":{"antennae":"X","wings":"1","pattern":"X","legs":"M"},"bonus":0.6800000000000009},{"rt":4232.20000000298,"stimulus":"bees-with-color/bee-A1DM.svg","response":1,"trial_type":"image-button-response","trial_index":152,"time_elapsed":950388,"internal_node_id":"0.0-6.0-0.16","subject_id":"6092f5798557f50d14d13327","study_id":"60edd13110225f80f9f3709b","session_id":"6196ba9dbcb542ad26486479","condition":"full-information","relevant_dimensions":["wings","legs"],"bee_group":{"antennae":"X","wings":"1","pattern":"X","legs":"M"},"bonus":0.6800000000000009},{"rt":4431.70000000298,"stimulus":"bees-with-color/bee-A1SF.svg","response":0,"trial_type":"image-button-response","trial_index":153,"time_elapsed":954824,"internal_node_id":"0.0-6.0-0.17","subject_id":"6092f5798557f50d14d13327","study_id":"60edd13110225f80f9f3709b","session_id":"6196ba9dbcb542ad26486479","condition":"full-information","relevant_dimensions":["wings","legs"],"bee_group":{"antennae":"X","wings":"1","pattern":"X","legs":"M"},"bonus":0.6800000000000009},{"rt":9461.80000000447,"stimulus":"bees-with-color/bee-A1DF.svg","response":1,"trial_type":"image-button-response","trial_index":154,"time_elapsed":964290,"internal_node_id":"0.0-6.0-0.18","subject_id":"6092f5798557f50d14d13327","study_id":"60edd13110225f80f9f3709b","session_id":"6196ba9dbcb542ad26486479","condition":"full-information","relevant_dimensions":["wings","legs"],"bee_group":{"antennae":"X","wings":"1","pattern":"X","legs":"M"},"bonus":0.6800000000000009},{"rt":6223.89999999851,"stimulus":"bees-with-color/bee-B1SF.svg","response":1,"trial_type":"image-button-response","trial_index":155,"time_elapsed":970519,"internal_node_id":"0.0-6.0-0.19","subject_id":"6092f5798557f50d14d13327","study_id":"60edd13110225f80f9f3709b","session_id":"6196ba9dbcb542ad26486479","condition":"full-information","relevant_dimensions":["wings","legs"],"bee_group":{"antennae":"X","wings":"1","pattern":"X","legs":"M"},"bonus":0.6800000000000009},{"rt":15143.20000000298,"stimulus":"bees-with-color/bee-B1SM.svg","response":1,"trial_type":"image-button-response","trial_index":156,"time_elapsed":985667,"internal_node_id":"0.0-6.0-0.20","subject_id":"6092f5798557f50d14d13327","study_id":"60edd13110225f80f9f3709b","session_id":"6196ba9dbcb542ad26486479","condition":"full-information","relevant_dimensions":["wings","legs"],"bee_group":{"antennae":"X","wings":"1","pattern":"X","legs":"M"},"bonus":0.6800000000000009},{"rt":6670,"stimulus":"bees-with-color/bee-B1DF.svg","response":0,"trial_type":"image-button-response","trial_index":157,"time_elapsed":992341,"internal_node_id":"0.0-6.0-0.21","subject_id":"6092f5798557f50d14d13327","study_id":"60edd13110225f80f9f3709b","session_id":"6196ba9dbcb542ad26486479","condition":"full-information","relevant_dimensions":["wings","legs"],"bee_group":{"antennae":"X","wings":"1","pattern":"X","legs":"M"},"bonus":0.6800000000000009},{"rt":5411.80000000447,"stimulus":"bees-with-color/bee-B2DM.svg","response":1,"trial_type":"image-button-response","trial_index":158,"time_elapsed":997757,"internal_node_id":"0.0-6.0-0.22","subject_id":"6092f5798557f50d14d13327","study_id":"60edd13110225f80f9f3709b","session_id":"6196ba9dbcb542ad26486479","conditio