[{"success":true,"trial_type":"fullscreen","trial_index":0,"time_elapsed":4050,"internal_node_id":"0.0-0.0","subject_id":"5fe8ba794cfb7d2beeb93c79","study_id":"60edd13110225f80f9f3709b","session_id":"6196c703546bb2a802815001","condition":"full-information","relevant_dimensions":["wings","legs"],"bee_group":{"antennae":"X","wings":"1","pattern":"X","legs":"M"},"bonus":1.180000000000001},{"success":true,"timeout":false,"failed_images":[],"failed_audio":[],"failed_video":[],"trial_type":"preload","trial_index":1,"time_elapsed":5585,"internal_node_id":"0.0-1.0","subject_id":"5fe8ba794cfb7d2beeb93c79","study_id":"60edd13110225f80f9f3709b","session_id":"6196c703546bb2a802815001","condition":"full-information","relevant_dimensions":["wings","legs"],"bee_group":{"antennae":"X","wings":"1","pattern":"X","legs":"M"},"bonus":1.180000000000001},{"rt":1055.8999999761581,"stimulus":"Welcome! Press any key to begin.","response":" ","trial_type":"html-keyboard-response","trial_index":2,"time_elapsed":6642,"internal_node_id":"0.0-2.0","subject_id":"5fe8ba794cfb7d2beeb93c79","study_id":"60edd13110225f80f9f3709b","session_id":"6196c703546bb2a802815001","condition":"full-information","relevant_dimensions":["wings","legs"],"bee_group":{"antennae":"X","wings":"1","pattern":"X","legs":"M"},"bonus":1.180000000000001},{"view_history":[{"page_index":0,"viewing_time":2966},{"page_index":1,"viewing_time":5844.699999988079},{"page_index":2,"viewing_time":5748.400000035763},{"page_index":3,"viewing_time":9572.599999964237},{"page_index":4,"viewing_time":2915},{"page_index":5,"viewing_time":4419.600000023842},{"page_index":6,"viewing_time":5447.800000011921},{"page_index":7,"viewing_time":4330},{"page_index":8,"viewing_time":2999.5},{"page_index":9,"viewing_time":2089.699999988079},{"page_index":10,"viewing_time":2185.199999988079},{"page_index":11,"viewing_time":6149.800000011921},{"page_index":12,"viewing_time":11855.5},{"page_index":13,"viewing_time":2082.300000011921},{"page_index":14,"viewing_time":1753.699999988079}],"rt":70360.30000001192,"trial_type":"instructions","trial_index":3,"time_elapsed":77003,"internal_node_id":"0.0-3.0-0.0","subject_id":"5fe8ba794cfb7d2beeb93c79","study_id":"60edd13110225f80f9f3709b","session_id":"6196c703546bb2a802815001","condition":"full-information","relevant_dimensions":["wings","legs"],"bee_group":{"antennae":"X","wings":"1","pattern":"X","legs":"M"},"bonus":1.180000000000001},{"rt":9035.399999976158,"response":{"Q0":["Two or six legs","Stripes or spots on body","Single or double wings","Antennae or no antennae"]},"question_order":[0],"trial_type":"survey-multi-select","trial_index":4,"time_elapsed":86045,"internal_node_id":"0.0-3.0-1.0","subject_id":"5fe8ba794cfb7d2beeb93c79","study_id":"60edd13110225f80f9f3709b","session_id":"6196c703546bb2a802815001","condition":"full-information","relevant_dimensions":["wings","legs"],"bee_group":{"antennae":"X","wings":"1","pattern":"X","legs":"M"},"correct":true,"bonus":1.180000000000001},{"rt":16376.199999988079,"response":{"Q1":"No.","Q2":"Based on the four features of the bee.","Q3":"You learn if it was friendly or dangerous, but do not alter your bonus."},"question_order":[0,1,2],"trial_type":"survey-multi-choice","trial_index":5,"time_elapsed":102424,"internal_node_id":"0.0-3.0-2.0","subject_id":"5fe8ba794cfb7d2beeb93c79","study_id":"60edd13110225f80f9f3709b","session_id":"6196c703546bb2a802815001","condition":"full-information","relevant_dimensions":["wings","legs"],"bee_group":{"antennae":"X","wings":"1","pattern":"X","legs":"M"},"correct":true,"bonus":1.180000000000001},{"rt":1912.1000000238419,"stimulus":"<p>Congrats, you got everything right<br>When you're ready, click the button below to continue to the experiment.</p>","response":0,"trial_type":"html-button-response","trial_index":6,"time_elapsed":104339,"internal_node_id":"0.0-3.0-3.0","subject_id":"5fe8ba794cfb7d2beeb93c79","study_id":"60edd13110225f80f9f3709b","session_id":"6196c703546bb2a802815001","condition":"full-information","relevant_dimensions":["wings","legs"],"bee_group":{"antennae":"X","wings":"1","pattern":"X","legs":"M"},"bonus":1.180000000000001},{"rt":5333.099999964237,"stimulus":"bees-with-color/bee-A1SM.svg","response":0,"trial_type":"image-button-response","trial_index":7,"time_elapsed":109677,"internal_node_id":"0.0-4.0-0.0","subject_id":"5fe8ba794cfb7d2beeb93c79","study_id":"60edd13110225f80f9f3709b","session_id":"6196c703546bb2a802815001","condition":"full-information","relevant_dimensions":["wings","legs"],"bee_group":{"antennae":"X","wings":"1","pattern":"X","legs":"M"},"action":"harvest","summary":"bad-harvest","bonus":1.180000000000001},{"rt":4061.300000011921,"stimulus":"\n                    <p><b>Action: <em>harvest</em></b></p>\n                    <p>This is the bee that you just saw.</p>\n                    <img src=\"bees-with-color/bee-A1SM.svg\" width=\"200\">\n                    <p><span class=\"redText\">Bad choice, the bee was angry.</span><br><b>You have been stung!</b><br>Your pay has been decreased by $0.10. Your bonus pay is now $0.44.</p>\n            ","response":0,"trial_type":"html-button-response","trial_index":8,"time_elapsed":113743,"internal_node_id":"0.0-4.0-1.0","subject_id":"5fe8ba794cfb7d2beeb93c79","study_id":"60edd13110225f80f9f3709b","session_id":"6196c703546bb2a802815001","condition":"full-information","relevant_dimensions":["wings","legs"],"bee_group":{"antennae":"X","wings":"1","pattern":"X","legs":"M"},"bonus":1.180000000000001},{"rt":3712.899999976158,"stimulus":"bees-with-color/bee-A2DF.svg","response":0,"trial_type":"image-button-response","trial_index":9,"time_elapsed":117459,"internal_node_id":"0.0-4.0-0.1","subject_id":"5fe8ba794cfb7d2beeb93c79","study_id":"60edd13110225f80f9f3709b","session_id":"6196c703546bb2a802815001","condition":"full-information","relevant_dimensions":["wings","legs"],"bee_group":{"antennae":"X","wings":"1","pattern":"X","legs":"M"},"action":"harvest","summary":"good-harvest","bonus":1.180000000000001},{"rt":6283.600000023842,"stimulus":"\n                    <p><b>Action: <em>harvest</em></b></p>\n                    <p>This is the bee that you just saw.</p>\n                    <img src=\"bees-with-color/bee-A2DF.svg\" width=\"200\">\n                    <p><span class=\"greenText\"><b>Successful harvest!</b></span><br>Your pay has increased by $0.02. Your bonus pay is now $0.46.</p>\n            ","response":0,"trial_type":"html-button-response","trial_index":10,"time_elapsed":123746,"internal_node_id":"0.0-4.0-1.1","subject_id":"5fe8ba794cfb7d2beeb93c79","study_id":"60edd13110225f80f9f3709b","session_id":"6196c703546bb2a802815001","condition":"full-information","relevant_dimensions":["wings","legs"],"bee_group":{"antennae":"X","wings":"1","pattern":"X","legs":"M"},"bonus":1.180000000000001},{"rt":3916.399999976158,"stimulus":"bees-with-color/bee-B2DF.svg","response":0,"trial_type":"image-button-response","trial_index":11,"time_elapsed":127666,"internal_node_id":"0.0-4.0-0.2","subject_id":"5fe8ba794cfb7d2beeb93c79","study_id":"60edd13110225f80f9f3709b","session_id":"6196c703546bb2a802815001","condition":"full-information","relevant_dimensions":["wings","legs"],"bee_group":{"antennae":"X","wings":"1","pattern":"X","legs":"M"},"action":"harvest","summary":"good-harvest","bonus":1.180000000000001},{"rt":3520.599999964237,"stimulus":"\n                    <p><b>Action: <em>harvest</em></b></p>\n                    <p>This is the bee that you just saw.</p>\n                    <img src=\"bees-with-color/bee-B2DF.svg\" width=\"200\">\n                    <p><span class=\"greenText\"><b>Successful harvest!</b></span><br>Your pay has increased by $0.02. Your bonus pay is now $0.48.</p>\n            ","response":0,"trial_type":"html-button-response","trial_index":12,"time_elapsed":131190,"internal_node_id":"0.0-4.0-1.2","subject_id":"5fe8ba794cfb7d2beeb93c79","study_id":"60edd13110225f80f9f3709b","session_id":"6196c703546bb2a802815001","condition":"full-information","relevant_dimensions":["wings","legs"],"bee_group":{"antennae":"X","wings":"1","pattern":"X","legs":"M"},"bonus":1.180000000000001},{"rt":3302.199999988079,"stimulus":"bees-with-color/bee-B1DM.svg","response":0,"trial_type":"image-button-response","trial_index":13,"time_elapsed":134495,"internal_node_id":"0.0-4.0-0.3","subject_id":"5fe8ba794cfb7d2beeb93c79","study_id":"60edd13110225f80f9f3709b","session_id":"6196c703546bb2a802815001","condition":"full-information","relevant_dimensions":["wings","legs"],"bee_group":{"antennae":"X","wings":"1","pattern":"X","legs":"M"},"action":"harvest","summary":"bad-harvest","bonus":1.180000000000001},{"rt":2808.399999976158,"stimulus":"\n                    <p><b>Action: <em>harvest</em></b></p>\n                    <p>This is the bee that you just saw.</p>\n                    <img src=\"bees-with-color/bee-B1DM.svg\" width=\"200\">\n                    <p><span class=\"redText\">Bad choice, the bee was angry.</span><br><b>You have been stung!</b><br>Your pay has been decreased by $0.10. Your bonus pay is now $0.38.</p>\n            ","response":0,"trial_type":"html-button-response","trial_index":14,"time_elapsed":137305,"internal_node_id":"0.0-4.0-1.3","subject_id":"5fe8ba794cfb7d2beeb93c79","study_id":"60edd13110225f80f9f3709b","session_id":"6196c703546bb2a802815001","condition":"full-information","relevant_dimensions":["wings","legs"],"bee_group":{"antennae":"X","wings":"1","pattern":"X","legs":"M"},"bonus":1.180000000000001},{"rt":1886.800000011921,"stimulus":"bees-with-color/bee-A2SF.svg","response":1,"trial_type":"image-button-response","trial_index":15,"time_elapsed":139195,"internal_node_id":"0.0-4.0-0.4","subject_id":"5fe8ba794cfb7d2beeb93c79","study_id":"60edd13110225f80f9f3709b","session_id":"6196c703546bb2a802815001","condition":"full-information","relevant_dimensions":["wings","legs"],"bee_group":{"antennae":"X","wings":"1","pattern":"X","legs":"M"},"action":"avoid","summary":"bad-avoid","bonus":1.180000000000001},{"rt":2090.900000035763,"stimulus":"\n                    <p><b>Action: <em>avoid</em></b></p>\n                    <p>This is the bee that you just saw.</p>\n                    <img src=\"bees-with-color/bee-A2SF.svg\" width=\"200\">\n                    <p><span class=\"redText\">Bad choice,</span> the bee was friendly.<br>Your bonus pay is unchanged, and remains at $0.38.</p>\n            ","response":0,"trial_type":"html-button-response","trial_index":16,"time_elapsed":141289,"internal_node_id":"0.0-4.0-1.4","subject_id":"5fe8ba794cfb7d2beeb93c79","study_id":"60edd13110225f80f9f3709b","session_id":"6196c703546bb2a802815001","condition":"full-information","relevant_dimensions":["wings","legs"],"bee_group":{"antennae":"X","wings":"1","pattern":"X","legs":"M"},"bonus":1.180000000000001},{"rt":2690.100000023842,"stimulus":"bees-with-color/bee-B2DM.svg","response":1,"trial_type":"image-button-response","trial_index":17,"time_elapsed":143982,"internal_node_id":"0.0-4.0-0.5","subject_id":"5fe8ba794cfb7d2beeb93c79","study_id":"60edd13110225f80f9f3709b","session_id":"6196c703546bb2a802815001","condition":"full-information","relevant_dimensions":["wings","legs"],"bee_group":{"antennae":"X","wings":"1","pattern":"X","legs":"M"},"action":"avoid","summary":"bad-avoid","bonus":1.180000000000001},{"rt":3485.800000011921,"stimulus":"\n                    <p><b>Action: <em>avoid</em></b></p>\n                    <p>This is the bee that you just saw.</p>\n                    <img src=\"bees-with-color/bee-B2DM.svg\" width=\"200\">\n                    <p><span class=\"redText\">Bad choice,</span> the bee was friendly.<br>Your bonus pay is unchanged, and remains at $0.38.</p>\n            ","response":0,"trial_type":"html-button-response","trial_index":18,"time_elapsed":147469,"internal_node_id":"0.0-4.0-1.5","subject_id":"5fe8ba794cfb7d2beeb93c79","study_id":"60edd13110225f80f9f3709b","session_id":"6196c703546bb2a802815001","condition":"full-information","relevant_dimensions":["wings","legs"],"bee_group":{"antennae":"X","wings":"1","pattern":"X","legs":"M"},"bonus":1.180000000000001},{"rt":2111,"stimulus":"bees-with-color/bee-A1SF.svg","response":1,"trial_type":"image-button-response","trial_index":19,"time_elapsed":149583,"internal_node_id":"0.0-4.0-0.6","subject_id":"5fe8ba794cfb7d2beeb93c79","study_id":"60edd13110225f80f9f3709b","session_id":"6196c703546bb2a802815001","condition":"full-information","relevant_dimensions":["wings","legs"],"bee_group":{"antennae":"X","wings":"1","pattern":"X","legs":"M"},"action":"avoid","summary":"bad-avoid","bonus":1.180000000000001},{"rt":2208.100000023842,"stimulus":"\n                    <p><b>Action: <em>avoid</em></b></p>\n                    <p>This is the bee that you just saw.</p>\n                    <img src=\"bees-with-color/bee-A1SF.svg\" width=\"200\">\n                    <p><span class=\"redText\">Bad choice,</span> the bee was friendly.<br>Your bonus pay is unchanged, and remains at $0.38.</p>\n            ","response":0,"trial_type":"html-button-response","trial_index":20,"time_elapsed":151794,"internal_node_id":"0.0-4.0-1.6","subject_id":"5fe8ba794cfb7d2beeb93c79","study_id":"60edd13110225f80f9f3709b","session_id":"6196c703546bb2a802815001","condition":"full-information","relevant_dimensions":["wings","legs"],"bee_group":{"antennae":"X","wings":"1","pattern":"X","legs":"M"},"bonus":1.180000000000001},{"rt":1390,"stimulus":"bees-with-color/bee-B2SM.svg","response":0,"trial_type":"image-button-response","trial_index":21,"time_elapsed":153186,"internal_node_id":"0.0-4.0-0.7","subject_id":"5fe8ba794cfb7d2beeb93c79","study_id":"60edd13110225f80f9f3709b","session_id":"6196c703546bb2a802815001","condition":"full-information","relevant_dimensions":["wings","legs"],"bee_group":{"antennae":"X","wings":"1","pattern":"X","legs":"M"},"action":"harvest","summary":"good-harvest","bonus":1.180000000000001},{"rt":1868.5,"stimulus":"\n                    <p><b>Action: <em>harvest</em></b></p>\n                    <p>This is the bee that you just saw.</p>\n                    <img src=\"bees-with-color/bee-B2SM.svg\" width=\"200\">\n                    <p><span class=\"greenText\"><b>Successful harvest!</b></span><br>Your pay has increased by $0.02. Your bonus pay is now $0.40.</p>\n            ","response":0,"trial_type":"html-button-response","trial_index":22,"time_elapsed":155057,"internal_node_id":"0.0-4.0-1.7","subject_id":"5fe8ba794cfb7d2beeb93c79","study_id":"60edd13110225f80f9f3709b","session_id":"6196c703546bb2a802815001","condition":"full-information","relevant_dimensions":["wings","legs"],"bee_group":{"antennae":"X","wings":"1","pattern":"X","legs":"M"},"bonus":1.180000000000001},{"rt":1746,"stimulus":"bees-with-color/bee-B1DF.svg","response":0,"trial_type":"image-button-response","trial_index":23,"time_elapsed":156806,"internal_node_id":"0.0-4.0-0.8","subject_id":"5fe8ba794cfb7d2beeb93c79","study_id":"60edd13110225f80f9f3709b","session_id":"6196c703546bb2a802815001","condition":"full-information","relevant_dimensions":["wings","legs"],"bee_group":{"antennae":"X","wings":"1","pattern":"X","legs":"M"},"action":"harvest","summary":"good-harvest","bonus":1.180000000000001},{"rt":1583.2000000476837,"stimulus":"\n                    <p><b>Action: <em>harvest</em></b></p>\n                    <p>This is the bee that you just saw.</p>\n                    <img src=\"bees-with-color/bee-B1DF.svg\" width=\"200\">\n                    <p><span class=\"greenText\"><b>Successful harvest!</b></span><br>Your pay has increased by $0.02. Your bonus pay is now $0.42.</p>\n            ","response":0,"trial_type":"html-button-response","trial_index":24,"time_elapsed":158392,"internal_node_id":"0.0-4.0-1.8","subject_id":"5fe8ba794cfb7d2beeb93c79","study_id":"60edd13110225f80f9f3709b","session_id":"6196c703546bb2a802815001","condition":"full-information","relevant_dimensions":["wings","legs"],"bee_group":{"antennae":"X","wings":"1","pattern":"X","legs":"M"},"bonus":1.180000000000001},{"rt":6786.600000023842,"stimulus":"bees-with-color/bee-B2SF.svg","response":0,"trial_type":"image-button-response","trial_index":25,"time_elapsed":165181,"internal_node_id":"0.0-4.0-0.9","subject_id":"5fe8ba794cfb7d2beeb93c79","study_id":"60edd13110225f80f9f3709b","session_id":"6196c703546bb2a802815001","condition":"full-information","relevant_dimensions":["wings","legs"],"bee_group":{"antennae":"X","wings":"1","pattern":"X","legs":"M"},"action":"harvest","summary":"good-harvest","bonus":1.180000000000001},{"rt":1568.199999988079,"stimulus":"\n                    <p><b>Action: <em>harvest</em></b></p>\n                    <p>This is the bee that you just saw.</p>\n                    <img src=\"bees-with-color/bee-B2SF.svg\" width=\"200\">\n                    <p><span class=\"greenText\"><b>Successful harvest!</b></span><br>Your pay has increased by $0.02. Your bonus pay is now $0.44.</p>\n            ","response":0,"trial_type":"html-button-response","trial_index":26,"time_elapsed":166752,"internal_node_id":"0.0-4.0-1.9","subject_id":"5fe8ba794cfb7d2beeb93c79","study_id":"60edd13110225f80f9f3709b","session_id":"6196c703546bb2a802815001","condition":"full-information","relevant_dimensions":["wings","legs"],"bee_group":{"antennae":"X","wings":"1","pattern":"X","legs":"M"},"bonus":1.180000000000001},{"rt":5953,"stimulus":"bees-with-color/bee-B1SM.svg","response":1,"trial_type":"image-button-response","trial_index":27,"time_elapsed":172707,"internal_node_id":"0.0-4.0-0.10","subject_id":"5fe8ba794cfb7d2beeb93c79","study_id":"60edd13110225f80f9f3709b","session_id":"6196c703546bb2a802815001","condition":"full-information","relevant_dimensions":["wings","legs"],"bee_group":{"antennae":"X","wings":"1","pattern":"X","legs":"M"},"action":"avoid","summary":"good-avoid","bonus":1.180000000000001},{"rt":3131,"stimulus":"\n                    <p><b>Action: <em>avoid</em></b></p>\n                    <p>This is the bee that you just saw.</p>\n                    <img src=\"bees-with-color/bee-B1SM.svg\" width=\"200\">\n                    <p><span class=\"greenText\">Good choice!</span>  This bee would have stung you.<br>Your bonus pay is unchanged, and remains at $0.44.</p>\n            ","response":0,"trial_type":"html-button-response","trial_index":28,"time_elapsed":175840,"internal_node_id":"0.0-4.0-1.10","subject_id":"5fe8ba794cfb7d2beeb93c79","study_id":"60edd13110225f80f9f3709b","session_id":"6196c703546bb2a802815001","condition":"full-information","relevant_dimensions":["wings","legs"],"bee_group":{"antennae":"X","wings":"1","pattern":"X","legs":"M"},"bonus":1.180000000000001},{"rt":2686.600000023842,"stimulus":"bees-with-color/bee-A2SM.svg","response":0,"trial_type":"image-button-response","trial_index":29,"time_elapsed":178530,"internal_node_id":"0.0-4.0-0.11","subject_id":"5fe8ba794cfb7d2beeb93c79","study_id":"60edd13110225f80f9f3709b","session_id":"6196c703546bb2a802815001","condition":"full-information","relevant_dimensions":["wings","legs"],"bee_group":{"antennae":"X","wings":"1","pattern":"X","legs":"M"},"action":"harvest","summary":"good-harvest","bonus":1.180000000000001},{"rt":1889.8999999761581,"stimulus":"\n                    <p><b>Action: <em>harvest</em></b></p>\n                    <p>This is the bee that you just saw.</p>\n                    <img src=\"bees-with-color/bee-A2SM.svg\" width=\"200\">\n                    <p><span class=\"greenText\"><b>Successful harvest!</b></span><br>Your pay has increased by $0.02. Your bonus pay is now $0.46.</p>\n            ","response":0,"trial_type":"html-button-response","trial_index":30,"time_elapsed":180422,"internal_node_id":"0.0-4.0-1.11","subject_id":"5fe8ba794cfb7d2beeb93c79","study_id":"60edd13110225f80f9f3709b","session_id":"6196c703546bb2a802815001","condition":"full-information","relevant_dimensions":["wings","legs"],"bee_group":{"antennae":"X","wings":"1","pattern":"X","legs":"M"},"bonus":1.180000000000001},{"rt":3872.899999976158,"stimulus":"bees-with-color/bee-A1DF.svg","response":0,"trial_type":"image-button-response","trial_index":31,"time_elapsed":184297,"internal_node_id":"0.0-4.0-0.12","subject_id":"5fe8ba794cfb7d2beeb93c79","study_id":"60edd13110225f80f9f3709b","session_id":"6196c703546bb2a802815001","condition":"full-information","relevant_dimensions":["wings","legs"],"bee_group":{"antennae":"X","wings":"1","pattern":"X","legs":"M"},"action":"harvest","summary":"good-harvest","bonus":1.180000000000001},{"rt":1701.699999988079,"stimulus":"\n                    <p><b>Action: <em>harvest</em></b></p>\n                    <p>This is the bee that you just saw.</p>\n                    <img src=\"bees-with-color/bee-A1DF.svg\" width=\"200\">\n                    <p><span class=\"greenText\"><b>Successful harvest!</b></span><br>Your pay has increased by $0.02. Your bonus pay is now $0.48.</p>\n            ","response":0,"trial_type":"html-button-response","trial_index":32,"time_elapsed":186001,"internal_node_id":"0.0-4.0-1.12","subject_id":"5fe8ba794cfb7d2beeb93c79","study_id":"60edd13110225f80f9f3709b","session_id":"6196c703546bb2a802815001","condition":"full-information","relevant_dimensions":["wings","legs"],"bee_group":{"antennae":"X","wings":"1","pattern":"X","legs":"M"},"bonus":1.180000000000001},{"rt":3128.800000011921,"stimulus":"bees-with-color/bee-A1DM.svg","response":0,"trial_type":"image-button-response","trial_index":33,"time_elapsed":189133,"internal_node_id":"0.0-4.0-0.13","subject_id":"5fe8ba794cfb7d2beeb93c79","study_id":"60edd13110225f80f9f3709b","session_id":"6196c703546bb2a802815001","condition":"full-information","relevant_dimensions":["wings","legs"],"bee_group":{"antennae":"X","wings":"1","pattern":"X","legs":"M"},"action":"harvest","summary":"bad-harvest","bonus":1.180000000000001},{"rt":5582.699999988079,"stimulus":"\n                    <p><b>Action: <em>harvest</em></b></p>\n                    <p>This is the bee that you just saw.</p>\n                    <img src=\"bees-with-color/bee-A1DM.svg\" width=\"200\">\n                    <p><span class=\"redText\">Bad choice, the bee was angry.</span><br><b>You have been stung!</b><br>Your pay has been decreased by $0.10. Your bonus pay is now $0.38.</p>\n            ","response":0,"trial_type":"html-button-response","trial_index":34,"time_elapsed":194718,"internal_node_id":"0.0-4.0-1.13","subject_id":"5fe8ba794cfb7d2beeb93c79","study_id":"60edd13110225f80f9f3709b","session_id":"6196c703546bb2a802815001","condition":"full-information","relevant_dimensions":["wings","legs"],"bee_group":{"antennae":"X","wings":"1","pattern":"X","legs":"M"},"bonus":1.180000000000001},{"rt":3933.300000011921,"stimulus":"bees-with-color/bee-A2DM.svg","response":0,"trial_type":"image-button-response","trial_index":35,"time_elapsed":198654,"internal_node_id":"0.0-4.0-0.14","subject_id":"5fe8ba794cfb7d2beeb93c79","study_id":"60edd13110225f80f9f3709b","session_id":"6196c703546bb2a802815001","condition":"full-information","relevant_dimensions":["wings","legs"],"bee_group":{"antennae":"X","wings":"1","pattern":"X","legs":"M"},"action":"harvest","summary":"good-harvest","bonus":1.180000000000001},{"rt":1919.8999999761581,"stimulus":"\n                    <p><b>Action: <em>harvest</em></b></p>\n                    <p>This is the bee that you just saw.</p>\n                    <img src=\"bees-with-color/bee-A2DM.svg\" width=\"200\">\n                    <p><span class=\"greenText\"><b>Successful harvest!</b></span><br>Your pay has increased by $0.02. Your bonus pay is now $0.40.</p>\n            ","response":0,"trial_type":"html-button-response","trial_index":36,"time_elapsed":200576,"internal_node_id":"0.0-4.0-1.14","subject_id":"5fe8ba794cfb7d2beeb93c79","study_id":"60edd13110225f80f9f3709b","session_id":"6196c703546bb2a802815001","condition":"full-information","relevant_dimensions":["wings","legs"],"bee_group":{"antennae":"X","wings":"1","pattern":"X","legs":"M"},"bonus":1.180000000000001},{"rt":3589.7999999523163,"stimulus":"bees-with-color/bee-B1SF.svg","response":0,"trial_type":"image-button-response","trial_index":37,"time_elapsed":204168,"internal_node_id":"0.0-4.0-0.15","subject_id":"5fe8ba794cfb7d2beeb93c79","study_id":"60edd13110225f80f9f3709b","session_id":"6196c703546bb2a802815001","condition":"full-information","relevant_dimensions":["wings","legs"],"bee_group":{"antennae":"X","wings":"1","pattern":"X","legs":"M"},"action":"harvest","summary":"good-harvest","bonus":1.180000000000001},{"rt":2027.5,"stimulus":"\n                    <p><b>Action: <em>harvest</em></b></p>\n                    <p>This is the bee that you just saw.</p>\n                    <img src=\"bees-with-color/bee-B1SF.svg\" width=\"200\">\n                    <p><span class=\"greenText\"><b>Successful harvest!</b></span><br>Your pay has increased by $0.02. Your bonus pay is now $0.42.</p>\n            ","response":0,"trial_type":"html-button-response","trial_index":38,"time_elapsed":206198,"internal_node_id":"0.0-4.0-1.15","subject_id":"5fe8ba794cfb7d2beeb93c79","study_id":"60edd13110225f80f9f3709b","session_id":"6196c703546bb2a802815001","condition":"full-information","relevant_dimensions":["wings","legs"],"bee_group":{"antennae":"X","wings":"1","pattern":"X","legs":"M"},"bonus":1.180000000000001},{"rt":5772.300000011921,"stimulus":"bees-with-color/bee-B1SF.svg","response":1,"trial_type":"image-button-response","trial_index":39,"time_elapsed":211973,"internal_node_id":"0.0-4.0-0.16","subject_id":"5fe8ba794cfb7d2beeb93c79","study_id":"60edd13110225f80f9f3709b","session_id":"6196c703546bb2a802815001","condition":"full-information","relevant_dimensions":["wings","legs"],"bee_group":{"antennae":"X","wings":"1","pattern":"X","legs":"M"},"action":"avoid","summary":"bad-avoid","bonus":1.180000000000001},{"rt":2401.599999964237,"stimulus":"\n                    <p><b>Action: <em>avoid</em></b></p>\n                    <p>This is the bee that you just saw.</p>\n                    <img src=\"bees-with-color/bee-B1SF.svg\" width=\"200\">\n                    <p><span class=\"redText\">Bad choice,</span> the bee was friendly.<br>Your bonus pay is unchanged, and remains at $0.42.</p>\n            ","response":0,"trial_type":"html-button-response","trial_index":40,"time_elapsed":214377,"internal_node_id":"0.0-4.0-1.16","subject_id":"5fe8ba794cfb7d2beeb93c79","study_id":"60edd13110225f80f9f3709b","session_id":"6196c703546bb2a802815001","condition":"full-information","relevant_dimensions":["wings","legs"],"bee_group":{"antennae":"X","wings":"1","pattern":"X","legs":"M"},"bonus":1.180000000000001},{"rt":1621.5,"stimulus":"bees-with-color/bee-A1DF.svg","response":1,"trial_type":"image-button-response","trial_index":41,"time_elapsed":216001,"internal_node_id":"0.0-4.0-0.17","subject_id":"5fe8ba794cfb7d2beeb93c79","study_id":"60edd13110225f80f9f3709b","session_id":"6196c703546bb2a802815001","condition":"full-information","relevant_dimensions":["wings","legs"],"bee_group":{"antennae":"X","wings":"1","pattern":"X","legs":"M"},"action":"avoid","summary":"bad-avoid","bonus":1.180000000000001},{"rt":1429.3999999761581,"stimulus":"\n                    <p><b>Action: <em>avoid</em></b></p>\n                    <p>This is the bee that you just saw.</p>\n                    <img src=\"bees-with-color/bee-A1DF.svg\" width=\"200\">\n                    <p><span class=\"redText\">Bad choice,</span> the bee was friendly.<br>Your bonus pay is unchanged, and remains at $0.42.</p>\n            ","response":0,"trial_type":"html-button-response","trial_index":42,"time_elapsed":217433,"internal_node_id":"0.0-4.0-1.17","subject_id":"5fe8ba794cfb7d2beeb93c79","study_id":"60edd13110225f80f9f3709b","session_id":"6196c703546bb2a802815001","condition":"full-information","relevant_dimensions":["wings","legs"],"bee_group":{"antennae":"X","wings":"1","pattern":"X","legs":"M"},"bonus":1.180000000000001},{"rt":964.7999999523163,"stimulus":"bees-with-color/bee-A2SM.svg","response":0,"trial_type":"image-button-response","trial_index":43,"time_elapsed":218400,"internal_node_id":"0.0-4.0-0.18","subject_id":"5fe8ba794cfb7d2beeb93c79","study_id":"60edd13110225f80f9f3709b","session_id":"6196c703546bb2a802815001","condition":"full-information","relevant_dimensions":["wings","legs"],"bee_group":{"antennae":"X","wings":"1","pattern":"X","legs":"M"},"action":"harvest","summary":"good-harvest","bonus":1.180000000000001},{"rt":1397.5,"stimulus":"\n                    <p><b>Action: <em>harvest</em></b></p>\n                    <p>This is the bee that you just saw.</p>\n                    <img src=\"bees-with-color/bee-A2SM.svg\" width=\"200\">\n                    <p><span class=\"greenText\"><b>Successful harvest!</b></span><br>Your pay has increased by $0.02. Your bonus pay is now $0.44.</p>\n            ","response":0,"trial_type":"html-button-response","trial_index":44,"time_elapsed":219800,"internal_node_id":"0.0-4.0-1.18","subject_id":"5fe8ba794cfb7d2beeb93c79","study_id":"60edd13110225f80f9f3709b","session_id":"6196c703546bb2a802815001","condition":"full-information","relevant_dimensions":["wings","legs"],"bee_group":{"antennae":"X","wings":"1","pattern":"X","legs":"M"},"bonus":1.180000000000001},{"rt":1137.4000000357628,"stimulus":"bees-with-color/bee-A2DM.svg","response":0,"trial_type":"image-button-response","trial_index":45,"time_elapsed":220939,"internal_node_id":"0.0-4.0-0.19","subject_id":"5fe8ba794cfb7d2beeb93c79","study_id":"60edd13110225f80f9f3709b","session_id":"6196c703546bb2a802815001","condition":"full-information","relevant_dimensions":["wings","legs"],"bee_group":{"antennae":"X","wings":"1","pattern":"X","legs":"M"},"action":"harvest","summary":"good-harvest","bonus":1.180000000000001},{"rt":1424.199999988079,"stimulus":"\n                    <p><b>Action: <em>harvest</em></b></p>\n                    <p>This is the bee that you just saw.</p>\n                    <img src=\"bees-with-color/bee-A2DM.svg\" width=\"200\">\n                    <p><span class=\"greenText\"><b>Successful harvest!</b></span><br>Your pay has increased by $0.02. Your bonus pay is now $0.46.</p>\n            ","response":0,"trial_type":"html-button-response","trial_index":46,"time_elapsed":222365,"internal_node_id":"0.0-4.0-1.19","subject_id":"5fe8ba794cfb7d2beeb93c79","study_id":"60edd13110225f80f9f3709b","session_id":"6196c703546bb2a802815001","condition":"full-information","relevant_dimensions":["wings","legs"],"bee_group":{"antennae":"X","wings":"1","pattern":"X","legs":"M"},"bonus":1.180000000000001},{"rt":3022.699999988079,"stimulus":"bees-with-color/bee-A1DM.svg","response":0,"trial_type":"image-button-response","trial_index":47,"time_elapsed":225390,"internal_node_id":"0.0-4.0-0.20","subject_id":"5fe8ba794cfb7d2beeb93c79","study_id":"60edd13110225f80f9f3709b","session_id":"6196c703546bb2a802815001","condition":"full-information","relevant_dimensions":["wings","legs"],"bee_group":{"antennae":"X","wings":"1","pattern":"X","legs":"M"},"action":"harvest","summary":"bad-harvest","bonus":1.180000000000001},{"rt":1802.6000000238419,"stimulus":"\n                    <p><b>Action: <em>harvest</em></b></p>\n                    <p>This is the bee that you just saw.</p>\n                    <img src=\"bees-with-color/bee-A1DM.svg\" width=\"200\">\n                    <p><span class=\"redText\">Bad choice, the bee was angry.</span><br><b>You have been stung!</b><br>Your pay has been decreased by $0.10. Your bonus pay is now $0.36.</p>\n            ","response":0,"trial_type":"html-button-response","trial_index":48,"time_elapsed":227195,"internal_node_id":"0.0-4.0-1.20","subject_id":"5fe8ba794cfb7d2beeb93c79","study_id":"60edd13110225f80f9f3709b","session_id":"6196c703546bb2a802815001","condition":"full-information","relevant_dimensions":["wings","legs"],"bee_group":{"antennae":"X","wings":"1","pattern":"X","legs":"M"},"bonus":1.180000000000001},{"rt":2337.400000035763,"stimulus":"bees-with-color/bee-B1DM.svg","response":0,"trial_type":"image-button-response","trial_index":49,"time_elapsed":229536,"internal_node_id":"0.0-4.0-0.21","subject_id":"5fe8ba794cfb7d2beeb93c79","study_id":"60edd13110225f80f9f3709b","session_id":"6196c703546bb2a802815001","condition":"full-information","relevant_dimensions":["wings","legs"],"bee_group":{"antennae":"X","wings":"1","pattern":"X","legs":"M"},"action":"harvest","summary":"bad-harvest","bonus":1.180000000000001},{"rt":4179.5,"stimulus":"\n                    <p><b>Action: <em>harvest</em></b></p>\n                    <p>This is the bee that you just saw.</p>\n                    <img src=\"bees-with-color/bee-B1DM.svg\" width=\"200\">\n                    <p><span class=\"redText\">Bad choice, the bee was angry.</span><br><b>You have been stung!</b><br>Your pay has been decreased by $0.10. Your bonus pay is now $0.26.</p>\n            ","response":0,"trial_type":"html-button-response","trial_index":50,"time_elapsed":233718,"internal_node_id":"0.0-4.0-1.21","subject_id":"5fe8ba794cfb7d2beeb93c79","study_id":"60edd13110225f80f9f3709b","session_id":"6196c703546bb2a802815001","condition":"full-information","relevant_dimensions":["wings","legs"],"bee_group":{"antennae":"X","wings":"1","pattern":"X","legs":"M"},"bonus":1.180000000000001},{"rt":2312.699999988079,"stimulus":"bees-with-color/bee-B1DF.svg","response":0,"trial_type":"image-button-response","trial_index":51,"time_elapsed":236033,"internal_node_id":"0.0-4.0-0.22","subject_id":"5fe8ba794cfb7d2beeb93c79","study_id":"60edd13110225f80f9f3709b","session_id":"6196c703546bb2a802815001","condition":"full-information","relevant_dimensions":["wings","legs"],"bee_group":{"antennae":"X","wings":"1","pattern":"X","legs":"M"},"action":"harvest","summary":"good-harvest","bonus":1.180000000000001},{"rt":1532,"stimulus":"\n                    <p><b>Action: <em>harvest</em></b></p>\n                    <p>This is the bee that you just saw.</p>\n                    <img src=\"bees-with-color/bee-B1DF.svg\" width=\"200\">\n                    <p><span class=\"greenText\"><b>Successful harvest!</b></span><br>Your pay has increased by $0.02. Your bonus pay is now $0.28.</p>\n            ","response":0,"trial_type":"html-button-response","trial_index":52,"time_elapsed":237567,"internal_node_id":"0.0-4.0-1.22","subject_id":"5fe8ba794cfb7d2beeb93c79","study_id":"60edd13110225f80f9f3709b","session_id":"6196c703546bb2a802815001","condition":"full-information","relevant_dimensions":["wings","legs"],"bee_group":{"antennae":"X","wings":"1","pattern":"X","legs":"M"},"bonus":1.180000000000001},{"rt":1901.199999988079,"stimulus":"bees-with-color/bee-A2SF.svg","response":0,"trial_type":"image-button-response","trial_index":53,"time_elapsed":239471,"internal_node_id":"0.0-4.0-0.23","subject_id":"5fe8ba794cfb7d2beeb93c79","study_id":"60edd13110225f80f9f3709b","session_id":"6196c703546bb2a802815001","condition":"full-information","relevant_dimensions":["wings","legs"],"bee_group":{"antennae":"X","wings":"1","pattern":"X","legs":"M"},"action":"harvest","summary":"good-harvest","bonus":1.180000000000001},{"rt":2447.399999976158,"stimulus":"\n                    <p><b>Action: <em>harvest</em></b></p>\n                    <p>This is the bee that you just saw.</p>\n                    <img src=\"bees-with-color/bee-A2SF.svg\" width=\"200\">\n                    <p><span class=\"greenText\"><b>Successful harvest!</b></span><br>Your pay has increased by $0.02. Your bonus pay is now $0.30.</p>\n            ","response":0,"trial_type":"html-button-response","trial_index":54,"time_elapsed":241921,"internal_node_id":"0.0-4.0-1.23","subject_id":"5fe8ba794cfb7d2beeb93c79","study_id":"60edd13110225f80f9f3709b","session_id":"6196c703546bb2a802815001","condition":"full-information","relevant_dimensions":["wings","legs"],"bee_group":{"antennae":"X","wings":"1","pattern":"X","legs":"M"},"bonus":1.180000000000001},{"rt":1392.300000011921,"stimulus":"bees-with-color/bee-A1SF.svg","response":0,"trial_type":"image-button-response","trial_index":55,"time_elapsed":243316,"internal_node_id":"0.0-4.0-0.24","subject_id":"5fe8ba794cfb7d2beeb93c79","study_id":"60edd13110225f80f9f3709b","session_id":"6196c703546bb2a802815001","condition":"full-information","relevant_dimensions":["wings","legs"],"bee_group":{"antennae":"X","wings":"1","pattern":"X","legs":"M"},"action":"harvest","summary":"good-harvest","bonus":1.180000000000001},{"rt":1344.5999999642372,"stimulus":"\n                    <p><b>Action: <em>harvest</em></b></p>\n                    <p>This is the bee that you just saw.</p>\n                    <img src=\"bees-with-color/bee-A1SF.svg\" width=\"200\">\n                    <p><span class=\"greenText\"><b>Successful harvest!</b></span><br>Your pay has increased by $0.02. Your bonus pay is now $0.32.</p>\n            ","response":0,"trial_type":"html-button-response","trial_index":56,"time_elapsed":244663,"internal_node_id":"0.0-4.0-1.24","subject_id":"5fe8ba794cfb7d2beeb93c79","study_id":"60edd13110225f80f9f3709b","session_id":"6196c703546bb2a802815001","condition":"full-information","relevant_dimensions":["wings","legs"],"bee_group":{"antennae":"X","wings":"1","pattern":"X","legs":"M"},"bonus":1.180000000000001},{"rt":1836.6000000238419,"stimulus":"bees-with-color/bee-B2DF.svg","response":0,"trial_type":"image-button-response","trial_index":57,"time_elapsed":246502,"internal_node_id":"0.0-4.0-0.25","subject_id":"5fe8ba794cfb7d2beeb93c79","study_id":"60edd13110225f80f9f3709b","session_id":"6196c703546bb2a802815001","condition":"full-information","relevant_dimensions":["wings","legs"],"bee_group":{"antennae":"X","wings":"1","pattern":"X","legs":"M"},"action":"harvest","summary":"good-harvest","bonus":1.180000000000001},{"rt":1258.199999988079,"stimulus":"\n                    <p><b>Action: <em>harvest</em></b></p>\n                    <p>This is the bee that you just saw.</p>\n                    <img src=\"bees-with-color/bee-B2DF.svg\" width=\"200\">\n                    <p><span class=\"greenText\"><b>Successful harvest!</b></span><br>Your pay has increased by $0.02. Your bonus pay is now $0.34.</p>\n            ","response":0,"trial_type":"html-button-response","trial_index":58,"time_elapsed":247762,"internal_node_id":"0.0-4.0-1.25","subject_id":"5fe8ba794cfb7d2beeb93c79","study_id":"60edd13110225f80f9f3709b","session_id":"6196c703546bb2a802815001","condition":"full-information","relevant_dimensions":["wings","legs"],"bee_group":{"antennae":"X","wings":"1","pattern":"X","legs":"M"},"bonus":1.180000000000001},{"rt":1293.5,"stimulus":"bees-with-color/bee-A2DF.svg","response":0,"trial_type":"image-button-response","trial_index":59,"time_elapsed":249057,"internal_node_id":"0.0-4.0-0.26","subject_id":"5fe8ba794cfb7d2beeb93c79","study_id":"60edd13110225f80f9f3709b","session_id":"6196c703546bb2a802815001","condition":"full-information","relevant_dimensions":["wings","legs"],"bee_group":{"antennae":"X","wings":"1","pattern":"X","legs":"M"},"action":"harvest","summary":"good-harvest","bonus":1.180000000000001},{"rt":1295.5,"stimulus":"\n                    <p><b>Action: <em>harvest</em></b></p>\n                    <p>This is the bee that you just saw.</p>\n                    <img src=\"bees-with-color/bee-A2DF.svg\" width=\"200\">\n                    <p><span class=\"greenText\"><b>Successful harvest!</b></span><br>Your pay has increased by $0.02. Your bonus pay is now $0.36.</p>\n            ","response":0,"trial_type":"html-button-response","trial_index":60,"time_elapsed":250355,"internal_node_id":"0.0-4.0-1.26","subject_id":"5fe8ba794cfb7d2beeb93c79","study_id":"60edd13110225f80f9f3709b","session_id":"6196c703546bb2a802815001","condition":"full-information","relevant_dimensions":["wings","legs"],"bee_group":{"antennae":"X","wings":"1","pattern":"X","legs":"M"},"bonus":1.180000000000001},{"rt":1593.4000000357628,"stimulus":"bees-with-color/bee-A1SM.svg","response":0,"trial_type":"image-button-response","trial_index":61,"time_elapsed":251950,"internal_node_id":"0.0-4.0-0.27","subject_id":"5fe8ba794cfb7d2beeb93c79","study_id":"60edd13110225f80f9f3709b","session_id":"6196c703546bb2a802815001","condition":"full-information","relevant_dimensions":["wings","legs"],"bee_group":{"antennae":"X","wings":"1","pattern":"X","legs":"M"},"action":"harvest","summary":"bad-harvest","bonus":1.180000000000001},{"rt":1441,"stimulus":"\n                    <p><b>Action: <em>harvest</em></b></p>\n                    <p>This is the bee that you just saw.</p>\n                    <img src=\"bees-with-color/bee-A1SM.svg\" width=\"200\">\n                    <p><span class=\"redText\">Bad choice, the bee was angry.</span><br><b>You have been stung!</b><br>Your pay has been decreased by $0.10. Your bonus pay is now $0.26.</p>\n            ","response":0,"trial_type":"html-button-response","trial_index":62,"time_elapsed":253393,"internal_node_id":"0.0-4.0-1.27","subject_id":"5fe8ba794cfb7d2beeb93c79","study_id":"60edd13110225f80f9f3709b","session_id":"6196c703546bb2a802815001","condition":"full-information","relevant_dimensions":["wings","legs"],"bee_group":{"antennae":"X","wings":"1","pattern":"X","legs":"M"},"bonus":1.180000000000001},{"rt":2174.5,"stimulus":"bees-with-color/bee-B1SM.svg","response":0,"trial_type":"image-button-response","trial_index":63,"time_elapsed":255570,"internal_node_id":"0.0-4.0-0.28","subject_id":"5fe8ba794cfb7d2beeb93c79","study_id":"60edd13110225f80f9f3709b","session_id":"6196c703546bb2a802815001","condition":"full-information","relevant_dimensions":["wings","legs"],"bee_group":{"antennae":"X","wings":"1","pattern":"X","legs":"M"},"action":"harvest","summary":"bad-harvest","bonus":1.180000000000001},{"rt":1576.6000000238419,"stimulus":"\n                    <p><b>Action: <em>harvest</em></b></p>\n                    <p>This is the bee that you just saw.</p>\n                    <img src=\"bees-with-color/bee-B1SM.svg\" width=\"200\">\n                    <p><span class=\"redText\">Bad choice, the bee was angry.</span><br><b>You have been stung!</b><br>Your pay has been decreased by $0.10. Your bonus pay is now $0.16.</p>\n            ","response":0,"trial_type":"html-button-response","trial_index":64,"time_elapsed":257149,"internal_node_id":"0.0-4.0-1.28","subject_id":"5fe8ba794cfb7d2beeb93c79","study_id":"60edd13110225f80f9f3709b","session_id":"6196c703546bb2a802815001","condition":"full-information","relevant_dimensions":["wings","legs"],"bee_group":{"antennae":"X","wings":"1","pattern":"X","legs":"M"},"bonus":1.180000000000001},{"rt":1436.199999988079,"stimulus":"bees-with-color/bee-B2SF.svg","response":0,"trial_type":"image-button-response","trial_index":65,"time_elapsed":258587,"internal_node_id":"0.0-4.0-0.29","subject_id":"5fe8ba794cfb7d2beeb93c79","study_id":"60edd13110225f80f9f3709b","session_id":"6196c703546bb2a802815001","condition":"full-information","relevant_dimensions":["wings","legs"],"bee_group":{"antennae":"X","wings":"1","pattern":"X","legs":"M"},"action":"harvest","summary":"good-harvest","bonus":1.180000000000001},{"rt":1427.5999999642372,"stimulus":"\n                    <p><b>Action: <em>harvest</em></b></p>\n                    <p>This is the bee that you just saw.</p>\n                    <img src=\"bees-with-color/bee-B2SF.svg\" width=\"200\">\n                    <p><span class=\"greenText\"><b>Successful harvest!</b></span><br>Your pay has increased by $0.02. Your bonus pay is now $0.18.</p>\n            ","response":0,"trial_type":"html-button-response","trial_index":66,"time_elapsed":260017,"internal_node_id":"0.0-4.0-1.29","subject_id":"5fe8ba794cfb7d2beeb93c79","study_id":"60edd13110225f80f9f3709b","session_id":"6196c703546bb2a802815001","condition":"full-information","relevant_dimensions":["wings","legs"],"bee_group":{"antennae":"X","wings":"1","pattern":"X","legs":"M"},"bonus":1.180000000000001},{"rt":3122.5,"stimulus":"bees-with-color/bee-B2DM.svg","response":0,"trial_type":"image-button-response","trial_index":67,"time_elapsed":263141,"internal_node_id":"0.0-4.0-0.30","subject_id":"5fe8ba794cfb7d2beeb93c79","study_id":"60edd13110225f80f9f3709b","session_id":"6196c703546bb2a802815001","condition":"full-information","relevant_dimensions":["wings","legs"],"bee_group":{"antennae":"X","wings":"1","pattern":"X","legs":"M"},"action":"harvest","summary":"good-harvest","bonus":1.180000000000001},{"rt":1337.2999999523163,"stimulus":"\n                    <p><b>Action: <em>harvest</em></b></p>\n                    <p>This is the bee that you just saw.</p>\n                    <img src=\"bees-with-color/bee-B2DM.svg\" width=\"200\">\n                    <p><span class=\"greenText\"><b>Successful harvest!</b></span><br>Your pay has increased by $0.02. Your bonus pay is now $0.20.</p>\n            ","response":0,"trial_type":"html-button-response","trial_index":68,"time_elapsed":264481,"internal_node_id":"0.0-4.0-1.30","subject_id":"5fe8ba794cfb7d2beeb93c79","study_id":"60edd13110225f80f9f3709b","session_id":"6196c703546bb2a802815001","condition":"full-information","relevant_dimensions":["wings","legs"],"bee_group":{"antennae":"X","wings":"1","pattern":"X","legs":"M"},"bonus":1.180000000000001},{"rt":1530.1000000238419,"stimulus":"bees-with-color/bee-B2SM.svg","response":0,"trial_type":"image-button-response","trial_index":69,"time_elapsed":266013,"internal_node_id":"0.0-4.0-0.31","subject_id":"5fe8ba794cfb7d2beeb93c79","study_id":"60edd13110225f80f9f3709b","session_id":"6196c703546bb2a802815001","condition":"full-information","relevant_dimensions":["wings","legs"],"bee_group":{"antennae":"X","wings":"1","pattern":"X","legs":"M"},"action":"harvest","summary":"good-harvest","bonus":1.180000000000001},{"rt":1659,"stimulus":"\n                    <p><b>Action: <em>harvest</em></b></p>\n                    <p>This is the bee that you just saw.</p>\n                    <img src=\"bees-with-color/bee-B2SM.svg\" width=\"200\">\n                    <p><span class=\"greenText\"><b>Successful harvest!</b></span><br>Your pay has increased by $0.02. Your bonus pay is now $0.22.</p>\n            ","response":0,"trial_type":"html-button-response","trial_index":70,"time_elapsed":267675,"internal_node_id":"0.0-4.0-1.31","subject_id":"5fe8ba794cfb7d2beeb93c79","study_id":"60edd13110225f80f9f3709b","session_id":"6196c703546bb2a802815001","condition":"full-information","relevant_dimensions":["wings","legs"],"bee_group":{"antennae":"X","wings":"1","pattern":"X","legs":"M"},"bonus":1.180000000000001},{"rt":1534,"stimulus":"bees-with-color/bee-B1DF.svg","response":0,"trial_type":"image-button-response","trial_index":71,"time_elapsed":269210,"internal_node_id":"0.0-4.0-0.32","subject_id":"5fe8ba794cfb7d2beeb93c79","study_id":"60edd13110225f80f9f3709b","session_id":"6196c703546bb2a802815001","condition":"full-information","relevant_dimensions":["wings","legs"],"bee_group":{"antennae":"X","wings":"1","pattern":"X","legs":"M"},"action":"harvest","summary":"good-harvest","bonus":1.180000000000001},{"rt":1135.4000000357628,"stimulus":"\n                    <p><b>Action: <em>harvest</em></b></p>\n                    <p>This is the bee that you just saw.</p>\n                    <img src=\"bees-with-color/bee-B1DF.svg\" width=\"200\">\n                    <p><span class=\"greenText\"><b>Successful harvest!</b></span><br>Your pay has increased by $0.02. Your bonus pay is now $0.24.</p>\n            ","response":0,"trial_type":"html-button-response","trial_index":72,"time_elapsed":270348,"internal_node_id":"0.0-4.0-1.32","subject_id":"5fe8ba794cfb7d2beeb93c79","study_id":"60edd13110225f80f9f3709b","session_id":"6196c703546bb2a802815001","condition":"full-information","relevant_dimensions":["wings","legs"],"bee_group":{"antennae":"X","wings":"1","pattern":"X","legs":"M"},"bonus":1.180000000000001},{"rt":2705.399999976158,"stimulus":"bees-with-color/bee-A1DM.svg","response":1,"trial_type":"image-button-response","trial_index":73,"time_elapsed":273055,"internal_node_id":"0.0-4.0-0.33","subject_id":"5fe8ba794cfb7d2beeb93c79","study_id":"60edd13110225f80f9f3709b","session_id":"6196c703546bb2a802815001","condition":"full-information","relevant_dimensions":["wings","legs"],"bee_group":{"antennae":"X","wings":"1","pattern":"X","legs":"M"},"action":"avoid","summary":"good-avoid","bonus":1.180000000000001},{"rt":1640,"stimulus":"\n                    <p><b>Action: <em>avoid</em></b></p>\n                    <p>This is the bee that you just saw.</p>\n                    <img src=\"bees-with-color/bee-A1DM.svg\" width=\"200\">\n                    <p><span class=\"greenText\">Good choice!</span>  This bee would have stung you.<br>Your bonus pay is unchanged, and remains at $0.24.</p>\n            ","response":0,"trial_type":"html-button-response","trial_index":74,"time_elapsed":274697,"internal_node_id":"0.0-4.0-1.33","subject_id":"5fe8ba794cfb7d2beeb93c79","study_id":"60edd13110225f80f9f3709b","session_id":"6196c703546bb2a802815001","condition":"full-information","relevant_dimensions":["wings","legs"],"bee_group":{"antennae":"X","wings":"1","pattern":"X","legs":"M"},"bonus":1.180000000000001},{"rt":2515.100000023842,"stimulus":"bees-with-color/bee-B2SM.svg","response":0,"trial_type":"image-button-response","trial_index":75,"time_elapsed":277215,"internal_node_id":"0.0-4.0-0.34","subject_id":"5fe8ba794cfb7d2beeb93c79","study_id":"60edd13110225f80f9f3709b","session_id":"6196c703546bb2a802815001","condition":"full-information","relevant_dimensions":["wings","legs"],"bee_group":{"antennae":"X","wings":"1","pattern":"X","legs":"M"},"action":"harvest","summary":"good-harvest","bonus":1.180000000000001},{"rt":1387.800000011921,"stimulus":"\n                    <p><b>Action: <em>harvest</em></b></p>\n                    <p>This is the bee that you just saw.</p>\n                    <img src=\"bees-with-color/bee-B2SM.svg\" width=\"200\">\n                    <p><span class=\"greenText\"><b>Successful harvest!</b></span><br>Your pay has increased by $0.02. Your bonus pay is now $0.26.</p>\n            ","response":0,"trial_type":"html-button-response","trial_index":76,"time_elapsed":278605,"internal_node_id":"0.0-4.0-1.34","subject_id":"5fe8ba794cfb7d2beeb93c79","study_id":"60edd13110225f80f9f3709b","session_id":"6196c703546bb2a802815001","condition":"full-information","relevant_dimensions":["wings","legs"],"bee_group":{"antennae":"X","wings":"1","pattern":"X","legs":"M"},"bonus":1.180000000000001},{"rt":1392.1000000238419,"stimulus":"bees-with-color/bee-B2DF.svg","response":0,"trial_type":"image-button-response","trial_index":77,"time_elapsed":279999,"internal_node_id":"0.0-4.0-0.35","subject_id":"5fe8ba794cfb7d2beeb93c79","study_id":"60edd13110225f80f9f3709b","session_id":"6196c703546bb2a802815001","condition":"full-information","relevant_dimensions":["wings","legs"],"bee_group":{"antennae":"X","wings":"1","pattern":"X","legs":"M"},"action":"harvest","summary":"good-harvest","bonus":1.180000000000001},{"rt":1149,"stimulus":"\n                    <p><b>Action: <em>harvest</em></b></p>\n                    <p>This is the bee that you just saw.</p>\n                    <img src=\"bees-with-color/bee-B2DF.svg\" width=\"200\">\n                    <p><span class=\"greenText\"><b>Successful harvest!</b></span><br>Your pay has increased by $0.02. Your bonus pay is now $0.28.</p>\n            ","response":0,"trial_type":"html-button-response","trial_index":78,"time_elapsed":281151,"internal_node_id":"0.0-4.0-1.35","subject_id":"5fe8ba794cfb7d2beeb93c79","study_id":"60edd13110225f80f9f3709b","session_id":"6196c703546bb2a802815001","condition":"full-information","relevant_dimensions":["wings","legs"],"bee_group":{"antennae":"X","wings":"1","pattern":"X","legs":"M"},"bonus":1.180000000000001},{"rt":1854.300000011921,"stimulus":"bees-with-color/bee-B1SM.svg","response":1,"trial_type":"image-button-response","trial_index":79,"time_elapsed":283007,"internal_node_id":"0.0-4.0-0.36","subject_id":"5fe8ba794cfb7d2beeb93c79","study_id":"60edd13110225f80f9f3709b","session_id":"6196c703546bb2a802815001","condition":"full-information","relevant_dimensions":["wings","legs"],"bee_group":{"antennae":"X","wings":"1","pattern":"X","legs":"M"},"action":"avoid","summary":"good-avoid","bonus":1.180000000000001},{"rt":1406.300000011921,"stimulus":"\n                    <p><b>Action: <em>avoid</em></b></p>\n                    <p>This is the bee that you just saw.</p>\n                    <img src=\"bees-with-color/bee-B1SM.svg\" width=\"200\">\n                    <p><span class=\"greenText\">Good choice!</span>  This bee would have stung you.<br>Your bonus pay is unchanged, and remains at $0.28.</p>\n            ","response":0,"trial_type":"html-button-response","trial_index":80,"time_elapsed":284416,"internal_node_id":"0.0-4.0-1.36","subject_id":"5fe8ba794cfb7d2beeb93c79","study_id":"60edd13110225f80f9f3709b","session_id":"6196c703546bb2a802815001","condition":"full-information","relevant_dimensions":["wings","legs"],"bee_group":{"antennae":"X","wings":"1","pattern":"X","legs":"M"},"bonus":1.180000000000001},{"rt":1343.300000011921,"stimulus":"bees-with-color/bee-B2DM.svg","response":0,"trial_type":"image-button-response","trial_index":81,"time_elapsed":285761,"internal_node_id":"0.0-4.0-0.37","subject_id":"5fe8ba794cfb7d2beeb93c79","study_id":"60edd13110225f80f9f3709b","session_id":"6196c703546bb2a802815001","condition":"full-information","relevant_dimensions":["wings","legs"],"bee_group":{"antennae":"X","wings":"1","pattern":"X","legs":"M"},"action":"harvest","summary":"good-harvest","bonus":1.180000000000001},{"rt":1361.4000000357628,"stimulus":"\n                    <p><b>Action: <em>harvest</em></b></p>\n                    <p>This is the bee that you just saw.</p>\n                    <img src=\"bees-with-color/bee-B2DM.svg\" width=\"200\">\n                    <p><span class=\"greenText\"><b>Successful harvest!</b></span><br>Your pay has increased by $0.02. Your bonus pay is now $0.30.</p>\n            ","response":0,"trial_type":"html-button-response","trial_index":82,"time_elapsed":287125,"internal_node_id":"0.0-4.0-1.37","subject_id":"5fe8ba794cfb7d2beeb93c79","study_id":"60edd13110225f80f9f3709b","session_id":"6196c703546bb2a802815001","condition":"full-information","relevant_dimensions":["wings","legs"],"bee_group":{"antennae":"X","wings":"1","pattern":"X","legs":"M"},"bonus":1.180000000000001},{"rt":1148.5999999642372,"stimulus":"bees-with-color/bee-B2SF.svg","response":0,"trial_type":"image-button-response","trial_index":83,"time_elapsed":288276,"internal_node_id":"0.0-4.0-0.38","subject_id":"5fe8ba794cfb7d2beeb93c79","study_id":"60edd13110225f80f9f3709b","session_id":"6196c703546bb2a802815001","condition":"full-information","relevant_dimensions":["wings","legs"],"bee_group":{"antennae":"X","wings":"1","pattern":"X","legs":"M"},"action":"harvest","summary":"good-harvest","bonus":1.180000000000001},{"rt":1495,"stimulus":"\n                    <p><b>Action: <em>harvest</em></b></p>\n                    <p>This is the bee that you just saw.</p>\n                    <img src=\"bees-with-color/bee-B2SF.svg\" width=\"200\">\n                    <p><span class=\"greenText\"><b>Successful harvest!</b></span><br>Your pay has increased by $0.02. Your bonus pay is now $0.32.</p>\n            ","response":0,"trial_type":"html-button-response","trial_index":84,"time_elapsed":289774,"internal_node_id":"0.0-4.0-1.38","subject_id":"5fe8ba794cfb7d2beeb93c79","study_id":"60edd13110225f80f9f3709b","session_id":"6196c703546bb2a802815001","condition":"full-information","relevant_dimensions":["wings","legs"],"bee_group":{"antennae":"X","wings":"1","pattern":"X","legs":"M"},"bonus":1.180000000000001},{"rt":1109.2000000476837,"stimulus":"bees-with-color/bee-A2SF.svg","response":0,"trial_type":"image-button-response","trial_index":85,"time_elapsed":290885,"internal_node_id":"0.0-4.0-0.39","subject_id":"5fe8ba794cfb7d2beeb93c79","study_id":"60edd13110225f80f9f3709b","session_id":"6196c703546bb2a802815001","condition":"full-information","relevant_dimensions":["wings","legs"],"bee_group":{"antennae":"X","wings":"1","pattern":"X","legs":"M"},"action":"harvest","summary":"good-harvest","bonus":1.180000000000001},{"rt":1275.300000011921,"stimulus":"\n                    <p><b>Action: <em>harvest</em></b></p>\n                    <p>This is the bee that you just saw.</p>\n                    <img src=\"bees-with-color/bee-A2SF.svg\" width=\"200\">\n                    <p><span class=\"greenText\"><b>Successful harvest!</b></span><br>Your pay has increased by $0.02. Your bonus pay is now $0.34.</p>\n            ","response":0,"trial_type":"html-button-response","trial_index":86,"time_elapsed":292163,"internal_node_id":"0.0-4.0-1.39","subject_id":"5fe8ba794cfb7d2beeb93c79","study_id":"60edd13110225f80f9f3709b","session_id":"6196c703546bb2a802815001","condition":"full-information","relevant_dimensions":["wings","legs"],"bee_group":{"antennae":"X","wings":"1","pattern":"X","legs":"M"},"bonus":1.180000000000001},{"rt":3949.800000011921,"stimulus":"bees-with-color/bee-A2DF.svg","response":0,"trial_type":"image-button-response","trial_index":87,"time_elapsed":296115,"internal_node_id":"0.0-4.0-0.40","subject_id":"5fe8ba794cfb7d2beeb93c79","study_id":"60edd13110225f80f9f3709b","session_id":"6196c703546bb2a802815001","condition":"full-information","relevant_dimensions":["wings","legs"],"bee_group":{"antennae":"X","wings":"1","pattern":"X","legs":"M"},"action":"harvest","summary":"good-harvest","bonus":1.180000000000001},{"rt":1606.4000000357628,"stimulus":"\n                    <p><b>Action: <em>harvest</em></b></p>\n                    <p>This is the bee that you just saw.</p>\n                    <img src=\"bees-with-color/bee-A2DF.svg\" width=\"200\">\n                    <p><span class=\"greenText\"><b>Successful harvest!</b></span><br>Your pay has increased by $0.02. Your bonus pay is now $0.36.</p>\n            ","response":0,"trial_type":"html-button-response","trial_index":88,"time_elapsed":297724,"internal_node_id":"0.0-4.0-1.40","subject_id":"5fe8ba794cfb7d2beeb93c79","study_id":"60edd13110225f80f9f3709b","session_id":"6196c703546bb2a802815001","condition":"full-information","relevant_dimensions":["wings","legs"],"bee_group":{"antennae":"X","wings":"1","pattern":"X","legs":"M"},"bonus":1.180000000000001},{"rt":1599.199999988079,"stimulus":"bees-with-color/bee-A1SM.svg","response":1,"trial_type":"image-button-response","trial_index":89,"time_elapsed":299326,"internal_node_id":"0.0-4.0-0.41","subject_id":"5fe8ba794cfb7d2beeb93c79","study_id":"60edd13110225f80f9f3709b","session_id":"6196c703546bb2a802815001","condition":"full-information","relevant_dimensions":["wings","legs"],"bee_group":{"antennae":"X","wings":"1","pattern":"X","legs":"M"},"action":"avoid","summary":"good-avoid","bonus":1.180000000000001},{"rt":1325.8999999761581,"stimulus":"\n                    <p><b>Action: <em>avoid</em></b></p>\n                    <p>This is the bee that you just saw.</p>\n                    <img src=\"bees-with-color/bee-A1SM.svg\" width=\"200\">\n                    <p><span class=\"greenText\">Good choice!</span>  This bee would have stung you.<br>Your bonus pay is unchanged, and remains at $0.36.</p>\n            ","response":0,"trial_type":"html-button-response","trial_index":90,"time_elapsed":300656,"internal_node_id":"0.0-4.0-1.41","subject_id":"5fe8ba794cfb7d2beeb93c79","study_id":"60edd13110225f80f9f3709b","session_id":"6196c703546bb2a802815001","condition":"full-information","relevant_dimensions":["wings","legs"],"bee_group":{"antennae":"X","wings":"1","pattern":"X","legs":"M"},"bonus":1.180000000000001},{"rt":1273.800000011921,"stimulus":"bees-with-color/bee-A2DM.svg","response":0,"trial_type":"image-button-response","trial_index":91,"time_elapsed":301933,"internal_node_id":"0.0-4.0-0.42","subject_id":"5fe8ba794cfb7d2beeb93c79","study_id":"60edd13110225f80f9f3709b","session_id":"6196c703546bb2a802815001","condition":"full-information","relevant_dimensions":["wings","legs"],"bee_group":{"antennae":"X","wings":"1","pattern":"X","legs":"M"},"action":"harvest","summary":"good-harvest","bonus":1.180000000000001},{"rt":1198.1000000238419,"stimulus":"\n                    <p><b>Action: <em>harvest</em></b></p>\n                    <p>This is the bee that you just saw.</p>\n                    <img src=\"bees-with-color/bee-A2DM.svg\" width=\"200\">\n                    <p><span class=\"greenText\"><b>Successful harvest!</b></span><br>Your pay has increased by $0.02. Your bonus pay is now $0.38.</p>\n            ","response":0,"trial_type":"html-button-response","trial_index":92,"time_elapsed":303133,"internal_node_id":"0.0-4.0-1.42","subject_id":"5fe8ba794cfb7d2beeb93c79","study_id":"60edd13110225f80f9f3709b","session_id":"6196c703546bb2a802815001","condition":"full-information","relevant_dimensions":["wings","legs"],"bee_group":{"antennae":"X","wings":"1","pattern":"X","legs":"M"},"bonus":1.180000000000001},{"rt":1814.300000011921,"stimulus":"bees-with-color/bee-B1DM.svg","response":1,"trial_type":"image-button-response","trial_index":93,"time_elapsed":304950,"internal_node_id":"0.0-4.0-0.43","subject_id":"5fe8ba794cfb7d2beeb93c79","study_id":"60edd13110225f80f9f3709b","session_id":"6196c703546bb2a802815001","condition":"full-information","relevant_dimensions":["wings","legs"],"bee_group":{"antennae":"X","wings":"1","pattern":"X","legs":"M"},"action":"avoid","summary":"good-avoid","bonus":1.180000000000001},{"rt":1168.2000000476837,"stimulus":"\n                    <p><b>Action: <em>avoid</em></b></p>\n                    <p>This is the bee that you just saw.</p>\n                    <img src=\"bees-with-color/bee-B1DM.svg\" width=\"200\">\n                    <p><span class=\"greenText\">Good choice!</span>  This bee would have stung you.<br>Your bonus pay is unchanged, and remains at $0.38.</p>\n            ","response":0,"trial_type":"html-button-response","trial_index":94,"time_elapsed":306120,"internal_node_id":"0.0-4.0-1.43","subject_id":"5fe8ba794cfb7d2beeb93c79","study_id":"60edd13110225f80f9f3709b","session_id":"6196c703546bb2a802815001","condition":"full-information","relevant_dimensions":["wings","legs"],"bee_group":{"antennae":"X","wings":"1","pattern":"X","legs":"M"},"bonus":1.180000000000001},{"rt":1121.4000000357628,"stimulus":"bees-with-color/bee-A2SM.svg","response":0,"trial_type":"image-button-response","trial_index":95,"time_elapsed":307244,"internal_node_id":"0.0-4.0-0.44","subject_id":"5fe8ba794cfb7d2beeb93c79","study_id":"60edd13110225f80f9f3709b","session_id":"6196c703546bb2a802815001","condition":"full-information","relevant_dimensions":["wings","legs"],"bee_group":{"antennae":"X","wings":"1","pattern":"X","legs":"M"},"action":"harvest","summary":"good-harvest","bonus":1.180000000000001},{"rt":1312.3999999761581,"stimulus":"\n                    <p><b>Action: <em>harvest</em></b></p>\n                    <p>This is the bee that you just saw.</p>\n                    <img src=\"bees-with-color/bee-A2SM.svg\" width=\"200\">\n                    <p><span class=\"greenText\"><b>Successful harvest!</b></span><br>Your pay has increased by $0.02. Your bonus pay is now $0.40.</p>\n            ","response":0,"trial_type":"html-button-response","trial_index":96,"time_elapsed":308559,"internal_node_id":"0.0-4.0-1.44","subject_id":"5fe8ba794cfb7d2beeb93c79","study_id":"60edd13110225f80f9f3709b","session_id":"6196c703546bb2a802815001","condition":"full-information","relevant_dimensions":["wings","legs"],"bee_group":{"antennae":"X","wings":"1","pattern":"X","legs":"M"},"bonus":1.180000000000001},{"rt":1687.199999988079,"stimulus":"bees-with-color/bee-A1DF.svg","response":0,"trial_type":"image-button-response","trial_index":97,"time_elapsed":310249,"internal_node_id":"0.0-4.0-0.45","subject_id":"5fe8ba794cfb7d2beeb93c79","study_id":"60edd13110225f80f9f3709b","session_id":"6196c703546bb2a802815001","condition":"full-information","relevant_dimensions":["wings","legs"],"bee_group":{"antennae":"X","wings":"1","pattern":"X","legs":"M"},"action":"harvest","summary":"good-harvest","bonus":1.180000000000001},{"rt":1122.5,"stimulus":"\n                    <p><b>Action: <em>harvest</em></b></p>\n                    <p>This is the bee that you just saw.</p>\n                    <img src=\"bees-with-color/bee-A1DF.svg\" width=\"200\">\n                    <p><span class=\"greenText\"><b>Successful harvest!</b></span><br>Your pay has increased by $0.02. Your bonus pay is now $0.42.</p>\n            ","response":0,"trial_type":"html-button-response","trial_index":98,"time_elapsed":311373,"internal_node_id":"0.0-4.0-1.45","subject_id":"5fe8ba794cfb7d2beeb93c79","study_id":"60edd13110225f80f9f3709b","session_id":"6196c703546bb2a802815001","condition":"full-information","relevant_dimensions":["wings","legs"],"bee_group":{"antennae":"X","wings":"1","pattern":"X","legs":"M"},"bonus":1.180000000000001},{"rt":1719.1000000238419,"stimulus":"bees-with-color/bee-A1SF.svg","response":0,"trial_type":"image-button-response","trial_index":99,"time_elapsed":313094,"internal_node_id":"0.0-4.0-0.46","subject_id":"5fe8ba794cfb7d2beeb93c79","study_id":"60edd13110225f80f9f3709b","session_id":"6196c703546bb2a802815001","condition":"full-information","relevant_dimensions":["wings","legs"],"bee_group":{"antennae":"X","wings":"1","pattern":"X","legs":"M"},"action":"harvest","summary":"good-harvest","bonus":1.180000000000001},{"rt":1093.3999999761581,"stimulus":"\n                    <p><b>Action: <em>harvest</em></b></p>\n                    <p>This is the bee that you just saw.</p>\n                    <img src=\"bees-with-color/bee-A1SF.svg\" width=\"200\">\n                    <p><span class=\"greenText\"><b>Successful harvest!</b></span><br>Your pay has increased by $0.02. Your bonus pay is now $0.44.</p>\n            ","response":0,"trial_type":"html-button-response","trial_index":100,"time_elapsed":314190,"internal_node_id":"0.0-4.0-1.46","subject_id":"5fe8ba794cfb7d2beeb93c79","study_id":"60edd13110225f80f9f3709b","session_id":"6196c703546bb2a802815001","condition":"full-information","relevant_dimensions":["wings","legs"],"bee_group":{"antennae":"X","wings":"1","pattern":"X","legs":"M"},"bonus":1.180000000000001},{"rt":1217.5999999642372,"stimulus":"bees-with-color/bee-B1SF.svg","response":0,"trial_type":"image-button-response","trial_index":101,"time_elapsed":315409,"internal_node_id":"0.0-4.0-0.47","subject_id":"5fe8ba794cfb7d2beeb93c79","study_id":"60edd13110225f80f9f3709b","session_id":"6196c703546bb2a802815001","condition":"full-information","relevant_dimensions":["wings","legs"],"bee_group":{"antennae":"X","wings":"1","pattern":"X","legs":"M"},"action":"harvest","summary":"good-harvest","bonus":1.180000000000001},{"rt":1247.300000011921,"stimulus":"\n                    <p><b>Action: <em>harvest</em></b></p>\n                    <p>This is the bee that you just saw.</p>\n                    <img src=\"bees-with-color/bee-B1SF.svg\" width=\"200\">\n                    <p><span class=\"greenText\"><b>Successful harvest!</b></span><br>Your pay has increased by $0.02. Your bonus pay is now $0.46.</p>\n            ","response":0,"trial_type":"html-button-response","trial_index":102,"time_elapsed":316658,"internal_node_id":"0.0-4.0-1.47","subject_id":"5fe8ba794cfb7d2beeb93c79","study_id":"60edd13110225f80f9f3709b","session_id":"6196c703546bb2a802815001","condition":"full-information","relevant_dimensions":["wings","legs"],"bee_group":{"antennae":"X","wings":"1","pattern":"X","legs":"M"},"bonus":1.180000000000001},{"rt":2070.5,"stimulus":"bees-with-color/bee-A2DM.svg","response":0,"trial_type":"image-button-response","trial_index":103,"time_elapsed":318731,"internal_node_id":"0.0-4.0-0.48","subject_id":"5fe8ba794cfb7d2beeb93c79","study_id":"60edd13110225f80f9f3709b","session_id":"6196c703546bb2a802815001","condition":"full-information","relevant_dimensions":["wings","legs"],"bee_group":{"antennae":"X","wings":"1","pattern":"X","legs":"M"},"action":"harvest","summary":"good-harvest","bonus":1.180000000000001},{"rt":1059.5999999642372,"stimulus":"\n                    <p><b>Action: <em>harvest</em></b></p>\n                    <p>This is the bee that you just saw.</p>\n                    <img src=\"bees-with-color/bee-A2DM.svg\" width=\"200\">\n                    <p><span class=\"greenText\"><b>Successful harvest!</b></span><br>Your pay has increased by $0.02. Your bonus pay is now $0.48.</p>\n            ","response":0,"trial_type":"html-button-response","trial_index":104,"time_elapsed":319793,"internal_node_id":"0.0-4.0-1.48","subject_id":"5fe8ba794cfb7d2beeb93c79","study_id":"60edd13110225f80f9f3709b","session_id":"6196c703546bb2a802815001","condition":"full-information","relevant_dimensions":["wings","legs"],"bee_group":{"antennae":"X","wings":"1","pattern":"X","legs":"M"},"bonus":1.180000000000001},{"rt":1400.3999999761581,"stimulus":"bees-with-color/bee-B1SF.svg","response":0,"trial_type":"image-button-response","trial_index":105,"time_elapsed":321195,"internal_node_id":"0.0-4.0-0.49","subject_id":"5fe8ba794cfb7d2beeb93c79","study_id":"60edd13110225f80f9f3709b","session_id":"6196c703546bb2a802815001","condition":"full-information","relevant_dimensions":["wings","legs"],"bee_group":{"antennae":"X","wings":"1","pattern":"X","legs":"M"},"action":"harvest","summary":"good-harvest","bonus":1.180000000000001},{"rt":1349.699999988079,"stimulus":"\n                    <p><b>Action: <em>harvest</em></b></p>\n                    <p>This is the bee that you just saw.</p>\n                    <img src=\"bees-with-color/bee-B1SF.svg\" width=\"200\">\n                    <p><span class=\"greenText\"><b>Successful harvest!</b></span><br>Your pay has increased by $0.02. Your bonus pay is now $0.50.</p>\n            ","response":0,"trial_type":"html-button-response","trial_index":106,"time_elapsed":322547,"internal_node_id":"0.0-4.0-1.49","subject_id":"5fe8ba794cfb7d2beeb93c79","study_id":"60edd13110225f80f9f3709b","session_id":"6196c703546bb2a802815001","condition":"full-information","relevant_dimensions":["wings","legs"],"bee_group":{"antennae":"X","wings":"1","pattern":"X","legs":"M"},"bonus":1.180000000000001},{"rt":2445.900000035763,"stimulus":"bees-with-color/bee-B1SM.svg","response":1,"trial_type":"image-button-response","trial_index":107,"time_elapsed":324995,"internal_node_id":"0.0-4.0-0.50","subject_id":"5fe8ba794cfb7d2beeb93c79","study_id":"60edd13110225f80f9f3709b","session_id":"6196c703546bb2a802815001","condition":"full-information","relevant_dimensions":["wings","legs"],"bee_group":{"antennae":"X","wings":"1","pattern":"X","legs":"M"},"action":"avoid","summary":"good-avoid","bonus":1.180000000000001},{"rt":1457,"stimulus":"\n                    <p><b>Action: <em>avoid</em></b></p>\n                    <p>This is the bee that you just saw.</p>\n                    <img src=\"bees-with-color/bee-B1SM.svg\" width=\"200\">\n                    <p><span class=\"greenText\">Good choice!</span>  This bee would have stung you.<br>Your bonus pay is unchanged, and remains at $0.50.</p>\n            ","response":0,"trial_type":"html-button-response","trial_index":108,"time_elapsed":326454,"internal_node_id":"0.0-4.0-1.50","subject_id":"5fe8ba794cfb7d2beeb93c79","study_id":"60edd13110225f80f9f3709b","session_id":"6196c703546bb2a802815001","condition":"full-information","relevant_dimensions":["wings","legs"],"bee_group":{"antennae":"X","wings":"1","pattern":"X","legs":"M"},"bonus":1.180000000000001},{"rt":1498.3999999761581,"stimulus":"bees-with-color/bee-A1DF.svg","response":0,"trial_type":"image-button-response","trial_index":109,"time_elapsed":327955,"internal_node_id":"0.0-4.0-0.51","subject_id":"5fe8ba794cfb7d2beeb93c79","study_id":"60edd13110225f80f9f3709b","session_id":"6196c703546bb2a802815001","condition":"full-information","relevant_dimensions":["wings","legs"],"bee_group":{"antennae":"X","wings":"1","pattern":"X","legs":"M"},"action":"harvest","summary":"good-harvest","bonus":1.180000000000001},{"rt":1843.5,"stimulus":"\n                    <p><b>Action: <em>harvest</em></b></p>\n                    <p>This is the bee that you just saw.</p>\n                    <img src=\"bees-with-color/bee-A1DF.svg\" width=\"200\">\n                    <p><span class=\"greenText\"><b>Successful harvest!</b></span><br>Your pay has increased by $0.02. Your bonus pay is now $0.52.</p>\n            ","response":0,"trial_type":"html-button-response","trial_index":110,"time_elapsed":329800,"internal_node_id":"0.0-4.0-1.51","subject_id":"5fe8ba794cfb7d2beeb93c79","study_id":"60edd13110225f80f9f3709b","session_id":"6196c703546bb2a802815001","condition":"full-information","relevant_dimensions":["wings","legs"],"bee_group":{"antennae":"X","wings":"1","pattern":"X","legs":"M"},"bonus":1.180000000000001},{"rt":1275,"stimulus":"bees-with-color/bee-B2SF.svg","response":0,"trial_type":"image-button-response","trial_index":111,"time_elapsed":331078,"internal_node_id":"0.0-4.0-0.52","subject_id":"5fe8ba794cfb7d2beeb93c79","study_id":"60edd13110225f80f9f3709b","session_id":"6196c703546bb2a802815001","condition":"full-information","relevant_dimensions":["wings","legs"],"bee_group":{"antennae":"X","wings":"1","pattern":"X","legs":"M"},"action":"harvest","summary":"good-harvest","bonus":1.180000000000001},{"rt":1182.5,"stimulus":"\n                    <p><b>Action: <em>harvest</em></b></p>\n                    <p>This is the bee that you just saw.</p>\n                    <img src=\"bees-with-color/bee-B2SF.svg\" width=\"200\">\n                    <p><span class=\"greenText\"><b>Successful harvest!</b></span><br>Your pay has increased by $0.02. Your bonus pay is now $0.54.</p>\n            ","response":0,"trial_type":"html-button-response","trial_index":112,"time_elapsed":332262,"internal_node_id":"0.0-4.0-1.52","subject_id":"5fe8ba794cfb7d2beeb93c79","study_id":"60edd13110225f80f9f3709b","session_id":"6196c703546bb2a802815001","condition":"full-information","relevant_dimensions":["wings","legs"],"bee_group":{"antennae":"X","wings":"1","pattern":"X","legs":"M"},"bonus":1.180000000000001},{"rt":1496.8999999761581,"stimulus":"bees-with-color/bee-A2SM.svg","response":0,"trial_type":"image-button-response","trial_index":113,"time_elapsed":333761,"internal_node_id":"0.0-4.0-0.53","subject_id":"5fe8ba794cfb7d2beeb93c79","study_id":"60edd13110225f80f9f3709b","session_id":"6196c703546bb2a802815001","condition":"full-information","relevant_dimensions":["wings","legs"],"bee_group":{"antennae":"X","wings":"1","pattern":"X","legs":"M"},"action":"harvest","summary":"good-harvest","bonus":1.180000000000001},{"rt":1014.5999999642372,"stimulus":"\n                    <p><b>Action: <em>harvest</em></b></p>\n                    <p>This is the bee that you just saw.</p>\n                    <img src=\"bees-with-color/bee-A2SM.svg\" width=\"200\">\n                    <p><span class=\"greenText\"><b>Successful harvest!</b></span><br>Your pay has increased by $0.02. Your bonus pay is now $0.56.</p>\n            ","response":0,"trial_type":"html-button-response","trial_index":114,"time_elapsed":334778,"internal_node_id":"0.0-4.0-1.53","subject_id":"5fe8ba794cfb7d2beeb93c79","study_id":"60edd13110225f80f9f3709b","session_id":"6196c703546bb2a802815001","condition":"full-information","relevant_dimensions":["wings","legs"],"bee_group":{"antennae":"X","wings":"1","pattern":"X","legs":"M"},"bonus":1.180000000000001},{"rt":1512.800000011921,"stimulus":"bees-with-color/bee-B1DM.svg","response":1,"trial_type":"image-button-response","trial_index":115,"time_elapsed":336294,"internal_node_id":"0.0-4.0-0.54","subject_id":"5fe8ba794cfb7d2beeb93c79","study_id":"60edd13110225f80f9f3709b","session_id":"6196c703546bb2a802815001","condition":"full-information","relevant_dimensions":["wings","legs"],"bee_group":{"antennae":"X","wings":"1","pattern":"X","legs":"M"},"action":"avoid","summary":"good-avoid","bonus":1.180000000000001},{"rt":1151.300000011921,"stimulus":"\n                    <p><b>Action: <em>avoid</em></b></p>\n                    <p>This is the bee that you just saw.</p>\n                    <img src=\"bees-with-color/bee-B1DM.svg\" width=\"200\">\n                    <p><span class=\"greenText\">Good choice!</span>  This bee would have stung you.<br>Your bonus pay is unchanged, and remains at $0.56.</p>\n            ","response":0,"trial_type":"html-button-response","trial_index":116,"time_elapsed":337447,"internal_node_id":"0.0-4.0-1.54","subject_id":"5fe8ba794cfb7d2beeb93c79","study_id":"60edd13110225f80f9f3709b","session_id":"6196c703546bb2a802815001","condition":"full-information","relevant_dimensions":["wings","legs"],"bee_group":{"antennae":"X","wings":"1","pattern":"X","legs":"M"},"bonus":1.180000000000001},{"rt":1187.199999988079,"stimulus":"bees-with-color/bee-A2SF.svg","response":0,"trial_type":"image-button-response","trial_index":117,"time_elapsed":338637,"internal_node_id":"0.0-4.0-0.55","subject_id":"5fe8ba794cfb7d2beeb93c79","study_id":"60edd13110225f80f9f3709b","session_id":"6196c703546bb2a802815001","condition":"full-information","relevant_dimensions":["wings","legs"],"bee_group":{"antennae":"X","wings":"1","pattern":"X","legs":"M"},"action":"harvest","summary":"good-harvest","bonus":1.180000000000001},{"rt":933.1999999880791,"stimulus":"\n                    <p><b>Action: <em>harvest</em></b></p>\n                    <p>This is the bee that you just saw.</p>\n                    <img src=\"bees-with-color/bee-A2SF.svg\" width=\"200\">\n                    <p><span class=\"greenText\"><b>Successful harvest!</b></span><br>Your pay has increased by $0.02. Your bonus pay is now $0.58.</p>\n            ","response":0,"trial_type":"html-button-response","trial_index":118,"time_elapsed":339572,"internal_node_id":"0.0-4.0-1.55","subject_id":"5fe8ba794cfb7d2beeb93c79","study_id":"60edd13110225f80f9f3709b","session_id":"6196c703546bb2a802815001","condition":"full-information","relevant_dimensions":["wings","legs"],"bee_group":{"antennae":"X","wings":"1","pattern":"X","legs":"M"},"bonus":1.180000000000001},{"rt":1844.699999988079,"stimulus":"bees-with-color/bee-B2SM.svg","response":0,"trial_type":"image-button-response","trial_index":119,"time_elapsed":341419,"internal_node_id":"0.0-4.0-0.56","subject_id":"5fe8ba794cfb7d2beeb93c79","study_id":"60edd13110225f80f9f3709b","session_id":"6196c703546bb2a802815001","condition":"full-information","relevant_dimensions":["wings","legs"],"bee_group":{"antennae":"X","wings":"1","pattern":"X","legs":"M"},"action":"harvest","summary":"good-harvest","bonus":1.180000000000001},{"rt":1026.4000000357628,"stimulus":"\n                    <p><b>Action: <em>harvest</em></b></p>\n                    <p>This is the bee that you just saw.</p>\n                    <img src=\"bees-with-color/bee-B2SM.svg\" width=\"200\">\n                    <p><span class=\"greenText\"><b>Successful harvest!</b></span><br>Your pay has increased by $0.02. Your bonus pay is now $0.60.</p>\n            ","response":0,"trial_type":"html-button-response","trial_index":120,"time_elapsed":342447,"internal_node_id":"0.0-4.0-1.56","subject_id":"5fe8ba794cfb7d2beeb93c79","study_id":"60edd13110225f80f9f3709b","session_id":"6196c703546bb2a802815001","condition":"full-information","relevant_dimensions":["wings","legs"],"bee_group":{"antennae":"X","wings":"1","pattern":"X","legs":"M"},"bonus":1.180000000000001},{"rt":1555.9000000357628,"stimulus":"bees-with-color/bee-A1DM.svg","response":1,"trial_type":"image-button-response","trial_index":121,"time_elapsed":344005,"internal_node_id":"0.0-4.0-0.57","subject_id":"5fe8ba794cfb7d2beeb93c79","study_id":"60edd13110225f80f9f3709b","session_id":"6196c703546bb2a802815001","condition":"full-information","relevant_dimensions":["wings","legs"],"bee_group":{"antennae":"X","wings":"1","pattern":"X","legs":"M"},"action":"avoid","summary":"good-avoid","bonus":1.180000000000001},{"rt":1126.699999988079,"stimulus":"\n                    <p><b>Action: <em>avoid</em></b></p>\n                    <p>This is the bee that you just saw.</p>\n                    <img src=\"bees-with-color/bee-A1DM.svg\" width=\"200\">\n                    <p><span class=\"greenText\">Good choice!</span>  This bee would have stung you.<br>Your bonus pay is unchanged, and remains at $0.60.</p>\n            ","response":0,"trial_type":"html-button-response","trial_index":122,"time_elapsed":345134,"internal_node_id":"0.0-4.0-1.57","subject_id":"5fe8ba794cfb7d2beeb93c79","study_id":"60edd13110225f80f9f3709b","session_id":"6196c703546bb2a802815001","condition":"full-information","relevant_dimensions":["wings","legs"],"bee_group":{"antennae":"X","wings":"1","pattern":"X","legs":"M"},"bonus":1.180000000000001},{"rt":1088.800000011921,"stimulus":"bees-with-color/bee-B2DM.svg","response":0,"trial_type":"image-button-response","trial_index":123,"time_elapsed":346225,"internal_node_id":"0.0-4.0-0.58","subject_id":"5fe8ba794cfb7d2beeb93c79","study_id":"60edd13110225f80f9f3709b","session_id":"6196c703546bb2a802815001","condition":"full-information","relevant_dimensions":["wings","legs"],"bee_group":{"antennae":"X","wings":"1","pattern":"X","legs":"M"},"action":"harvest","summary":"good-harvest","bonus":1.180000000000001},{"rt":1122.699999988079,"stimulus":"\n                    <p><b>Action: <em>harvest</em></b></p>\n                    <p>This is the bee that you just saw.</p>\n                    <img src=\"bees-with-color/bee-B2DM.svg\" width=\"200\">\n                    <p><span class=\"greenText\"><b>Successful harvest!</b></span><br>Your pay has increased by $0.02. Your bonus pay is now $0.62.</p>\n            ","response":0,"trial_type":"html-button-response","trial_index":124,"time_elapsed":347350,"internal_node_id":"0.0-4.0-1.58","subject_id":"5fe8ba794cfb7d2beeb93c79","study_id":"60edd13110225f80f9f3709b","session_id":"6196c703546bb2a802815001","condition":"full-information","relevant_dimensions":["wings","legs"],"bee_group":{"antennae":"X","wings":"1","pattern":"X","legs":"M"},"bonus":1.180000000000001},{"rt":1235.9000000357628,"stimulus":"bees-with-color/bee-B2DF.svg","response":0,"trial_type":"image-button-response","trial_index":125,"time_elapsed":348588,"internal_node_id":"0.0-4.0-0.59","subject_id":"5fe8ba794cfb7d2beeb93c79","study_id":"60edd13110225f80f9f3709b","session_id":"6196c703546bb2a802815001","condition":"full-information","relevant_dimensions":["wings","legs"],"bee_group":{"antennae":"X","wings":"1","pattern":"X","legs":"M"},"action":"harvest","summary":"good-harvest","bonus":1.180000000000001},{"rt":965,"stimulus":"\n                    <p><b>Action: <em>harvest</em></b></p>\n                    <p>This is the bee that you just saw.</p>\n                    <img src=\"bees-with-color/bee-B2DF.svg\" width=\"200\">\n                    <p><span class=\"greenText\"><b>Successful harvest!</b></span><br>Your pay has increased by $0.02. Your bonus pay is now $0.64.</p>\n            ","response":0,"trial_type":"html-button-response","trial_index":126,"time_elapsed":349556,"internal_node_id":"0.0-4.0-1.59","subject_id":"5fe8ba794cfb7d2beeb93c79","study_id":"60edd13110225f80f9f3709b","session_id":"6196c703546bb2a802815001","condition":"full-information","relevant_dimensions":["wings","legs"],"bee_group":{"antennae":"X","wings":"1","pattern":"X","legs":"M"},"bonus":1.180000000000001},{"rt":1075.8999999761581,"stimulus":"bees-with-color/bee-A2DF.svg","response":0,"trial_type":"image-button-response","trial_index":127,"time_elapsed":350634,"internal_node_id":"0.0-4.0-0.60","subject_id":"5fe8ba794cfb7d2beeb93c79","study_id":"60edd13110225f80f9f3709b","session_id":"6196c703546bb2a802815001","condition":"full-information","relevant_dimensions":["wings","legs"],"bee_group":{"antennae":"X","wings":"1","pattern":"X","legs":"M"},"action":"harvest","summary":"good-harvest","bonus":1.180000000000001},{"rt":1326.6000000238419,"stimulus":"\n                    <p><b>Action: <em>harvest</em></b></p>\n                    <p>This is the bee that you just saw.</p>\n                    <img src=\"bees-with-color/bee-A2DF.svg\" width=\"200\">\n                    <p><span class=\"greenText\"><b>Successful harvest!</b></span><br>Your pay has increased by $0.02. Your bonus pay is now $0.66.</p>\n            ","response":0,"trial_type":"html-button-response","trial_index":128,"time_elapsed":351963,"internal_node_id":"0.0-4.0-1.60","subject_id":"5fe8ba794cfb7d2beeb93c79","study_id":"60edd13110225f80f9f3709b","session_id":"6196c703546bb2a802815001","condition":"full-information","relevant_dimensions":["wings","legs"],"bee_group":{"antennae":"X","wings":"1","pattern":"X","legs":"M"},"bonus":1.180000000000001},{"rt":1435,"stimulus":"bees-with-color/bee-A1SF.svg","response":0,"trial_type":"image-button-response","trial_index":129,"time_elapsed":353400,"internal_node_id":"0.0-4.0-0.61","subject_id":"5fe8ba794cfb7d2beeb93c79","study_id":"60edd13110225f80f9f3709b","session_id":"6196c703546bb2a802815001","condition":"full-information","relevant_dimensions":["wings","legs"],"bee_group":{"antennae":"X","wings":"1","pattern":"X","legs":"M"},"action":"harvest","summary":"good-harvest","bonus":1.180000000000001},{"rt":1415.1000000238419,"stimulus":"\n                    <p><b>Action: <em>harvest</em></b></p>\n                    <p>This is the bee that you just saw.</p>\n                    <img src=\"bees-with-color/bee-A1SF.svg\" width=\"200\">\n                    <p><span class=\"greenText\"><b>Successful harvest!</b></span><br>Your pay has increased by $0.02. Your bonus pay is now $0.68.</p>\n            ","response":0,"trial_type":"html-button-response","trial_index":130,"time_elapsed":354817,"internal_node_id":"0.0-4.0-1.61","subject_id":"5fe8ba794cfb7d2beeb93c79","study_id":"60edd13110225f80f9f3709b","session_id":"6196c703546bb2a802815001","condition":"full-information","relevant_dimensions":["wings","legs"],"bee_group":{"antennae":"X","wings":"1","pattern":"X","legs":"M"},"bonus":1.180000000000001},{"rt":1530.800000011921,"stimulus":"bees-with-color/bee-B1DF.svg","response":0,"trial_type":"image-button-response","trial_index":131,"time_elapsed":356350,"internal_node_id":"0.0-4.0-0.62","subject_id":"5fe8ba794cfb7d2beeb93c79","study_id":"60edd13110225f80f9f3709b","session_id":"6196c703546bb2a802815001","condition":"full-information","relevant_dimensions":["wings","legs"],"bee_group":{"antennae":"X","wings":"1","pattern":"X","legs":"M"},"action":"harvest","summary":"good-harvest","bonus":1.180000000000001},{"rt":1228.699999988079,"stimulus":"\n                    <p><b>Action: <em>harvest</em></b></p>\n                    <p>This is the bee that you just saw.</p>\n                    <img src=\"bees-with-color/bee-B1DF.svg\" width=\"200\">\n                    <p><span class=\"greenText\"><b>Successful harvest!</b></span><br>Your pay has increased by $0.02. Your bonus pay is now $0.70.</p>\n            ","response":0,"trial_type":"html-button-response","trial_index":132,"time_elapsed":357581,"internal_node_id":"0.0-4.0-1.62","subject_id":"5fe8ba794cfb7d2beeb93c79","study_id":"60edd13110225f80f9f3709b","session_id":"6196c703546bb2a802815001","condition":"full-information","relevant_dimensions":["wings","legs"],"bee_group":{"antennae":"X","wings":"1","pattern":"X","legs":"M"},"bonus":1.180000000000001},{"rt":2467.900000035763,"stimulus":"bees-with-color/bee-A1SM.svg","response":1,"trial_type":"image-button-response","trial_index":133,"time_elapsed":360051,"internal_node_id":"0.0-4.0-0.63","subject_id":"5fe8ba794cfb7d2beeb93c79","study_id":"60edd13110225f80f9f3709b","session_id":"6196c703546bb2a802815001","condition":"full-information","relevant_dimensions":["wings","legs"],"bee_group":{"antennae":"X","wings":"1","pattern":"X","legs":"M"},"action":"avoid","summary":"good-avoid","bonus":1.180000000000001},{"rt":1341.1000000238419,"stimulus":"\n                    <p><b>Action: <em>avoid</em></b></p>\n                    <p>This is the bee that you just saw.</p>\n                    <img src=\"bees-with-color/bee-A1SM.svg\" width=\"200\">\n                    <p><span class=\"greenText\">Good choice!</span>  This bee would have stung you.<br>Your bonus pay is unchanged, and remains at $0.70.</p>\n            ","response":0,"trial_type":"html-button-response","trial_index":134,"time_elapsed":361395,"internal_node_id":"0.0-4.0-1.63","subject_id":"5fe8ba794cfb7d2beeb93c79","study_id":"60edd13110225f80f9f3709b","session_id":"6196c703546bb2a802815001","condition":"full-information","relevant_dimensions":["wings","legs"],"bee_group":{"antennae":"X","wings":"1","pattern":"X","legs":"M"},"bonus":1.180000000000001},{"rt":3737.800000011921,"stimulus":"You have completed the first part of this experiment.<br><br>You will now begin a shorter second part, in which you will receive no feedback.<br>The same rules regarding bonus pay apply.<br><br>Press any key to begin.","response":" ","trial_type":"html-keyboard-response","trial_index":135,"time_elapsed":365135,"internal_node_id":"0.0-5.0","subject_id":"5fe8ba794cfb7d2beeb93c79","study_id":"60edd13110225f80f9f3709b","session_id":"6196c703546bb2a802815001","condition":"full-information","relevant_dimensions":["wings","legs"],"bee_group":{"antennae":"X","wings":"1","pattern":"X","legs":"M"},"bonus":1.180000000000001},{"rt":2630.5,"stimulus":"bees-with-color/bee-A1DF.svg","response":0,"trial_type":"image-button-response","trial_index":136,"time_elapsed":367778,"internal_node_id":"0.0-6.0-0.0","subject_id":"5fe8ba794cfb7d2beeb93c79","study_id":"60edd13110225f80f9f3709b","session_id":"6196c703546bb2a802815001","condition":"full-information","relevant_dimensions":["wings","legs"],"bee_group":{"antennae":"X","wings":"1","pattern":"X","legs":"M"},"bonus":1.180000000000001},{"rt":1350.300000011921,"stimulus":"bees-with-color/bee-B2DM.svg","response":0,"trial_type":"image-button-response","trial_index":137,"time_elapsed":369132,"internal_node_id":"0.0-6.0-0.1","subject_id":"5fe8ba794cfb7d2beeb93c79","study_id":"60edd13110225f80f9f3709b","session_id":"6196c703546bb2a802815001","condition":"full-information","relevant_dimensions":["wings","legs"],"bee_group":{"antennae":"X","wings":"1","pattern":"X","legs":"M"},"bonus":1.180000000000001},{"rt":1428.5,"stimulus":"bees-with-color/bee-A2SF.svg","response":0,"trial_type":"image-button-response","trial_index":138,"time_elapsed":370563,"internal_node_id":"0.0-6.0-0.2","subject_id":"5fe8ba794cfb7d2beeb93c79","study_id":"60edd13110225f80f9f3709b","session_id":"6196c703546bb2a802815001","condition":"full-information","relevant_dimensions":["wings","legs"],"bee_group":{"antennae":"X","wings":"1","pattern":"X","legs":"M"},"bonus":1.180000000000001},{"rt":1258,"stimulus":"bees-with-color/bee-B1SF.svg","response":0,"trial_type":"image-button-response","trial_index":139,"time_elapsed":371824,"internal_node_id":"0.0-6.0-0.3","subject_id":"5fe8ba794cfb7d2beeb93c79","study_id":"60edd13110225f80f9f3709b","session_id":"6196c703546bb2a802815001","condition":"full-information","relevant_dimensions":["wings","legs"],"bee_group":{"antennae":"X","wings":"1","pattern":"X","legs":"M"},"bonus":1.180000000000001},{"rt":2110.100000023842,"stimulus":"bees-with-color/bee-A1DM.svg","response":1,"trial_type":"image-button-response","trial_index":140,"time_elapsed":373938,"internal_node_id":"0.0-6.0-0.4","subject_id":"5fe8ba794cfb7d2beeb93c79","study_id":"60edd13110225f80f9f3709b","session_id":"6196c703546bb2a802815001","condition":"full-information","relevant_dimensions":["wings","legs"],"bee_group":{"antennae":"X","wings":"1","pattern":"X","legs":"M"},"bonus":1.180000000000001},{"rt":1696.4000000357628,"stimulus":"bees-with-color/bee-A1SM.svg","response":1,"trial_type":"image-button-response","trial_index":141,"time_elapsed":375638,"internal_node_id":"0.0-6.0-0.5","subject_id":"5fe8ba794cfb7d2beeb93c79","study_id":"60edd13110225f80f9f3709b","session_id":"6196c703546bb2a802815001","condition":"full-information","relevant_dimensions":["wings","legs"],"bee_group":{"antennae":"X","wings":"1","pattern":"X","legs":"M"},"bonus":1.180000000000001},{"rt":1569.2000000476837,"stimulus":"bees-with-color/bee-B2SF.svg","response":0,"trial_type":"image-button-response","trial_index":142,"time_elapsed":377211,"internal_node_id":"0.0-6.0-0.6","subject_id":"5fe8ba794cfb7d2beeb93c79","study_id":"60edd13110225f80f9f3709b","session_id":"6196c703546bb2a802815001","condition":"full-information","relevant_dimensions":["wings","legs"],"bee_group":{"antennae":"X","wings":"1","pattern":"X","legs":"M"},"bonus":1.180000000000001},{"rt":1324.0999999642372,"stimulus":"bees-with-color/bee-B2SM.svg","response":0,"trial_type":"image-button-response","trial_index":143,"time_elapsed":378538,"internal_node_id":"0.0-6.0-0.7","subject_id":"5fe8ba794cfb7d2beeb93c79","study_id":"60edd13110225f80f9f3709b","session_id":"6196c703546bb2a802815001","condition":"full-information","relevant_dimensions":["wings","legs"],"bee_group":{"antennae":"X","wings":"1","pattern":"X","legs":"M"},"bonus":1.180000000000001},{"rt":2045.9000000357628,"stimulus":"bees-with-color/bee-B1DM.svg","response":1,"trial_type":"image-button-response","trial_index":144,"time_elapsed":380587,"internal_node_id":"0.0-6.0-0.8","subject_id":"5fe8ba794cfb7d2beeb93c79","study_id":"60edd13110225f80f9f3709b","session_id":"6196c703546bb2a802815001","condition":"full-information","relevant_dimensions":["wings","legs"],"bee_group":{"antennae":"X","wings":"1","pattern":"X","legs":"M"},"bonus":1.180000000000001},{"rt":1260.1000000238419,"stimulus":"bees-with-color/bee-B1DF.svg","response":0,"trial_type":"image-button-response","trial_index":145,"time_elapsed":381851,"internal_node_id":"0.0-6.0-0.9","subject_id":"5fe8ba794cfb7d2beeb93c79","study_id":"60edd13110225f80f9f3709b","session_id":"6196c703546bb2a802815001","condition":"full-information","relevant_dimensions":["wings","legs"],"bee_group":{"antennae":"X","wings":"1","pattern":"X","legs":"M"},"bonus":1.180000000000001},{"rt":1600.800000011921,"stimulus":"bees-with-color/bee-A2SM.svg","response":0,"trial_type":"image-button-response","trial_index":146,"time_elapsed":383454,"internal_node_id":"0.0-6.0-0.10","subject_id":"5fe8ba794cfb7d2beeb93c79","study_id":"60edd13110225f80f9f3709b","session_id":"6196c703546bb2a802815001","condition":"full-information","relevant_dimensions":["wings","legs"],"bee_group":{"antennae":"X","wings":"1","pattern":"X","legs":"M"},"bonus":1.180000000000001},{"rt":1276.4000000357628,"stimulus":"bees-with-color/bee-B2DF.svg","response":0,"trial_type":"image-button-response","trial_index":147,"time_elapsed":384733,"internal_node_id":"0.0-6.0-0.11","subject_id":"5fe8ba794cfb7d2beeb93c79","study_id":"60edd13110225f80f9f3709b","session_id":"6196c703546bb2a802815001","condition":"full-information","relevant_dimensions":["wings","legs"],"bee_group":{"antennae":"X","wings":"1","pattern":"X","legs":"M"},"bonus":1.180000000000001},{"rt":2173.199999988079,"stimulus":"bees-with-color/bee-B1SM.svg","response":1,"trial_type":"image-button-response","trial_index":148,"time_elapsed":386909,"internal_node_id":"0.0-6.0-0.12","subject_id":"5fe8ba794cfb7d2beeb93c79","study_id":"60edd13110225f80f9f3709b","session_id":"6196c703546bb2a802815001","condition":"full-information","relevant_dimensions":["wings","legs"],"bee_group":{"antennae":"X","wings":"1","pattern":"X","legs":"M"},"bonus":1.180000000000001},{"rt":1154.4000000357628,"stimulus":"bees-with-color/bee-A2DF.svg","response":0,"trial_type":"image-button-response","trial_index":149,"time_elapsed":388067,"internal_node_id":"0.0-6.0-0.13","subject_id":"5fe8ba794cfb7d2beeb93c79","study_id":"60edd13110225f80f9f3709b","session_id":"6196c703546bb2a802815001","condition":"full-information","relevant_dimensions":["wings","legs"],"bee_group":{"antennae":"X","wings":"1","pattern":"X","legs":"M"},"bonus":1.180000000000001},{"rt":1165,"stimulus":"bees-with-color/bee-A1SF.svg","response":0,"trial_type":"image-button-response","trial_index":150,"time_elapsed":389235,"internal_node_id":"0.0-6.0-0.14","subject_id":"5fe8ba794cfb7d2beeb93c79","study_id":"60edd13110225f80f9f3709b","session_id":"6196c703546bb2a802815001","condition":"full-information","relevant_dimensions":["wings","legs"],"bee_group":{"antennae":"X","wings":"1","pattern":"X","legs":"M"},"bonus":1.180000000000001},{"rt":1274,"stimulus":"bees-with-color/bee-A2DM.svg","response":0,"trial_type":"image-button-response","trial_index":151,"time_elapsed":390511,"internal_node_id":"0.0-6.0-0.15","subject_id":"5fe8ba794cfb7d2beeb93c79","study_id":"60edd13110225f80f9f3709b","session_id":"6196c703546bb2a802815001","condition":"full-information","relevant_dimensions":["wings","legs"],"bee_group":{"antennae":"X","wings":"1","pattern":"X","legs":"M"},"bonus":1.180000000000001},{"rt":1132.3999999761581,"stimulus":"bees-with-color/bee-A2SM.svg","response":0,"trial_type":"image-button-response","trial_index":152,"time_elapsed":391646,"internal_node_id":"0.0-6.0-0.16","subject_id":"5fe8ba794cfb7d2beeb93c79","study_id":"60edd13110225f80f9f3709b","session_id":"6196c703546bb2a802815001","condition":"full-information","relevant_dimensions":["wings","legs"],"bee_group":{"antennae":"X","wings":"1","pattern":"X","legs":"M"},"bonus":1.180000000000001},{"rt":1195.6000000238419,"stimulus":"bees-with-color/bee-A1DF.svg","response":0,"trial_type":"image-button-response","trial_index":153,"time_elapsed":392844,"internal_node_id":"0.0-6.0-0.17","subject_id":"5fe8ba794cfb7d2beeb93c79","study_id":"60edd13110225f80f9f3709b","session_id":"6196c703546bb2a802815001","condition":"full-information","relevant_dimensions":["wings","legs"],"bee_group":{"antennae":"X","wings":"1","pattern":"X","legs":"M"},"bonus":1.180000000000001},{"rt":2304.5,"stimulus":"bees-with-color/bee-A1DM.svg","response":1,"trial_type":"image-button-response","trial_index":154,"time_elapsed":395150,"internal_node_id":"0.0-6.0-0.18","subject_id":"5fe8ba794cfb7d2beeb93c79","study_id":"60edd13110225f80f9f3709b","session_id":"6196c703546bb2a802815001","condition":"full-information","relevant_dimensions":["wings","legs"],"bee_group":{"antennae":"X","wings":"1","pattern":"X","legs":"M"},"bonus":1.180000000000001},{"rt":1498.5,"stimulus":"bees-with-color/bee-B1SM.svg","response":1,"trial_type":"image-button-response","trial_index":155,"time_elapsed":396651,"internal_node_id":"0.0-6.0-0.19","subject_id":"5fe8ba794cfb7d2beeb93c79","study_id":"60edd13110225f80f9f3709b","session_id":"6196c703546bb2a802815001","condition":"full-information","relevant_dimensions":["wings","legs"],"bee_group":{"antennae":"X","wings":"1","pattern":"X","legs":"M"},"bonus":1.180000000000001},{"rt":1483.199999988079,"stimulus":"bees-with-color/bee-A1SF.svg","response":0,"trial_type":"image-button-response","trial_index":156,"time_elapsed":398137,"internal_node_id":"0.0-6.0-0.20","subject_id":"5fe8ba794cfb7d2beeb93c79","study_id":"60edd13110225f80f9f3709b","session_id":"6196c703546bb2a802815001","condition":"full-information","relevant_dimensions":["wings","legs"],"bee_group":{"antennae":"X","wings":"1","pattern":"X","legs":"M"},"bonus":1.180000000000001},{"rt":1387.7000000476837,"stimulus":"bees-with-color/bee-A2DM.svg","response":0,"trial_type":"image-button-response","trial_index":157,"time_elapsed":399527,"internal_node_id":"0.0-6.0-0.21","subject_id":"5fe8ba794cfb7d2beeb93c79","study_id":"60edd13110225f80f9f3709b","session_id":"6196c703546bb2a802815001","condition":"full-information","relevant_dimensions":["wings","legs"],"bee_group":{"antennae":"X","wings":"1","pattern":"X","legs":"M"},"bonus":1.180000000000001},{"rt":1016.5,"stimulus":"bees-with-color/bee-B1DF.svg","response":0,"trial_type":"image-button-response","trial_index":158,"time_elapsed":400545,"internal_node_id":"0.0-6.0-0.22","subject_id":"5fe8ba794cfb7d2beeb93c79","study_id":"60edd13110225f80f9f3709b","session_id":"6196c703546bb2a802815001","condition":"full-information","relevant_