[{"success":true,"trial_type":"fullscreen","trial_index":0,"time_elapsed":39734,"internal_node_id":"0.0-0.0","subject_id":"60bf21880c7e8e6f92dc159b","study_id":"6197b3f67c2b5cd3b6d9596a","session_id":"6197b88c9e3bd01bf50a498b","condition":"full-information","relevant_dimensions":["wings","pattern"],"bee_group":{"antennae":"X","wings":"1","pattern":"S","legs":"X"},"bonus":1.7200000000000013},{"success":true,"timeout":false,"failed_images":[],"failed_audio":[],"failed_video":[],"trial_type":"preload","trial_index":1,"time_elapsed":41971,"internal_node_id":"0.0-1.0","subject_id":"60bf21880c7e8e6f92dc159b","study_id":"6197b3f67c2b5cd3b6d9596a","session_id":"6197b88c9e3bd01bf50a498b","condition":"full-information","relevant_dimensions":["wings","pattern"],"bee_group":{"antennae":"X","wings":"1","pattern":"S","legs":"X"},"bonus":1.7200000000000013},{"rt":1577.2999999821186,"stimulus":"Welcome! Press any key to begin.","response":" ","trial_type":"html-keyboard-response","trial_index":2,"time_elapsed":43549,"internal_node_id":"0.0-2.0","subject_id":"60bf21880c7e8e6f92dc159b","study_id":"6197b3f67c2b5cd3b6d9596a","session_id":"6197b88c9e3bd01bf50a498b","condition":"full-information","relevant_dimensions":["wings","pattern"],"bee_group":{"antennae":"X","wings":"1","pattern":"S","legs":"X"},"bonus":1.7200000000000013},{"view_history":[{"page_index":0,"viewing_time":2837.800000011921},{"page_index":1,"viewing_time":10544},{"page_index":2,"viewing_time":25275.30000001192},{"page_index":3,"viewing_time":11790},{"page_index":4,"viewing_time":5137.799999982119},{"page_index":5,"viewing_time":4177},{"page_index":6,"viewing_time":8475.90000000596},{"page_index":7,"viewing_time":4169.0999999940395},{"page_index":8,"viewing_time":2584.0999999940395},{"page_index":9,"viewing_time":1505.2000000178814},{"page_index":10,"viewing_time":1098.699999988079},{"page_index":11,"viewing_time":7711.9000000059605},{"page_index":12,"viewing_time":20292.40000000596},{"page_index":13,"viewing_time":3765.2999999821186},{"page_index":14,"viewing_time":1956.4000000059605}],"rt":111321.40000000596,"trial_type":"instructions","trial_index":3,"time_elapsed":154871,"internal_node_id":"0.0-3.0-0.0","subject_id":"60bf21880c7e8e6f92dc159b","study_id":"6197b3f67c2b5cd3b6d9596a","session_id":"6197b88c9e3bd01bf50a498b","condition":"full-information","relevant_dimensions":["wings","pattern"],"bee_group":{"antennae":"X","wings":"1","pattern":"S","legs":"X"},"bonus":1.7200000000000013},{"rt":11512.59999999404,"response":{"Q0":["Two or six legs","Stripes or spots on body","Single or double wings","Antennae or no antennae"]},"question_order":[0],"trial_type":"survey-multi-select","trial_index":4,"time_elapsed":166387,"internal_node_id":"0.0-3.0-1.0","subject_id":"60bf21880c7e8e6f92dc159b","study_id":"6197b3f67c2b5cd3b6d9596a","session_id":"6197b88c9e3bd01bf50a498b","condition":"full-information","relevant_dimensions":["wings","pattern"],"bee_group":{"antennae":"X","wings":"1","pattern":"S","legs":"X"},"correct":true,"bonus":1.7200000000000013},{"rt":14005.40000000596,"response":{"Q1":"No.","Q2":"Based on the four features of the bee.","Q3":"You learn if it was friendly or dangerous, but do not alter your bonus."},"question_order":[0,1,2],"trial_type":"survey-multi-choice","trial_index":5,"time_elapsed":180395,"internal_node_id":"0.0-3.0-2.0","subject_id":"60bf21880c7e8e6f92dc159b","study_id":"6197b3f67c2b5cd3b6d9596a","session_id":"6197b88c9e3bd01bf50a498b","condition":"full-information","relevant_dimensions":["wings","pattern"],"bee_group":{"antennae":"X","wings":"1","pattern":"S","legs":"X"},"correct":true,"bonus":1.7200000000000013},{"rt":2279.9000000059605,"stimulus":"<p>Congrats, you got everything right<br>When you're ready, click the button below to continue to the experiment.</p>","response":0,"trial_type":"html-button-response","trial_index":6,"time_elapsed":182677,"internal_node_id":"0.0-3.0-3.0","subject_id":"60bf21880c7e8e6f92dc159b","study_id":"6197b3f67c2b5cd3b6d9596a","session_id":"6197b88c9e3bd01bf50a498b","condition":"full-information","relevant_dimensions":["wings","pattern"],"bee_group":{"antennae":"X","wings":"1","pattern":"S","legs":"X"},"bonus":1.7200000000000013},{"rt":2621.800000011921,"stimulus":"bees-with-color/bee-B1DF.svg","response":0,"trial_type":"image-button-response","trial_index":7,"time_elapsed":185302,"internal_node_id":"0.0-4.0-0.0","subject_id":"60bf21880c7e8e6f92dc159b","study_id":"6197b3f67c2b5cd3b6d9596a","session_id":"6197b88c9e3bd01bf50a498b","condition":"full-information","relevant_dimensions":["wings","pattern"],"bee_group":{"antennae":"X","wings":"1","pattern":"S","legs":"X"},"action":"harvest","summary":"good-harvest","bonus":1.7200000000000013},{"rt":29649.69999998808,"stimulus":"\n                    <p><b>Action: <em>harvest</em></b></p>\n                    <p>This is the bee that you just saw.</p>\n                    <img src=\"bees-with-color/bee-B1DF.svg\" width=\"200\">\n                    <p><span class=\"greenText\"><b>Successful harvest!</b></span><br>Your pay has increased by $0.02. Your bonus pay is now $0.56.</p>\n            ","response":0,"trial_type":"html-button-response","trial_index":8,"time_elapsed":214955,"internal_node_id":"0.0-4.0-1.0","subject_id":"60bf21880c7e8e6f92dc159b","study_id":"6197b3f67c2b5cd3b6d9596a","session_id":"6197b88c9e3bd01bf50a498b","condition":"full-information","relevant_dimensions":["wings","pattern"],"bee_group":{"antennae":"X","wings":"1","pattern":"S","legs":"X"},"bonus":1.7200000000000013},{"rt":2087.9000000059605,"stimulus":"bees-with-color/bee-A1SF.svg","response":1,"trial_type":"image-button-response","trial_index":9,"time_elapsed":217046,"internal_node_id":"0.0-4.0-0.1","subject_id":"60bf21880c7e8e6f92dc159b","study_id":"6197b3f67c2b5cd3b6d9596a","session_id":"6197b88c9e3bd01bf50a498b","condition":"full-information","relevant_dimensions":["wings","pattern"],"bee_group":{"antennae":"X","wings":"1","pattern":"S","legs":"X"},"action":"avoid","summary":"good-avoid","bonus":1.7200000000000013},{"rt":18697.100000023842,"stimulus":"\n                    <p><b>Action: <em>avoid</em></b></p>\n                    <p>This is the bee that you just saw.</p>\n                    <img src=\"bees-with-color/bee-A1SF.svg\" width=\"200\">\n                    <p><span class=\"greenText\">Good choice!</span>  This bee would have stung you.<br>Your bonus pay is unchanged, and remains at $0.56.</p>\n            ","response":0,"trial_type":"html-button-response","trial_index":10,"time_elapsed":235745,"internal_node_id":"0.0-4.0-1.1","subject_id":"60bf21880c7e8e6f92dc159b","study_id":"6197b3f67c2b5cd3b6d9596a","session_id":"6197b88c9e3bd01bf50a498b","condition":"full-information","relevant_dimensions":["wings","pattern"],"bee_group":{"antennae":"X","wings":"1","pattern":"S","legs":"X"},"bonus":1.7200000000000013},{"rt":1643.5,"stimulus":"bees-with-color/bee-B2SM.svg","response":0,"trial_type":"image-button-response","trial_index":11,"time_elapsed":237390,"internal_node_id":"0.0-4.0-0.2","subject_id":"60bf21880c7e8e6f92dc159b","study_id":"6197b3f67c2b5cd3b6d9596a","session_id":"6197b88c9e3bd01bf50a498b","condition":"full-information","relevant_dimensions":["wings","pattern"],"bee_group":{"antennae":"X","wings":"1","pattern":"S","legs":"X"},"action":"harvest","summary":"good-harvest","bonus":1.7200000000000013},{"rt":15636.199999988079,"stimulus":"\n                    <p><b>Action: <em>harvest</em></b></p>\n                    <p>This is the bee that you just saw.</p>\n                    <img src=\"bees-with-color/bee-B2SM.svg\" width=\"200\">\n                    <p><span class=\"greenText\"><b>Successful harvest!</b></span><br>Your pay has increased by $0.02. Your bonus pay is now $0.58.</p>\n            ","response":0,"trial_type":"html-button-response","trial_index":12,"time_elapsed":253029,"internal_node_id":"0.0-4.0-1.2","subject_id":"60bf21880c7e8e6f92dc159b","study_id":"6197b3f67c2b5cd3b6d9596a","session_id":"6197b88c9e3bd01bf50a498b","condition":"full-information","relevant_dimensions":["wings","pattern"],"bee_group":{"antennae":"X","wings":"1","pattern":"S","legs":"X"},"bonus":1.7200000000000013},{"rt":4256,"stimulus":"bees-with-color/bee-A2SF.svg","response":1,"trial_type":"image-button-response","trial_index":13,"time_elapsed":257287,"internal_node_id":"0.0-4.0-0.3","subject_id":"60bf21880c7e8e6f92dc159b","study_id":"6197b3f67c2b5cd3b6d9596a","session_id":"6197b88c9e3bd01bf50a498b","condition":"full-information","relevant_dimensions":["wings","pattern"],"bee_group":{"antennae":"X","wings":"1","pattern":"S","legs":"X"},"action":"avoid","summary":"bad-avoid","bonus":1.7200000000000013},{"rt":25231.399999976158,"stimulus":"\n                    <p><b>Action: <em>avoid</em></b></p>\n                    <p>This is the bee that you just saw.</p>\n                    <img src=\"bees-with-color/bee-A2SF.svg\" width=\"200\">\n                    <p><span class=\"redText\">Bad choice,</span> the bee was friendly.<br>Your bonus pay is unchanged, and remains at $0.58.</p>\n            ","response":0,"trial_type":"html-button-response","trial_index":14,"time_elapsed":282520,"internal_node_id":"0.0-4.0-1.3","subject_id":"60bf21880c7e8e6f92dc159b","study_id":"6197b3f67c2b5cd3b6d9596a","session_id":"6197b88c9e3bd01bf50a498b","condition":"full-information","relevant_dimensions":["wings","pattern"],"bee_group":{"antennae":"X","wings":"1","pattern":"S","legs":"X"},"bonus":1.7200000000000013},{"rt":2011.0999999940395,"stimulus":"bees-with-color/bee-A2DM.svg","response":1,"trial_type":"image-button-response","trial_index":15,"time_elapsed":284533,"internal_node_id":"0.0-4.0-0.4","subject_id":"60bf21880c7e8e6f92dc159b","study_id":"6197b3f67c2b5cd3b6d9596a","session_id":"6197b88c9e3bd01bf50a498b","condition":"full-information","relevant_dimensions":["wings","pattern"],"bee_group":{"antennae":"X","wings":"1","pattern":"S","legs":"X"},"action":"avoid","summary":"bad-avoid","bonus":1.7200000000000013},{"rt":10993.399999976158,"stimulus":"\n                    <p><b>Action: <em>avoid</em></b></p>\n                    <p>This is the bee that you just saw.</p>\n                    <img src=\"bees-with-color/bee-A2DM.svg\" width=\"200\">\n                    <p><span class=\"redText\">Bad choice,</span> the bee was friendly.<br>Your bonus pay is unchanged, and remains at $0.58.</p>\n            ","response":0,"trial_type":"html-button-response","trial_index":16,"time_elapsed":295529,"internal_node_id":"0.0-4.0-1.4","subject_id":"60bf21880c7e8e6f92dc159b","study_id":"6197b3f67c2b5cd3b6d9596a","session_id":"6197b88c9e3bd01bf50a498b","condition":"full-information","relevant_dimensions":["wings","pattern"],"bee_group":{"antennae":"X","wings":"1","pattern":"S","legs":"X"},"bonus":1.7200000000000013},{"rt":5237.199999988079,"stimulus":"bees-with-color/bee-B1SF.svg","response":0,"trial_type":"image-button-response","trial_index":17,"time_elapsed":300768,"internal_node_id":"0.0-4.0-0.5","subject_id":"60bf21880c7e8e6f92dc159b","study_id":"6197b3f67c2b5cd3b6d9596a","session_id":"6197b88c9e3bd01bf50a498b","condition":"full-information","relevant_dimensions":["wings","pattern"],"bee_group":{"antennae":"X","wings":"1","pattern":"S","legs":"X"},"action":"harvest","summary":"bad-harvest","bonus":1.7200000000000013},{"rt":9584,"stimulus":"\n                    <p><b>Action: <em>harvest</em></b></p>\n                    <p>This is the bee that you just saw.</p>\n                    <img src=\"bees-with-color/bee-B1SF.svg\" width=\"200\">\n                    <p><span class=\"redText\">Bad choice, the bee was angry.</span><br><b>You have been stung!</b><br>Your pay has been decreased by $0.10. Your bonus pay is now $0.48.</p>\n            ","response":0,"trial_type":"html-button-response","trial_index":18,"time_elapsed":310354,"internal_node_id":"0.0-4.0-1.5","subject_id":"60bf21880c7e8e6f92dc159b","study_id":"6197b3f67c2b5cd3b6d9596a","session_id":"6197b88c9e3bd01bf50a498b","condition":"full-information","relevant_dimensions":["wings","pattern"],"bee_group":{"antennae":"X","wings":"1","pattern":"S","legs":"X"},"bonus":1.7200000000000013},{"rt":8797.200000017881,"stimulus":"bees-with-color/bee-B1DM.svg","response":0,"trial_type":"image-button-response","trial_index":19,"time_elapsed":319153,"internal_node_id":"0.0-4.0-0.6","subject_id":"60bf21880c7e8e6f92dc159b","study_id":"6197b3f67c2b5cd3b6d9596a","session_id":"6197b88c9e3bd01bf50a498b","condition":"full-information","relevant_dimensions":["wings","pattern"],"bee_group":{"antennae":"X","wings":"1","pattern":"S","legs":"X"},"action":"harvest","summary":"good-harvest","bonus":1.7200000000000013},{"rt":14511.59999999404,"stimulus":"\n                    <p><b>Action: <em>harvest</em></b></p>\n                    <p>This is the bee that you just saw.</p>\n                    <img src=\"bees-with-color/bee-B1DM.svg\" width=\"200\">\n                    <p><span class=\"greenText\"><b>Successful harvest!</b></span><br>Your pay has increased by $0.02. Your bonus pay is now $0.50.</p>\n            ","response":0,"trial_type":"html-button-response","trial_index":20,"time_elapsed":333667,"internal_node_id":"0.0-4.0-1.6","subject_id":"60bf21880c7e8e6f92dc159b","study_id":"6197b3f67c2b5cd3b6d9596a","session_id":"6197b88c9e3bd01bf50a498b","condition":"full-information","relevant_dimensions":["wings","pattern"],"bee_group":{"antennae":"X","wings":"1","pattern":"S","legs":"X"},"bonus":1.7200000000000013},{"rt":6107.5999999940395,"stimulus":"bees-with-color/bee-B2SF.svg","response":0,"trial_type":"image-button-response","trial_index":21,"time_elapsed":339776,"internal_node_id":"0.0-4.0-0.7","subject_id":"60bf21880c7e8e6f92dc159b","study_id":"6197b3f67c2b5cd3b6d9596a","session_id":"6197b88c9e3bd01bf50a498b","condition":"full-information","relevant_dimensions":["wings","pattern"],"bee_group":{"antennae":"X","wings":"1","pattern":"S","legs":"X"},"action":"harvest","summary":"good-harvest","bonus":1.7200000000000013},{"rt":839.3000000119209,"stimulus":"\n                    <p><b>Action: <em>harvest</em></b></p>\n                    <p>This is the bee that you just saw.</p>\n                    <img src=\"bees-with-color/bee-B2SF.svg\" width=\"200\">\n                    <p><span class=\"greenText\"><b>Successful harvest!</b></span><br>Your pay has increased by $0.02. Your bonus pay is now $0.52.</p>\n            ","response":0,"trial_type":"html-button-response","trial_index":22,"time_elapsed":340617,"internal_node_id":"0.0-4.0-1.7","subject_id":"60bf21880c7e8e6f92dc159b","study_id":"6197b3f67c2b5cd3b6d9596a","session_id":"6197b88c9e3bd01bf50a498b","condition":"full-information","relevant_dimensions":["wings","pattern"],"bee_group":{"antennae":"X","wings":"1","pattern":"S","legs":"X"},"bonus":1.7200000000000013},{"rt":11844.200000017881,"stimulus":"bees-with-color/bee-A2DF.svg","response":0,"trial_type":"image-button-response","trial_index":23,"time_elapsed":352463,"internal_node_id":"0.0-4.0-0.8","subject_id":"60bf21880c7e8e6f92dc159b","study_id":"6197b3f67c2b5cd3b6d9596a","session_id":"6197b88c9e3bd01bf50a498b","condition":"full-information","relevant_dimensions":["wings","pattern"],"bee_group":{"antennae":"X","wings":"1","pattern":"S","legs":"X"},"action":"harvest","summary":"good-harvest","bonus":1.7200000000000013},{"rt":7674.4000000059605,"stimulus":"\n                    <p><b>Action: <em>harvest</em></b></p>\n                    <p>This is the bee that you just saw.</p>\n                    <img src=\"bees-with-color/bee-A2DF.svg\" width=\"200\">\n                    <p><span class=\"greenText\"><b>Successful harvest!</b></span><br>Your pay has increased by $0.02. Your bonus pay is now $0.54.</p>\n            ","response":0,"trial_type":"html-button-response","trial_index":24,"time_elapsed":360139,"internal_node_id":"0.0-4.0-1.8","subject_id":"60bf21880c7e8e6f92dc159b","study_id":"6197b3f67c2b5cd3b6d9596a","session_id":"6197b88c9e3bd01bf50a498b","condition":"full-information","relevant_dimensions":["wings","pattern"],"bee_group":{"antennae":"X","wings":"1","pattern":"S","legs":"X"},"bonus":1.7200000000000013},{"rt":4651.200000017881,"stimulus":"bees-with-color/bee-A1DM.svg","response":0,"trial_type":"image-button-response","trial_index":25,"time_elapsed":364792,"internal_node_id":"0.0-4.0-0.9","subject_id":"60bf21880c7e8e6f92dc159b","study_id":"6197b3f67c2b5cd3b6d9596a","session_id":"6197b88c9e3bd01bf50a498b","condition":"full-information","relevant_dimensions":["wings","pattern"],"bee_group":{"antennae":"X","wings":"1","pattern":"S","legs":"X"},"action":"harvest","summary":"good-harvest","bonus":1.7200000000000013},{"rt":10724.700000017881,"stimulus":"\n                    <p><b>Action: <em>harvest</em></b></p>\n                    <p>This is the bee that you just saw.</p>\n                    <img src=\"bees-with-color/bee-A1DM.svg\" width=\"200\">\n                    <p><span class=\"greenText\"><b>Successful harvest!</b></span><br>Your pay has increased by $0.02. Your bonus pay is now $0.56.</p>\n            ","response":0,"trial_type":"html-button-response","trial_index":26,"time_elapsed":375519,"internal_node_id":"0.0-4.0-1.9","subject_id":"60bf21880c7e8e6f92dc159b","study_id":"6197b3f67c2b5cd3b6d9596a","session_id":"6197b88c9e3bd01bf50a498b","condition":"full-information","relevant_dimensions":["wings","pattern"],"bee_group":{"antennae":"X","wings":"1","pattern":"S","legs":"X"},"bonus":1.7200000000000013},{"rt":7567.0999999940395,"stimulus":"bees-with-color/bee-A1SM.svg","response":0,"trial_type":"image-button-response","trial_index":27,"time_elapsed":383088,"internal_node_id":"0.0-4.0-0.10","subject_id":"60bf21880c7e8e6f92dc159b","study_id":"6197b3f67c2b5cd3b6d9596a","session_id":"6197b88c9e3bd01bf50a498b","condition":"full-information","relevant_dimensions":["wings","pattern"],"bee_group":{"antennae":"X","wings":"1","pattern":"S","legs":"X"},"action":"harvest","summary":"bad-harvest","bonus":1.7200000000000013},{"rt":19706.80000001192,"stimulus":"\n                    <p><b>Action: <em>harvest</em></b></p>\n                    <p>This is the bee that you just saw.</p>\n                    <img src=\"bees-with-color/bee-A1SM.svg\" width=\"200\">\n                    <p><span class=\"redText\">Bad choice, the bee was angry.</span><br><b>You have been stung!</b><br>Your pay has been decreased by $0.10. Your bonus pay is now $0.46.</p>\n            ","response":0,"trial_type":"html-button-response","trial_index":28,"time_elapsed":402797,"internal_node_id":"0.0-4.0-1.10","subject_id":"60bf21880c7e8e6f92dc159b","study_id":"6197b3f67c2b5cd3b6d9596a","session_id":"6197b88c9e3bd01bf50a498b","condition":"full-information","relevant_dimensions":["wings","pattern"],"bee_group":{"antennae":"X","wings":"1","pattern":"S","legs":"X"},"bonus":1.7200000000000013},{"rt":9738.199999988079,"stimulus":"bees-with-color/bee-A2SM.svg","response":1,"trial_type":"image-button-response","trial_index":29,"time_elapsed":412537,"internal_node_id":"0.0-4.0-0.11","subject_id":"60bf21880c7e8e6f92dc159b","study_id":"6197b3f67c2b5cd3b6d9596a","session_id":"6197b88c9e3bd01bf50a498b","condition":"full-information","relevant_dimensions":["wings","pattern"],"bee_group":{"antennae":"X","wings":"1","pattern":"S","legs":"X"},"action":"avoid","summary":"bad-avoid","bonus":1.7200000000000013},{"rt":34230.10000002384,"stimulus":"\n                    <p><b>Action: <em>avoid</em></b></p>\n                    <p>This is the bee that you just saw.</p>\n                    <img src=\"bees-with-color/bee-A2SM.svg\" width=\"200\">\n                    <p><span class=\"redText\">Bad choice,</span> the bee was friendly.<br>Your bonus pay is unchanged, and remains at $0.46.</p>\n            ","response":0,"trial_type":"html-button-response","trial_index":30,"time_elapsed":446769,"internal_node_id":"0.0-4.0-1.11","subject_id":"60bf21880c7e8e6f92dc159b","study_id":"6197b3f67c2b5cd3b6d9596a","session_id":"6197b88c9e3bd01bf50a498b","condition":"full-information","relevant_dimensions":["wings","pattern"],"bee_group":{"antennae":"X","wings":"1","pattern":"S","legs":"X"},"bonus":1.7200000000000013},{"rt":11939.800000011921,"stimulus":"bees-with-color/bee-B2DF.svg","response":0,"trial_type":"image-button-response","trial_index":31,"time_elapsed":458710,"internal_node_id":"0.0-4.0-0.12","subject_id":"60bf21880c7e8e6f92dc159b","study_id":"6197b3f67c2b5cd3b6d9596a","session_id":"6197b88c9e3bd01bf50a498b","condition":"full-information","relevant_dimensions":["wings","pattern"],"bee_group":{"antennae":"X","wings":"1","pattern":"S","legs":"X"},"action":"harvest","summary":"good-harvest","bonus":1.7200000000000013},{"rt":11944.5,"stimulus":"\n                    <p><b>Action: <em>harvest</em></b></p>\n                    <p>This is the bee that you just saw.</p>\n                    <img src=\"bees-with-color/bee-B2DF.svg\" width=\"200\">\n                    <p><span class=\"greenText\"><b>Successful harvest!</b></span><br>Your pay has increased by $0.02. Your bonus pay is now $0.48.</p>\n            ","response":0,"trial_type":"html-button-response","trial_index":32,"time_elapsed":470657,"internal_node_id":"0.0-4.0-1.12","subject_id":"60bf21880c7e8e6f92dc159b","study_id":"6197b3f67c2b5cd3b6d9596a","session_id":"6197b88c9e3bd01bf50a498b","condition":"full-information","relevant_dimensions":["wings","pattern"],"bee_group":{"antennae":"X","wings":"1","pattern":"S","legs":"X"},"bonus":1.7200000000000013},{"rt":13476.800000011921,"stimulus":"bees-with-color/bee-B2DM.svg","response":0,"trial_type":"image-button-response","trial_index":33,"time_elapsed":484135,"internal_node_id":"0.0-4.0-0.13","subject_id":"60bf21880c7e8e6f92dc159b","study_id":"6197b3f67c2b5cd3b6d9596a","session_id":"6197b88c9e3bd01bf50a498b","condition":"full-information","relevant_dimensions":["wings","pattern"],"bee_group":{"antennae":"X","wings":"1","pattern":"S","legs":"X"},"action":"harvest","summary":"good-harvest","bonus":1.7200000000000013},{"rt":7061.399999976158,"stimulus":"\n                    <p><b>Action: <em>harvest</em></b></p>\n                    <p>This is the bee that you just saw.</p>\n                    <img src=\"bees-with-color/bee-B2DM.svg\" width=\"200\">\n                    <p><span class=\"greenText\"><b>Successful harvest!</b></span><br>Your pay has increased by $0.02. Your bonus pay is now $0.50.</p>\n            ","response":0,"trial_type":"html-button-response","trial_index":34,"time_elapsed":491198,"internal_node_id":"0.0-4.0-1.13","subject_id":"60bf21880c7e8e6f92dc159b","study_id":"6197b3f67c2b5cd3b6d9596a","session_id":"6197b88c9e3bd01bf50a498b","condition":"full-information","relevant_dimensions":["wings","pattern"],"bee_group":{"antennae":"X","wings":"1","pattern":"S","legs":"X"},"bonus":1.7200000000000013},{"rt":5847.800000011921,"stimulus":"bees-with-color/bee-B1SM.svg","response":1,"trial_type":"image-button-response","trial_index":35,"time_elapsed":497048,"internal_node_id":"0.0-4.0-0.14","subject_id":"60bf21880c7e8e6f92dc159b","study_id":"6197b3f67c2b5cd3b6d9596a","session_id":"6197b88c9e3bd01bf50a498b","condition":"full-information","relevant_dimensions":["wings","pattern"],"bee_group":{"antennae":"X","wings":"1","pattern":"S","legs":"X"},"action":"avoid","summary":"good-avoid","bonus":1.7200000000000013},{"rt":11339.5,"stimulus":"\n                    <p><b>Action: <em>avoid</em></b></p>\n                    <p>This is the bee that you just saw.</p>\n                    <img src=\"bees-with-color/bee-B1SM.svg\" width=\"200\">\n                    <p><span class=\"greenText\">Good choice!</span>  This bee would have stung you.<br>Your bonus pay is unchanged, and remains at $0.50.</p>\n            ","response":0,"trial_type":"html-button-response","trial_index":36,"time_elapsed":508388,"internal_node_id":"0.0-4.0-1.14","subject_id":"60bf21880c7e8e6f92dc159b","study_id":"6197b3f67c2b5cd3b6d9596a","session_id":"6197b88c9e3bd01bf50a498b","condition":"full-information","relevant_dimensions":["wings","pattern"],"bee_group":{"antennae":"X","wings":"1","pattern":"S","legs":"X"},"bonus":1.7200000000000013},{"rt":12549.799999982119,"stimulus":"bees-with-color/bee-A1DF.svg","response":0,"trial_type":"image-button-response","trial_index":37,"time_elapsed":520940,"internal_node_id":"0.0-4.0-0.15","subject_id":"60bf21880c7e8e6f92dc159b","study_id":"6197b3f67c2b5cd3b6d9596a","session_id":"6197b88c9e3bd01bf50a498b","condition":"full-information","relevant_dimensions":["wings","pattern"],"bee_group":{"antennae":"X","wings":"1","pattern":"S","legs":"X"},"action":"harvest","summary":"good-harvest","bonus":1.7200000000000013},{"rt":64592.30000001192,"stimulus":"\n                    <p><b>Action: <em>harvest</em></b></p>\n                    <p>This is the bee that you just saw.</p>\n                    <img src=\"bees-with-color/bee-A1DF.svg\" width=\"200\">\n                    <p><span class=\"greenText\"><b>Successful harvest!</b></span><br>Your pay has increased by $0.02. Your bonus pay is now $0.52.</p>\n            ","response":0,"trial_type":"html-button-response","trial_index":38,"time_elapsed":585533,"internal_node_id":"0.0-4.0-1.15","subject_id":"60bf21880c7e8e6f92dc159b","study_id":"6197b3f67c2b5cd3b6d9596a","session_id":"6197b88c9e3bd01bf50a498b","condition":"full-information","relevant_dimensions":["wings","pattern"],"bee_group":{"antennae":"X","wings":"1","pattern":"S","legs":"X"},"bonus":1.7200000000000013},{"rt":5354.5999999940395,"stimulus":"bees-with-color/bee-A1DF.svg","response":0,"trial_type":"image-button-response","trial_index":39,"time_elapsed":590890,"internal_node_id":"0.0-4.0-0.16","subject_id":"60bf21880c7e8e6f92dc159b","study_id":"6197b3f67c2b5cd3b6d9596a","session_id":"6197b88c9e3bd01bf50a498b","condition":"full-information","relevant_dimensions":["wings","pattern"],"bee_group":{"antennae":"X","wings":"1","pattern":"S","legs":"X"},"action":"harvest","summary":"good-harvest","bonus":1.7200000000000013},{"rt":3509.5,"stimulus":"\n                    <p><b>Action: <em>harvest</em></b></p>\n                    <p>This is the bee that you just saw.</p>\n                    <img src=\"bees-with-color/bee-A1DF.svg\" width=\"200\">\n                    <p><span class=\"greenText\"><b>Successful harvest!</b></span><br>Your pay has increased by $0.02. Your bonus pay is now $0.54.</p>\n            ","response":0,"trial_type":"html-button-response","trial_index":40,"time_elapsed":594401,"internal_node_id":"0.0-4.0-1.16","subject_id":"60bf21880c7e8e6f92dc159b","study_id":"6197b3f67c2b5cd3b6d9596a","session_id":"6197b88c9e3bd01bf50a498b","condition":"full-information","relevant_dimensions":["wings","pattern"],"bee_group":{"antennae":"X","wings":"1","pattern":"S","legs":"X"},"bonus":1.7200000000000013},{"rt":7049.5999999940395,"stimulus":"bees-with-color/bee-A2DM.svg","response":0,"trial_type":"image-button-response","trial_index":41,"time_elapsed":601452,"internal_node_id":"0.0-4.0-0.17","subject_id":"60bf21880c7e8e6f92dc159b","study_id":"6197b3f67c2b5cd3b6d9596a","session_id":"6197b88c9e3bd01bf50a498b","condition":"full-information","relevant_dimensions":["wings","pattern"],"bee_group":{"antennae":"X","wings":"1","pattern":"S","legs":"X"},"action":"harvest","summary":"good-harvest","bonus":1.7200000000000013},{"rt":855.7999999821186,"stimulus":"\n                    <p><b>Action: <em>harvest</em></b></p>\n                    <p>This is the bee that you just saw.</p>\n                    <img src=\"bees-with-color/bee-A2DM.svg\" width=\"200\">\n                    <p><span class=\"greenText\"><b>Successful harvest!</b></span><br>Your pay has increased by $0.02. Your bonus pay is now $0.56.</p>\n            ","response":0,"trial_type":"html-button-response","trial_index":42,"time_elapsed":602310,"internal_node_id":"0.0-4.0-1.17","subject_id":"60bf21880c7e8e6f92dc159b","study_id":"6197b3f67c2b5cd3b6d9596a","session_id":"6197b88c9e3bd01bf50a498b","condition":"full-information","relevant_dimensions":["wings","pattern"],"bee_group":{"antennae":"X","wings":"1","pattern":"S","legs":"X"},"bonus":1.7200000000000013},{"rt":9528.199999988079,"stimulus":"bees-with-color/bee-A2SF.svg","response":0,"trial_type":"image-button-response","trial_index":43,"time_elapsed":611840,"internal_node_id":"0.0-4.0-0.18","subject_id":"60bf21880c7e8e6f92dc159b","study_id":"6197b3f67c2b5cd3b6d9596a","session_id":"6197b88c9e3bd01bf50a498b","condition":"full-information","relevant_dimensions":["wings","pattern"],"bee_group":{"antennae":"X","wings":"1","pattern":"S","legs":"X"},"action":"harvest","summary":"good-harvest","bonus":1.7200000000000013},{"rt":5690.199999988079,"stimulus":"\n                    <p><b>Action: <em>harvest</em></b></p>\n                    <p>This is the bee that you just saw.</p>\n                    <img src=\"bees-with-color/bee-A2SF.svg\" width=\"200\">\n                    <p><span class=\"greenText\"><b>Successful harvest!</b></span><br>Your pay has increased by $0.02. Your bonus pay is now $0.58.</p>\n            ","response":0,"trial_type":"html-button-response","trial_index":44,"time_elapsed":617532,"internal_node_id":"0.0-4.0-1.18","subject_id":"60bf21880c7e8e6f92dc159b","study_id":"6197b3f67c2b5cd3b6d9596a","session_id":"6197b88c9e3bd01bf50a498b","condition":"full-information","relevant_dimensions":["wings","pattern"],"bee_group":{"antennae":"X","wings":"1","pattern":"S","legs":"X"},"bonus":1.7200000000000013},{"rt":5630.699999988079,"stimulus":"bees-with-color/bee-A1SM.svg","response":1,"trial_type":"image-button-response","trial_index":45,"time_elapsed":623165,"internal_node_id":"0.0-4.0-0.19","subject_id":"60bf21880c7e8e6f92dc159b","study_id":"6197b3f67c2b5cd3b6d9596a","session_id":"6197b88c9e3bd01bf50a498b","condition":"full-information","relevant_dimensions":["wings","pattern"],"bee_group":{"antennae":"X","wings":"1","pattern":"S","legs":"X"},"action":"avoid","summary":"good-avoid","bonus":1.7200000000000013},{"rt":1829,"stimulus":"\n                    <p><b>Action: <em>avoid</em></b></p>\n                    <p>This is the bee that you just saw.</p>\n                    <img src=\"bees-with-color/bee-A1SM.svg\" width=\"200\">\n                    <p><span class=\"greenText\">Good choice!</span>  This bee would have stung you.<br>Your bonus pay is unchanged, and remains at $0.58.</p>\n            ","response":0,"trial_type":"html-button-response","trial_index":46,"time_elapsed":624996,"internal_node_id":"0.0-4.0-1.19","subject_id":"60bf21880c7e8e6f92dc159b","study_id":"6197b3f67c2b5cd3b6d9596a","session_id":"6197b88c9e3bd01bf50a498b","condition":"full-information","relevant_dimensions":["wings","pattern"],"bee_group":{"antennae":"X","wings":"1","pattern":"S","legs":"X"},"bonus":1.7200000000000013},{"rt":9678.299999982119,"stimulus":"bees-with-color/bee-B1SM.svg","response":1,"trial_type":"image-button-response","trial_index":47,"time_elapsed":634676,"internal_node_id":"0.0-4.0-0.20","subject_id":"60bf21880c7e8e6f92dc159b","study_id":"6197b3f67c2b5cd3b6d9596a","session_id":"6197b88c9e3bd01bf50a498b","condition":"full-information","relevant_dimensions":["wings","pattern"],"bee_group":{"antennae":"X","wings":"1","pattern":"S","legs":"X"},"action":"avoid","summary":"good-avoid","bonus":1.7200000000000013},{"rt":1158.5999999940395,"stimulus":"\n                    <p><b>Action: <em>avoid</em></b></p>\n                    <p>This is the bee that you just saw.</p>\n                    <img src=\"bees-with-color/bee-B1SM.svg\" width=\"200\">\n                    <p><span class=\"greenText\">Good choice!</span>  This bee would have stung you.<br>Your bonus pay is unchanged, and remains at $0.58.</p>\n            ","response":0,"trial_type":"html-button-response","trial_index":48,"time_elapsed":635836,"internal_node_id":"0.0-4.0-1.20","subject_id":"60bf21880c7e8e6f92dc159b","study_id":"6197b3f67c2b5cd3b6d9596a","session_id":"6197b88c9e3bd01bf50a498b","condition":"full-information","relevant_dimensions":["wings","pattern"],"bee_group":{"antennae":"X","wings":"1","pattern":"S","legs":"X"},"bonus":1.7200000000000013},{"rt":5664.299999982119,"stimulus":"bees-with-color/bee-A2SM.svg","response":0,"trial_type":"image-button-response","trial_index":49,"time_elapsed":641502,"internal_node_id":"0.0-4.0-0.21","subject_id":"60bf21880c7e8e6f92dc159b","study_id":"6197b3f67c2b5cd3b6d9596a","session_id":"6197b88c9e3bd01bf50a498b","condition":"full-information","relevant_dimensions":["wings","pattern"],"bee_group":{"antennae":"X","wings":"1","pattern":"S","legs":"X"},"action":"harvest","summary":"good-harvest","bonus":1.7200000000000013},{"rt":613.6999999880791,"stimulus":"\n                    <p><b>Action: <em>harvest</em></b></p>\n                    <p>This is the bee that you just saw.</p>\n                    <img src=\"bees-with-color/bee-A2SM.svg\" width=\"200\">\n                    <p><span class=\"greenText\"><b>Successful harvest!</b></span><br>Your pay has increased by $0.02. Your bonus pay is now $0.60.</p>\n            ","response":0,"trial_type":"html-button-response","trial_index":50,"time_elapsed":642118,"internal_node_id":"0.0-4.0-1.21","subject_id":"60bf21880c7e8e6f92dc159b","study_id":"6197b3f67c2b5cd3b6d9596a","session_id":"6197b88c9e3bd01bf50a498b","condition":"full-information","relevant_dimensions":["wings","pattern"],"bee_group":{"antennae":"X","wings":"1","pattern":"S","legs":"X"},"bonus":1.7200000000000013},{"rt":5021.699999988079,"stimulus":"bees-with-color/bee-B1DF.svg","response":0,"trial_type":"image-button-response","trial_index":51,"time_elapsed":647141,"internal_node_id":"0.0-4.0-0.22","subject_id":"60bf21880c7e8e6f92dc159b","study_id":"6197b3f67c2b5cd3b6d9596a","session_id":"6197b88c9e3bd01bf50a498b","condition":"full-information","relevant_dimensions":["wings","pattern"],"bee_group":{"antennae":"X","wings":"1","pattern":"S","legs":"X"},"action":"harvest","summary":"good-harvest","bonus":1.7200000000000013},{"rt":640.0999999940395,"stimulus":"\n                    <p><b>Action: <em>harvest</em></b></p>\n                    <p>This is the bee that you just saw.</p>\n                    <img src=\"bees-with-color/bee-B1DF.svg\" width=\"200\">\n                    <p><span class=\"greenText\"><b>Successful harvest!</b></span><br>Your pay has increased by $0.02. Your bonus pay is now $0.62.</p>\n            ","response":0,"trial_type":"html-button-response","trial_index":52,"time_elapsed":647783,"internal_node_id":"0.0-4.0-1.22","subject_id":"60bf21880c7e8e6f92dc159b","study_id":"6197b3f67c2b5cd3b6d9596a","session_id":"6197b88c9e3bd01bf50a498b","condition":"full-information","relevant_dimensions":["wings","pattern"],"bee_group":{"antennae":"X","wings":"1","pattern":"S","legs":"X"},"bonus":1.7200000000000013},{"rt":7169.799999982119,"stimulus":"bees-with-color/bee-B1DM.svg","response":0,"trial_type":"image-button-response","trial_index":53,"time_elapsed":654954,"internal_node_id":"0.0-4.0-0.23","subject_id":"60bf21880c7e8e6f92dc159b","study_id":"6197b3f67c2b5cd3b6d9596a","session_id":"6197b88c9e3bd01bf50a498b","condition":"full-information","relevant_dimensions":["wings","pattern"],"bee_group":{"antennae":"X","wings":"1","pattern":"S","legs":"X"},"action":"harvest","summary":"good-harvest","bonus":1.7200000000000013},{"rt":865.5999999940395,"stimulus":"\n                    <p><b>Action: <em>harvest</em></b></p>\n                    <p>This is the bee that you just saw.</p>\n                    <img src=\"bees-with-color/bee-B1DM.svg\" width=\"200\">\n                    <p><span class=\"greenText\"><b>Successful harvest!</b></span><br>Your pay has increased by $0.02. Your bonus pay is now $0.64.</p>\n            ","response":0,"trial_type":"html-button-response","trial_index":54,"time_elapsed":655822,"internal_node_id":"0.0-4.0-1.23","subject_id":"60bf21880c7e8e6f92dc159b","study_id":"6197b3f67c2b5cd3b6d9596a","session_id":"6197b88c9e3bd01bf50a498b","condition":"full-information","relevant_dimensions":["wings","pattern"],"bee_group":{"antennae":"X","wings":"1","pattern":"S","legs":"X"},"bonus":1.7200000000000013},{"rt":4669.9000000059605,"stimulus":"bees-with-color/bee-A1DM.svg","response":0,"trial_type":"image-button-response","trial_index":55,"time_elapsed":660493,"internal_node_id":"0.0-4.0-0.24","subject_id":"60bf21880c7e8e6f92dc159b","study_id":"6197b3f67c2b5cd3b6d9596a","session_id":"6197b88c9e3bd01bf50a498b","condition":"full-information","relevant_dimensions":["wings","pattern"],"bee_group":{"antennae":"X","wings":"1","pattern":"S","legs":"X"},"action":"harvest","summary":"good-harvest","bonus":1.7200000000000013},{"rt":6251.5,"stimulus":"\n                    <p><b>Action: <em>harvest</em></b></p>\n                    <p>This is the bee that you just saw.</p>\n                    <img src=\"bees-with-color/bee-A1DM.svg\" width=\"200\">\n                    <p><span class=\"greenText\"><b>Successful harvest!</b></span><br>Your pay has increased by $0.02. Your bonus pay is now $0.66.</p>\n            ","response":0,"trial_type":"html-button-response","trial_index":56,"time_elapsed":666747,"internal_node_id":"0.0-4.0-1.24","subject_id":"60bf21880c7e8e6f92dc159b","study_id":"6197b3f67c2b5cd3b6d9596a","session_id":"6197b88c9e3bd01bf50a498b","condition":"full-information","relevant_dimensions":["wings","pattern"],"bee_group":{"antennae":"X","wings":"1","pattern":"S","legs":"X"},"bonus":1.7200000000000013},{"rt":123708.30000001192,"stimulus":"bees-with-color/bee-A2DF.svg","response":0,"trial_type":"image-button-response","trial_index":57,"time_elapsed":790456,"internal_node_id":"0.0-4.0-0.25","subject_id":"60bf21880c7e8e6f92dc159b","study_id":"6197b3f67c2b5cd3b6d9596a","session_id":"6197b88c9e3bd01bf50a498b","condition":"full-information","relevant_dimensions":["wings","pattern"],"bee_group":{"antennae":"X","wings":"1","pattern":"S","legs":"X"},"action":"harvest","summary":"good-harvest","bonus":1.7200000000000013},{"rt":1205.7999999821186,"stimulus":"\n                    <p><b>Action: <em>harvest</em></b></p>\n                    <p>This is the bee that you just saw.</p>\n                    <img src=\"bees-with-color/bee-A2DF.svg\" width=\"200\">\n                    <p><span class=\"greenText\"><b>Successful harvest!</b></span><br>Your pay has increased by $0.02. Your bonus pay is now $0.68.</p>\n            ","response":0,"trial_type":"html-button-response","trial_index":58,"time_elapsed":791665,"internal_node_id":"0.0-4.0-1.25","subject_id":"60bf21880c7e8e6f92dc159b","study_id":"6197b3f67c2b5cd3b6d9596a","session_id":"6197b88c9e3bd01bf50a498b","condition":"full-information","relevant_dimensions":["wings","pattern"],"bee_group":{"antennae":"X","wings":"1","pattern":"S","legs":"X"},"bonus":1.7200000000000013},{"rt":6471.9000000059605,"stimulus":"bees-with-color/bee-B2DF.svg","response":0,"trial_type":"image-button-response","trial_index":59,"time_elapsed":798138,"internal_node_id":"0.0-4.0-0.26","subject_id":"60bf21880c7e8e6f92dc159b","study_id":"6197b3f67c2b5cd3b6d9596a","session_id":"6197b88c9e3bd01bf50a498b","condition":"full-information","relevant_dimensions":["wings","pattern"],"bee_group":{"antennae":"X","wings":"1","pattern":"S","legs":"X"},"action":"harvest","summary":"good-harvest","bonus":1.7200000000000013},{"rt":19855.09999999404,"stimulus":"\n                    <p><b>Action: <em>harvest</em></b></p>\n                    <p>This is the bee that you just saw.</p>\n                    <img src=\"bees-with-color/bee-B2DF.svg\" width=\"200\">\n                    <p><span class=\"greenText\"><b>Successful harvest!</b></span><br>Your pay has increased by $0.02. Your bonus pay is now $0.70.</p>\n            ","response":0,"trial_type":"html-button-response","trial_index":60,"time_elapsed":817995,"internal_node_id":"0.0-4.0-1.26","subject_id":"60bf21880c7e8e6f92dc159b","study_id":"6197b3f67c2b5cd3b6d9596a","session_id":"6197b88c9e3bd01bf50a498b","condition":"full-information","relevant_dimensions":["wings","pattern"],"bee_group":{"antennae":"X","wings":"1","pattern":"S","legs":"X"},"bonus":1.7200000000000013},{"rt":20760.399999976158,"stimulus":"bees-with-color/bee-A1SF.svg","response":1,"trial_type":"image-button-response","trial_index":61,"time_elapsed":838757,"internal_node_id":"0.0-4.0-0.27","subject_id":"60bf21880c7e8e6f92dc159b","study_id":"6197b3f67c2b5cd3b6d9596a","session_id":"6197b88c9e3bd01bf50a498b","condition":"full-information","relevant_dimensions":["wings","pattern"],"bee_group":{"antennae":"X","wings":"1","pattern":"S","legs":"X"},"action":"avoid","summary":"good-avoid","bonus":1.7200000000000013},{"rt":857.5,"stimulus":"\n                    <p><b>Action: <em>avoid</em></b></p>\n                    <p>This is the bee that you just saw.</p>\n                    <img src=\"bees-with-color/bee-A1SF.svg\" width=\"200\">\n                    <p><span class=\"greenText\">Good choice!</span>  This bee would have stung you.<br>Your bonus pay is unchanged, and remains at $0.70.</p>\n            ","response":0,"trial_type":"html-button-response","trial_index":62,"time_elapsed":839617,"internal_node_id":"0.0-4.0-1.27","subject_id":"60bf21880c7e8e6f92dc159b","study_id":"6197b3f67c2b5cd3b6d9596a","session_id":"6197b88c9e3bd01bf50a498b","condition":"full-information","relevant_dimensions":["wings","pattern"],"bee_group":{"antennae":"X","wings":"1","pattern":"S","legs":"X"},"bonus":1.7200000000000013},{"rt":8831.699999988079,"stimulus":"bees-with-color/bee-B2DM.svg","response":0,"trial_type":"image-button-response","trial_index":63,"time_elapsed":848450,"internal_node_id":"0.0-4.0-0.28","subject_id":"60bf21880c7e8e6f92dc159b","study_id":"6197b3f67c2b5cd3b6d9596a","session_id":"6197b88c9e3bd01bf50a498b","condition":"full-information","relevant_dimensions":["wings","pattern"],"bee_group":{"antennae":"X","wings":"1","pattern":"S","legs":"X"},"action":"harvest","summary":"good-harvest","bonus":1.7200000000000013},{"rt":1261.9000000059605,"stimulus":"\n                    <p><b>Action: <em>harvest</em></b></p>\n                    <p>This is the bee that you just saw.</p>\n                    <img src=\"bees-with-color/bee-B2DM.svg\" width=\"200\">\n                    <p><span class=\"greenText\"><b>Successful harvest!</b></span><br>Your pay has increased by $0.02. Your bonus pay is now $0.72.</p>\n            ","response":0,"trial_type":"html-button-response","trial_index":64,"time_elapsed":849715,"internal_node_id":"0.0-4.0-1.28","subject_id":"60bf21880c7e8e6f92dc159b","study_id":"6197b3f67c2b5cd3b6d9596a","session_id":"6197b88c9e3bd01bf50a498b","condition":"full-information","relevant_dimensions":["wings","pattern"],"bee_group":{"antennae":"X","wings":"1","pattern":"S","legs":"X"},"bonus":1.7200000000000013},{"rt":3498.7000000178814,"stimulus":"bees-with-color/bee-B2SF.svg","response":0,"trial_type":"image-button-response","trial_index":65,"time_elapsed":853215,"internal_node_id":"0.0-4.0-0.29","subject_id":"60bf21880c7e8e6f92dc159b","study_id":"6197b3f67c2b5cd3b6d9596a","session_id":"6197b88c9e3bd01bf50a498b","condition":"full-information","relevant_dimensions":["wings","pattern"],"bee_group":{"antennae":"X","wings":"1","pattern":"S","legs":"X"},"action":"harvest","summary":"good-harvest","bonus":1.7200000000000013},{"rt":604.1999999880791,"stimulus":"\n                    <p><b>Action: <em>harvest</em></b></p>\n                    <p>This is the bee that you just saw.</p>\n                    <img src=\"bees-with-color/bee-B2SF.svg\" width=\"200\">\n                    <p><span class=\"greenText\"><b>Successful harvest!</b></span><br>Your pay has increased by $0.02. Your bonus pay is now $0.74.</p>\n            ","response":0,"trial_type":"html-button-response","trial_index":66,"time_elapsed":853821,"internal_node_id":"0.0-4.0-1.29","subject_id":"60bf21880c7e8e6f92dc159b","study_id":"6197b3f67c2b5cd3b6d9596a","session_id":"6197b88c9e3bd01bf50a498b","condition":"full-information","relevant_dimensions":["wings","pattern"],"bee_group":{"antennae":"X","wings":"1","pattern":"S","legs":"X"},"bonus":1.7200000000000013},{"rt":4166.299999982119,"stimulus":"bees-with-color/bee-B2SM.svg","response":0,"trial_type":"image-button-response","trial_index":67,"time_elapsed":857989,"internal_node_id":"0.0-4.0-0.30","subject_id":"60bf21880c7e8e6f92dc159b","study_id":"6197b3f67c2b5cd3b6d9596a","session_id":"6197b88c9e3bd01bf50a498b","condition":"full-information","relevant_dimensions":["wings","pattern"],"bee_group":{"antennae":"X","wings":"1","pattern":"S","legs":"X"},"action":"harvest","summary":"good-harvest","bonus":1.7200000000000013},{"rt":622.9000000059605,"stimulus":"\n                    <p><b>Action: <em>harvest</em></b></p>\n                    <p>This is the bee that you just saw.</p>\n                    <img src=\"bees-with-color/bee-B2SM.svg\" width=\"200\">\n                    <p><span class=\"greenText\"><b>Successful harvest!</b></span><br>Your pay has increased by $0.02. Your bonus pay is now $0.76.</p>\n            ","response":0,"trial_type":"html-button-response","trial_index":68,"time_elapsed":858615,"internal_node_id":"0.0-4.0-1.30","subject_id":"60bf21880c7e8e6f92dc159b","study_id":"6197b3f67c2b5cd3b6d9596a","session_id":"6197b88c9e3bd01bf50a498b","condition":"full-information","relevant_dimensions":["wings","pattern"],"bee_group":{"antennae":"X","wings":"1","pattern":"S","legs":"X"},"bonus":1.7200000000000013},{"rt":2789.7999999821186,"stimulus":"bees-with-color/bee-B1SF.svg","response":1,"trial_type":"image-button-response","trial_index":69,"time_elapsed":861406,"internal_node_id":"0.0-4.0-0.31","subject_id":"60bf21880c7e8e6f92dc159b","study_id":"6197b3f67c2b5cd3b6d9596a","session_id":"6197b88c9e3bd01bf50a498b","condition":"full-information","relevant_dimensions":["wings","pattern"],"bee_group":{"antennae":"X","wings":"1","pattern":"S","legs":"X"},"action":"avoid","summary":"good-avoid","bonus":1.7200000000000013},{"rt":678.1999999880791,"stimulus":"\n                    <p><b>Action: <em>avoid</em></b></p>\n                    <p>This is the bee that you just saw.</p>\n                    <img src=\"bees-with-color/bee-B1SF.svg\" width=\"200\">\n                    <p><span class=\"greenText\">Good choice!</span>  This bee would have stung you.<br>Your bonus pay is unchanged, and remains at $0.76.</p>\n            ","response":0,"trial_type":"html-button-response","trial_index":70,"time_elapsed":862087,"internal_node_id":"0.0-4.0-1.31","subject_id":"60bf21880c7e8e6f92dc159b","study_id":"6197b3f67c2b5cd3b6d9596a","session_id":"6197b88c9e3bd01bf50a498b","condition":"full-information","relevant_dimensions":["wings","pattern"],"bee_group":{"antennae":"X","wings":"1","pattern":"S","legs":"X"},"bonus":1.7200000000000013},{"rt":909.5,"stimulus":"bees-with-color/bee-B1SF.svg","response":1,"trial_type":"image-button-response","trial_index":71,"time_elapsed":862998,"internal_node_id":"0.0-4.0-0.32","subject_id":"60bf21880c7e8e6f92dc159b","study_id":"6197b3f67c2b5cd3b6d9596a","session_id":"6197b88c9e3bd01bf50a498b","condition":"full-information","relevant_dimensions":["wings","pattern"],"bee_group":{"antennae":"X","wings":"1","pattern":"S","legs":"X"},"action":"avoid","summary":"good-avoid","bonus":1.7200000000000013},{"rt":556.0999999940395,"stimulus":"\n                    <p><b>Action: <em>avoid</em></b></p>\n                    <p>This is the bee that you just saw.</p>\n                    <img src=\"bees-with-color/bee-B1SF.svg\" width=\"200\">\n                    <p><span class=\"greenText\">Good choice!</span>  This bee would have stung you.<br>Your bonus pay is unchanged, and remains at $0.76.</p>\n            ","response":0,"trial_type":"html-button-response","trial_index":72,"time_elapsed":863557,"internal_node_id":"0.0-4.0-1.32","subject_id":"60bf21880c7e8e6f92dc159b","study_id":"6197b3f67c2b5cd3b6d9596a","session_id":"6197b88c9e3bd01bf50a498b","condition":"full-information","relevant_dimensions":["wings","pattern"],"bee_group":{"antennae":"X","wings":"1","pattern":"S","legs":"X"},"bonus":1.7200000000000013},{"rt":6178.600000023842,"stimulus":"bees-with-color/bee-B1DM.svg","response":0,"trial_type":"image-button-response","trial_index":73,"time_elapsed":869737,"internal_node_id":"0.0-4.0-0.33","subject_id":"60bf21880c7e8e6f92dc159b","study_id":"6197b3f67c2b5cd3b6d9596a","session_id":"6197b88c9e3bd01bf50a498b","condition":"full-information","relevant_dimensions":["wings","pattern"],"bee_group":{"antennae":"X","wings":"1","pattern":"S","legs":"X"},"action":"harvest","summary":"good-harvest","bonus":1.7200000000000013},{"rt":2306.199999988079,"stimulus":"\n                    <p><b>Action: <em>harvest</em></b></p>\n                    <p>This is the bee that you just saw.</p>\n                    <img src=\"bees-with-color/bee-B1DM.svg\" width=\"200\">\n                    <p><span class=\"greenText\"><b>Successful harvest!</b></span><br>Your pay has increased by $0.02. Your bonus pay is now $0.78.</p>\n            ","response":0,"trial_type":"html-button-response","trial_index":74,"time_elapsed":872045,"internal_node_id":"0.0-4.0-1.33","subject_id":"60bf21880c7e8e6f92dc159b","study_id":"6197b3f67c2b5cd3b6d9596a","session_id":"6197b88c9e3bd01bf50a498b","condition":"full-information","relevant_dimensions":["wings","pattern"],"bee_group":{"antennae":"X","wings":"1","pattern":"S","legs":"X"},"bonus":1.7200000000000013},{"rt":6868.0999999940395,"stimulus":"bees-with-color/bee-A2SM.svg","response":0,"trial_type":"image-button-response","trial_index":75,"time_elapsed":878915,"internal_node_id":"0.0-4.0-0.34","subject_id":"60bf21880c7e8e6f92dc159b","study_id":"6197b3f67c2b5cd3b6d9596a","session_id":"6197b88c9e3bd01bf50a498b","condition":"full-information","relevant_dimensions":["wings","pattern"],"bee_group":{"antennae":"X","wings":"1","pattern":"S","legs":"X"},"action":"harvest","summary":"good-harvest","bonus":1.7200000000000013},{"rt":592.6999999880791,"stimulus":"\n                    <p><b>Action: <em>harvest</em></b></p>\n                    <p>This is the bee that you just saw.</p>\n                    <img src=\"bees-with-color/bee-A2SM.svg\" width=\"200\">\n                    <p><span class=\"greenText\"><b>Successful harvest!</b></span><br>Your pay has increased by $0.02. Your bonus pay is now $0.80.</p>\n            ","response":0,"trial_type":"html-button-response","trial_index":76,"time_elapsed":879510,"internal_node_id":"0.0-4.0-1.34","subject_id":"60bf21880c7e8e6f92dc159b","study_id":"6197b3f67c2b5cd3b6d9596a","session_id":"6197b88c9e3bd01bf50a498b","condition":"full-information","relevant_dimensions":["wings","pattern"],"bee_group":{"antennae":"X","wings":"1","pattern":"S","legs":"X"},"bonus":1.7200000000000013},{"rt":2009.7000000178814,"stimulus":"bees-with-color/bee-A1SM.svg","response":1,"trial_type":"image-button-response","trial_index":77,"time_elapsed":881521,"internal_node_id":"0.0-4.0-0.35","subject_id":"60bf21880c7e8e6f92dc159b","study_id":"6197b3f67c2b5cd3b6d9596a","session_id":"6197b88c9e3bd01bf50a498b","condition":"full-information","relevant_dimensions":["wings","pattern"],"bee_group":{"antennae":"X","wings":"1","pattern":"S","legs":"X"},"action":"avoid","summary":"good-avoid","bonus":1.7200000000000013},{"rt":484.39999997615814,"stimulus":"\n                    <p><b>Action: <em>avoid</em></b></p>\n                    <p>This is the bee that you just saw.</p>\n                    <img src=\"bees-with-color/bee-A1SM.svg\" width=\"200\">\n                    <p><span class=\"greenText\">Good choice!</span>  This bee would have stung you.<br>Your bonus pay is unchanged, and remains at $0.80.</p>\n            ","response":0,"trial_type":"html-button-response","trial_index":78,"time_elapsed":882007,"internal_node_id":"0.0-4.0-1.35","subject_id":"60bf21880c7e8e6f92dc159b","study_id":"6197b3f67c2b5cd3b6d9596a","session_id":"6197b88c9e3bd01bf50a498b","condition":"full-information","relevant_dimensions":["wings","pattern"],"bee_group":{"antennae":"X","wings":"1","pattern":"S","legs":"X"},"bonus":1.7200000000000013},{"rt":1854,"stimulus":"bees-with-color/bee-A1DM.svg","response":0,"trial_type":"image-button-response","trial_index":79,"time_elapsed":883862,"internal_node_id":"0.0-4.0-0.36","subject_id":"60bf21880c7e8e6f92dc159b","study_id":"6197b3f67c2b5cd3b6d9596a","session_id":"6197b88c9e3bd01bf50a498b","condition":"full-information","relevant_dimensions":["wings","pattern"],"bee_group":{"antennae":"X","wings":"1","pattern":"S","legs":"X"},"action":"harvest","summary":"good-harvest","bonus":1.7200000000000013},{"rt":416.89999997615814,"stimulus":"\n                    <p><b>Action: <em>harvest</em></b></p>\n                    <p>This is the bee that you just saw.</p>\n                    <img src=\"bees-with-color/bee-A1DM.svg\" width=\"200\">\n                    <p><span class=\"greenText\"><b>Successful harvest!</b></span><br>Your pay has increased by $0.02. Your bonus pay is now $0.82.</p>\n            ","response":0,"trial_type":"html-button-response","trial_index":80,"time_elapsed":884281,"internal_node_id":"0.0-4.0-1.36","subject_id":"60bf21880c7e8e6f92dc159b","study_id":"6197b3f67c2b5cd3b6d9596a","session_id":"6197b88c9e3bd01bf50a498b","condition":"full-information","relevant_dimensions":["wings","pattern"],"bee_group":{"antennae":"X","wings":"1","pattern":"S","legs":"X"},"bonus":1.7200000000000013},{"rt":6580.800000011921,"stimulus":"bees-with-color/bee-B2SF.svg","response":0,"trial_type":"image-button-response","trial_index":81,"time_elapsed":890863,"internal_node_id":"0.0-4.0-0.37","subject_id":"60bf21880c7e8e6f92dc159b","study_id":"6197b3f67c2b5cd3b6d9596a","session_id":"6197b88c9e3bd01bf50a498b","condition":"full-information","relevant_dimensions":["wings","pattern"],"bee_group":{"antennae":"X","wings":"1","pattern":"S","legs":"X"},"action":"harvest","summary":"good-harvest","bonus":1.7200000000000013},{"rt":507.90000000596046,"stimulus":"\n                    <p><b>Action: <em>harvest</em></b></p>\n                    <p>This is the bee that you just saw.</p>\n                    <img src=\"bees-with-color/bee-B2SF.svg\" width=\"200\">\n                    <p><span class=\"greenText\"><b>Successful harvest!</b></span><br>Your pay has increased by $0.02. Your bonus pay is now $0.84.</p>\n            ","response":0,"trial_type":"html-button-response","trial_index":82,"time_elapsed":891373,"internal_node_id":"0.0-4.0-1.37","subject_id":"60bf21880c7e8e6f92dc159b","study_id":"6197b3f67c2b5cd3b6d9596a","session_id":"6197b88c9e3bd01bf50a498b","condition":"full-information","relevant_dimensions":["wings","pattern"],"bee_group":{"antennae":"X","wings":"1","pattern":"S","legs":"X"},"bonus":1.7200000000000013},{"rt":2479.300000011921,"stimulus":"bees-with-color/bee-B1DF.svg","response":0,"trial_type":"image-button-response","trial_index":83,"time_elapsed":893855,"internal_node_id":"0.0-4.0-0.38","subject_id":"60bf21880c7e8e6f92dc159b","study_id":"6197b3f67c2b5cd3b6d9596a","session_id":"6197b88c9e3bd01bf50a498b","condition":"full-information","relevant_dimensions":["wings","pattern"],"bee_group":{"antennae":"X","wings":"1","pattern":"S","legs":"X"},"action":"harvest","summary":"good-harvest","bonus":1.7200000000000013},{"rt":438.09999999403954,"stimulus":"\n                    <p><b>Action: <em>harvest</em></b></p>\n                    <p>This is the bee that you just saw.</p>\n                    <img src=\"bees-with-color/bee-B1DF.svg\" width=\"200\">\n                    <p><span class=\"greenText\"><b>Successful harvest!</b></span><br>Your pay has increased by $0.02. Your bonus pay is now $0.86.</p>\n            ","response":0,"trial_type":"html-button-response","trial_index":84,"time_elapsed":894295,"internal_node_id":"0.0-4.0-1.38","subject_id":"60bf21880c7e8e6f92dc159b","study_id":"6197b3f67c2b5cd3b6d9596a","session_id":"6197b88c9e3bd01bf50a498b","condition":"full-information","relevant_dimensions":["wings","pattern"],"bee_group":{"antennae":"X","wings":"1","pattern":"S","legs":"X"},"bonus":1.7200000000000013},{"rt":2476.800000011921,"stimulus":"bees-with-color/bee-A2DM.svg","response":0,"trial_type":"image-button-response","trial_index":85,"time_elapsed":896773,"internal_node_id":"0.0-4.0-0.39","subject_id":"60bf21880c7e8e6f92dc159b","study_id":"6197b3f67c2b5cd3b6d9596a","session_id":"6197b88c9e3bd01bf50a498b","condition":"full-information","relevant_dimensions":["wings","pattern"],"bee_group":{"antennae":"X","wings":"1","pattern":"S","legs":"X"},"action":"harvest","summary":"good-harvest","bonus":1.7200000000000013},{"rt":505,"stimulus":"\n                    <p><b>Action: <em>harvest</em></b></p>\n                    <p>This is the bee that you just saw.</p>\n                    <img src=\"bees-with-color/bee-A2DM.svg\" width=\"200\">\n                    <p><span class=\"greenText\"><b>Successful harvest!</b></span><br>Your pay has increased by $0.02. Your bonus pay is now $0.88.</p>\n            ","response":0,"trial_type":"html-button-response","trial_index":86,"time_elapsed":897280,"internal_node_id":"0.0-4.0-1.39","subject_id":"60bf21880c7e8e6f92dc159b","study_id":"6197b3f67c2b5cd3b6d9596a","session_id":"6197b88c9e3bd01bf50a498b","condition":"full-information","relevant_dimensions":["wings","pattern"],"bee_group":{"antennae":"X","wings":"1","pattern":"S","legs":"X"},"bonus":1.7200000000000013},{"rt":1877.9000000059605,"stimulus":"bees-with-color/bee-A1DF.svg","response":0,"trial_type":"image-button-response","trial_index":87,"time_elapsed":899160,"internal_node_id":"0.0-4.0-0.40","subject_id":"60bf21880c7e8e6f92dc159b","study_id":"6197b3f67c2b5cd3b6d9596a","session_id":"6197b88c9e3bd01bf50a498b","condition":"full-information","relevant_dimensions":["wings","pattern"],"bee_group":{"antennae":"X","wings":"1","pattern":"S","legs":"X"},"action":"harvest","summary":"good-harvest","bonus":1.7200000000000013},{"rt":798.5999999940395,"stimulus":"\n                    <p><b>Action: <em>harvest</em></b></p>\n                    <p>This is the bee that you just saw.</p>\n                    <img src=\"bees-with-color/bee-A1DF.svg\" width=\"200\">\n                    <p><span class=\"greenText\"><b>Successful harvest!</b></span><br>Your pay has increased by $0.02. Your bonus pay is now $0.90.</p>\n            ","response":0,"trial_type":"html-button-response","trial_index":88,"time_elapsed":899961,"internal_node_id":"0.0-4.0-1.40","subject_id":"60bf21880c7e8e6f92dc159b","study_id":"6197b3f67c2b5cd3b6d9596a","session_id":"6197b88c9e3bd01bf50a498b","condition":"full-information","relevant_dimensions":["wings","pattern"],"bee_group":{"antennae":"X","wings":"1","pattern":"S","legs":"X"},"bonus":1.7200000000000013},{"rt":945.5999999940395,"stimulus":"bees-with-color/bee-B1SM.svg","response":1,"trial_type":"image-button-response","trial_index":89,"time_elapsed":900908,"internal_node_id":"0.0-4.0-0.41","subject_id":"60bf21880c7e8e6f92dc159b","study_id":"6197b3f67c2b5cd3b6d9596a","session_id":"6197b88c9e3bd01bf50a498b","condition":"full-information","relevant_dimensions":["wings","pattern"],"bee_group":{"antennae":"X","wings":"1","pattern":"S","legs":"X"},"action":"avoid","summary":"good-avoid","bonus":1.7200000000000013},{"rt":449.7999999821186,"stimulus":"\n                    <p><b>Action: <em>avoid</em></b></p>\n                    <p>This is the bee that you just saw.</p>\n                    <img src=\"bees-with-color/bee-B1SM.svg\" width=\"200\">\n                    <p><span class=\"greenText\">Good choice!</span>  This bee would have stung you.<br>Your bonus pay is unchanged, and remains at $0.90.</p>\n            ","response":0,"trial_type":"html-button-response","trial_index":90,"time_elapsed":901360,"internal_node_id":"0.0-4.0-1.41","subject_id":"60bf21880c7e8e6f92dc159b","study_id":"6197b3f67c2b5cd3b6d9596a","session_id":"6197b88c9e3bd01bf50a498b","condition":"full-information","relevant_dimensions":["wings","pattern"],"bee_group":{"antennae":"X","wings":"1","pattern":"S","legs":"X"},"bonus":1.7200000000000013},{"rt":1602.5,"stimulus":"bees-with-color/bee-B2DM.svg","response":0,"trial_type":"image-button-response","trial_index":91,"time_elapsed":902964,"internal_node_id":"0.0-4.0-0.42","subject_id":"60bf21880c7e8e6f92dc159b","study_id":"6197b3f67c2b5cd3b6d9596a","session_id":"6197b88c9e3bd01bf50a498b","condition":"full-information","relevant_dimensions":["wings","pattern"],"bee_group":{"antennae":"X","wings":"1","pattern":"S","legs":"X"},"action":"harvest","summary":"good-harvest","bonus":1.7200000000000013},{"rt":454.5,"stimulus":"\n                    <p><b>Action: <em>harvest</em></b></p>\n                    <p>This is the bee that you just saw.</p>\n                    <img src=\"bees-with-color/bee-B2DM.svg\" width=\"200\">\n                    <p><span class=\"greenText\"><b>Successful harvest!</b></span><br>Your pay has increased by $0.02. Your bonus pay is now $0.92.</p>\n            ","response":0,"trial_type":"html-button-response","trial_index":92,"time_elapsed":903420,"internal_node_id":"0.0-4.0-1.42","subject_id":"60bf21880c7e8e6f92dc159b","study_id":"6197b3f67c2b5cd3b6d9596a","session_id":"6197b88c9e3bd01bf50a498b","condition":"full-information","relevant_dimensions":["wings","pattern"],"bee_group":{"antennae":"X","wings":"1","pattern":"S","legs":"X"},"bonus":1.7200000000000013},{"rt":1010,"stimulus":"bees-with-color/bee-B2SM.svg","response":0,"trial_type":"image-button-response","trial_index":93,"time_elapsed":904431,"internal_node_id":"0.0-4.0-0.43","subject_id":"60bf21880c7e8e6f92dc159b","study_id":"6197b3f67c2b5cd3b6d9596a","session_id":"6197b88c9e3bd01bf50a498b","condition":"full-information","relevant_dimensions":["wings","pattern"],"bee_group":{"antennae":"X","wings":"1","pattern":"S","legs":"X"},"action":"harvest","summary":"good-harvest","bonus":1.7200000000000013},{"rt":508.19999998807907,"stimulus":"\n                    <p><b>Action: <em>harvest</em></b></p>\n                    <p>This is the bee that you just saw.</p>\n                    <img src=\"bees-with-color/bee-B2SM.svg\" width=\"200\">\n                    <p><span class=\"greenText\"><b>Successful harvest!</b></span><br>Your pay has increased by $0.02. Your bonus pay is now $0.94.</p>\n            ","response":0,"trial_type":"html-button-response","trial_index":94,"time_elapsed":904942,"internal_node_id":"0.0-4.0-1.43","subject_id":"60bf21880c7e8e6f92dc159b","study_id":"6197b3f67c2b5cd3b6d9596a","session_id":"6197b88c9e3bd01bf50a498b","condition":"full-information","relevant_dimensions":["wings","pattern"],"bee_group":{"antennae":"X","wings":"1","pattern":"S","legs":"X"},"bonus":1.7200000000000013},{"rt":904.2999999821186,"stimulus":"bees-with-color/bee-A2SF.svg","response":0,"trial_type":"image-button-response","trial_index":95,"time_elapsed":905847,"internal_node_id":"0.0-4.0-0.44","subject_id":"60bf21880c7e8e6f92dc159b","study_id":"6197b3f67c2b5cd3b6d9596a","session_id":"6197b88c9e3bd01bf50a498b","condition":"full-information","relevant_dimensions":["wings","pattern"],"bee_group":{"antennae":"X","wings":"1","pattern":"S","legs":"X"},"action":"harvest","summary":"good-harvest","bonus":1.7200000000000013},{"rt":482.40000000596046,"stimulus":"\n                    <p><b>Action: <em>harvest</em></b></p>\n                    <p>This is the bee that you just saw.</p>\n                    <img src=\"bees-with-color/bee-A2SF.svg\" width=\"200\">\n                    <p><span class=\"greenText\"><b>Successful harvest!</b></span><br>Your pay has increased by $0.02. Your bonus pay is now $0.96.</p>\n            ","response":0,"trial_type":"html-button-response","trial_index":96,"time_elapsed":906332,"internal_node_id":"0.0-4.0-1.44","subject_id":"60bf21880c7e8e6f92dc159b","study_id":"6197b3f67c2b5cd3b6d9596a","session_id":"6197b88c9e3bd01bf50a498b","condition":"full-information","relevant_dimensions":["wings","pattern"],"bee_group":{"antennae":"X","wings":"1","pattern":"S","legs":"X"},"bonus":1.7200000000000013},{"rt":665.5,"stimulus":"bees-with-color/bee-B2DF.svg","response":0,"trial_type":"image-button-response","trial_index":97,"time_elapsed":906999,"internal_node_id":"0.0-4.0-0.45","subject_id":"60bf21880c7e8e6f92dc159b","study_id":"6197b3f67c2b5cd3b6d9596a","session_id":"6197b88c9e3bd01bf50a498b","condition":"full-information","relevant_dimensions":["wings","pattern"],"bee_group":{"antennae":"X","wings":"1","pattern":"S","legs":"X"},"action":"harvest","summary":"good-harvest","bonus":1.7200000000000013},{"rt":471.59999999403954,"stimulus":"\n                    <p><b>Action: <em>harvest</em></b></p>\n                    <p>This is the bee that you just saw.</p>\n                    <img src=\"bees-with-color/bee-B2DF.svg\" width=\"200\">\n                    <p><span class=\"greenText\"><b>Successful harvest!</b></span><br>Your pay has increased by $0.02. Your bonus pay is now $0.98.</p>\n            ","response":0,"trial_type":"html-button-response","trial_index":98,"time_elapsed":907472,"internal_node_id":"0.0-4.0-1.45","subject_id":"60bf21880c7e8e6f92dc159b","study_id":"6197b3f67c2b5cd3b6d9596a","session_id":"6197b88c9e3bd01bf50a498b","condition":"full-information","relevant_dimensions":["wings","pattern"],"bee_group":{"antennae":"X","wings":"1","pattern":"S","legs":"X"},"bonus":1.7200000000000013},{"rt":686.6999999880791,"stimulus":"bees-with-color/bee-A2DF.svg","response":0,"trial_type":"image-button-response","trial_index":99,"time_elapsed":908160,"internal_node_id":"0.0-4.0-0.46","subject_id":"60bf21880c7e8e6f92dc159b","study_id":"6197b3f67c2b5cd3b6d9596a","session_id":"6197b88c9e3bd01bf50a498b","condition":"full-information","relevant_dimensions":["wings","pattern"],"bee_group":{"antennae":"X","wings":"1","pattern":"S","legs":"X"},"action":"harvest","summary":"good-harvest","bonus":1.7200000000000013},{"rt":425.5,"stimulus":"\n                    <p><b>Action: <em>harvest</em></b></p>\n                    <p>This is the bee that you just saw.</p>\n                    <img src=\"bees-with-color/bee-A2DF.svg\" width=\"200\">\n                    <p><span class=\"greenText\"><b>Successful harvest!</b></span><br>Your pay has increased by $0.02. Your bonus pay is now $1.00.</p>\n            ","response":0,"trial_type":"html-button-response","trial_index":100,"time_elapsed":908588,"internal_node_id":"0.0-4.0-1.46","subject_id":"60bf21880c7e8e6f92dc159b","study_id":"6197b3f67c2b5cd3b6d9596a","session_id":"6197b88c9e3bd01bf50a498b","condition":"full-information","relevant_dimensions":["wings","pattern"],"bee_group":{"antennae":"X","wings":"1","pattern":"S","legs":"X"},"bonus":1.7200000000000013},{"rt":1080.2000000178814,"stimulus":"bees-with-color/bee-A1SF.svg","response":1,"trial_type":"image-button-response","trial_index":101,"time_elapsed":909670,"internal_node_id":"0.0-4.0-0.47","subject_id":"60bf21880c7e8e6f92dc159b","study_id":"6197b3f67c2b5cd3b6d9596a","session_id":"6197b88c9e3bd01bf50a498b","condition":"full-information","relevant_dimensions":["wings","pattern"],"bee_group":{"antennae":"X","wings":"1","pattern":"S","legs":"X"},"action":"avoid","summary":"good-avoid","bonus":1.7200000000000013},{"rt":416,"stimulus":"\n                    <p><b>Action: <em>avoid</em></b></p>\n                    <p>This is the bee that you just saw.</p>\n                    <img src=\"bees-with-color/bee-A1SF.svg\" width=\"200\">\n                    <p><span class=\"greenText\">Good choice!</span>  This bee would have stung you.<br>Your bonus pay is unchanged, and remains at $1.00.</p>\n            ","response":0,"trial_type":"html-button-response","trial_index":102,"time_elapsed":910087,"internal_node_id":"0.0-4.0-1.47","subject_id":"60bf21880c7e8e6f92dc159b","study_id":"6197b3f67c2b5cd3b6d9596a","session_id":"6197b88c9e3bd01bf50a498b","condition":"full-information","relevant_dimensions":["wings","pattern"],"bee_group":{"antennae":"X","wings":"1","pattern":"S","legs":"X"},"bonus":1.7200000000000013},{"rt":905.3000000119209,"stimulus":"bees-with-color/bee-A2SM.svg","response":0,"trial_type":"image-button-response","trial_index":103,"time_elapsed":910994,"internal_node_id":"0.0-4.0-0.48","subject_id":"60bf21880c7e8e6f92dc159b","study_id":"6197b3f67c2b5cd3b6d9596a","session_id":"6197b88c9e3bd01bf50a498b","condition":"full-information","relevant_dimensions":["wings","pattern"],"bee_group":{"antennae":"X","wings":"1","pattern":"S","legs":"X"},"action":"harvest","summary":"good-harvest","bonus":1.7200000000000013},{"rt":432.30000001192093,"stimulus":"\n                    <p><b>Action: <em>harvest</em></b></p>\n                    <p>This is the bee that you just saw.</p>\n                    <img src=\"bees-with-color/bee-A2SM.svg\" width=\"200\">\n                    <p><span class=\"greenText\"><b>Successful harvest!</b></span><br>Your pay has increased by $0.02. Your bonus pay is now $1.02.</p>\n            ","response":0,"trial_type":"html-button-response","trial_index":104,"time_elapsed":911429,"internal_node_id":"0.0-4.0-1.48","subject_id":"60bf21880c7e8e6f92dc159b","study_id":"6197b3f67c2b5cd3b6d9596a","session_id":"6197b88c9e3bd01bf50a498b","condition":"full-information","relevant_dimensions":["wings","pattern"],"bee_group":{"antennae":"X","wings":"1","pattern":"S","legs":"X"},"bonus":1.7200000000000013},{"rt":1012.5,"stimulus":"bees-with-color/bee-A2SF.svg","response":0,"trial_type":"image-button-response","trial_index":105,"time_elapsed":912442,"internal_node_id":"0.0-4.0-0.49","subject_id":"60bf21880c7e8e6f92dc159b","study_id":"6197b3f67c2b5cd3b6d9596a","session_id":"6197b88c9e3bd01bf50a498b","condition":"full-information","relevant_dimensions":["wings","pattern"],"bee_group":{"antennae":"X","wings":"1","pattern":"S","legs":"X"},"action":"harvest","summary":"good-harvest","bonus":1.7200000000000013},{"rt":390.10000002384186,"stimulus":"\n                    <p><b>Action: <em>harvest</em></b></p>\n                    <p>This is the bee that you just saw.</p>\n                    <img src=\"bees-with-color/bee-A2SF.svg\" width=\"200\">\n                    <p><span class=\"greenText\"><b>Successful harvest!</b></span><br>Your pay has increased by $0.02. Your bonus pay is now $1.04.</p>\n            ","response":0,"trial_type":"html-button-response","trial_index":106,"time_elapsed":912835,"internal_node_id":"0.0-4.0-1.49","subject_id":"60bf21880c7e8e6f92dc159b","study_id":"6197b3f67c2b5cd3b6d9596a","session_id":"6197b88c9e3bd01bf50a498b","condition":"full-information","relevant_dimensions":["wings","pattern"],"bee_group":{"antennae":"X","wings":"1","pattern":"S","legs":"X"},"bonus":1.7200000000000013},{"rt":1463.5999999940395,"stimulus":"bees-with-color/bee-B1SM.svg","response":1,"trial_type":"image-button-response","trial_index":107,"time_elapsed":914299,"internal_node_id":"0.0-4.0-0.50","subject_id":"60bf21880c7e8e6f92dc159b","study_id":"6197b3f67c2b5cd3b6d9596a","session_id":"6197b88c9e3bd01bf50a498b","condition":"full-information","relevant_dimensions":["wings","pattern"],"bee_group":{"antennae":"X","wings":"1","pattern":"S","legs":"X"},"action":"avoid","summary":"good-avoid","bonus":1.7200000000000013},{"rt":493.5,"stimulus":"\n                    <p><b>Action: <em>avoid</em></b></p>\n                    <p>This is the bee that you just saw.</p>\n                    <img src=\"bees-with-color/bee-B1SM.svg\" width=\"200\">\n                    <p><span class=\"greenText\">Good choice!</span>  This bee would have stung you.<br>Your bonus pay is unchanged, and remains at $1.04.</p>\n            ","response":0,"trial_type":"html-button-response","trial_index":108,"time_elapsed":914794,"internal_node_id":"0.0-4.0-1.50","subject_id":"60bf21880c7e8e6f92dc159b","study_id":"6197b3f67c2b5cd3b6d9596a","session_id":"6197b88c9e3bd01bf50a498b","condition":"full-information","relevant_dimensions":["wings","pattern"],"bee_group":{"antennae":"X","wings":"1","pattern":"S","legs":"X"},"bonus":1.7200000000000013},{"rt":3614.699999988079,"stimulus":"bees-with-color/bee-B2DF.svg","response":0,"trial_type":"image-button-response","trial_index":109,"time_elapsed":918410,"internal_node_id":"0.0-4.0-0.51","subject_id":"60bf21880c7e8e6f92dc159b","study_id":"6197b3f67c2b5cd3b6d9596a","session_id":"6197b88c9e3bd01bf50a498b","condition":"full-information","relevant_dimensions":["wings","pattern"],"bee_group":{"antennae":"X","wings":"1","pattern":"S","legs":"X"},"action":"harvest","summary":"good-harvest","bonus":1.7200000000000013},{"rt":531.5999999940395,"stimulus":"\n                    <p><b>Action: <em>harvest</em></b></p>\n                    <p>This is the bee that you just saw.</p>\n                    <img src=\"bees-with-color/bee-B2DF.svg\" width=\"200\">\n                    <p><span class=\"greenText\"><b>Successful harvest!</b></span><br>Your pay has increased by $0.02. Your bonus pay is now $1.06.</p>\n            ","response":0,"trial_type":"html-button-response","trial_index":110,"time_elapsed":918944,"internal_node_id":"0.0-4.0-1.51","subject_id":"60bf21880c7e8e6f92dc159b","study_id":"6197b3f67c2b5cd3b6d9596a","session_id":"6197b88c9e3bd01bf50a498b","condition":"full-information","relevant_dimensions":["wings","pattern"],"bee_group":{"antennae":"X","wings":"1","pattern":"S","legs":"X"},"bonus":1.7200000000000013},{"rt":1402.2000000178814,"stimulus":"bees-with-color/bee-B1DF.svg","response":0,"trial_type":"image-button-response","trial_index":111,"time_elapsed":920348,"internal_node_id":"0.0-4.0-0.52","subject_id":"60bf21880c7e8e6f92dc159b","study_id":"6197b3f67c2b5cd3b6d9596a","session_id":"6197b88c9e3bd01bf50a498b","condition":"full-information","relevant_dimensions":["wings","pattern"],"bee_group":{"antennae":"X","wings":"1","pattern":"S","legs":"X"},"action":"harvest","summary":"good-harvest","bonus":1.7200000000000013},{"rt":394.80000001192093,"stimulus":"\n                    <p><b>Action: <em>harvest</em></b></p>\n                    <p>This is the bee that you just saw.</p>\n                    <img src=\"bees-with-color/bee-B1DF.svg\" width=\"200\">\n                    <p><span class=\"greenText\"><b>Successful harvest!</b></span><br>Your pay has increased by $0.02. Your bonus pay is now $1.08.</p>\n            ","response":0,"trial_type":"html-button-response","trial_index":112,"time_elapsed":920744,"internal_node_id":"0.0-4.0-1.52","subject_id":"60bf21880c7e8e6f92dc159b","study_id":"6197b3f67c2b5cd3b6d9596a","session_id":"6197b88c9e3bd01bf50a498b","condition":"full-information","relevant_dimensions":["wings","pattern"],"bee_group":{"antennae":"X","wings":"1","pattern":"S","legs":"X"},"bonus":1.7200000000000013},{"rt":953.3000000119209,"stimulus":"bees-with-color/bee-A1DF.svg","response":0,"trial_type":"image-button-response","trial_index":113,"time_elapsed":921699,"internal_node_id":"0.0-4.0-0.53","subject_id":"60bf21880c7e8e6f92dc159b","study_id":"6197b3f67c2b5cd3b6d9596a","session_id":"6197b88c9e3bd01bf50a498b","condition":"full-information","relevant_dimensions":["wings","pattern"],"bee_group":{"antennae":"X","wings":"1","pattern":"S","legs":"X"},"action":"harvest","summary":"good-harvest","bonus":1.7200000000000013},{"rt":435.60000002384186,"stimulus":"\n                    <p><b>Action: <em>harvest</em></b></p>\n                    <p>This is the bee that you just saw.</p>\n                    <img src=\"bees-with-color/bee-A1DF.svg\" width=\"200\">\n                    <p><span class=\"greenText\"><b>Successful harvest!</b></span><br>Your pay has increased by $0.02. Your bonus pay is now $1.10.</p>\n            ","response":0,"trial_type":"html-button-response","trial_index":114,"time_elapsed":922137,"internal_node_id":"0.0-4.0-1.53","subject_id":"60bf21880c7e8e6f92dc159b","study_id":"6197b3f67c2b5cd3b6d9596a","session_id":"6197b88c9e3bd01bf50a498b","condition":"full-information","relevant_dimensions":["wings","pattern"],"bee_group":{"antennae":"X","wings":"1","pattern":"S","legs":"X"},"bonus":1.7200000000000013},{"rt":720.5999999940395,"stimulus":"bees-with-color/bee-B1SF.svg","response":1,"trial_type":"image-button-response","trial_index":115,"time_elapsed":922859,"internal_node_id":"0.0-4.0-0.54","subject_id":"60bf21880c7e8e6f92dc159b","study_id":"6197b3f67c2b5cd3b6d9596a","session_id":"6197b88c9e3bd01bf50a498b","condition":"full-information","relevant_dimensions":["wings","pattern"],"bee_group":{"antennae":"X","wings":"1","pattern":"S","legs":"X"},"action":"avoid","summary":"good-avoid","bonus":1.7200000000000013},{"rt":438.90000000596046,"stimulus":"\n                    <p><b>Action: <em>avoid</em></b></p>\n                    <p>This is the bee that you just saw.</p>\n                    <img src=\"bees-with-color/bee-B1SF.svg\" width=\"200\">\n                    <p><span class=\"greenText\">Good choice!</span>  This bee would have stung you.<br>Your bonus pay is unchanged, and remains at $1.10.</p>\n            ","response":0,"trial_type":"html-button-response","trial_index":116,"time_elapsed":923299,"internal_node_id":"0.0-4.0-1.54","subject_id":"60bf21880c7e8e6f92dc159b","study_id":"6197b3f67c2b5cd3b6d9596a","session_id":"6197b88c9e3bd01bf50a498b","condition":"full-information","relevant_dimensions":["wings","pattern"],"bee_group":{"antennae":"X","wings":"1","pattern":"S","legs":"X"},"bonus":1.7200000000000013},{"rt":2877,"stimulus":"bees-with-color/bee-A1DM.svg","response":0,"trial_type":"image-button-response","trial_index":117,"time_elapsed":926177,"internal_node_id":"0.0-4.0-0.55","subject_id":"60bf21880c7e8e6f92dc159b","study_id":"6197b3f67c2b5cd3b6d9596a","session_id":"6197b88c9e3bd01bf50a498b","condition":"full-information","relevant_dimensions":["wings","pattern"],"bee_group":{"antennae":"X","wings":"1","pattern":"S","legs":"X"},"action":"harvest","summary":"good-harvest","bonus":1.7200000000000013},{"rt":649.0999999940395,"stimulus":"\n                    <p><b>Action: <em>harvest</em></b></p>\n                    <p>This is the bee that you just saw.</p>\n                    <img src=\"bees-with-color/bee-A1DM.svg\" width=\"200\">\n                    <p><span class=\"greenText\"><b>Successful harvest!</b></span><br>Your pay has increased by $0.02. Your bonus pay is now $1.12.</p>\n            ","response":0,"trial_type":"html-button-response","trial_index":118,"time_elapsed":926828,"internal_node_id":"0.0-4.0-1.55","subject_id":"60bf21880c7e8e6f92dc159b","study_id":"6197b3f67c2b5cd3b6d9596a","session_id":"6197b88c9e3bd01bf50a498b","condition":"full-information","relevant_dimensions":["wings","pattern"],"bee_group":{"antennae":"X","wings":"1","pattern":"S","legs":"X"},"bonus":1.7200000000000013},{"rt":635,"stimulus":"bees-with-color/bee-B2DM.svg","response":0,"trial_type":"image-button-response","trial_index":119,"time_elapsed":927465,"internal_node_id":"0.0-4.0-0.56","subject_id":"60bf21880c7e8e6f92dc159b","study_id":"6197b3f67c2b5cd3b6d9596a","session_id":"6197b88c9e3bd01bf50a498b","condition":"full-information","relevant_dimensions":["wings","pattern"],"bee_group":{"antennae":"X","wings":"1","pattern":"S","legs":"X"},"action":"harvest","summary":"good-harvest","bonus":1.7200000000000013},{"rt":417.30000001192093,"stimulus":"\n                    <p><b>Action: <em>harvest</em></b></p>\n                    <p>This is the bee that you just saw.</p>\n                    <img src=\"bees-with-color/bee-B2DM.svg\" width=\"200\">\n                    <p><span class=\"greenText\"><b>Successful harvest!</b></span><br>Your pay has increased by $0.02. Your bonus pay is now $1.14.</p>\n            ","response":0,"trial_type":"html-button-response","trial_index":120,"time_elapsed":927884,"internal_node_id":"0.0-4.0-1.56","subject_id":"60bf21880c7e8e6f92dc159b","study_id":"6197b3f67c2b5cd3b6d9596a","session_id":"6197b88c9e3bd01bf50a498b","condition":"full-information","relevant_dimensions":["wings","pattern"],"bee_group":{"antennae":"X","wings":"1","pattern":"S","legs":"X"},"bonus":1.7200000000000013},{"rt":593.4000000059605,"stimulus":"bees-with-color/bee-B2SF.svg","response":0,"trial_type":"image-button-response","trial_index":121,"time_elapsed":928479,"internal_node_id":"0.0-4.0-0.57","subject_id":"60bf21880c7e8e6f92dc159b","study_id":"6197b3f67c2b5cd3b6d9596a","session_id":"6197b88c9e3bd01bf50a498b","condition":"full-information","relevant_dimensions":["wings","pattern"],"bee_group":{"antennae":"X","wings":"1","pattern":"S","legs":"X"},"action":"harvest","summary":"good-harvest","bonus":1.7200000000000013},{"rt":439.80000001192093,"stimulus":"\n                    <p><b>Action: <em>harvest</em></b></p>\n                    <p>This is the bee that you just saw.</p>\n                    <img src=\"bees-with-color/bee-B2SF.svg\" width=\"200\">\n                    <p><span class=\"greenText\"><b>Successful harvest!</b></span><br>Your pay has increased by $0.02. Your bonus pay is now $1.16.</p>\n            ","response":0,"trial_type":"html-button-response","trial_index":122,"time_elapsed":928920,"internal_node_id":"0.0-4.0-1.57","subject_id":"60bf21880c7e8e6f92dc159b","study_id":"6197b3f67c2b5cd3b6d9596a","session_id":"6197b88c9e3bd01bf50a498b","condition":"full-information","relevant_dimensions":["wings","pattern"],"bee_group":{"antennae":"X","wings":"1","pattern":"S","legs":"X"},"bonus":1.7200000000000013},{"rt":598.4000000059605,"stimulus":"bees-with-color/bee-A2DM.svg","response":0,"trial_type":"image-button-response","trial_index":123,"time_elapsed":929520,"internal_node_id":"0.0-4.0-0.58","subject_id":"60bf21880c7e8e6f92dc159b","study_id":"6197b3f67c2b5cd3b6d9596a","session_id":"6197b88c9e3bd01bf50a498b","condition":"full-information","relevant_dimensions":["wings","pattern"],"bee_group":{"antennae":"X","wings":"1","pattern":"S","legs":"X"},"action":"harvest","summary":"good-harvest","bonus":1.7200000000000013},{"rt":516.4000000059605,"stimulus":"\n                    <p><b>Action: <em>harvest</em></b></p>\n                    <p>This is the bee that you just saw.</p>\n                    <img src=\"bees-with-color/bee-A2DM.svg\" width=\"200\">\n                    <p><span class=\"greenText\"><b>Successful harvest!</b></span><br>Your pay has increased by $0.02. Your bonus pay is now $1.18.</p>\n            ","response":0,"trial_type":"html-button-response","trial_index":124,"time_elapsed":930039,"internal_node_id":"0.0-4.0-1.58","subject_id":"60bf21880c7e8e6f92dc159b","study_id":"6197b3f67c2b5cd3b6d9596a","session_id":"6197b88c9e3bd01bf50a498b","condition":"full-information","relevant_dimensions":["wings","pattern"],"bee_group":{"antennae":"X","wings":"1","pattern":"S","legs":"X"},"bonus":1.7200000000000013},{"rt":1073.0999999940395,"stimulus":"bees-with-color/bee-A2DF.svg","response":0,"trial_type":"image-button-response","trial_index":125,"time_elapsed":931113,"internal_node_id":"0.0-4.0-0.59","subject_id":"60bf21880c7e8e6f92dc159b","study_id":"6197b3f67c2b5cd3b6d9596a","session_id":"6197b88c9e3bd01bf50a498b","condition":"full-information","relevant_dimensions":["wings","pattern"],"bee_group":{"antennae":"X","wings":"1","pattern":"S","legs":"X"},"action":"harvest","summary":"good-harvest","bonus":1.7200000000000013},{"rt":470.69999998807907,"stimulus":"\n                    <p><b>Action: <em>harvest</em></b></p>\n                    <p>This is the bee that you just saw.</p>\n                    <img src=\"bees-with-color/bee-A2DF.svg\" width=\"200\">\n                    <p><span class=\"greenText\"><b>Successful harvest!</b></span><br>Your pay has increased by $0.02. Your bonus pay is now $1.20.</p>\n            ","response":0,"trial_type":"html-button-response","trial_index":126,"time_elapsed":931586,"internal_node_id":"0.0-4.0-1.59","subject_id":"60bf21880c7e8e6f92dc159b","study_id":"6197b3f67c2b5cd3b6d9596a","session_id":"6197b88c9e3bd01bf50a498b","condition":"full-information","relevant_dimensions":["wings","pattern"],"bee_group":{"antennae":"X","wings":"1","pattern":"S","legs":"X"},"bonus":1.7200000000000013},{"rt":3974.699999988079,"stimulus":"bees-with-color/bee-B1DM.svg","response":0,"trial_type":"image-button-response","trial_index":127,"time_elapsed":935562,"internal_node_id":"0.0-4.0-0.60","subject_id":"60bf21880c7e8e6f92dc159b","study_id":"6197b3f67c2b5cd3b6d9596a","session_id":"6197b88c9e3bd01bf50a498b","condition":"full-information","relevant_dimensions":["wings","pattern"],"bee_group":{"antennae":"X","wings":"1","pattern":"S","legs":"X"},"action":"harvest","summary":"good-harvest","bonus":1.7200000000000013},{"rt":447,"stimulus":"\n                    <p><b>Action: <em>harvest</em></b></p>\n                    <p>This is the bee that you just saw.</p>\n                    <img src=\"bees-with-color/bee-B1DM.svg\" width=\"200\">\n                    <p><span class=\"greenText\"><b>Successful harvest!</b></span><br>Your pay has increased by $0.02. Your bonus pay is now $1.22.</p>\n            ","response":0,"trial_type":"html-button-response","trial_index":128,"time_elapsed":936011,"internal_node_id":"0.0-4.0-1.60","subject_id":"60bf21880c7e8e6f92dc159b","study_id":"6197b3f67c2b5cd3b6d9596a","session_id":"6197b88c9e3bd01bf50a498b","condition":"full-information","relevant_dimensions":["wings","pattern"],"bee_group":{"antennae":"X","wings":"1","pattern":"S","legs":"X"},"bonus":1.7200000000000013},{"rt":861.4000000059605,"stimulus":"bees-with-color/bee-A1SF.svg","response":1,"trial_type":"image-button-response","trial_index":129,"time_elapsed":936874,"internal_node_id":"0.0-4.0-0.61","subject_id":"60bf21880c7e8e6f92dc159b","study_id":"6197b3f67c2b5cd3b6d9596a","session_id":"6197b88c9e3bd01bf50a498b","condition":"full-information","relevant_dimensions":["wings","pattern"],"bee_group":{"antennae":"X","wings":"1","pattern":"S","legs":"X"},"action":"avoid","summary":"good-avoid","bonus":1.7200000000000013},{"rt":462.09999999403954,"stimulus":"\n                    <p><b>Action: <em>avoid</em></b></p>\n                    <p>This is the bee that you just saw.</p>\n                    <img src=\"bees-with-color/bee-A1SF.svg\" width=\"200\">\n                    <p><span class=\"greenText\">Good choice!</span>  This bee would have stung you.<br>Your bonus pay is unchanged, and remains at $1.22.</p>\n            ","response":0,"trial_type":"html-button-response","trial_index":130,"time_elapsed":937338,"internal_node_id":"0.0-4.0-1.61","subject_id":"60bf21880c7e8e6f92dc159b","study_id":"6197b3f67c2b5cd3b6d9596a","session_id":"6197b88c9e3bd01bf50a498b","condition":"full-information","relevant_dimensions":["wings","pattern"],"bee_group":{"antennae":"X","wings":"1","pattern":"S","legs":"X"},"bonus":1.7200000000000013},{"rt":5130.5,"stimulus":"bees-with-color/bee-A1SM.svg","response":1,"trial_type":"image-button-response","trial_index":131,"time_elapsed":942470,"internal_node_id":"0.0-4.0-0.62","subject_id":"60bf21880c7e8e6f92dc159b","study_id":"6197b3f67c2b5cd3b6d9596a","session_id":"6197b88c9e3bd01bf50a498b","condition":"full-information","relevant_dimensions":["wings","pattern"],"bee_group":{"antennae":"X","wings":"1","pattern":"S","legs":"X"},"action":"avoid","summary":"good-avoid","bonus":1.7200000000000013},{"rt":444.60000002384186,"stimulus":"\n                    <p><b>Action: <em>avoid</em></b></p>\n                    <p>This is the bee that you just saw.</p>\n                    <img src=\"bees-with-color/bee-A1SM.svg\" width=\"200\">\n                    <p><span class=\"greenText\">Good choice!</span>  This bee would have stung you.<br>Your bonus pay is unchanged, and remains at $1.22.</p>\n            ","response":0,"trial_type":"html-button-response","trial_index":132,"time_elapsed":942916,"internal_node_id":"0.0-4.0-1.62","subject_id":"60bf21880c7e8e6f92dc159b","study_id":"6197b3f67c2b5cd3b6d9596a","session_id":"6197b88c9e3bd01bf50a498b","condition":"full-information","relevant_dimensions":["wings","pattern"],"bee_group":{"antennae":"X","wings":"1","pattern":"S","legs":"X"},"bonus":1.7200000000000013},{"rt":3402.4000000059605,"stimulus":"bees-with-color/bee-B2SM.svg","response":0,"trial_type":"image-button-response","trial_index":133,"time_elapsed":946321,"internal_node_id":"0.0-4.0-0.63","subject_id":"60bf21880c7e8e6f92dc159b","study_id":"6197b3f67c2b5cd3b6d9596a","session_id":"6197b88c9e3bd01bf50a498b","condition":"full-information","relevant_dimensions":["wings","pattern"],"bee_group":{"antennae":"X","wings":"1","pattern":"S","legs":"X"},"action":"harvest","summary":"good-harvest","bonus":1.7200000000000013},{"rt":826.3000000119209,"stimulus":"\n                    <p><b>Action: <em>harvest</em></b></p>\n                    <p>This is the bee that you just saw.</p>\n                    <img src=\"bees-with-color/bee-B2SM.svg\" width=\"200\">\n                    <p><span class=\"greenText\"><b>Successful harvest!</b></span><br>Your pay has increased by $0.02. Your bonus pay is now $1.24.</p>\n            ","response":0,"trial_type":"html-button-response","trial_index":134,"time_elapsed":947149,"internal_node_id":"0.0-4.0-1.63","subject_id":"60bf21880c7e8e6f92dc159b","study_id":"6197b3f67c2b5cd3b6d9596a","session_id":"6197b88c9e3bd01bf50a498b","condition":"full-information","relevant_dimensions":["wings","pattern"],"bee_group":{"antennae":"X","wings":"1","pattern":"S","legs":"X"},"bonus":1.7200000000000013},{"rt":10901.09999999404,"stimulus":"You have completed the first part of this experiment.<br><br>You will now begin a shorter second part, in which you will receive no feedback.<br>The same rules regarding bonus pay apply.<br><br>Press any key to begin.","response":" ","trial_type":"html-keyboard-response","trial_index":135,"time_elapsed":958052,"internal_node_id":"0.0-5.0","subject_id":"60bf21880c7e8e6f92dc159b","study_id":"6197b3f67c2b5cd3b6d9596a","session_id":"6197b88c9e3bd01bf50a498b","condition":"full-information","relevant_dimensions":["wings","pattern"],"bee_group":{"antennae":"X","wings":"1","pattern":"S","legs":"X"},"bonus":1.7200000000000013},{"rt":5391.199999988079,"stimulus":"bees-with-color/bee-B1DM.svg","response":0,"trial_type":"image-button-response","trial_index":136,"time_elapsed":963453,"internal_node_id":"0.0-6.0-0.0","subject_id":"60bf21880c7e8e6f92dc159b","study_id":"6197b3f67c2b5cd3b6d9596a","session_id":"6197b88c9e3bd01bf50a498b","condition":"full-information","relevant_dimensions":["wings","pattern"],"bee_group":{"antennae":"X","wings":"1","pattern":"S","legs":"X"},"bonus":1.7200000000000013},{"rt":588.3999999761581,"stimulus":"bees-with-color/bee-B2SF.svg","response":0,"trial_type":"image-button-response","trial_index":137,"time_elapsed":964043,"internal_node_id":"0.0-6.0-0.1","subject_id":"60bf21880c7e8e6f92dc159b","study_id":"6197b3f67c2b5cd3b6d9596a","session_id":"6197b88c9e3bd01bf50a498b","condition":"full-information","relevant_dimensions":["wings","pattern"],"bee_group":{"antennae":"X","wings":"1","pattern":"S","legs":"X"},"bonus":1.7200000000000013},{"rt":1301.6000000238419,"stimulus":"bees-with-color/bee-B2DF.svg","response":0,"trial_type":"image-button-response","trial_index":138,"time_elapsed":965347,"internal_node_id":"0.0-6.0-0.2","subject_id":"60bf21880c7e8e6f92dc159b","study_id":"6197b3f67c2b5cd3b6d9596a","session_id":"6197b88c9e3bd01bf50a498b","condition":"full-information","relevant_dimensions":["wings","pattern"],"bee_group":{"antennae":"X","wings":"1","pattern":"S","legs":"X"},"bonus":1.7200000000000013},{"rt":892.1000000238419,"stimulus":"bees-with-color/bee-A1SM.svg","response":1,"trial_type":"image-button-response","trial_index":139,"time_elapsed":966241,"internal_node_id":"0.0-6.0-0.3","subject_id":"60bf21880c7e8e6f92dc159b","study_id":"6197b3f67c2b5cd3b6d9596a","session_id":"6197b88c9e3bd01bf50a498b","condition":"full-information","relevant_dimensions":["wings","pattern"],"bee_group":{"antennae":"X","wings":"1","pattern":"S","legs":"X"},"bonus":1.7200000000000013},{"rt":1022.1000000238419,"stimulus":"bees-with-color/bee-B2SM.svg","response":0,"trial_type":"image-button-response","trial_index":140,"time_elapsed":967265,"internal_node_id":"0.0-6.0-0.4","subject_id":"60bf21880c7e8e6f92dc159b","study_id":"6197b3f67c2b5cd3b6d9596a","session_id":"6197b88c9e3bd01bf50a498b","condition":"full-information","relevant_dimensions":["wings","pattern"],"bee_group":{"antennae":"X","wings":"1","pattern":"S","legs":"X"},"bonus":1.7200000000000013},{"rt":1248.9000000059605,"stimulus":"bees-with-color/bee-B1DF.svg","response":0,"trial_type":"image-button-response","trial_index":141,"time_elapsed":968516,"internal_node_id":"0.0-6.0-0.5","subject_id":"60bf21880c7e8e6f92dc159b","study_id":"6197b3f67c2b5cd3b6d9596a","session_id":"6197b88c9e3bd01bf50a498b","condition":"full-information","relevant_dimensions":["wings","pattern"],"bee_group":{"antennae":"X","wings":"1","pattern":"S","legs":"X"},"bonus":1.7200000000000013},{"rt":3205,"stimulus":"bees-with-color/bee-A1DM.svg","response":0,"trial_type":"image-button-response","trial_index":142,"time_elapsed":971723,"internal_node_id":"0.0-6.0-0.6","subject_id":"60bf21880c7e8e6f92dc159b","study_id":"6197b3f67c2b5cd3b6d9596a","session_id":"6197b88c9e3bd01bf50a498b","condition":"full-information","relevant_dimensions":["wings","pattern"],"bee_group":{"antennae":"X","wings":"1","pattern":"S","legs":"X"},"bonus":1.7200000000000013},{"rt":895.0999999940395,"stimulus":"bees-with-color/bee-B1SF.svg","response":1,"trial_type":"image-button-response","trial_index":143,"time_elapsed":972620,"internal_node_id":"0.0-6.0-0.7","subject_id":"60bf21880c7e8e6f92dc159b","study_id":"6197b3f67c2b5cd3b6d9596a","session_id":"6197b88c9e3bd01bf50a498b","condition":"full-information","relevant_dimensions":["wings","pattern"],"bee_group":{"antennae":"X","wings":"1","pattern":"S","legs":"X"},"bonus":1.7200000000000013},{"rt":696.5999999940395,"stimulus":"bees-with-color/bee-B2DM.svg","response":0,"trial_type":"image-button-response","trial_index":144,"time_elapsed":973319,"internal_node_id":"0.0-6.0-0.8","subject_id":"60bf21880c7e8e6f92dc159b","study_id":"6197b3f67c2b5cd3b6d9596a","session_id":"6197b88c9e3bd01bf50a498b","condition":"full-information","relevant_dimensions":["wings","pattern"],"bee_group":{"antennae":"X","wings":"1","pattern":"S","legs":"X"},"bonus":1.7200000000000013},{"rt":438.09999999403954,"stimulus":"bees-with-color/bee-A2SM.svg","response":0,"trial_type":"image-button-response","trial_index":145,"time_elapsed":973760,"internal_node_id":"0.0-6.0-0.9","subject_id":"60bf21880c7e8e6f92dc159b","study_id":"6197b3f67c2b5cd3b6d9596a","session_id":"6197b88c9e3bd01bf50a498b","condition":"full-information","relevant_dimensions":["wings","pattern"],"bee_group":{"antennae":"X","wings":"1","pattern":"S","legs":"X"},"bonus":1.7200000000000013},{"rt":847.5,"stimulus":"bees-with-color/bee-B1SM.svg","response":1,"trial_type":"image-button-response","trial_index":146,"time_elapsed":974610,"internal_node_id":"0.0-6.0-0.10","subject_id":"60bf21880c7e8e6f92dc159b","study_id":"6197b3f67c2b5cd3b6d9596a","session_id":"6197b88c9e3bd01bf50a498b","condition":"full-information","relevant_dimensions":["wings","pattern"],"bee_group":{"antennae":"X","wings":"1","pattern":"S","legs":"X"},"bonus":1.7200000000000013},{"rt":1146,"stimulus":"bees-with-color/bee-A1SF.svg","response":1,"trial_type":"image-button-response","trial_index":147,"time_elapsed":975758,"internal_node_id":"0.0-6.0-0.11","subject_id":"60bf21880c7e8e6f92dc159b","study_id":"6197b3f67c2b5cd3b6d9596a","session_id":"6197b88c9e3bd01bf50a498b","condition":"full-information","relevant_dimensions":["wings","pattern"],"bee_group":{"antennae":"X","wings":"1","pattern":"S","legs":"X"},"bonus":1.7200000000000013},{"rt":1971.9000000059605,"stimulus":"bees-with-color/bee-A1DF.svg","response":0,"trial_type":"image-button-response","trial_index":148,"time_elapsed":977731,"internal_node_id":"0.0-6.0-0.12","subject_id":"60bf21880c7e8e6f92dc159b","study_id":"6197b3f67c2b5cd3b6d9596a","session_id":"6197b88c9e3bd01bf50a498b","condition":"full-information","relevant_dimensions":["wings","pattern"],"bee_group":{"antennae":"X","wings":"1","pattern":"S","legs":"X"},"bonus":1.7200000000000013},{"rt":628.7999999821186,"stimulus":"bees-with-color/bee-A2DF.svg","response":0,"trial_type":"image-button-response","trial_index":149,"time_elapsed":978362,"internal_node_id":"0.0-6.0-0.13","subject_id":"60bf21880c7e8e6f92dc159b","study_id":"6197b3f67c2b5cd3b6d9596a","session_id":"6197b88c9e3bd01bf50a498b","condition":"full-information","relevant_dimensions":["wings","pattern"],"bee_group":{"antennae":"X","wings":"1","pattern":"S","legs":"X"},"bonus":1.7200000000000013},{"rt":449.80000001192093,"stimulus":"bees-with-color/bee-A2DM.svg","response":0,"trial_type":"image-button-response","trial_index":150,"time_elapsed":978813,"internal_node_id":"0.0-6.0-0.14","subject_id":"60bf21880c7e8e6f92dc159b","study_id":"6197b3f67c2b5cd3b6d9596a","session_id":"6197b88c9e3bd01bf50a498b","condition":"full-information","relevant_dimensions":["wings","pattern"],"bee_group":{"antennae":"X","wings":"1","pattern":"S","legs":"X"},"bonus":1.7200000000000013},{"rt":423.5,"stimulus":"bees-with-color/bee-A2SF.svg","response":0,"trial_type":"image-button-response","trial_index":151,"time_elapsed":979239,"internal_node_id":"0.0-6.0-0.15","subject_id":"60bf21880c7e8e6f92dc159b","study_id":"6197b3f67c2b5cd3b6d9596a","session_id":"6197b88c9e3bd01bf50a498b","condition":"full-information","relevant_dimensions":["wings","pattern"],"bee_group":{"antennae":"X","wings":"1","pattern":"S","legs":"X"},"bonus":1.7200000000000013},{"rt":516.3000000119209,"stimulus":"bees-with-color/bee-B2DM.svg","response":0,"trial_type":"image-button-response","trial_index":152,"time_elapsed":979756,"internal_node_id":"0.0-6.0-0.16","subject_id":"60bf21880c7e8e6f92dc159b","study_id":"6197b3f67c2b5cd3b6d9596a","session_id":"6197b88c9e3bd01bf50a498b","condition":"full-information","relevant_dimensions":["wings","pattern"],"bee_group":{"antennae":"X","wings":"1","pattern":"S","legs":"X"},"bonus":1.7200000000000013},{"rt":961.8000000119209,"stimulus":"bees-with-color/bee-B1SF.svg","response":1,"trial_type":"image-button-response","trial_index":153,"time_elapsed":980720,"internal_node_id":"0.0-6.0-0.17","subject_id":"60bf21880c7e8e6f92dc159b","study_id":"6197b3f67c2b5cd3b6d9596a","session_id":"6197b88c9e3bd01bf50a498b","condition":"full-information","relevant_dimensions":["wings","pattern"],"bee_group":{"antennae":"X","wings":"1","pattern":"S","legs":"X"},"bonus":1.7200000000000013},{"rt":855.3000000119209,"stimulus":"bees-with-color/bee-B2SF.svg","response":0,"trial_type":"image-button-response","trial_index":154,"time_elapsed":981577,"internal_node_id":"0.0-6.0-0.18","subject_id":"60bf21880c7e8e6f92dc159b","study_id":"6197b3f67c2b5cd3b6d9596a","session_id":"6197b88c9e3bd01bf50a498b","condition":"full-information","relevant_dimensions":["wings","pattern"],"bee_group":{"antennae":"X","wings":"1","pattern":"S","legs":"X"},"bonus":1.7200000000000013},{"rt":1025.5,"stimulus":"bees-with-color/bee-B1DM.svg","response":0,"trial_type":"image-button-response","trial_index":155,"time_elapsed":982604,"internal_node_id":"0.0-6.0-0.19","subject_id":"60bf21880c7e8e6f92dc159b","study_id":"6197b3f67c2b5cd3b6d9596a","session_id":"6197b88c9e3bd01bf50a498b","condition":"full-information","relevant_dimensions":["wings","pattern"],"bee_group":{"antennae":"X","wings":"1","pattern":"S","legs":"X"},"bonus":1.7200000000000013},{"rt":729.0999999940395,"stimulus":"bees-with-color/bee-A1DF.svg","response":0,"trial_type":"image-button-response","trial_index":156,"time_elapsed":983335,"internal_node_id":"0.0-6.0-0.20","subject_id":"60bf21880c7e8e6f92dc159b","study_id":"6197b3f67c2b5cd3b6d9596a","session_id":"6197b88c9e3bd01bf50a498b","condition":"full-information","relevant_dimensions":["wings","pattern"],"bee_group":{"antennae":"X","wings":"1","pattern":"S","legs":"X"},"bonus":1.7200000000000013},{"rt":832.6000000238419,"stimulus":"bees-with-color/bee-A2SM.svg","response":0,"trial_type":"image-button-response","trial_index":157,"time_elapsed":984170,"internal_node_id":"0.0-6.0-0.21","subject_id":"60bf21880c