[{"success":true,"trial_type":"fullscreen","trial_index":0,"time_elapsed":17212,"internal_node_id":"0.0-0.0","subject_id":"5f20247996215b06459cdfff","study_id":"6197b3f67c2b5cd3b6d9596a","session_id":"6197b88aef9aedd2b8ac1a05","condition":"full-information","relevant_dimensions":["antennae","pattern"],"bee_group":{"antennae":"B","wings":"X","pattern":"S","legs":"X"},"bonus":0.02},{"success":true,"timeout":false,"failed_images":[],"failed_audio":[],"failed_video":[],"trial_type":"preload","trial_index":1,"time_elapsed":18826,"internal_node_id":"0.0-1.0","subject_id":"5f20247996215b06459cdfff","study_id":"6197b3f67c2b5cd3b6d9596a","session_id":"6197b88aef9aedd2b8ac1a05","condition":"full-information","relevant_dimensions":["antennae","pattern"],"bee_group":{"antennae":"B","wings":"X","pattern":"S","legs":"X"},"bonus":0.02},{"rt":1015.8000000007451,"stimulus":"Welcome! Press any key to begin.","response":" ","trial_type":"html-keyboard-response","trial_index":2,"time_elapsed":19844,"internal_node_id":"0.0-2.0","subject_id":"5f20247996215b06459cdfff","study_id":"6197b3f67c2b5cd3b6d9596a","session_id":"6197b88aef9aedd2b8ac1a05","condition":"full-information","relevant_dimensions":["antennae","pattern"],"bee_group":{"antennae":"B","wings":"X","pattern":"S","legs":"X"},"bonus":0.02},{"view_history":[{"page_index":0,"viewing_time":3299.5},{"page_index":1,"viewing_time":9519.10000000149},{"page_index":2,"viewing_time":10770.89999999851},{"page_index":3,"viewing_time":9915.800000000745},{"page_index":4,"viewing_time":4003.800000000745},{"page_index":5,"viewing_time":4652.099999997765},{"page_index":6,"viewing_time":10192.800000000745},{"page_index":7,"viewing_time":4164.699999999255},{"page_index":8,"viewing_time":2487.400000002235},{"page_index":9,"viewing_time":2585},{"page_index":10,"viewing_time":2635.199999999255},{"page_index":11,"viewing_time":6037.89999999851},{"page_index":10,"viewing_time":1084.6000000014901},{"page_index":9,"viewing_time":630.1999999992549},{"page_index":8,"viewing_time":583.1000000014901},{"page_index":7,"viewing_time":630},{"page_index":6,"viewing_time":6215.699999999255},{"page_index":7,"viewing_time":2603.099999997765},{"page_index":8,"viewing_time":2108.5},{"page_index":9,"viewing_time":1283.5},{"page_index":10,"viewing_time":1442.5},{"page_index":11,"viewing_time":1803.1000000014901},{"page_index":12,"viewing_time":4881.10000000149},{"page_index":13,"viewing_time":2158},{"page_index":14,"viewing_time":1753.199999999255}],"rt":97441.60000000149,"trial_type":"instructions","trial_index":3,"time_elapsed":117286,"internal_node_id":"0.0-3.0-0.0","subject_id":"5f20247996215b06459cdfff","study_id":"6197b3f67c2b5cd3b6d9596a","session_id":"6197b88aef9aedd2b8ac1a05","condition":"full-information","relevant_dimensions":["antennae","pattern"],"bee_group":{"antennae":"B","wings":"X","pattern":"S","legs":"X"},"bonus":0.02},{"rt":11578.300000000745,"response":{"Q0":["Two or six legs","Stripes or spots on body","Single or double wings","Antennae or no antennae"]},"question_order":[0],"trial_type":"survey-multi-select","trial_index":4,"time_elapsed":128871,"internal_node_id":"0.0-3.0-1.0","subject_id":"5f20247996215b06459cdfff","study_id":"6197b3f67c2b5cd3b6d9596a","session_id":"6197b88aef9aedd2b8ac1a05","condition":"full-information","relevant_dimensions":["antennae","pattern"],"bee_group":{"antennae":"B","wings":"X","pattern":"S","legs":"X"},"correct":true,"bonus":0.02},{"rt":23585,"response":{"Q1":"No.","Q2":"Based on the four features of the bee.","Q3":"You learn if it was friendly or dangerous, but do not alter your bonus."},"question_order":[0,1,2],"trial_type":"survey-multi-choice","trial_index":5,"time_elapsed":152465,"internal_node_id":"0.0-3.0-2.0","subject_id":"5f20247996215b06459cdfff","study_id":"6197b3f67c2b5cd3b6d9596a","session_id":"6197b88aef9aedd2b8ac1a05","condition":"full-information","relevant_dimensions":["antennae","pattern"],"bee_group":{"antennae":"B","wings":"X","pattern":"S","legs":"X"},"correct":true,"bonus":0.02},{"rt":5541.800000000745,"stimulus":"<p>Congrats, you got everything right<br>When you're ready, click the button below to continue to the experiment.</p>","response":0,"trial_type":"html-button-response","trial_index":6,"time_elapsed":158016,"internal_node_id":"0.0-3.0-3.0","subject_id":"5f20247996215b06459cdfff","study_id":"6197b3f67c2b5cd3b6d9596a","session_id":"6197b88aef9aedd2b8ac1a05","condition":"full-information","relevant_dimensions":["antennae","pattern"],"bee_group":{"antennae":"B","wings":"X","pattern":"S","legs":"X"},"bonus":0.02},{"rt":4506.199999999255,"stimulus":"bees-with-color/bee-A1SM.svg","response":0,"trial_type":"image-button-response","trial_index":7,"time_elapsed":162527,"internal_node_id":"0.0-4.0-0.0","subject_id":"5f20247996215b06459cdfff","study_id":"6197b3f67c2b5cd3b6d9596a","session_id":"6197b88aef9aedd2b8ac1a05","condition":"full-information","relevant_dimensions":["antennae","pattern"],"bee_group":{"antennae":"B","wings":"X","pattern":"S","legs":"X"},"action":"harvest","summary":"good-harvest","bonus":0.02},{"rt":4195.699999999255,"stimulus":"\n                    <p><b>Action: <em>harvest</em></b></p>\n                    <p>This is the bee that you just saw.</p>\n                    <img src=\"bees-with-color/bee-A1SM.svg\" width=\"200\">\n                    <p><span class=\"greenText\"><b>Successful harvest!</b></span><br>Your pay has increased by $0.02. Your bonus pay is now $0.56.</p>\n            ","response":0,"trial_type":"html-button-response","trial_index":8,"time_elapsed":166728,"internal_node_id":"0.0-4.0-1.0","subject_id":"5f20247996215b06459cdfff","study_id":"6197b3f67c2b5cd3b6d9596a","session_id":"6197b88aef9aedd2b8ac1a05","condition":"full-information","relevant_dimensions":["antennae","pattern"],"bee_group":{"antennae":"B","wings":"X","pattern":"S","legs":"X"},"bonus":0.02},{"rt":1955.300000000745,"stimulus":"bees-with-color/bee-B2SF.svg","response":1,"trial_type":"image-button-response","trial_index":9,"time_elapsed":168688,"internal_node_id":"0.0-4.0-0.1","subject_id":"5f20247996215b06459cdfff","study_id":"6197b3f67c2b5cd3b6d9596a","session_id":"6197b88aef9aedd2b8ac1a05","condition":"full-information","relevant_dimensions":["antennae","pattern"],"bee_group":{"antennae":"B","wings":"X","pattern":"S","legs":"X"},"action":"avoid","summary":"good-avoid","bonus":0.02},{"rt":2645.2000000029802,"stimulus":"\n                    <p><b>Action: <em>avoid</em></b></p>\n                    <p>This is the bee that you just saw.</p>\n                    <img src=\"bees-with-color/bee-B2SF.svg\" width=\"200\">\n                    <p><span class=\"greenText\">Good choice!</span>  This bee would have stung you.<br>Your bonus pay is unchanged, and remains at $0.56.</p>\n            ","response":0,"trial_type":"html-button-response","trial_index":10,"time_elapsed":171336,"internal_node_id":"0.0-4.0-1.1","subject_id":"5f20247996215b06459cdfff","study_id":"6197b3f67c2b5cd3b6d9596a","session_id":"6197b88aef9aedd2b8ac1a05","condition":"full-information","relevant_dimensions":["antennae","pattern"],"bee_group":{"antennae":"B","wings":"X","pattern":"S","legs":"X"},"bonus":0.02},{"rt":2144.60000000149,"stimulus":"bees-with-color/bee-B1SM.svg","response":0,"trial_type":"image-button-response","trial_index":11,"time_elapsed":173485,"internal_node_id":"0.0-4.0-0.2","subject_id":"5f20247996215b06459cdfff","study_id":"6197b3f67c2b5cd3b6d9596a","session_id":"6197b88aef9aedd2b8ac1a05","condition":"full-information","relevant_dimensions":["antennae","pattern"],"bee_group":{"antennae":"B","wings":"X","pattern":"S","legs":"X"},"action":"harvest","summary":"bad-harvest","bonus":0.02},{"rt":2123,"stimulus":"\n                    <p><b>Action: <em>harvest</em></b></p>\n                    <p>This is the bee that you just saw.</p>\n                    <img src=\"bees-with-color/bee-B1SM.svg\" width=\"200\">\n                    <p><span class=\"redText\">Bad choice, the bee was angry.</span><br><b>You have been stung!</b><br>Your pay has been decreased by $0.10. Your bonus pay is now $0.46.</p>\n            ","response":0,"trial_type":"html-button-response","trial_index":12,"time_elapsed":175611,"internal_node_id":"0.0-4.0-1.2","subject_id":"5f20247996215b06459cdfff","study_id":"6197b3f67c2b5cd3b6d9596a","session_id":"6197b88aef9aedd2b8ac1a05","condition":"full-information","relevant_dimensions":["antennae","pattern"],"bee_group":{"antennae":"B","wings":"X","pattern":"S","legs":"X"},"bonus":0.02},{"rt":2998.10000000149,"stimulus":"bees-with-color/bee-B2DM.svg","response":1,"trial_type":"image-button-response","trial_index":13,"time_elapsed":178613,"internal_node_id":"0.0-4.0-0.3","subject_id":"5f20247996215b06459cdfff","study_id":"6197b3f67c2b5cd3b6d9596a","session_id":"6197b88aef9aedd2b8ac1a05","condition":"full-information","relevant_dimensions":["antennae","pattern"],"bee_group":{"antennae":"B","wings":"X","pattern":"S","legs":"X"},"action":"avoid","summary":"bad-avoid","bonus":0.02},{"rt":5131,"stimulus":"\n                    <p><b>Action: <em>avoid</em></b></p>\n                    <p>This is the bee that you just saw.</p>\n                    <img src=\"bees-with-color/bee-B2DM.svg\" width=\"200\">\n                    <p><span class=\"redText\">Bad choice,</span> the bee was friendly.<br>Your bonus pay is unchanged, and remains at $0.46.</p>\n            ","response":0,"trial_type":"html-button-response","trial_index":14,"time_elapsed":183747,"internal_node_id":"0.0-4.0-1.3","subject_id":"5f20247996215b06459cdfff","study_id":"6197b3f67c2b5cd3b6d9596a","session_id":"6197b88aef9aedd2b8ac1a05","condition":"full-information","relevant_dimensions":["antennae","pattern"],"bee_group":{"antennae":"B","wings":"X","pattern":"S","legs":"X"},"bonus":0.02},{"rt":2971.099999997765,"stimulus":"bees-with-color/bee-A2SM.svg","response":0,"trial_type":"image-button-response","trial_index":15,"time_elapsed":186722,"internal_node_id":"0.0-4.0-0.4","subject_id":"5f20247996215b06459cdfff","study_id":"6197b3f67c2b5cd3b6d9596a","session_id":"6197b88aef9aedd2b8ac1a05","condition":"full-information","relevant_dimensions":["antennae","pattern"],"bee_group":{"antennae":"B","wings":"X","pattern":"S","legs":"X"},"action":"harvest","summary":"good-harvest","bonus":0.02},{"rt":3961.2999999970198,"stimulus":"\n                    <p><b>Action: <em>harvest</em></b></p>\n                    <p>This is the bee that you just saw.</p>\n                    <img src=\"bees-with-color/bee-A2SM.svg\" width=\"200\">\n                    <p><span class=\"greenText\"><b>Successful harvest!</b></span><br>Your pay has increased by $0.02. Your bonus pay is now $0.48.</p>\n            ","response":0,"trial_type":"html-button-response","trial_index":16,"time_elapsed":190687,"internal_node_id":"0.0-4.0-1.4","subject_id":"5f20247996215b06459cdfff","study_id":"6197b3f67c2b5cd3b6d9596a","session_id":"6197b88aef9aedd2b8ac1a05","condition":"full-information","relevant_dimensions":["antennae","pattern"],"bee_group":{"antennae":"B","wings":"X","pattern":"S","legs":"X"},"bonus":0.02},{"rt":1719.8999999985099,"stimulus":"bees-with-color/bee-A1DF.svg","response":1,"trial_type":"image-button-response","trial_index":17,"time_elapsed":192411,"internal_node_id":"0.0-4.0-0.5","subject_id":"5f20247996215b06459cdfff","study_id":"6197b3f67c2b5cd3b6d9596a","session_id":"6197b88aef9aedd2b8ac1a05","condition":"full-information","relevant_dimensions":["antennae","pattern"],"bee_group":{"antennae":"B","wings":"X","pattern":"S","legs":"X"},"action":"avoid","summary":"bad-avoid","bonus":0.02},{"rt":6050.300000000745,"stimulus":"\n                    <p><b>Action: <em>avoid</em></b></p>\n                    <p>This is the bee that you just saw.</p>\n                    <img src=\"bees-with-color/bee-A1DF.svg\" width=\"200\">\n                    <p><span class=\"redText\">Bad choice,</span> the bee was friendly.<br>Your bonus pay is unchanged, and remains at $0.48.</p>\n            ","response":0,"trial_type":"html-button-response","trial_index":18,"time_elapsed":198463,"internal_node_id":"0.0-4.0-1.5","subject_id":"5f20247996215b06459cdfff","study_id":"6197b3f67c2b5cd3b6d9596a","session_id":"6197b88aef9aedd2b8ac1a05","condition":"full-information","relevant_dimensions":["antennae","pattern"],"bee_group":{"antennae":"B","wings":"X","pattern":"S","legs":"X"},"bonus":0.02},{"rt":2788.39999999851,"stimulus":"bees-with-color/bee-A2DM.svg","response":0,"trial_type":"image-button-response","trial_index":19,"time_elapsed":201255,"internal_node_id":"0.0-4.0-0.6","subject_id":"5f20247996215b06459cdfff","study_id":"6197b3f67c2b5cd3b6d9596a","session_id":"6197b88aef9aedd2b8ac1a05","condition":"full-information","relevant_dimensions":["antennae","pattern"],"bee_group":{"antennae":"B","wings":"X","pattern":"S","legs":"X"},"action":"harvest","summary":"good-harvest","bonus":0.02},{"rt":1867.300000000745,"stimulus":"\n                    <p><b>Action: <em>harvest</em></b></p>\n                    <p>This is the bee that you just saw.</p>\n                    <img src=\"bees-with-color/bee-A2DM.svg\" width=\"200\">\n                    <p><span class=\"greenText\"><b>Successful harvest!</b></span><br>Your pay has increased by $0.02. Your bonus pay is now $0.50.</p>\n            ","response":0,"trial_type":"html-button-response","trial_index":20,"time_elapsed":203126,"internal_node_id":"0.0-4.0-1.6","subject_id":"5f20247996215b06459cdfff","study_id":"6197b3f67c2b5cd3b6d9596a","session_id":"6197b88aef9aedd2b8ac1a05","condition":"full-information","relevant_dimensions":["antennae","pattern"],"bee_group":{"antennae":"B","wings":"X","pattern":"S","legs":"X"},"bonus":0.02},{"rt":2892.10000000149,"stimulus":"bees-with-color/bee-A1SF.svg","response":1,"trial_type":"image-button-response","trial_index":21,"time_elapsed":206021,"internal_node_id":"0.0-4.0-0.7","subject_id":"5f20247996215b06459cdfff","study_id":"6197b3f67c2b5cd3b6d9596a","session_id":"6197b88aef9aedd2b8ac1a05","condition":"full-information","relevant_dimensions":["antennae","pattern"],"bee_group":{"antennae":"B","wings":"X","pattern":"S","legs":"X"},"action":"avoid","summary":"bad-avoid","bonus":0.02},{"rt":1847.800000000745,"stimulus":"\n                    <p><b>Action: <em>avoid</em></b></p>\n                    <p>This is the bee that you just saw.</p>\n                    <img src=\"bees-with-color/bee-A1SF.svg\" width=\"200\">\n                    <p><span class=\"redText\">Bad choice,</span> the bee was friendly.<br>Your bonus pay is unchanged, and remains at $0.50.</p>\n            ","response":0,"trial_type":"html-button-response","trial_index":22,"time_elapsed":207873,"internal_node_id":"0.0-4.0-1.7","subject_id":"5f20247996215b06459cdfff","study_id":"6197b3f67c2b5cd3b6d9596a","session_id":"6197b88aef9aedd2b8ac1a05","condition":"full-information","relevant_dimensions":["antennae","pattern"],"bee_group":{"antennae":"B","wings":"X","pattern":"S","legs":"X"},"bonus":0.02},{"rt":2857.699999999255,"stimulus":"bees-with-color/bee-B2DF.svg","response":0,"trial_type":"image-button-response","trial_index":23,"time_elapsed":210735,"internal_node_id":"0.0-4.0-0.8","subject_id":"5f20247996215b06459cdfff","study_id":"6197b3f67c2b5cd3b6d9596a","session_id":"6197b88aef9aedd2b8ac1a05","condition":"full-information","relevant_dimensions":["antennae","pattern"],"bee_group":{"antennae":"B","wings":"X","pattern":"S","legs":"X"},"action":"harvest","summary":"good-harvest","bonus":0.02},{"rt":1505.699999999255,"stimulus":"\n                    <p><b>Action: <em>harvest</em></b></p>\n                    <p>This is the bee that you just saw.</p>\n                    <img src=\"bees-with-color/bee-B2DF.svg\" width=\"200\">\n                    <p><span class=\"greenText\"><b>Successful harvest!</b></span><br>Your pay has increased by $0.02. Your bonus pay is now $0.52.</p>\n            ","response":0,"trial_type":"html-button-response","trial_index":24,"time_elapsed":212244,"internal_node_id":"0.0-4.0-1.8","subject_id":"5f20247996215b06459cdfff","study_id":"6197b3f67c2b5cd3b6d9596a","session_id":"6197b88aef9aedd2b8ac1a05","condition":"full-information","relevant_dimensions":["antennae","pattern"],"bee_group":{"antennae":"B","wings":"X","pattern":"S","legs":"X"},"bonus":0.02},{"rt":2100.199999999255,"stimulus":"bees-with-color/bee-A2DF.svg","response":0,"trial_type":"image-button-response","trial_index":25,"time_elapsed":214347,"internal_node_id":"0.0-4.0-0.9","subject_id":"5f20247996215b06459cdfff","study_id":"6197b3f67c2b5cd3b6d9596a","session_id":"6197b88aef9aedd2b8ac1a05","condition":"full-information","relevant_dimensions":["antennae","pattern"],"bee_group":{"antennae":"B","wings":"X","pattern":"S","legs":"X"},"action":"harvest","summary":"good-harvest","bonus":0.02},{"rt":1647.199999999255,"stimulus":"\n                    <p><b>Action: <em>harvest</em></b></p>\n                    <p>This is the bee that you just saw.</p>\n                    <img src=\"bees-with-color/bee-A2DF.svg\" width=\"200\">\n                    <p><span class=\"greenText\"><b>Successful harvest!</b></span><br>Your pay has increased by $0.02. Your bonus pay is now $0.54.</p>\n            ","response":0,"trial_type":"html-button-response","trial_index":26,"time_elapsed":215998,"internal_node_id":"0.0-4.0-1.9","subject_id":"5f20247996215b06459cdfff","study_id":"6197b3f67c2b5cd3b6d9596a","session_id":"6197b88aef9aedd2b8ac1a05","condition":"full-information","relevant_dimensions":["antennae","pattern"],"bee_group":{"antennae":"B","wings":"X","pattern":"S","legs":"X"},"bonus":0.02},{"rt":2756.60000000149,"stimulus":"bees-with-color/bee-A1DM.svg","response":1,"trial_type":"image-button-response","trial_index":27,"time_elapsed":218758,"internal_node_id":"0.0-4.0-0.10","subject_id":"5f20247996215b06459cdfff","study_id":"6197b3f67c2b5cd3b6d9596a","session_id":"6197b88aef9aedd2b8ac1a05","condition":"full-information","relevant_dimensions":["antennae","pattern"],"bee_group":{"antennae":"B","wings":"X","pattern":"S","legs":"X"},"action":"avoid","summary":"bad-avoid","bonus":0.02},{"rt":2840.300000000745,"stimulus":"\n                    <p><b>Action: <em>avoid</em></b></p>\n                    <p>This is the bee that you just saw.</p>\n                    <img src=\"bees-with-color/bee-A1DM.svg\" width=\"200\">\n                    <p><span class=\"redText\">Bad choice,</span> the bee was friendly.<br>Your bonus pay is unchanged, and remains at $0.54.</p>\n            ","response":0,"trial_type":"html-button-response","trial_index":28,"time_elapsed":221601,"internal_node_id":"0.0-4.0-1.10","subject_id":"5f20247996215b06459cdfff","study_id":"6197b3f67c2b5cd3b6d9596a","session_id":"6197b88aef9aedd2b8ac1a05","condition":"full-information","relevant_dimensions":["antennae","pattern"],"bee_group":{"antennae":"B","wings":"X","pattern":"S","legs":"X"},"bonus":0.02},{"rt":2120.199999999255,"stimulus":"bees-with-color/bee-B1SF.svg","response":0,"trial_type":"image-button-response","trial_index":29,"time_elapsed":223724,"internal_node_id":"0.0-4.0-0.11","subject_id":"5f20247996215b06459cdfff","study_id":"6197b3f67c2b5cd3b6d9596a","session_id":"6197b88aef9aedd2b8ac1a05","condition":"full-information","relevant_dimensions":["antennae","pattern"],"bee_group":{"antennae":"B","wings":"X","pattern":"S","legs":"X"},"action":"harvest","summary":"bad-harvest","bonus":0.02},{"rt":1557.2000000029802,"stimulus":"\n                    <p><b>Action: <em>harvest</em></b></p>\n                    <p>This is the bee that you just saw.</p>\n                    <img src=\"bees-with-color/bee-B1SF.svg\" width=\"200\">\n                    <p><span class=\"redText\">Bad choice, the bee was angry.</span><br><b>You have been stung!</b><br>Your pay has been decreased by $0.10. Your bonus pay is now $0.44.</p>\n            ","response":0,"trial_type":"html-button-response","trial_index":30,"time_elapsed":225284,"internal_node_id":"0.0-4.0-1.11","subject_id":"5f20247996215b06459cdfff","study_id":"6197b3f67c2b5cd3b6d9596a","session_id":"6197b88aef9aedd2b8ac1a05","condition":"full-information","relevant_dimensions":["antennae","pattern"],"bee_group":{"antennae":"B","wings":"X","pattern":"S","legs":"X"},"bonus":0.02},{"rt":1681.3999999985099,"stimulus":"bees-with-color/bee-B1DF.svg","response":1,"trial_type":"image-button-response","trial_index":31,"time_elapsed":226968,"internal_node_id":"0.0-4.0-0.12","subject_id":"5f20247996215b06459cdfff","study_id":"6197b3f67c2b5cd3b6d9596a","session_id":"6197b88aef9aedd2b8ac1a05","condition":"full-information","relevant_dimensions":["antennae","pattern"],"bee_group":{"antennae":"B","wings":"X","pattern":"S","legs":"X"},"action":"avoid","summary":"bad-avoid","bonus":0.02},{"rt":2681.5,"stimulus":"\n                    <p><b>Action: <em>avoid</em></b></p>\n                    <p>This is the bee that you just saw.</p>\n                    <img src=\"bees-with-color/bee-B1DF.svg\" width=\"200\">\n                    <p><span class=\"redText\">Bad choice,</span> the bee was friendly.<br>Your bonus pay is unchanged, and remains at $0.44.</p>\n            ","response":0,"trial_type":"html-button-response","trial_index":32,"time_elapsed":229652,"internal_node_id":"0.0-4.0-1.12","subject_id":"5f20247996215b06459cdfff","study_id":"6197b3f67c2b5cd3b6d9596a","session_id":"6197b88aef9aedd2b8ac1a05","condition":"full-information","relevant_dimensions":["antennae","pattern"],"bee_group":{"antennae":"B","wings":"X","pattern":"S","legs":"X"},"bonus":0.02},{"rt":1711.6000000014901,"stimulus":"bees-with-color/bee-A2SF.svg","response":1,"trial_type":"image-button-response","trial_index":33,"time_elapsed":231367,"internal_node_id":"0.0-4.0-0.13","subject_id":"5f20247996215b06459cdfff","study_id":"6197b3f67c2b5cd3b6d9596a","session_id":"6197b88aef9aedd2b8ac1a05","condition":"full-information","relevant_dimensions":["antennae","pattern"],"bee_group":{"antennae":"B","wings":"X","pattern":"S","legs":"X"},"action":"avoid","summary":"bad-avoid","bonus":0.02},{"rt":2907.5,"stimulus":"\n                    <p><b>Action: <em>avoid</em></b></p>\n                    <p>This is the bee that you just saw.</p>\n                    <img src=\"bees-with-color/bee-A2SF.svg\" width=\"200\">\n                    <p><span class=\"redText\">Bad choice,</span> the bee was friendly.<br>Your bonus pay is unchanged, and remains at $0.44.</p>\n            ","response":0,"trial_type":"html-button-response","trial_index":34,"time_elapsed":234277,"internal_node_id":"0.0-4.0-1.13","subject_id":"5f20247996215b06459cdfff","study_id":"6197b3f67c2b5cd3b6d9596a","session_id":"6197b88aef9aedd2b8ac1a05","condition":"full-information","relevant_dimensions":["antennae","pattern"],"bee_group":{"antennae":"B","wings":"X","pattern":"S","legs":"X"},"bonus":0.02},{"rt":2621.5,"stimulus":"bees-with-color/bee-B1DM.svg","response":1,"trial_type":"image-button-response","trial_index":35,"time_elapsed":236901,"internal_node_id":"0.0-4.0-0.14","subject_id":"5f20247996215b06459cdfff","study_id":"6197b3f67c2b5cd3b6d9596a","session_id":"6197b88aef9aedd2b8ac1a05","condition":"full-information","relevant_dimensions":["antennae","pattern"],"bee_group":{"antennae":"B","wings":"X","pattern":"S","legs":"X"},"action":"avoid","summary":"bad-avoid","bonus":0.02},{"rt":1957.6000000014901,"stimulus":"\n                    <p><b>Action: <em>avoid</em></b></p>\n                    <p>This is the bee that you just saw.</p>\n                    <img src=\"bees-with-color/bee-B1DM.svg\" width=\"200\">\n                    <p><span class=\"redText\">Bad choice,</span> the bee was friendly.<br>Your bonus pay is unchanged, and remains at $0.44.</p>\n            ","response":0,"trial_type":"html-button-response","trial_index":36,"time_elapsed":238861,"internal_node_id":"0.0-4.0-1.14","subject_id":"5f20247996215b06459cdfff","study_id":"6197b3f67c2b5cd3b6d9596a","session_id":"6197b88aef9aedd2b8ac1a05","condition":"full-information","relevant_dimensions":["antennae","pattern"],"bee_group":{"antennae":"B","wings":"X","pattern":"S","legs":"X"},"bonus":0.02},{"rt":1572.300000000745,"stimulus":"bees-with-color/bee-B2SM.svg","response":0,"trial_type":"image-button-response","trial_index":37,"time_elapsed":240436,"internal_node_id":"0.0-4.0-0.15","subject_id":"5f20247996215b06459cdfff","study_id":"6197b3f67c2b5cd3b6d9596a","session_id":"6197b88aef9aedd2b8ac1a05","condition":"full-information","relevant_dimensions":["antennae","pattern"],"bee_group":{"antennae":"B","wings":"X","pattern":"S","legs":"X"},"action":"harvest","summary":"bad-harvest","bonus":0.02},{"rt":1501.800000000745,"stimulus":"\n                    <p><b>Action: <em>harvest</em></b></p>\n                    <p>This is the bee that you just saw.</p>\n                    <img src=\"bees-with-color/bee-B2SM.svg\" width=\"200\">\n                    <p><span class=\"redText\">Bad choice, the bee was angry.</span><br><b>You have been stung!</b><br>Your pay has been decreased by $0.10. Your bonus pay is now $0.34.</p>\n            ","response":0,"trial_type":"html-button-response","trial_index":38,"time_elapsed":241941,"internal_node_id":"0.0-4.0-1.15","subject_id":"5f20247996215b06459cdfff","study_id":"6197b3f67c2b5cd3b6d9596a","session_id":"6197b88aef9aedd2b8ac1a05","condition":"full-information","relevant_dimensions":["antennae","pattern"],"bee_group":{"antennae":"B","wings":"X","pattern":"S","legs":"X"},"bonus":0.02},{"rt":4038.400000002235,"stimulus":"bees-with-color/bee-B1SF.svg","response":0,"trial_type":"image-button-response","trial_index":39,"time_elapsed":245982,"internal_node_id":"0.0-4.0-0.16","subject_id":"5f20247996215b06459cdfff","study_id":"6197b3f67c2b5cd3b6d9596a","session_id":"6197b88aef9aedd2b8ac1a05","condition":"full-information","relevant_dimensions":["antennae","pattern"],"bee_group":{"antennae":"B","wings":"X","pattern":"S","legs":"X"},"action":"harvest","summary":"bad-harvest","bonus":0.02},{"rt":1462,"stimulus":"\n                    <p><b>Action: <em>harvest</em></b></p>\n                    <p>This is the bee that you just saw.</p>\n                    <img src=\"bees-with-color/bee-B1SF.svg\" width=\"200\">\n                    <p><span class=\"redText\">Bad choice, the bee was angry.</span><br><b>You have been stung!</b><br>Your pay has been decreased by $0.10. Your bonus pay is now $0.24.</p>\n            ","response":0,"trial_type":"html-button-response","trial_index":40,"time_elapsed":247446,"internal_node_id":"0.0-4.0-1.16","subject_id":"5f20247996215b06459cdfff","study_id":"6197b3f67c2b5cd3b6d9596a","session_id":"6197b88aef9aedd2b8ac1a05","condition":"full-information","relevant_dimensions":["antennae","pattern"],"bee_group":{"antennae":"B","wings":"X","pattern":"S","legs":"X"},"bonus":0.02},{"rt":1896.6000000014901,"stimulus":"bees-with-color/bee-B2SM.svg","response":0,"trial_type":"image-button-response","trial_index":41,"time_elapsed":249345,"internal_node_id":"0.0-4.0-0.17","subject_id":"5f20247996215b06459cdfff","study_id":"6197b3f67c2b5cd3b6d9596a","session_id":"6197b88aef9aedd2b8ac1a05","condition":"full-information","relevant_dimensions":["antennae","pattern"],"bee_group":{"antennae":"B","wings":"X","pattern":"S","legs":"X"},"action":"harvest","summary":"bad-harvest","bonus":0.02},{"rt":1414.0999999977648,"stimulus":"\n                    <p><b>Action: <em>harvest</em></b></p>\n                    <p>This is the bee that you just saw.</p>\n                    <img src=\"bees-with-color/bee-B2SM.svg\" width=\"200\">\n                    <p><span class=\"redText\">Bad choice, the bee was angry.</span><br><b>You have been stung!</b><br>Your pay has been decreased by $0.10. Your bonus pay is now $0.14.</p>\n            ","response":0,"trial_type":"html-button-response","trial_index":42,"time_elapsed":250761,"internal_node_id":"0.0-4.0-1.17","subject_id":"5f20247996215b06459cdfff","study_id":"6197b3f67c2b5cd3b6d9596a","session_id":"6197b88aef9aedd2b8ac1a05","condition":"full-information","relevant_dimensions":["antennae","pattern"],"bee_group":{"antennae":"B","wings":"X","pattern":"S","legs":"X"},"bonus":0.02},{"rt":2449.800000000745,"stimulus":"bees-with-color/bee-B2DF.svg","response":0,"trial_type":"image-button-response","trial_index":43,"time_elapsed":253213,"internal_node_id":"0.0-4.0-0.18","subject_id":"5f20247996215b06459cdfff","study_id":"6197b3f67c2b5cd3b6d9596a","session_id":"6197b88aef9aedd2b8ac1a05","condition":"full-information","relevant_dimensions":["antennae","pattern"],"bee_group":{"antennae":"B","wings":"X","pattern":"S","legs":"X"},"action":"harvest","summary":"good-harvest","bonus":0.02},{"rt":1590.6000000014901,"stimulus":"\n                    <p><b>Action: <em>harvest</em></b></p>\n                    <p>This is the bee that you just saw.</p>\n                    <img src=\"bees-with-color/bee-B2DF.svg\" width=\"200\">\n                    <p><span class=\"greenText\"><b>Successful harvest!</b></span><br>Your pay has increased by $0.02. Your bonus pay is now $0.16.</p>\n            ","response":0,"trial_type":"html-button-response","trial_index":44,"time_elapsed":254807,"internal_node_id":"0.0-4.0-1.18","subject_id":"5f20247996215b06459cdfff","study_id":"6197b3f67c2b5cd3b6d9596a","session_id":"6197b88aef9aedd2b8ac1a05","condition":"full-information","relevant_dimensions":["antennae","pattern"],"bee_group":{"antennae":"B","wings":"X","pattern":"S","legs":"X"},"bonus":0.02},{"rt":2344.60000000149,"stimulus":"bees-with-color/bee-A2DF.svg","response":0,"trial_type":"image-button-response","trial_index":45,"time_elapsed":257154,"internal_node_id":"0.0-4.0-0.19","subject_id":"5f20247996215b06459cdfff","study_id":"6197b3f67c2b5cd3b6d9596a","session_id":"6197b88aef9aedd2b8ac1a05","condition":"full-information","relevant_dimensions":["antennae","pattern"],"bee_group":{"antennae":"B","wings":"X","pattern":"S","legs":"X"},"action":"harvest","summary":"good-harvest","bonus":0.02},{"rt":1345.300000000745,"stimulus":"\n                    <p><b>Action: <em>harvest</em></b></p>\n                    <p>This is the bee that you just saw.</p>\n                    <img src=\"bees-with-color/bee-A2DF.svg\" width=\"200\">\n                    <p><span class=\"greenText\"><b>Successful harvest!</b></span><br>Your pay has increased by $0.02. Your bonus pay is now $0.18.</p>\n            ","response":0,"trial_type":"html-button-response","trial_index":46,"time_elapsed":258502,"internal_node_id":"0.0-4.0-1.19","subject_id":"5f20247996215b06459cdfff","study_id":"6197b3f67c2b5cd3b6d9596a","session_id":"6197b88aef9aedd2b8ac1a05","condition":"full-information","relevant_dimensions":["antennae","pattern"],"bee_group":{"antennae":"B","wings":"X","pattern":"S","legs":"X"},"bonus":0.02},{"rt":1564.4000000022352,"stimulus":"bees-with-color/bee-A2DM.svg","response":0,"trial_type":"image-button-response","trial_index":47,"time_elapsed":260069,"internal_node_id":"0.0-4.0-0.20","subject_id":"5f20247996215b06459cdfff","study_id":"6197b3f67c2b5cd3b6d9596a","session_id":"6197b88aef9aedd2b8ac1a05","condition":"full-information","relevant_dimensions":["antennae","pattern"],"bee_group":{"antennae":"B","wings":"X","pattern":"S","legs":"X"},"action":"harvest","summary":"good-harvest","bonus":0.02},{"rt":1160.8999999985099,"stimulus":"\n                    <p><b>Action: <em>harvest</em></b></p>\n                    <p>This is the bee that you just saw.</p>\n                    <img src=\"bees-with-color/bee-A2DM.svg\" width=\"200\">\n                    <p><span class=\"greenText\"><b>Successful harvest!</b></span><br>Your pay has increased by $0.02. Your bonus pay is now $0.20.</p>\n            ","response":0,"trial_type":"html-button-response","trial_index":48,"time_elapsed":261233,"internal_node_id":"0.0-4.0-1.20","subject_id":"5f20247996215b06459cdfff","study_id":"6197b3f67c2b5cd3b6d9596a","session_id":"6197b88aef9aedd2b8ac1a05","condition":"full-information","relevant_dimensions":["antennae","pattern"],"bee_group":{"antennae":"B","wings":"X","pattern":"S","legs":"X"},"bonus":0.02},{"rt":1729.6000000014901,"stimulus":"bees-with-color/bee-A1SM.svg","response":1,"trial_type":"image-button-response","trial_index":49,"time_elapsed":262965,"internal_node_id":"0.0-4.0-0.21","subject_id":"5f20247996215b06459cdfff","study_id":"6197b3f67c2b5cd3b6d9596a","session_id":"6197b88aef9aedd2b8ac1a05","condition":"full-information","relevant_dimensions":["antennae","pattern"],"bee_group":{"antennae":"B","wings":"X","pattern":"S","legs":"X"},"action":"avoid","summary":"bad-avoid","bonus":0.02},{"rt":3193.89999999851,"stimulus":"\n                    <p><b>Action: <em>avoid</em></b></p>\n                    <p>This is the bee that you just saw.</p>\n                    <img src=\"bees-with-color/bee-A1SM.svg\" width=\"200\">\n                    <p><span class=\"redText\">Bad choice,</span> the bee was friendly.<br>Your bonus pay is unchanged, and remains at $0.20.</p>\n            ","response":0,"trial_type":"html-button-response","trial_index":50,"time_elapsed":266162,"internal_node_id":"0.0-4.0-1.21","subject_id":"5f20247996215b06459cdfff","study_id":"6197b3f67c2b5cd3b6d9596a","session_id":"6197b88aef9aedd2b8ac1a05","condition":"full-information","relevant_dimensions":["antennae","pattern"],"bee_group":{"antennae":"B","wings":"X","pattern":"S","legs":"X"},"bonus":0.02},{"rt":1766.5999999977648,"stimulus":"bees-with-color/bee-A1DF.svg","response":1,"trial_type":"image-button-response","trial_index":51,"time_elapsed":267931,"internal_node_id":"0.0-4.0-0.22","subject_id":"5f20247996215b06459cdfff","study_id":"6197b3f67c2b5cd3b6d9596a","session_id":"6197b88aef9aedd2b8ac1a05","condition":"full-information","relevant_dimensions":["antennae","pattern"],"bee_group":{"antennae":"B","wings":"X","pattern":"S","legs":"X"},"action":"avoid","summary":"bad-avoid","bonus":0.02},{"rt":2858,"stimulus":"\n                    <p><b>Action: <em>avoid</em></b></p>\n                    <p>This is the bee that you just saw.</p>\n                    <img src=\"bees-with-color/bee-A1DF.svg\" width=\"200\">\n                    <p><span class=\"redText\">Bad choice,</span> the bee was friendly.<br>Your bonus pay is unchanged, and remains at $0.20.</p>\n            ","response":0,"trial_type":"html-button-response","trial_index":52,"time_elapsed":270793,"internal_node_id":"0.0-4.0-1.22","subject_id":"5f20247996215b06459cdfff","study_id":"6197b3f67c2b5cd3b6d9596a","session_id":"6197b88aef9aedd2b8ac1a05","condition":"full-information","relevant_dimensions":["antennae","pattern"],"bee_group":{"antennae":"B","wings":"X","pattern":"S","legs":"X"},"bonus":0.02},{"rt":1649.8999999985099,"stimulus":"bees-with-color/bee-A2SF.svg","response":0,"trial_type":"image-button-response","trial_index":53,"time_elapsed":272446,"internal_node_id":"0.0-4.0-0.23","subject_id":"5f20247996215b06459cdfff","study_id":"6197b3f67c2b5cd3b6d9596a","session_id":"6197b88aef9aedd2b8ac1a05","condition":"full-information","relevant_dimensions":["antennae","pattern"],"bee_group":{"antennae":"B","wings":"X","pattern":"S","legs":"X"},"action":"harvest","summary":"good-harvest","bonus":0.02},{"rt":1289.5,"stimulus":"\n                    <p><b>Action: <em>harvest</em></b></p>\n                    <p>This is the bee that you just saw.</p>\n                    <img src=\"bees-with-color/bee-A2SF.svg\" width=\"200\">\n                    <p><span class=\"greenText\"><b>Successful harvest!</b></span><br>Your pay has increased by $0.02. Your bonus pay is now $0.22.</p>\n            ","response":0,"trial_type":"html-button-response","trial_index":54,"time_elapsed":273738,"internal_node_id":"0.0-4.0-1.23","subject_id":"5f20247996215b06459cdfff","study_id":"6197b3f67c2b5cd3b6d9596a","session_id":"6197b88aef9aedd2b8ac1a05","condition":"full-information","relevant_dimensions":["antennae","pattern"],"bee_group":{"antennae":"B","wings":"X","pattern":"S","legs":"X"},"bonus":0.02},{"rt":1812.1000000014901,"stimulus":"bees-with-color/bee-A1DM.svg","response":0,"trial_type":"image-button-response","trial_index":55,"time_elapsed":275553,"internal_node_id":"0.0-4.0-0.24","subject_id":"5f20247996215b06459cdfff","study_id":"6197b3f67c2b5cd3b6d9596a","session_id":"6197b88aef9aedd2b8ac1a05","condition":"full-information","relevant_dimensions":["antennae","pattern"],"bee_group":{"antennae":"B","wings":"X","pattern":"S","legs":"X"},"action":"harvest","summary":"good-harvest","bonus":0.02},{"rt":1417.300000000745,"stimulus":"\n                    <p><b>Action: <em>harvest</em></b></p>\n                    <p>This is the bee that you just saw.</p>\n                    <img src=\"bees-with-color/bee-A1DM.svg\" width=\"200\">\n                    <p><span class=\"greenText\"><b>Successful harvest!</b></span><br>Your pay has increased by $0.02. Your bonus pay is now $0.24.</p>\n            ","response":0,"trial_type":"html-button-response","trial_index":56,"time_elapsed":276973,"internal_node_id":"0.0-4.0-1.24","subject_id":"5f20247996215b06459cdfff","study_id":"6197b3f67c2b5cd3b6d9596a","session_id":"6197b88aef9aedd2b8ac1a05","condition":"full-information","relevant_dimensions":["antennae","pattern"],"bee_group":{"antennae":"B","wings":"X","pattern":"S","legs":"X"},"bonus":0.02},{"rt":2963.5,"stimulus":"bees-with-color/bee-A1SF.svg","response":0,"trial_type":"image-button-response","trial_index":57,"time_elapsed":279940,"internal_node_id":"0.0-4.0-0.25","subject_id":"5f20247996215b06459cdfff","study_id":"6197b3f67c2b5cd3b6d9596a","session_id":"6197b88aef9aedd2b8ac1a05","condition":"full-information","relevant_dimensions":["antennae","pattern"],"bee_group":{"antennae":"B","wings":"X","pattern":"S","legs":"X"},"action":"harvest","summary":"good-harvest","bonus":0.02},{"rt":1137.2999999970198,"stimulus":"\n                    <p><b>Action: <em>harvest</em></b></p>\n                    <p>This is the bee that you just saw.</p>\n                    <img src=\"bees-with-color/bee-A1SF.svg\" width=\"200\">\n                    <p><span class=\"greenText\"><b>Successful harvest!</b></span><br>Your pay has increased by $0.02. Your bonus pay is now $0.26.</p>\n            ","response":0,"trial_type":"html-button-response","trial_index":58,"time_elapsed":281080,"internal_node_id":"0.0-4.0-1.25","subject_id":"5f20247996215b06459cdfff","study_id":"6197b3f67c2b5cd3b6d9596a","session_id":"6197b88aef9aedd2b8ac1a05","condition":"full-information","relevant_dimensions":["antennae","pattern"],"bee_group":{"antennae":"B","wings":"X","pattern":"S","legs":"X"},"bonus":0.02},{"rt":2993.5,"stimulus":"bees-with-color/bee-B2DM.svg","response":1,"trial_type":"image-button-response","trial_index":59,"time_elapsed":284078,"internal_node_id":"0.0-4.0-0.26","subject_id":"5f20247996215b06459cdfff","study_id":"6197b3f67c2b5cd3b6d9596a","session_id":"6197b88aef9aedd2b8ac1a05","condition":"full-information","relevant_dimensions":["antennae","pattern"],"bee_group":{"antennae":"B","wings":"X","pattern":"S","legs":"X"},"action":"avoid","summary":"bad-avoid","bonus":0.02},{"rt":2497,"stimulus":"\n                    <p><b>Action: <em>avoid</em></b></p>\n                    <p>This is the bee that you just saw.</p>\n                    <img src=\"bees-with-color/bee-B2DM.svg\" width=\"200\">\n                    <p><span class=\"redText\">Bad choice,</span> the bee was friendly.<br>Your bonus pay is unchanged, and remains at $0.26.</p>\n            ","response":0,"trial_type":"html-button-response","trial_index":60,"time_elapsed":286578,"internal_node_id":"0.0-4.0-1.26","subject_id":"5f20247996215b06459cdfff","study_id":"6197b3f67c2b5cd3b6d9596a","session_id":"6197b88aef9aedd2b8ac1a05","condition":"full-information","relevant_dimensions":["antennae","pattern"],"bee_group":{"antennae":"B","wings":"X","pattern":"S","legs":"X"},"bonus":0.02},{"rt":1737.7000000029802,"stimulus":"bees-with-color/bee-B1DM.svg","response":1,"trial_type":"image-button-response","trial_index":61,"time_elapsed":288320,"internal_node_id":"0.0-4.0-0.27","subject_id":"5f20247996215b06459cdfff","study_id":"6197b3f67c2b5cd3b6d9596a","session_id":"6197b88aef9aedd2b8ac1a05","condition":"full-information","relevant_dimensions":["antennae","pattern"],"bee_group":{"antennae":"B","wings":"X","pattern":"S","legs":"X"},"action":"avoid","summary":"bad-avoid","bonus":0.02},{"rt":1483.7999999970198,"stimulus":"\n                    <p><b>Action: <em>avoid</em></b></p>\n                    <p>This is the bee that you just saw.</p>\n                    <img src=\"bees-with-color/bee-B1DM.svg\" width=\"200\">\n                    <p><span class=\"redText\">Bad choice,</span> the bee was friendly.<br>Your bonus pay is unchanged, and remains at $0.26.</p>\n            ","response":0,"trial_type":"html-button-response","trial_index":62,"time_elapsed":289807,"internal_node_id":"0.0-4.0-1.27","subject_id":"5f20247996215b06459cdfff","study_id":"6197b3f67c2b5cd3b6d9596a","session_id":"6197b88aef9aedd2b8ac1a05","condition":"full-information","relevant_dimensions":["antennae","pattern"],"bee_group":{"antennae":"B","wings":"X","pattern":"S","legs":"X"},"bonus":0.02},{"rt":2212.599999997765,"stimulus":"bees-with-color/bee-B1DF.svg","response":0,"trial_type":"image-button-response","trial_index":63,"time_elapsed":292022,"internal_node_id":"0.0-4.0-0.28","subject_id":"5f20247996215b06459cdfff","study_id":"6197b3f67c2b5cd3b6d9596a","session_id":"6197b88aef9aedd2b8ac1a05","condition":"full-information","relevant_dimensions":["antennae","pattern"],"bee_group":{"antennae":"B","wings":"X","pattern":"S","legs":"X"},"action":"harvest","summary":"good-harvest","bonus":0.02},{"rt":1610.1000000014901,"stimulus":"\n                    <p><b>Action: <em>harvest</em></b></p>\n                    <p>This is the bee that you just saw.</p>\n                    <img src=\"bees-with-color/bee-B1DF.svg\" width=\"200\">\n                    <p><span class=\"greenText\"><b>Successful harvest!</b></span><br>Your pay has increased by $0.02. Your bonus pay is now $0.28.</p>\n            ","response":0,"trial_type":"html-button-response","trial_index":64,"time_elapsed":293635,"internal_node_id":"0.0-4.0-1.28","subject_id":"5f20247996215b06459cdfff","study_id":"6197b3f67c2b5cd3b6d9596a","session_id":"6197b88aef9aedd2b8ac1a05","condition":"full-information","relevant_dimensions":["antennae","pattern"],"bee_group":{"antennae":"B","wings":"X","pattern":"S","legs":"X"},"bonus":0.02},{"rt":1968.300000000745,"stimulus":"bees-with-color/bee-A2SM.svg","response":0,"trial_type":"image-button-response","trial_index":65,"time_elapsed":295607,"internal_node_id":"0.0-4.0-0.29","subject_id":"5f20247996215b06459cdfff","study_id":"6197b3f67c2b5cd3b6d9596a","session_id":"6197b88aef9aedd2b8ac1a05","condition":"full-information","relevant_dimensions":["antennae","pattern"],"bee_group":{"antennae":"B","wings":"X","pattern":"S","legs":"X"},"action":"harvest","summary":"good-harvest","bonus":0.02},{"rt":2564.39999999851,"stimulus":"\n                    <p><b>Action: <em>harvest</em></b></p>\n                    <p>This is the bee that you just saw.</p>\n                    <img src=\"bees-with-color/bee-A2SM.svg\" width=\"200\">\n                    <p><span class=\"greenText\"><b>Successful harvest!</b></span><br>Your pay has increased by $0.02. Your bonus pay is now $0.30.</p>\n            ","response":0,"trial_type":"html-button-response","trial_index":66,"time_elapsed":298174,"internal_node_id":"0.0-4.0-1.29","subject_id":"5f20247996215b06459cdfff","study_id":"6197b3f67c2b5cd3b6d9596a","session_id":"6197b88aef9aedd2b8ac1a05","condition":"full-information","relevant_dimensions":["antennae","pattern"],"bee_group":{"antennae":"B","wings":"X","pattern":"S","legs":"X"},"bonus":0.02},{"rt":1711.6000000014901,"stimulus":"bees-with-color/bee-B1SM.svg","response":1,"trial_type":"image-button-response","trial_index":67,"time_elapsed":299889,"internal_node_id":"0.0-4.0-0.30","subject_id":"5f20247996215b06459cdfff","study_id":"6197b3f67c2b5cd3b6d9596a","session_id":"6197b88aef9aedd2b8ac1a05","condition":"full-information","relevant_dimensions":["antennae","pattern"],"bee_group":{"antennae":"B","wings":"X","pattern":"S","legs":"X"},"action":"avoid","summary":"good-avoid","bonus":0.02},{"rt":3419.199999999255,"stimulus":"\n                    <p><b>Action: <em>avoid</em></b></p>\n                    <p>This is the bee that you just saw.</p>\n                    <img src=\"bees-with-color/bee-B1SM.svg\" width=\"200\">\n                    <p><span class=\"greenText\">Good choice!</span>  This bee would have stung you.<br>Your bonus pay is unchanged, and remains at $0.30.</p>\n            ","response":0,"trial_type":"html-button-response","trial_index":68,"time_elapsed":303311,"internal_node_id":"0.0-4.0-1.30","subject_id":"5f20247996215b06459cdfff","study_id":"6197b3f67c2b5cd3b6d9596a","session_id":"6197b88aef9aedd2b8ac1a05","condition":"full-information","relevant_dimensions":["antennae","pattern"],"bee_group":{"antennae":"B","wings":"X","pattern":"S","legs":"X"},"bonus":0.02},{"rt":1633.6000000014901,"stimulus":"bees-with-color/bee-B2SF.svg","response":0,"trial_type":"image-button-response","trial_index":69,"time_elapsed":304949,"internal_node_id":"0.0-4.0-0.31","subject_id":"5f20247996215b06459cdfff","study_id":"6197b3f67c2b5cd3b6d9596a","session_id":"6197b88aef9aedd2b8ac1a05","condition":"full-information","relevant_dimensions":["antennae","pattern"],"bee_group":{"antennae":"B","wings":"X","pattern":"S","legs":"X"},"action":"harvest","summary":"bad-harvest","bonus":0.02},{"rt":1971.7999999970198,"stimulus":"\n                    <p><b>Action: <em>harvest</em></b></p>\n                    <p>This is the bee that you just saw.</p>\n                    <img src=\"bees-with-color/bee-B2SF.svg\" width=\"200\">\n                    <p><span class=\"redText\">Bad choice, the bee was angry.</span><br><b>You have been stung!</b><br>Your pay has been decreased by $0.10. Your bonus pay is now $0.20.</p>\n            ","response":0,"trial_type":"html-button-response","trial_index":70,"time_elapsed":306924,"internal_node_id":"0.0-4.0-1.31","subject_id":"5f20247996215b06459cdfff","study_id":"6197b3f67c2b5cd3b6d9596a","session_id":"6197b88aef9aedd2b8ac1a05","condition":"full-information","relevant_dimensions":["antennae","pattern"],"bee_group":{"antennae":"B","wings":"X","pattern":"S","legs":"X"},"bonus":0.02},{"rt":2017.699999999255,"stimulus":"bees-with-color/bee-A2SM.svg","response":0,"trial_type":"image-button-response","trial_index":71,"time_elapsed":308945,"internal_node_id":"0.0-4.0-0.32","subject_id":"5f20247996215b06459cdfff","study_id":"6197b3f67c2b5cd3b6d9596a","session_id":"6197b88aef9aedd2b8ac1a05","condition":"full-information","relevant_dimensions":["antennae","pattern"],"bee_group":{"antennae":"B","wings":"X","pattern":"S","legs":"X"},"action":"harvest","summary":"good-harvest","bonus":0.02},{"rt":1445.6000000014901,"stimulus":"\n                    <p><b>Action: <em>harvest</em></b></p>\n                    <p>This is the bee that you just saw.</p>\n                    <img src=\"bees-with-color/bee-A2SM.svg\" width=\"200\">\n                    <p><span class=\"greenText\"><b>Successful harvest!</b></span><br>Your pay has increased by $0.02. Your bonus pay is now $0.22.</p>\n            ","response":0,"trial_type":"html-button-response","trial_index":72,"time_elapsed":310393,"internal_node_id":"0.0-4.0-1.32","subject_id":"5f20247996215b06459cdfff","study_id":"6197b3f67c2b5cd3b6d9596a","session_id":"6197b88aef9aedd2b8ac1a05","condition":"full-information","relevant_dimensions":["antennae","pattern"],"bee_group":{"antennae":"B","wings":"X","pattern":"S","legs":"X"},"bonus":0.02},{"rt":2094.699999999255,"stimulus":"bees-with-color/bee-A1SM.svg","response":0,"trial_type":"image-button-response","trial_index":73,"time_elapsed":312490,"internal_node_id":"0.0-4.0-0.33","subject_id":"5f20247996215b06459cdfff","study_id":"6197b3f67c2b5cd3b6d9596a","session_id":"6197b88aef9aedd2b8ac1a05","condition":"full-information","relevant_dimensions":["antennae","pattern"],"bee_group":{"antennae":"B","wings":"X","pattern":"S","legs":"X"},"action":"harvest","summary":"good-harvest","bonus":0.02},{"rt":1972.7999999970198,"stimulus":"\n                    <p><b>Action: <em>harvest</em></b></p>\n                    <p>This is the bee that you just saw.</p>\n                    <img src=\"bees-with-color/bee-A1SM.svg\" width=\"200\">\n                    <p><span class=\"greenText\"><b>Successful harvest!</b></span><br>Your pay has increased by $0.02. Your bonus pay is now $0.24.</p>\n            ","response":0,"trial_type":"html-button-response","trial_index":74,"time_elapsed":314465,"internal_node_id":"0.0-4.0-1.33","subject_id":"5f20247996215b06459cdfff","study_id":"6197b3f67c2b5cd3b6d9596a","session_id":"6197b88aef9aedd2b8ac1a05","condition":"full-information","relevant_dimensions":["antennae","pattern"],"bee_group":{"antennae":"B","wings":"X","pattern":"S","legs":"X"},"bonus":0.02},{"rt":3929,"stimulus":"bees-with-color/bee-B1SF.svg","response":0,"trial_type":"image-button-response","trial_index":75,"time_elapsed":318397,"internal_node_id":"0.0-4.0-0.34","subject_id":"5f20247996215b06459cdfff","study_id":"6197b3f67c2b5cd3b6d9596a","session_id":"6197b88aef9aedd2b8ac1a05","condition":"full-information","relevant_dimensions":["antennae","pattern"],"bee_group":{"antennae":"B","wings":"X","pattern":"S","legs":"X"},"action":"harvest","summary":"bad-harvest","bonus":0.02},{"rt":2097.099999997765,"stimulus":"\n                    <p><b>Action: <em>harvest</em></b></p>\n                    <p>This is the bee that you just saw.</p>\n                    <img src=\"bees-with-color/bee-B1SF.svg\" width=\"200\">\n                    <p><span class=\"redText\">Bad choice, the bee was angry.</span><br><b>You have been stung!</b><br>Your pay has been decreased by $0.10. Your bonus pay is now $0.14.</p>\n            ","response":0,"trial_type":"html-button-response","trial_index":76,"time_elapsed":320496,"internal_node_id":"0.0-4.0-1.34","subject_id":"5f20247996215b06459cdfff","study_id":"6197b3f67c2b5cd3b6d9596a","session_id":"6197b88aef9aedd2b8ac1a05","condition":"full-information","relevant_dimensions":["antennae","pattern"],"bee_group":{"antennae":"B","wings":"X","pattern":"S","legs":"X"},"bonus":0.02},{"rt":4658.300000000745,"stimulus":"bees-with-color/bee-A2DF.svg","response":1,"trial_type":"image-button-response","trial_index":77,"time_elapsed":325157,"internal_node_id":"0.0-4.0-0.35","subject_id":"5f20247996215b06459cdfff","study_id":"6197b3f67c2b5cd3b6d9596a","session_id":"6197b88aef9aedd2b8ac1a05","condition":"full-information","relevant_dimensions":["antennae","pattern"],"bee_group":{"antennae":"B","wings":"X","pattern":"S","legs":"X"},"action":"avoid","summary":"bad-avoid","bonus":0.02},{"rt":2103,"stimulus":"\n                    <p><b>Action: <em>avoid</em></b></p>\n                    <p>This is the bee that you just saw.</p>\n                    <img src=\"bees-with-color/bee-A2DF.svg\" width=\"200\">\n                    <p><span class=\"redText\">Bad choice,</span> the bee was friendly.<br>Your bonus pay is unchanged, and remains at $0.14.</p>\n            ","response":0,"trial_type":"html-button-response","trial_index":78,"time_elapsed":327263,"internal_node_id":"0.0-4.0-1.35","subject_id":"5f20247996215b06459cdfff","study_id":"6197b3f67c2b5cd3b6d9596a","session_id":"6197b88aef9aedd2b8ac1a05","condition":"full-information","relevant_dimensions":["antennae","pattern"],"bee_group":{"antennae":"B","wings":"X","pattern":"S","legs":"X"},"bonus":0.02},{"rt":1676.5,"stimulus":"bees-with-color/bee-A2SF.svg","response":0,"trial_type":"image-button-response","trial_index":79,"time_elapsed":328942,"internal_node_id":"0.0-4.0-0.36","subject_id":"5f20247996215b06459cdfff","study_id":"6197b3f67c2b5cd3b6d9596a","session_id":"6197b88aef9aedd2b8ac1a05","condition":"full-information","relevant_dimensions":["antennae","pattern"],"bee_group":{"antennae":"B","wings":"X","pattern":"S","legs":"X"},"action":"harvest","summary":"good-harvest","bonus":0.02},{"rt":1604.800000000745,"stimulus":"\n                    <p><b>Action: <em>harvest</em></b></p>\n                    <p>This is the bee that you just saw.</p>\n                    <img src=\"bees-with-color/bee-A2SF.svg\" width=\"200\">\n                    <p><span class=\"greenText\"><b>Successful harvest!</b></span><br>Your pay has increased by $0.02. Your bonus pay is now $0.16.</p>\n            ","response":0,"trial_type":"html-button-response","trial_index":80,"time_elapsed":330550,"internal_node_id":"0.0-4.0-1.36","subject_id":"5f20247996215b06459cdfff","study_id":"6197b3f67c2b5cd3b6d9596a","session_id":"6197b88aef9aedd2b8ac1a05","condition":"full-information","relevant_dimensions":["antennae","pattern"],"bee_group":{"antennae":"B","wings":"X","pattern":"S","legs":"X"},"bonus":0.02},{"rt":1656.199999999255,"stimulus":"bees-with-color/bee-B1DF.svg","response":1,"trial_type":"image-button-response","trial_index":81,"time_elapsed":332208,"internal_node_id":"0.0-4.0-0.37","subject_id":"5f20247996215b06459cdfff","study_id":"6197b3f67c2b5cd3b6d9596a","session_id":"6197b88aef9aedd2b8ac1a05","condition":"full-information","relevant_dimensions":["antennae","pattern"],"bee_group":{"antennae":"B","wings":"X","pattern":"S","legs":"X"},"action":"avoid","summary":"bad-avoid","bonus":0.02},{"rt":2684,"stimulus":"\n                    <p><b>Action: <em>avoid</em></b></p>\n                    <p>This is the bee that you just saw.</p>\n                    <img src=\"bees-with-color/bee-B1DF.svg\" width=\"200\">\n                    <p><span class=\"redText\">Bad choice,</span> the bee was friendly.<br>Your bonus pay is unchanged, and remains at $0.16.</p>\n            ","response":0,"trial_type":"html-button-response","trial_index":82,"time_elapsed":334895,"internal_node_id":"0.0-4.0-1.37","subject_id":"5f20247996215b06459cdfff","study_id":"6197b3f67c2b5cd3b6d9596a","session_id":"6197b88aef9aedd2b8ac1a05","condition":"full-information","relevant_dimensions":["antennae","pattern"],"bee_group":{"antennae":"B","wings":"X","pattern":"S","legs":"X"},"bonus":0.02},{"rt":1600.4000000022352,"stimulus":"bees-with-color/bee-B2DM.svg","response":0,"trial_type":"image-button-response","trial_index":83,"time_elapsed":336498,"internal_node_id":"0.0-4.0-0.38","subject_id":"5f20247996215b06459cdfff","study_id":"6197b3f67c2b5cd3b6d9596a","session_id":"6197b88aef9aedd2b8ac1a05","condition":"full-information","relevant_dimensions":["antennae","pattern"],"bee_group":{"antennae":"B","wings":"X","pattern":"S","legs":"X"},"action":"harvest","summary":"good-harvest","bonus":0.02},{"rt":2047.1000000014901,"stimulus":"\n                    <p><b>Action: <em>harvest</em></b></p>\n                    <p>This is the bee that you just saw.</p>\n                    <img src=\"bees-with-color/bee-B2DM.svg\" width=\"200\">\n                    <p><span class=\"greenText\"><b>Successful harvest!</b></span><br>Your pay has increased by $0.02. Your bonus pay is now $0.18.</p>\n            ","response":0,"trial_type":"html-button-response","trial_index":84,"time_elapsed":338547,"internal_node_id":"0.0-4.0-1.38","subject_id":"5f20247996215b06459cdfff","study_id":"6197b3f67c2b5cd3b6d9596a","session_id":"6197b88aef9aedd2b8ac1a05","condition":"full-information","relevant_dimensions":["antennae","pattern"],"bee_group":{"antennae":"B","wings":"X","pattern":"S","legs":"X"},"bonus":0.02},{"rt":2227.800000000745,"stimulus":"bees-with-color/bee-B1SM.svg","response":1,"trial_type":"image-button-response","trial_index":85,"time_elapsed":340777,"internal_node_id":"0.0-4.0-0.39","subject_id":"5f20247996215b06459cdfff","study_id":"6197b3f67c2b5cd3b6d9596a","session_id":"6197b88aef9aedd2b8ac1a05","condition":"full-information","relevant_dimensions":["antennae","pattern"],"bee_group":{"antennae":"B","wings":"X","pattern":"S","legs":"X"},"action":"avoid","summary":"good-avoid","bonus":0.02},{"rt":4602.900000002235,"stimulus":"\n                    <p><b>Action: <em>avoid</em></b></p>\n                    <p>This is the bee that you just saw.</p>\n                    <img src=\"bees-with-color/bee-B1SM.svg\" width=\"200\">\n                    <p><span class=\"greenText\">Good choice!</span>  This bee would have stung you.<br>Your bonus pay is unchanged, and remains at $0.18.</p>\n            ","response":0,"trial_type":"html-button-response","trial_index":86,"time_elapsed":345383,"internal_node_id":"0.0-4.0-1.39","subject_id":"5f20247996215b06459cdfff","study_id":"6197b3f67c2b5cd3b6d9596a","session_id":"6197b88aef9aedd2b8ac1a05","condition":"full-information","relevant_dimensions":["antennae","pattern"],"bee_group":{"antennae":"B","wings":"X","pattern":"S","legs":"X"},"bonus":0.02},{"rt":1319.3999999985099,"stimulus":"bees-with-color/bee-B2SM.svg","response":0,"trial_type":"image-button-response","trial_index":87,"time_elapsed":346705,"internal_node_id":"0.0-4.0-0.40","subject_id":"5f20247996215b06459cdfff","study_id":"6197b3f67c2b5cd3b6d9596a","session_id":"6197b88aef9aedd2b8ac1a05","condition":"full-information","relevant_dimensions":["antennae","pattern"],"bee_group":{"antennae":"B","wings":"X","pattern":"S","legs":"X"},"action":"harvest","summary":"bad-harvest","bonus":0.02},{"rt":2458,"stimulus":"\n                    <p><b>Action: <em>harvest</em></b></p>\n                    <p>This is the bee that you just saw.</p>\n                    <img src=\"bees-with-color/bee-B2SM.svg\" width=\"200\">\n                    <p><span class=\"redText\">Bad choice, the bee was angry.</span><br><b>You have been stung!</b><br>Your pay has been decreased by $0.10. Your bonus pay is now $0.08.</p>\n            ","response":0,"trial_type":"html-button-response","trial_index":88,"time_elapsed":349166,"internal_node_id":"0.0-4.0-1.40","subject_id":"5f20247996215b06459cdfff","study_id":"6197b3f67c2b5cd3b6d9596a","session_id":"6197b88aef9aedd2b8ac1a05","condition":"full-information","relevant_dimensions":["antennae","pattern"],"bee_group":{"antennae":"B","wings":"X","pattern":"S","legs":"X"},"bonus":0.02},{"rt":2682.800000000745,"stimulus":"bees-with-color/bee-A1DF.svg","response":1,"trial_type":"image-button-response","trial_index":89,"time_elapsed":351852,"internal_node_id":"0.0-4.0-0.41","subject_id":"5f20247996215b06459cdfff","study_id":"6197b3f67c2b5cd3b6d9596a","session_id":"6197b88aef9aedd2b8ac1a05","condition":"full-information","relevant_dimensions":["antennae","pattern"],"bee_group":{"antennae":"B","wings":"X","pattern":"S","legs":"X"},"action":"avoid","summary":"bad-avoid","bonus":0.02},{"rt":2608.800000000745,"stimulus":"\n                    <p><b>Action: <em>avoid</em></b></p>\n                    <p>This is the bee that you just saw.</p>\n                    <img src=\"bees-with-color/bee-A1DF.svg\" width=\"200\">\n                    <p><span class=\"redText\">Bad choice,</span> the bee was friendly.<br>Your bonus pay is unchanged, and remains at $0.08.</p>\n            ","response":0,"trial_type":"html-button-response","trial_index":90,"time_elapsed":354459,"internal_node_id":"0.0-4.0-1.41","subject_id":"5f20247996215b06459cdfff","study_id":"6197b3f67c2b5cd3b6d9596a","session_id":"6197b88aef9aedd2b8ac1a05","condition":"full-information","relevant_dimensions":["antennae","pattern"],"bee_group":{"antennae":"B","wings":"X","pattern":"S","legs":"X"},"bonus":0.02},{"rt":1701.300000000745,"stimulus":"bees-with-color/bee-A2DM.svg","response":0,"trial_type":"image-button-response","trial_index":91,"time_elapsed":356164,"internal_node_id":"0.0-4.0-0.42","subject_id":"5f20247996215b06459cdfff","study_id":"6197b3f67c2b5cd3b6d9596a","session_id":"6197b88aef9aedd2b8ac1a05","condition":"full-information","relevant_dimensions":["antennae","pattern"],"bee_group":{"antennae":"B","wings":"X","pattern":"S","legs":"X"},"action":"harvest","summary":"good-harvest","bonus":0.02},{"rt":1934.199999999255,"stimulus":"\n                    <p><b>Action: <em>harvest</em></b></p>\n                    <p>This is the bee that you just saw.</p>\n                    <img src=\"bees-with-color/bee-A2DM.svg\" width=\"200\">\n                    <p><span class=\"greenText\"><b>Successful harvest!</b></span><br>Your pay has increased by $0.02. Your bonus pay is now $0.10.</p>\n            ","response":0,"trial_type":"html-button-response","trial_index":92,"time_elapsed":358101,"internal_node_id":"0.0-4.0-1.42","subject_id":"5f20247996215b06459cdfff","study_id":"6197b3f67c2b5cd3b6d9596a","session_id":"6197b88aef9aedd2b8ac1a05","condition":"full-information","relevant_dimensions":["antennae","pattern"],"bee_group":{"antennae":"B","wings":"X","pattern":"S","legs":"X"},"bonus":0.02},{"rt":5249.89999999851,"stimulus":"bees-with-color/bee-A1DM.svg","response":1,"trial_type":"image-button-response","trial_index":93,"time_elapsed":363354,"internal_node_id":"0.0-4.0-0.43","subject_id":"5f20247996215b06459cdfff","study_id":"6197b3f67c2b5cd3b6d9596a","session_id":"6197b88aef9aedd2b8ac1a05","condition":"full-information","relevant_dimensions":["antennae","pattern"],"bee_group":{"antennae":"B","wings":"X","pattern":"S","legs":"X"},"action":"avoid","summary":"bad-avoid","bonus":0.02},{"rt":1555.5,"stimulus":"\n                    <p><b>Action: <em>avoid</em></b></p>\n                    <p>This is the bee that you just saw.</p>\n                    <img src=\"bees-with-color/bee-A1DM.svg\" width=\"200\">\n                    <p><span class=\"redText\">Bad choice,</span> the bee was friendly.<br>Your bonus pay is unchanged, and remains at $0.10.</p>\n            ","response":0,"trial_type":"html-button-response","trial_index":94,"time_elapsed":364912,"internal_node_id":"0.0-4.0-1.43","subject_id":"5f20247996215b06459cdfff","study_id":"6197b3f67c2b5cd3b6d9596a","session_id":"6197b88aef9aedd2b8ac1a05","condition":"full-information","relevant_dimensions":["antennae","pattern"],"bee_group":{"antennae":"B","wings":"X","pattern":"S","legs":"X"},"bonus":0.02},{"rt":1407.199999999255,"stimulus":"bees-with-color/bee-A1SF.svg","response":1,"trial_type":"image-button-response","trial_index":95,"time_elapsed":366323,"internal_node_id":"0.0-4.0-0.44","subject_id":"5f20247996215b06459cdfff","study_id":"6197b3f67c2b5cd3b6d9596a","session_id":"6197b88aef9aedd2b8ac1a05","condition":"full-information","relevant_dimensions":["antennae","pattern"],"bee_group":{"antennae":"B","wings":"X","pattern":"S","legs":"X"},"action":"avoid","summary":"bad-avoid","bonus":0.02},{"rt":2386,"stimulus":"\n                    <p><b>Action: <em>avoid</em></b></p>\n                    <p>This is the bee that you just saw.</p>\n                    <img src=\"bees-with-color/bee-A1SF.svg\" width=\"200\">\n                    <p><span class=\"redText\">Bad choice,</span> the bee was friendly.<br>Your bonus pay is unchanged, and remains at $0.10.</p>\n            ","response":0,"trial_type":"html-button-response","trial_index":96,"time_elapsed":368712,"internal_node_id":"0.0-4.0-1.44","subject_id":"5f20247996215b06459cdfff","study_id":"6197b3f67c2b5cd3b6d9596a","session_id":"6197b88aef9aedd2b8ac1a05","condition":"full-information","relevant_dimensions":["antennae","pattern"],"bee_group":{"antennae":"B","wings":"X","pattern":"S","legs":"X"},"bonus":0.02},{"rt":3768.199999999255,"stimulus":"bees-with-color/bee-B2SF.svg","response":1,"trial_type":"image-button-response","trial_index":97,"time_elapsed":372483,"internal_node_id":"0.0-4.0-0.45","subject_id":"5f20247996215b06459cdfff","study_id":"6197b3f67c2b5cd3b6d9596a","session_id":"6197b88aef9aedd2b8ac1a05","condition":"full-information","relevant_dimensions":["antennae","pattern"],"bee_group":{"antennae":"B","wings":"X","pattern":"S","legs":"X"},"action":"avoid","summary":"good-avoid","bonus":0.02},{"rt":1655.800000000745,"stimulus":"\n                    <p><b>Action: <em>avoid</em></b></p>\n                    <p>This is the bee that you just saw.</p>\n                    <img src=\"bees-with-color/bee-B2SF.svg\" width=\"200\">\n                    <p><span class=\"greenText\">Good choice!</span>  This bee would have stung you.<br>Your bonus pay is unchanged, and remains at $0.10.</p>\n            ","response":0,"trial_type":"html-button-response","trial_index":98,"time_elapsed":374141,"internal_node_id":"0.0-4.0-1.45","subject_id":"5f20247996215b06459cdfff","study_id":"6197b3f67c2b5cd3b6d9596a","session_id":"6197b88aef9aedd2b8ac1a05","condition":"full-information","relevant_dimensions":["antennae","pattern"],"bee_group":{"antennae":"B","wings":"X","pattern":"S","legs":"X"},"bonus":0.02},{"rt":1526.5,"stimulus":"bees-with-color/bee-B1DM.svg","response":0,"trial_type":"image-button-response","trial_index":99,"time_elapsed":375671,"internal_node_id":"0.0-4.0-0.46","subject_id":"5f20247996215b06459cdfff","study_id":"6197b3f67c2b5cd3b6d9596a","session_id":"6197b88aef9aedd2b8ac1a05","condition":"full-information","relevant_dimensions":["antennae","pattern"],"bee_group":{"antennae":"B","wings":"X","pattern":"S","legs":"X"},"action":"harvest","summary":"good-harvest","bonus":0.02},{"rt":1571.8999999985099,"stimulus":"\n                    <p><b>Action: <em>harvest</em></b></p>\n                    <p>This is the bee that you just saw.</p>\n                    <img src=\"bees-with-color/bee-B1DM.svg\" width=\"200\">\n                    <p><span class=\"greenText\"><b>Successful harvest!</b></span><br>Your pay has increased by $0.02. Your bonus pay is now $0.12.</p>\n            ","response":0,"trial_type":"html-button-response","trial_index":100,"time_elapsed":377246,"internal_node_id":"0.0-4.0-1.46","subject_id":"5f20247996215b06459cdfff","study_id":"6197b3f67c2b5cd3b6d9596a","session_id":"6197b88aef9aedd2b8ac1a05","condition":"full-information","relevant_dimensions":["antennae","pattern"],"bee_group":{"antennae":"B","wings":"X","pattern":"S","legs":"X"},"bonus":0.02},{"rt":1603.8999999985099,"stimulus":"bees-with-color/bee-B2DF.svg","response":1,"trial_type":"image-button-response","trial_index":101,"time_elapsed":378853,"internal_node_id":"0.0-4.0-0.47","subject_id":"5f20247996215b06459cdfff","study_id":"6197b3f67c2b5cd3b6d9596a","session_id":"6197b88aef9aedd2b8ac1a05","condition":"full-information","relevant_dimensions":["antennae","pattern"],"bee_group":{"antennae":"B","wings":"X","pattern":"S","legs":"X"},"action":"avoid","summary":"bad-avoid","bonus":0.02},{"rt":2030,"stimulus":"\n                    <p><b>Action: <em>avoid</em></b></p>\n                    <p>This is the bee that you just saw.</p>\n                    <img src=\"bees-with-color/bee-B2DF.svg\" width=\"200\">\n                    <p><span class=\"redText\">Bad choice,</span> the bee was friendly.<br>Your bonus pay is unchanged, and remains at $0.12.</p>\n            ","response":0,"trial_type":"html-button-response","trial_index":102,"time_elapsed":380886,"internal_node_id":"0.0-4.0-1.47","subject_id":"5f20247996215b06459cdfff","study_id":"6197b3f67c2b5cd3b6d9596a","session_id":"6197b88aef9aedd2b8ac1a05","condition":"full-information","relevant_dimensions":["antennae","pattern"],"bee_group":{"antennae":"B","wings":"X","pattern":"S","legs":"X"},"bonus":0.02},{"rt":1881.4000000022352,"stimulus":"bees-with-color/bee-A1DF.svg","response":1,"trial_type":"image-button-response","trial_index":103,"time_elapsed":382770,"internal_node_id":"0.0-4.0-0.48","subject_id":"5f20247996215b06459cdfff","study_id":"6197b3f67c2b5cd3b6d9596a","session_id":"6197b88aef9aedd2b8ac1a05","condition":"full-information","relevant_dimensions":["antennae","pattern"],"bee_group":{"antennae":"B","wings":"X","pattern":"S","legs":"X"},"action":"avoid","summary":"bad-avoid","bonus":0.02},{"rt":1293.0999999977648,"stimulus":"\n                    <p><b>Action: <em>avoid</em></b></p>\n                    <p>This is the bee that you just saw.</p>\n                    <img src=\"bees-with-color/bee-A1DF.svg\" width=\"200\">\n                    <p><span class=\"redText\">Bad choice,</span> the bee was friendly.<br>Your bonus pay is unchanged, and remains at $0.12.</p>\n            ","response":0,"trial_type":"html-button-response","trial_index":104,"time_elapsed":384066,"internal_node_id":"0.0-4.0-1.48","subject_id":"5f20247996215b06459cdfff","study_id":"6197b3f67c2b5cd3b6d9596a","session_id":"6197b88aef9aedd2b8ac1a05","condition":"full-information","relevant_dimensions":["antennae","pattern"],"bee_group":{"antennae":"B","wings":"X","pattern":"S","legs":"X"},"bonus":0.02},{"rt":1840.699999999255,"stimulus":"bees-with-color/bee-B1DM.svg","response":1,"trial_type":"image-button-response","trial_index":105,"time_elapsed":385910,"internal_node_id":"0.0-4.0-0.49","subject_id":"5f20247996215b06459cdfff","study_id":"6197b3f67c2b5cd3b6d9596a","session_id":"6197b88aef9aedd2b8ac1a05","condition":"full-information","relevant_dimensions":["antennae","pattern"],"bee_group":{"antennae":"B","wings":"X","pattern":"S","legs":"X"},"action":"avoid","summary":"bad-avoid","bonus":0.02},{"rt":1254,"stimulus":"\n                    <p><b>Action: <em>avoid</em></b></p>\n                    <p>This is the bee that you just saw.</p>\n                    <img src=\"bees-with-color/bee-B1DM.svg\" width=\"200\">\n                    <p><span class=\"redText\">Bad choice,</span> the bee was friendly.<br>Your bonus pay is unchanged, and remains at $0.12.</p>\n            ","response":0,"trial_type":"html-button-response","trial_index":106,"time_elapsed":387167,"internal_node_id":"0.0-4.0-1.49","subject_id":"5f20247996215b06459cdfff","study_id":"6197b3f67c2b5cd3b6d9596a","session_id":"6197b88aef9aedd2b8ac1a05","condition":"full-information","relevant_dimensions":["antennae","pattern"],"bee_group":{"antennae":"B","wings":"X","pattern":"S","legs":"X"},"bonus":0.02},{"rt":2082,"stimulus":"bees-with-color/bee-A2SF.svg","response":1,"trial_type":"image-button-response","trial_index":107,"time_elapsed":389251,"internal_node_id":"0.0-4.0-0.50","subject_id":"5f20247996215b06459cdfff","study_id":"6197b3f67c2b5cd3b6d9596a","session_id":"6197b88aef9aedd2b8ac1a05","condition":"full-information","relevant_dimensions":["antennae","pattern"],"bee_group":{"antennae":"B","wings":"X","pattern":"S","legs":"X"},"action":"avoid","summary":"bad-avoid","bonus":0.02},{"rt":1092.6000000014901,"stimulus":"\n                    <p><b>Action: <em>avoid</em></b></p>\n                    <p>This is the bee that you just saw.</p>\n                    <img src=\"bees-with-color/bee-A2SF.svg\" width=\"200\">\n                    <p><span class=\"redText\">Bad choice,</span> the bee was friendly.<br>Your bonus pay is unchanged, and remains at $0.12.</p>\n            ","response":0,"trial_type":"html-button-response","trial_index":108,"time_elapsed":390346,"internal_node_id":"0.0-4.0-1.50","subject_id":"5f20247996215b06459cdfff","study_id":"6197b3f67c2b5cd3b6d9596a","session_id":"6197b88aef9aedd2b8ac1a05","condition":"full-information","relevant_dimensions":["antennae","pattern"],"bee_group":{"antennae":"B","wings":"X","pattern":"S","legs":"X"},"bonus":0.02},{"rt":1658,"stimulus":"bees-with-color/bee-B2SM.svg","response":0,"trial_type":"image-button-response","trial_index":109,"time_elapsed":392007,"internal_node_id":"0.0-4.0-0.51","subject_id":"5f20247996215b06459cdfff","study_id":"6197b3f67c2b5cd3b6d9596a","session_id":"6197b88aef9aedd2b8ac1a05","condition":"full-information","relevant_dimensions":["antennae","pattern"],"bee_group":{"antennae":"B","wings":"X","pattern":"S","legs":"X"},"action":"harvest","summary":"bad-harvest","bonus":0.02},{"rt":1477.0999999977648,"stimulus":"\n                    <p><b>Action: <em>harvest</em></b></p>\n                    <p>This is the bee that you just saw.</p>\n                    <img src=\"bees-with-color/bee-B2SM.svg\" width=\"200\">\n                    <p><span class=\"redText\">Bad choice, the bee was angry.</span><br><b>You have been stung!</b><br>Your pay has been decreased by $0.10. Your bonus pay is now $0.02.</p>\n            ","response":0,"trial_type":"html-button-response","trial_index":110,"time_elapsed":393487,"internal_node_id":"0.0-4.0-1.51","subject_id":"5f20247996215b06459cdfff","study_id":"6197b3f67c2b5cd3b6d9596a","session_id":"6197b88aef9aedd2b8ac1a05","condition":"full-information","relevant_dimensions":["antennae","pattern"],"bee_group":{"antennae":"B","wings":"X","pattern":"S","legs":"X"},"bonus":0.02},{"rt":1602.8999999985099,"stimulus":"bees-with-color/bee-A1SF.svg","response":0,"trial_type":"image-button-response","trial_index":111,"time_elapsed":395093,"internal_node_id":"0.0-4.0-0.52","subject_id":"5f20247996215b06459cdfff","study_id":"6197b3f67c2b5cd3b6d9596a","session_id":"6197b88aef9aedd2b8ac1a05","condition":"full-information","relevant_dimensions":["antennae","pattern"],"bee_group":{"antennae":"B","wings":"X","pattern":"S","legs":"X"},"action":"harvest","summary":"good-harvest","bonus":0.02},{"rt":1565.5,"stimulus":"\n                    <p><b>Action: <em>harvest</em></b></p>\n                    <p>This is the bee that you just saw.</p>\n                    <img src=\"bees-with-color/bee-A1SF.svg\" width=\"200\">\n                    <p><span class=\"greenText\"><b>Successful harvest!</b></span><br>Your pay has increased by $0.02. Your bonus pay is now $0.04.</p>\n            ","response":0,"trial_type":"html-button-response","trial_index":112,"time_elapsed":396662,"internal_node_id":"0.0-4.0-1.52","subject_id":"5f20247996215b06459cdfff","study_id":"6197b3f67c2b5cd3b6d9596a","session_id":"6197b88aef9aedd2b8ac1a05","condition":"full-information","relevant_dimensions":["antennae","pattern"],"bee_group":{"antennae":"B","wings":"X","pattern":"S","legs":"X"},"bonus":0.02},{"rt":1487.4000000022352,"stimulus":"bees-with-color/bee-B2SF.svg","response":1,"trial_type":"image-button-response","trial_index":113,"time_elapsed":398151,"internal_node_id":"0.0-4.0-0.53","subject_id":"5f20247996215b06459cdfff","study_id":"6197b3f67c2b5cd3b6d9596a","session_id":"6197b88aef9aedd2b8ac1a05","condition":"full-information","relevant_dimensions":["antennae","pattern"],"bee_group":{"antennae":"B","wings":"X","pattern":"S","legs":"X"},"action":"avoid","summary":"good-avoid","bonus":0.02},{"rt":1654.699999999255,"stimulus":"\n                    <p><b>Action: <em>avoid</em></b></p>\n                    <p>This is the bee that you just saw.</p>\n                    <img src=\"bees-with-color/bee-B2SF.svg\" width=\"200\">\n                    <p><span class=\"greenText\">Good choice!</span>  This bee would have stung you.<br>Your bonus pay is unchanged, and remains at $0.04.</p>\n            ","response":0,"trial_type":"html-button-response","trial_index":114,"time_elapsed":399808,"internal_node_id":"0.0-4.0-1.53","subject_id":"5f20247996215b06459cdfff","study_id":"6197b3f67c2b5cd3b6d9596a","session_id":"6197b88aef9aedd2b8ac1a05","condition":"full-information","relevant_dimensions":["antennae","pattern"],"bee_group":{"antennae":"B","wings":"X","pattern":"S","legs":"X"},"bonus":0.02},{"rt":1291.3999999985099,"stimulus":"bees-with-color/bee-B2DF.svg","response":0,"trial_type":"image-button-response","trial_index":115,"time_elapsed":401103,"internal_node_id":"0.0-4.0-0.54","subject_id":"5f20247996215b06459cdfff","study_id":"6197b3f67c2b5cd3b6d9596a","session_id":"6197b88aef9aedd2b8ac1a05","condition":"full-information","relevant_dimensions":["antennae","pattern"],"bee_group":{"antennae":"B","wings":"X","pattern":"S","legs":"X"},"action":"harvest","summary":"good-harvest","bonus":0.02},{"rt":1364.800000000745,"stimulus":"\n                    <p><b>Action: <em>harvest</em></b></p>\n                    <p>This is the bee that you just saw.</p>\n                    <img src=\"bees-with-color/bee-B2DF.svg\" width=\"200\">\n                    <p><span class=\"greenText\"><b>Successful harvest!</b></span><br>Your pay has increased by $0.02. Your bonus pay is now $0.06.</p>\n            ","response":0,"trial_type":"html-button-response","trial_index":116,"time_elapsed":402470,"internal_node_id":"0.0-4.0-1.54","subject_id":"5f20247996215b06459cdfff","study_id":"6197b3f67c2b5cd3b6d9596a","session_id":"6197b88aef9aedd2b8ac1a05","condition":"full-information","relevant_dimensions":["antennae","pattern"],"bee_group":{"antennae":"B","wings":"X","pattern":"S","legs":"X"},"bonus":0.02},{"rt":3195.099999997765,"stimulus":"bees-with-color/bee-A2DF.svg","response":0,"trial_type":"image-button-response","trial_index":117,"time_elapsed":405667,"internal_node_id":"0.0-4.0-0.55","subject_id":"5f20247996215b06459cdfff","study_id":"6197b3f67c2b5cd3b6d9596a","session_id":"6197b88aef9aedd2b8ac1a05","condition":"full-information","relevant_dimensions":["antennae","pattern"],"bee_group":{"antennae":"B","wings":"X","pattern":"S","legs":"X"},"action":"harvest","summary":"good-harvest","bonus":0.02},{"rt":1340.5999999977648,"stimulus":"\n                    <p><b>Action: <em>harvest</em></b></p>\n                    <p>This is the bee that you just saw.</p>\n                    <img src=\"bees-with-color/bee-A2DF.svg\" width=\"200\">\n                    <p><span class=\"greenText\"><b>Successful harvest!</b></span><br>Your pay has increased by $0.02. Your bonus pay is now $0.08.</p>\n            ","response":0,"trial_type":"html-button-response","trial_index":118,"time_elapsed":407010,"internal_node_id":"0.0-4.0-1.55","subject_id":"5f20247996215b06459cdfff","study_id":"6197b3f67c2b5cd3b6d9596a","session_id":"6197b88aef9aedd2b8ac1a05","condition":"full-information","relevant_dimensions":["antennae","pattern"],"bee_group":{"antennae":"B","wings":"X","pattern":"S","legs":"X"},"bonus":0.02},{"rt":1780.8999999985099,"stimulus":"bees-with-color/bee-B1SM.svg","response":1,"trial_type":"image-button-response","trial_index":119,"time_elapsed":408794,"internal_node_id":"0.0-4.0-0.56","subject_id":"5f20247996215b06459cdfff","study_id":"6197b3f67c2b5cd3b6d9596a","session_id":"6197b88aef9aedd2b8ac1a05","condition":"full-information","relevant_dimensions":["antennae","pattern"],"bee_group":{"antennae":"B","wings":"X","pattern":"S","legs":"X"},"action":"avoid","summary":"good-avoid","bonus":0.02},{"rt":1418.300000000745,"stimulus":"\n                    <p><b>Action: <em>avoid</em></b></p>\n                    <p>This is the bee that you just saw.</p>\n                    <img src=\"bees-with-color/bee-B1SM.svg\" width=\"200\">\n                    <p><span class=\"greenText\">Good choice!</span>  This bee would have stung you.<br>Your bonus pay is unchanged, and remains at $0.08.</p>\n            ","response":0,"trial_type":"html-button-response","trial_index":120,"time_elapsed":410214,"internal_node_id":"0.0-4.0-1.56","subject_id":"5f20247996215b06459cdfff","study_id":"6197b3f67c2b5cd3b6d9596a","session_id":"6197b88aef9aedd2b8ac1a05","condition":"full-information","relevant_dimensions":["antennae","pattern"],"bee_group":{"antennae":"B","wings":"X","pattern":"S","legs":"X"},"bonus":0.02},{"rt":1537.6000000014901,"stimulus":"bees-with-color/bee-A2SM.svg","response":1,"trial_type":"image-button-response","trial_index":121,"time_elapsed":411754,"internal_node_id":"0.0-4.0-0.57","subject_id":"5f20247996215b06459cdfff","study_id":"6197b3f67c2b5cd3b6d9596a","session_id":"6197b88aef9aedd2b8ac1a05","condition":"full-information","relevant_dimensions":["antennae","pattern"],"bee_group":{"antennae":"B","wings":"X","pattern":"S","legs":"X"},"action":"avoid","summary":"bad-avoid","bonus":0.02},{"rt":1564.5,"stimulus":"\n                    <p><b>Action: <em>avoid</em></b></p>\n                    <p>This is the bee that you just saw.</p>\n                    <img src=\"bees-with-color/bee-A2SM.svg\" width=\"200\">\n                    <p><span class=\"redText\">Bad choice,</span> the bee was friendly.<br>Your bonus pay is unchanged, and remains at $0.08.</p>\n            ","response":0,"trial_type":"html-button-response","trial_index":122,"time_elapsed":413324,"internal_node_id":"0.0-4.0-1.57","subject_id":"5f20247996215b06459cdfff","study_id":"6197b3f67c2b5cd3b6d9596a","session_id":"6197b88aef9aedd2b8ac1a05","condition":"full-information","relevant_dimensions":["antennae","pattern"],"bee_group":{"antennae":"B","wings":"X","pattern":"S","legs":"X"},"bonus":0.02},{"rt":1699.9000000022352,"stimulus":"bees-with-color/bee-A1DM.svg","response":0,"trial_type":"image-button-response","trial_index":123,"time_elapsed":415026,"internal_node_id":"0.0-4.0-0.58","subject_id":"5f20247996215b06459cdfff","study_id":"6197b3f67c2b5cd3b6d9596a","session_id":"6197b88aef9aedd2b8ac1a05","condition":"full-information","relevant_dimensions":["antennae","pattern"],"bee_group":{"antennae":"B","wings":"X","pattern":"S","legs":"X"},"action":"harvest","summary":"good-harvest","bonus":0.02},{"rt":1317.300000000745,"stimulus":"\n                    <p><b>Action: <em>harvest</em></b></p>\n                    <p>This is the bee that you just saw.</p>\n                    <img src=\"bees-with-color/bee-A1DM.svg\" width=\"200\">\n                    <p><span class=\"greenText\"><b>Successful harvest!</b></span><br>Your pay has increased by $0.02. Your bonus pay is now $0.10.</p>\n            ","response":0,"trial_type":"html-button-response","trial_index":124,"time_elapsed":416346,"internal_node_id":"0.0-4.0-1.58","subject_id":"5f20247996215b06459cdfff","study_id":"6197b3f67c2b5cd3b6d9596a","session_id":"6197b88aef9aedd2b8ac1a05","condition":"full-information","relevant_dimensions":["antennae","pattern"],"bee_group":{"antennae":"B","wings":"X","pattern":"S","legs":"X"},"bonus":0.02},{"rt":1225.699999999255,"stimulus":"bees-with-color/bee-A1SM.svg","response":1,"trial_type":"image-button-response","trial_index":125,"time_elapsed":417574,"internal_node_id":"0.0-4.0-0.59","subject_id":"5f20247996215b06459cdfff","study_id":"6197b3f67c2b5cd3b6d9596a","session_id":"6197b88aef9aedd2b8ac1a05","condition":"full-information","relevant_dimensions":["antennae","pattern"],"bee_group":{"antennae":"B","wings":"X","pattern":"S","legs":"X"},"action":"avoid","summary":"bad-avoid","bonus":0.02},{"rt":1267.5999999977648,"stimulus":"\n                    <p><b>Action: <em>avoid</em></b></p>\n                    <p>This is the bee that you just saw.</p>\n                    <img src=\"bees-with-color/bee-A1SM.svg\" width=\"200\">\n                    <p><span class=\"redText\">Bad choice,</span> the bee was friendly.<br>Your bonus pay is unchanged, and remains at $0.10.</p>\n            ","response":0,"trial_type":"html-button-response","trial_index":126,"time_elapsed":418843,"internal_node_id":"0.0-4.0-1.59","subject_id":"5f20247996215b06459cdfff","study_id":"6197b3f67c2b5cd3b6d9596a","session_id":"6197b88aef9aedd2b8ac1a05","condition":"full-information","relevant_dimensions":["antennae","pattern"],"bee_group":{"antennae":"B","wings":"X","pattern":"S","legs":"X"},"bonus":0.02},{"rt":1922.0999999977648,"stimulus":"bees-with-color/bee-B2DM.svg","response":1,"trial_type":"image-button-response","trial_index":127,"time_elapsed":420768,"internal_node_id":"0.0-4.0-0.60","subject_id":"5f20247996215b06459cdfff","study_id":"6197b3f67c2b5cd3b6d9596a","session_id":"6197b88aef9aedd2b8ac1a05","condition":"full-information","relevant_dimensions":["antennae","pattern"],"bee_group":{"antennae":"B","wings":"X","pattern":"S","legs":"X"},"action":"avoid","summary":"bad-avoid","bonus":0.02},{"rt":1123.1000000014901,"stimulus":"\n                    <p><b>Action: <em>avoid</em></b></p>\n                    <p>This is the bee that you just saw.</p>\n                    <img src=\"bees-with-color/bee-B2DM.svg\" width=\"200\">\n                    <p><span class=\"redText\">Bad choice,</span> the bee was friendly.<br>Your bonus pay is unchanged, and remains at $0.10.</p>\n            ","response":0,"trial_type":"html-button-response","trial_index":128,"time_elapsed":421894,"internal_node_id":"0.0-4.0-1.60","subject_id":"5f20247996215b06459cdfff","study_id":"6197b3f67c2b5cd3b6d9596a","session_id":"6197b88aef9aedd2b8ac1a05","condition":"full-information","relevant_dimensions":["antennae","pattern"],"bee_group":{"antennae":"B","wings":"X","pattern":"S","legs":"X"},"bonus":0.02},{"rt":2160.60000000149,"stimulus":"bees-with-color/bee-B1DF.svg","response":1,"trial_type":"image-button-response","trial_index":129,"time_elapsed":424057,"internal_node_id":"0.0-4.0-0.61","subject_id":"5f20247996215b06459cdfff","study_id":"6197b3f67c2b5cd3b6d9596a","session_id":"6197b88aef9aedd2b8ac1a05","condition":"full-information","relevant_dimensions":["antennae","pattern"],"bee_group":{"antennae":"B","wings":"X","pattern":"S","legs":"X"},"action":"avoid","summary":"bad-avoid","bonus":0.02},{"rt":1136.800000000745,"stimulus":"\n                    <p><b>Action: <em>avoid</em></b></p>\n                    <p>This is the bee that you just saw.</p>\n                    <img src=\"bees-with-color/bee-B1DF.svg\" width=\"200\">\n                    <p><span class=\"redText\">Bad choice,</span> the bee was friendly.<br>Your bonus pay is unchanged, and remains at $0.10.</p>\n            ","response":0,"trial_type":"html-button-response","trial_index":130,"time_elapsed":425197,"internal_node_id":"0.0-4.0-1.61","subject_id":"5f20247996215b06459cdfff","study_id":"6197b3f67c2b5cd3b6d9596a","session_id":"6197b88aef9aedd2b8ac1a05","condition":"full-information","relevant_dimensions":["antennae","pattern"],"bee_group":{"antennae":"B","wings":"X","pattern":"S","legs":"X"},"bonus":0.02},{"rt":1312.699999999255,"stimulus":"bees-with-color/bee-B1SF.svg","response":0,"trial_type":"image-button-response","trial_index":131,"time_elapsed":426512,"internal_node_id":"0.0-4.0-0.62","subject_id":"5f20247996215b06459cdfff","study_id":"6197b3f67c2b5cd3b6d9596a","session_id":"6197b88aef9aedd2b8ac1a05","condition":"full-information","relevant_dimensions":["antennae","pattern"],"bee_group":{"antennae":"B","wings":"X","pattern":"S","legs":"X"},"action":"harvest","summary":"bad-harvest","bonus":0.02},{"rt":3419.300000000745,"stimulus":"\n                    <p><b>Action: <em>harvest</em></b></p>\n                    <p>This is the bee that you just saw.</p>\n                    <img src=\"bees-with-color/bee-B1SF.svg\" width=\"200\">\n                    <p><span class=\"redText\">Bad choice, the bee was angry.</span><br><b>You have been stung!</b><br>Your pay has been decreased by $0.10. Your bonus pay is now $0.00.</p>\n            ","response":0,"trial_type":"html-button-response","trial_index":132,"time_elapsed":429934,"internal_node_id":"0.0-4.0-1.62","subject_id":"5f20247996215b06459cdfff","study_id":"6197b3f67c2b5cd3b6d9596a","session_id":"6197b88aef9aedd2b8ac1a05","condition":"full-information","relevant_dimensions":["antennae","pattern"],"bee_group":{"antennae":"B","wings":"X","pattern":"S","legs":"X"},"bonus":0.02},{"rt":1545.8999999985099,"stimulus":"bees-with-color/bee-A2DM.svg","response":0,"trial_type":"image-button-response","trial_index":133,"time_elapsed":431483,"internal_node_id":"0.0-4.0-0.63","subject_id":"5f20247996215b06459cdfff","study_id":"6197b3f67c2b5cd3b6d9596a","session_id":"6197b88aef9aedd2b8ac1a05","condition":"full-information","relevant_dimensions":["antennae","pattern"],"bee_group":{"antennae":"B","wings":"X","pattern":"S","legs":"X"},"action":"harvest","summary":"good-harvest","bonus":0.02},{"rt":1505.1000000014901,"stimulus":"\n                    <p><b>Action: <em>harvest</em></b></p>\n                    <p>This is the bee that you just saw.</p>\n                    <img src=\"bees-with-color/bee-A2DM.svg\" width=\"200\">\n                    <p><span class=\"greenText\"><b>Successful harvest!</b></span><br>Your pay has increased by $0.02. Your bonus pay is now $0.02.</p>\n            ","response":0,"trial_type":"html-button-response","trial_index":134,"time_elapsed":432991,"internal_node_id":"0.0-4.0-1.63","subject_id":"5f20247996215b06459cdfff","study_id":"6197b3f67c2b5cd3b6d9596a","session_id":"6197b88aef9aedd2b8ac1a05","condition":"full-information","relevant_dimensions":["antennae","pattern"],"bee_group":{"antennae":"B","wings":"X","pattern":"S","legs":"X"},"bonus":0.02},{"rt":4777.10000000149,"stimulus":"You have completed the first part of this experiment.<br><br>You will now begin a shorter second part, in which you will receive no feedback.<br>The same rules regarding bonus pay apply.<br><br>Press any key to begin.","response":" ","trial_type":"html-keyboard-response","trial_index":135,"time_elapsed":437770,"internal_node_id":"0.0-5.0","subject_id":"5f20247996215b06459cdfff","study_id":"6197b3f67c2b5cd3b6d9596a","session_id":"6197b88aef9aedd2b8ac1a05","condition":"full-information","relevant_dimensions":["antennae","pattern"],"bee_group":{"antennae":"B","wings":"X","pattern":"S","legs":"X"},"bonus":0.02},{"rt":3651.199999999255,"stimulus":"bees-with-color/bee-B2SM.svg","response":0,"trial_type":"image-button-response","trial_index":136,"time_elapsed":441436,"internal_node_id":"0.0-6.0-0.0","subject_id":"5f20247996215b06459cdfff","study_id":"6197b3f67c2b5cd3b6d9596a","session_id":"6197b88aef9aedd2b8ac1a05","condition":"full-information","relevant_dimensions":["antennae","pattern"],"bee_group":{"antennae":"B","wings":"X","pattern":"S","legs":"X"},"bonus":0.02},{"rt":3139.89999999851,"stimulus":"bees-with-color/bee-B2SF.svg","response":1,"trial_type":"image-button-response","trial_index":137,"time_elapsed":444582,"internal_node_id":"0.0-6.0-0.1","subject_id":"5f20247996215b06459cdfff","study_id":"6197b3f67c2b5cd3b6d9596a","session_id":"6197b88aef9aedd2b8ac1a05","condition":"full-information","relevant_dimensions":["antennae","pattern"],"bee_group":{"antennae":"B","wings":"X","pattern":"S","legs":"X"},"bonus":0.02},{"rt":1597.699999999255,"stimulus":"bees-with-color/bee-B2DF.svg","response":0,"trial_type":"image-button-response","trial_index":138,"time_elapsed":446183,"internal_node_id":"0.0-6.0-0.2","subject_id":"5f20247996215b06459cdfff","study_id":"6197b3f67c2b5cd3b6d9596a","session_id":"6197b88aef9aedd2b8ac1a05","condition":"full-information","relevant_dimensions":["antennae","pattern"],"bee_group":{"antennae":"B","wings":"X","pattern":"S","legs":"X"},"bonus":0.02},{"rt":1124.800000000745,"stimulus":"bees-with-color/bee-B2DM.svg","response":0,"trial_type":"image-button-response","trial_index":139,"time_elapsed":447312,"internal_node_id":"0.0-6.0-0.3","subject_id":"5f20247996215b06459cdfff","study_id":"6197b3f67c2b5cd3b6d9596a","session_id":"6197b88aef9aedd2b8ac1a05","condition":"full-information","relevant_dimensions":["antennae","pattern"],"bee_group":{"antennae":"B","wings":"X","pattern":"S","legs":"X"},"bonus":0.02},{"rt":1782.1000000014901,"stimulus":"bees-with-color/bee-A1DM.svg","response":0,"trial_type":"image-button-response","trial_index":140,"time_elapsed":449098,"internal_node_id":"0.0-6.0-0.4","subject_id":"5f20247996215b06459cdfff","study_id":"6197b3f67c2b5cd3b6d9596a","session_id":"6197b88aef9aedd2b8ac1a05","condition":"full-information","relevant_dimensions":["antennae","pattern"],"bee_group":{"antennae":"B","wings":"X","pattern":"S","legs":"X"},"bonus":0.02},{"rt":1211.199999999255,"stimulus":"bees-with-color/bee-A1SM.svg","response":1,"trial_type":"image-button-response","trial_index":141,"time_elapsed":450313,"internal_node_id":"0.0-6.0-0.5","subject_id":"5f20247996215b06459cdfff","study_id":"6197b3f67c2b5cd3b6d9596a","session_id":"6197b88aef9aedd2b8ac1a05","condition":"full-information","relevant_dimensions":["antennae","pattern"],"bee_group":{"antennae":"B","wings":"X","pattern":"S","legs":"X"},"bonus":0.02},{"rt":1855.5999999977648,"stimulus":"bees-with-color/bee-B1DM.svg","response":0,"trial_type":"image-button-response","trial_index":142,"time_elapsed":452173,"internal_node_id":"0.0-6.0-0.6","subject_id":"5f20247996215b06459cdfff","study_id":"6197b3f67c2b5cd3b6d9596a","session_id":"6197b88aef9aedd2b8ac1a05","condition":"full-information","relevant_dimensions":["antennae","pattern"],"bee_group":{"antennae":"B","wings":"X","pattern":"S","legs":"X"},"bonus":0.02},{"rt":3041.099999997765,"stimulus":"bees-with-color/bee-A2DM.svg","response":0,"trial_type":"image-button-response","trial_index":143,"time_elapsed":455218,"internal_node_id":"0.0-6.0-0.7","subject_id":"5f20247996215b06459cdfff","study_id":"6197b3f67c2b5cd3b6d9596a","session_id":"6197b88aef9aedd2b8ac1a05","condition":"full-information","relevant_dimensions":["antennae","pattern"],"bee_group":{"antennae":"B","wings":"X","pattern":"S","legs":"X"},"bonus":0.02},{"rt":1546.8999999985099,"stimulus":"bees-with-color/bee-A1DF.svg","response":1,"trial_type":"image-button-response","trial_index":144,"time_elapsed":456768,"internal_node_id":"0.0-6.0-0.8","subject_id":"5f20247996215b06459cdfff","study_id":"6197b3f67c2b5cd3b6d9596a","session_id":"6197b88aef9aedd2b8ac1a05","condition":"full-information","relevant_dimensions":["antennae","pattern"],"bee_group":{"antennae":"B","wings":"X","pattern":"S","legs":"X"},"bonus":0.02},{"rt":1394,"stimulus":"bees-with-color/bee-A2SM.svg","response":0,"trial_type":"image-button-response","trial_index":145,"time_elapsed":458165,"internal_node_id":"0.0-6.0-0.9","subject_id":"5f20247996215b06459cdfff","study_id":"6197b3f67c2b5cd3b6d9596a","session_id":"6197b88aef9aedd2b8ac1a05","condition":"full-information","relevant_dimensions":["antennae","pattern"],"bee_group":{"antennae":"B","wings":"X","pattern":"S","legs":"X"},"bonus":0.02},{"rt":3584.60000000149,"stimulus":"bees-with-color/bee-B1SM.svg","response":0,"trial_type":"image-button-response","trial_index":146,"time_elapsed":461752,"internal_node_id":"0.0-6.0-0.10","subject_id":"5f20247996215b06459cdfff","study_id":"6197b3f67c2b5cd3b6d9596a","session_id":"6197b88aef9aedd2b8ac1a05","condition":"full-information","relevant_dimensions":["antennae","pattern"],"bee_group":{"antennae":"B","wings":"X","pattern":"S","legs":"X"},"bonus":0.02},{"rt":971,"stimulus":"bees-with-color/bee-A2SF.svg","response":0,"trial_type":"image-button-response","trial_index":147,"time_elapsed":462728,"internal_node_id":"0.0-6.0-0.11","subject_id":"5f20247996215b06459cdfff","study_id":"6197b3f67c2b5cd3b6d9596a","session_id":"6197b88aef9aedd2b8ac1a05","condition":"full-information","relevant_dimensions":["antennae","pattern"],"bee_group":{"antennae":"B","wings":"X","pattern":"S","legs":"X"},"bonus":0.02},{"rt":1617.699999999255,"stimulus":"bees-with-color/bee-A1SF.svg","response":0,"trial_type":"image-button-response","trial_index":148,"time_elapsed":464349,"internal_node_id":"0.0-6.0-0.12","subject_id":"5f20247996215b06459cdfff","study_id":"6197b3f67c2b5cd3b6d9596a","session_id":"6197b88aef9aedd2b8ac1a05","condition":"full-information","relevant_dimensions":["antennae","pattern"],"bee_group":{"antennae":"B","wings":"X","pattern":"S","legs":"X"},"bonus":0.02},{"rt":2762.900000002235,"stimulus":"bees-with-color/bee-B1DF.svg","response":1,"trial_type":"image-button-response","trial_index":149,"time_elapsed":467115,"internal_node_id":"0.0-6.0-0.13","subject_id":"5f20247996215b06459cdfff","study_id":"6197b3f67c2b5cd3b6d9596a","session_id":"6197b88aef9aedd2b8ac1a05","condition":"full-information","relevant_dimensions":["antennae","pattern"],"bee_group":{"antennae":"B","wings":"X","pattern":"S","legs":"X"},"bonus":0.02},{"rt":1589.699999999255,"stimulus":"bees-with-color/bee-B1SF.svg","response":1,"trial_type":"image-button-response","trial_index":150,"time_elapsed":468708,"internal_node_id":"0.0-6.0-0.14","subject_id":"5f20247996215b06459cdfff","study_id":"6197b3f67c2b5cd3b6d9596a","session_id":"6197b88aef9aedd2b8ac1a05","condition":"full-information","relevant_dimensions":["antennae","pattern"],"bee_group":{"antennae":"B","wings":"X","pattern":"S","legs":"X"},"bonus":0.02},{"rt":1310.300000000745,"stimulus":"bees-with-color/bee-A2DF.svg","response":0,"trial_type":"image-button-response","trial_index":151,"time_elapsed":470022,"internal_node_id":"0.0-6.0-0.15","subject_id":"5f20247996215b06459cdfff","study_id":"6197b3f67c2b5cd3b6d9596a","session_id":"6197b88aef9aedd2b8ac1a05","condition":"full-information","relevant_dimensions":["antennae","pattern"],"bee_group":{"antennae":"B","wings":"X","pattern":"S","legs":"X"},"bonus":0.02},{"rt":2231.800000000745,"stimulus":"bees-with-color/bee-B1SM.svg","response":0,"trial_type":"image-button-response","trial_index":152,"time_elapsed":472257,"internal_node_id":"0.0-6.0-0.16","subject_id":"5f20247996215b06459cdfff","study_id":"6197b3f67c2b5cd3b6d9596a","session_id":"6197b88aef9aedd2b8ac1a05","condition":"full-information","relevant_dimensions":["antennae","pattern"],"bee_group":{"antennae":"B","wings":"X","pattern":"S","legs":"X"},"bonus":0.02},{"rt":2212.60000000149,"stimulus":"bees-with-color/bee-A1DF.svg","response":0,"trial_type":"image-button-response","trial_index":153,"time_elapsed":474471,"internal_node_id":"0.0-6.0-0.17","subject_id":"5f20247996215b06459cdfff","study_id":"6197b3f67c2b5cd3b6d9596a","session_id":"6197b88aef9aedd2b8ac1a05","condition":"full-information","relevant_dimensions":["antennae","pattern"],"bee_group":{"antennae":"B","wings":"X","pattern":"S","legs":"X"},"bonus":0.02},{"rt":2382.699999999255,"stimulus":"bees-with-color/bee-B2SM.svg","response":0,"trial_type":"image-button-response","trial_index":154,"time_elapsed":476857,"internal_node_id":"0.0-6.0-0.18","subject_id":"5f20247996215b06459cdfff","study_id":"6197b3f67c2b5cd3b6d9596a","session_id":"6197b88aef9aedd2b8ac1a05","condition":"full-information","relevant_dimensions":["antennae","pattern"],"bee_group":{"antennae":"B","wings":"X","pattern":"S","legs":"X"},"bonus":0.02},{"rt":1654.300000000745,"stimulus":"bees-with-color/bee-B1DF.svg","response":1,"trial_type":"image-button-response","trial_index":155,"time_elapsed":478514,"internal_node_id":"0.0-6.0-0.19","subject_id":"5f20247996215b06459cdfff","study_id":"6197b3f67c2b5cd3b6d9596a","session_id":"6197b88aef9aedd2b8ac1a05","condition":"full-information","relevant_dimensions":["antennae","pattern"],"bee_group":{"antennae":"B","wings":"X","pattern":"S","legs":"X"},"bonus":0.02},{"rt":1853.199999999255,"stimulus":"bees-with-color/bee-A2DF.svg","response":0,"trial_type":"image-button-response","trial_index":156,"time_elapsed":480370,"internal_node_id":"0.0-6.0-0.20","subject_id":"5f20247996215b06459cdfff","study_id":"6197b3f67c2b5cd3b6d9596a","session_id":"6197b88aef9aedd2b8ac1a05","condition":"full-information","relevant_dimensions":["antennae","pattern"],"bee_group":{"antennae":"B","wings":"X","pattern":"S","legs":"X"},"bonus":0.02},{"rt":1047,"stimulus":"bees-with-color/bee-A2DM.svg","response":0,"trial_type":"image-button-response","trial_index":157,"time_elapsed":481420,"internal_node_id":"0.0-6.0-0.21","subject_id":"5f20247996215b06459cdfff","study_id":"6197b3f67c2b5cd3b6d9596a","session_id":"6197b88aef9aedd2b8ac1a05","condition":"full-information","relevant_dimensions":["antennae","pattern"],"bee_group":{"antennae":"B","wings":"X","pattern":"S","legs":"X"},"bonus":0.02},{"rt":1394.800000000745,"stimulus":"bees-with-color/bee-A2SF.svg","response":0,"trial_type":"image-button-response","trial_index":158,"time_elapsed":482817,"internal_node_id":"0.0-6.0-0.22","subject_id":"5f20247996215b06459cdfff","study_id":"6197b3f67c2b5cd3b6d9596a","session_id":"6197b88aef9aedd2b8ac1a05","condition":"full-information","relevant_dimensions":["antennae","pattern"],"bee_group":{"antennae":"B","wings":"X","pattern":"S","legs":"X"},"bonus":0.02},{"rt":1277.199999999255,"stimulus":"bees-with-color/bee-B1DM.svg","response":1,"trial_type":"image-button-response","trial_index":159,"time_elapsed":484098,"internal_node_id":"0.0-6.0-0.23","subject_id":"5f20247996215b06459cdfff","study_id":"6197b3f67c2b5cd3b6d9596a","session_id":"6197b88aef9aedd2b8ac1a05","condition":"full-information","relevant_dimensions":["antennae","pattern"],"bee_group":{"antennae":"B","wings":"X","pattern":"S","legs":"X"},"bonus":0.02},{"rt":1840.300000000745,"stimulus":"bees-with-color/bee-A1SF.svg","response":0,"trial_type":"image-button-r