[{"success":true,"trial_type":"fullscreen","trial_index":0,"time_elapsed":2554,"internal_node_id":"0.0-0.0","subject_id":"5ec2cc6ace4b500d365da245","study_id":"60edd13110225f80f9f3709b","session_id":"6196bf622543ca412e027953","condition":"contingent","relevant_dimensions":["antennae","wings"],"bee_group":{"antennae":"B","wings":"2","pattern":"X","legs":"X"},"bonus":1.4800000000000009},{"success":true,"timeout":false,"failed_images":[],"failed_audio":[],"failed_video":[],"trial_type":"preload","trial_index":1,"time_elapsed":4208,"internal_node_id":"0.0-1.0","subject_id":"5ec2cc6ace4b500d365da245","study_id":"60edd13110225f80f9f3709b","session_id":"6196bf622543ca412e027953","condition":"contingent","relevant_dimensions":["antennae","wings"],"bee_group":{"antennae":"B","wings":"2","pattern":"X","legs":"X"},"bonus":1.4800000000000009},{"rt":1730.1000000238419,"stimulus":"Welcome! Press any key to begin.","response":" ","trial_type":"html-keyboard-response","trial_index":2,"time_elapsed":5939,"internal_node_id":"0.0-2.0","subject_id":"5ec2cc6ace4b500d365da245","study_id":"60edd13110225f80f9f3709b","session_id":"6196bf622543ca412e027953","condition":"contingent","relevant_dimensions":["antennae","wings"],"bee_group":{"antennae":"B","wings":"2","pattern":"X","legs":"X"},"bonus":1.4800000000000009},{"view_history":[{"page_index":0,"viewing_time":4424.5},{"page_index":1,"viewing_time":10983.800000011921},{"page_index":2,"viewing_time":7049.800000011921},{"page_index":3,"viewing_time":9834},{"page_index":4,"viewing_time":5223.899999976158},{"page_index":5,"viewing_time":7457.900000035763},{"page_index":6,"viewing_time":13242.199999988079},{"page_index":7,"viewing_time":7166.600000023842},{"page_index":8,"viewing_time":5868.899999976158},{"page_index":9,"viewing_time":6321.899999976158},{"page_index":10,"viewing_time":1977.1000000238419},{"page_index":11,"viewing_time":6197.800000011921},{"page_index":12,"viewing_time":6324.899999976158},{"page_index":13,"viewing_time":1035.199999988079},{"page_index":14,"viewing_time":2023.800000011921}],"rt":95132.80000001192,"trial_type":"instructions","trial_index":3,"time_elapsed":101072,"internal_node_id":"0.0-3.0-0.0","subject_id":"5ec2cc6ace4b500d365da245","study_id":"60edd13110225f80f9f3709b","session_id":"6196bf622543ca412e027953","condition":"contingent","relevant_dimensions":["antennae","wings"],"bee_group":{"antennae":"B","wings":"2","pattern":"X","legs":"X"},"bonus":1.4800000000000009},{"rt":12618.599999964237,"response":{"Q0":["Two or six legs","Stripes or spots on body","Single or double wings","Antennae or no antennae"]},"question_order":[0],"trial_type":"survey-multi-select","trial_index":4,"time_elapsed":113697,"internal_node_id":"0.0-3.0-1.0","subject_id":"5ec2cc6ace4b500d365da245","study_id":"60edd13110225f80f9f3709b","session_id":"6196bf622543ca412e027953","condition":"contingent","relevant_dimensions":["antennae","wings"],"bee_group":{"antennae":"B","wings":"2","pattern":"X","legs":"X"},"correct":true,"bonus":1.4800000000000009},{"rt":21629.30000001192,"response":{"Q1":"No.","Q2":"Based on the four features of the bee.","Q3":"You do not learn if it was friendly or dangerous, and do not alter your bonus."},"question_order":[0,1,2],"trial_type":"survey-multi-choice","trial_index":5,"time_elapsed":135333,"internal_node_id":"0.0-3.0-2.0","subject_id":"5ec2cc6ace4b500d365da245","study_id":"60edd13110225f80f9f3709b","session_id":"6196bf622543ca412e027953","condition":"contingent","relevant_dimensions":["antennae","wings"],"bee_group":{"antennae":"B","wings":"2","pattern":"X","legs":"X"},"correct":true,"bonus":1.4800000000000009},{"rt":2427.099999964237,"stimulus":"<p>Congrats, you got everything right<br>When you're ready, click the button below to continue to the experiment.</p>","response":0,"trial_type":"html-button-response","trial_index":6,"time_elapsed":137768,"internal_node_id":"0.0-3.0-3.0","subject_id":"5ec2cc6ace4b500d365da245","study_id":"60edd13110225f80f9f3709b","session_id":"6196bf622543ca412e027953","condition":"contingent","relevant_dimensions":["antennae","wings"],"bee_group":{"antennae":"B","wings":"2","pattern":"X","legs":"X"},"bonus":1.4800000000000009},{"rt":3553.099999964237,"stimulus":"bees-with-color/bee-A1DF.svg","response":1,"trial_type":"image-button-response","trial_index":7,"time_elapsed":141323,"internal_node_id":"0.0-4.0-0.0","subject_id":"5ec2cc6ace4b500d365da245","study_id":"60edd13110225f80f9f3709b","session_id":"6196bf622543ca412e027953","condition":"contingent","relevant_dimensions":["antennae","wings"],"bee_group":{"antennae":"B","wings":"2","pattern":"X","legs":"X"},"action":"avoid","summary":"bad-avoid","bonus":1.4800000000000009},{"rt":3733.399999976158,"stimulus":"\n                    <p><b>Action: <em>avoid</em></b></p>\n                    <p>This is the bee that you just saw.</p>\n                    <img src=\"bees-with-color/bee-A1DF.svg\" width=\"200\">\n                    <p><br>Your bonus pay is unchanged, and remains at $0.54.</p>\n            ","response":0,"trial_type":"html-button-response","trial_index":8,"time_elapsed":145060,"internal_node_id":"0.0-4.0-1.0","subject_id":"5ec2cc6ace4b500d365da245","study_id":"60edd13110225f80f9f3709b","session_id":"6196bf622543ca412e027953","condition":"contingent","relevant_dimensions":["antennae","wings"],"bee_group":{"antennae":"B","wings":"2","pattern":"X","legs":"X"},"bonus":1.4800000000000009},{"rt":3864.300000011921,"stimulus":"bees-with-color/bee-B1DM.svg","response":0,"trial_type":"image-button-response","trial_index":9,"time_elapsed":148927,"internal_node_id":"0.0-4.0-0.1","subject_id":"5ec2cc6ace4b500d365da245","study_id":"60edd13110225f80f9f3709b","session_id":"6196bf622543ca412e027953","condition":"contingent","relevant_dimensions":["antennae","wings"],"bee_group":{"antennae":"B","wings":"2","pattern":"X","legs":"X"},"action":"harvest","summary":"good-harvest","bonus":1.4800000000000009},{"rt":47036.200000047684,"stimulus":"\n                    <p><b>Action: <em>harvest</em></b></p>\n                    <p>This is the bee that you just saw.</p>\n                    <img src=\"bees-with-color/bee-B1DM.svg\" width=\"200\">\n                    <p><span class=\"greenText\"><b>Successful harvest!</b></span><br>Your pay has increased by $0.02. Your bonus pay is now $0.56.</p>\n            ","response":0,"trial_type":"html-button-response","trial_index":10,"time_elapsed":195965,"internal_node_id":"0.0-4.0-1.1","subject_id":"5ec2cc6ace4b500d365da245","study_id":"60edd13110225f80f9f3709b","session_id":"6196bf622543ca412e027953","condition":"contingent","relevant_dimensions":["antennae","wings"],"bee_group":{"antennae":"B","wings":"2","pattern":"X","legs":"X"},"bonus":1.4800000000000009},{"rt":4001.699999988079,"stimulus":"bees-with-color/bee-A2SF.svg","response":1,"trial_type":"image-button-response","trial_index":11,"time_elapsed":199970,"internal_node_id":"0.0-4.0-0.2","subject_id":"5ec2cc6ace4b500d365da245","study_id":"60edd13110225f80f9f3709b","session_id":"6196bf622543ca412e027953","condition":"contingent","relevant_dimensions":["antennae","wings"],"bee_group":{"antennae":"B","wings":"2","pattern":"X","legs":"X"},"action":"avoid","summary":"bad-avoid","bonus":1.4800000000000009},{"rt":1574.300000011921,"stimulus":"\n                    <p><b>Action: <em>avoid</em></b></p>\n                    <p>This is the bee that you just saw.</p>\n                    <img src=\"bees-with-color/bee-A2SF.svg\" width=\"200\">\n                    <p><br>Your bonus pay is unchanged, and remains at $0.56.</p>\n            ","response":0,"trial_type":"html-button-response","trial_index":12,"time_elapsed":201547,"internal_node_id":"0.0-4.0-1.2","subject_id":"5ec2cc6ace4b500d365da245","study_id":"60edd13110225f80f9f3709b","session_id":"6196bf622543ca412e027953","condition":"contingent","relevant_dimensions":["antennae","wings"],"bee_group":{"antennae":"B","wings":"2","pattern":"X","legs":"X"},"bonus":1.4800000000000009},{"rt":3055.7999999523163,"stimulus":"bees-with-color/bee-A1SF.svg","response":0,"trial_type":"image-button-response","trial_index":13,"time_elapsed":204605,"internal_node_id":"0.0-4.0-0.3","subject_id":"5ec2cc6ace4b500d365da245","study_id":"60edd13110225f80f9f3709b","session_id":"6196bf622543ca412e027953","condition":"contingent","relevant_dimensions":["antennae","wings"],"bee_group":{"antennae":"B","wings":"2","pattern":"X","legs":"X"},"action":"harvest","summary":"good-harvest","bonus":1.4800000000000009},{"rt":25091,"stimulus":"\n                    <p><b>Action: <em>harvest</em></b></p>\n                    <p>This is the bee that you just saw.</p>\n                    <img src=\"bees-with-color/bee-A1SF.svg\" width=\"200\">\n                    <p><span class=\"greenText\"><b>Successful harvest!</b></span><br>Your pay has increased by $0.02. Your bonus pay is now $0.58.</p>\n            ","response":0,"trial_type":"html-button-response","trial_index":14,"time_elapsed":229698,"internal_node_id":"0.0-4.0-1.3","subject_id":"5ec2cc6ace4b500d365da245","study_id":"60edd13110225f80f9f3709b","session_id":"6196bf622543ca412e027953","condition":"contingent","relevant_dimensions":["antennae","wings"],"bee_group":{"antennae":"B","wings":"2","pattern":"X","legs":"X"},"bonus":1.4800000000000009},{"rt":4206.799999952316,"stimulus":"bees-with-color/bee-A1SM.svg","response":0,"trial_type":"image-button-response","trial_index":15,"time_elapsed":233907,"internal_node_id":"0.0-4.0-0.4","subject_id":"5ec2cc6ace4b500d365da245","study_id":"60edd13110225f80f9f3709b","session_id":"6196bf622543ca412e027953","condition":"contingent","relevant_dimensions":["antennae","wings"],"bee_group":{"antennae":"B","wings":"2","pattern":"X","legs":"X"},"action":"harvest","summary":"good-harvest","bonus":1.4800000000000009},{"rt":5481.799999952316,"stimulus":"\n                    <p><b>Action: <em>harvest</em></b></p>\n                    <p>This is the bee that you just saw.</p>\n                    <img src=\"bees-with-color/bee-A1SM.svg\" width=\"200\">\n                    <p><span class=\"greenText\"><b>Successful harvest!</b></span><br>Your pay has increased by $0.02. Your bonus pay is now $0.60.</p>\n            ","response":0,"trial_type":"html-button-response","trial_index":16,"time_elapsed":239391,"internal_node_id":"0.0-4.0-1.4","subject_id":"5ec2cc6ace4b500d365da245","study_id":"60edd13110225f80f9f3709b","session_id":"6196bf622543ca412e027953","condition":"contingent","relevant_dimensions":["antennae","wings"],"bee_group":{"antennae":"B","wings":"2","pattern":"X","legs":"X"},"bonus":1.4800000000000009},{"rt":1133.699999988079,"stimulus":"bees-with-color/bee-B2SM.svg","response":1,"trial_type":"image-button-response","trial_index":17,"time_elapsed":240527,"internal_node_id":"0.0-4.0-0.5","subject_id":"5ec2cc6ace4b500d365da245","study_id":"60edd13110225f80f9f3709b","session_id":"6196bf622543ca412e027953","condition":"contingent","relevant_dimensions":["antennae","wings"],"bee_group":{"antennae":"B","wings":"2","pattern":"X","legs":"X"},"action":"avoid","summary":"good-avoid","bonus":1.4800000000000009},{"rt":2175.599999964237,"stimulus":"\n                    <p><b>Action: <em>avoid</em></b></p>\n                    <p>This is the bee that you just saw.</p>\n                    <img src=\"bees-with-color/bee-B2SM.svg\" width=\"200\">\n                    <p><br>Your bonus pay is unchanged, and remains at $0.60.</p>\n            ","response":0,"trial_type":"html-button-response","trial_index":18,"time_elapsed":242705,"internal_node_id":"0.0-4.0-1.5","subject_id":"5ec2cc6ace4b500d365da245","study_id":"60edd13110225f80f9f3709b","session_id":"6196bf622543ca412e027953","condition":"contingent","relevant_dimensions":["antennae","wings"],"bee_group":{"antennae":"B","wings":"2","pattern":"X","legs":"X"},"bonus":1.4800000000000009},{"rt":968,"stimulus":"bees-with-color/bee-B2DM.svg","response":1,"trial_type":"image-button-response","trial_index":19,"time_elapsed":243675,"internal_node_id":"0.0-4.0-0.6","subject_id":"5ec2cc6ace4b500d365da245","study_id":"60edd13110225f80f9f3709b","session_id":"6196bf622543ca412e027953","condition":"contingent","relevant_dimensions":["antennae","wings"],"bee_group":{"antennae":"B","wings":"2","pattern":"X","legs":"X"},"action":"avoid","summary":"good-avoid","bonus":1.4800000000000009},{"rt":613,"stimulus":"\n                    <p><b>Action: <em>avoid</em></b></p>\n                    <p>This is the bee that you just saw.</p>\n                    <img src=\"bees-with-color/bee-B2DM.svg\" width=\"200\">\n                    <p><br>Your bonus pay is unchanged, and remains at $0.60.</p>\n            ","response":0,"trial_type":"html-button-response","trial_index":20,"time_elapsed":244290,"internal_node_id":"0.0-4.0-1.6","subject_id":"5ec2cc6ace4b500d365da245","study_id":"60edd13110225f80f9f3709b","session_id":"6196bf622543ca412e027953","condition":"contingent","relevant_dimensions":["antennae","wings"],"bee_group":{"antennae":"B","wings":"2","pattern":"X","legs":"X"},"bonus":1.4800000000000009},{"rt":1068.5999999642372,"stimulus":"bees-with-color/bee-A1DM.svg","response":0,"trial_type":"image-button-response","trial_index":21,"time_elapsed":245360,"internal_node_id":"0.0-4.0-0.7","subject_id":"5ec2cc6ace4b500d365da245","study_id":"60edd13110225f80f9f3709b","session_id":"6196bf622543ca412e027953","condition":"contingent","relevant_dimensions":["antennae","wings"],"bee_group":{"antennae":"B","wings":"2","pattern":"X","legs":"X"},"action":"harvest","summary":"good-harvest","bonus":1.4800000000000009},{"rt":3418.100000023842,"stimulus":"\n                    <p><b>Action: <em>harvest</em></b></p>\n                    <p>This is the bee that you just saw.</p>\n                    <img src=\"bees-with-color/bee-A1DM.svg\" width=\"200\">\n                    <p><span class=\"greenText\"><b>Successful harvest!</b></span><br>Your pay has increased by $0.02. Your bonus pay is now $0.62.</p>\n            ","response":0,"trial_type":"html-button-response","trial_index":22,"time_elapsed":248780,"internal_node_id":"0.0-4.0-1.7","subject_id":"5ec2cc6ace4b500d365da245","study_id":"60edd13110225f80f9f3709b","session_id":"6196bf622543ca412e027953","condition":"contingent","relevant_dimensions":["antennae","wings"],"bee_group":{"antennae":"B","wings":"2","pattern":"X","legs":"X"},"bonus":1.4800000000000009},{"rt":4018.600000023842,"stimulus":"bees-with-color/bee-A2DF.svg","response":1,"trial_type":"image-button-response","trial_index":23,"time_elapsed":252801,"internal_node_id":"0.0-4.0-0.8","subject_id":"5ec2cc6ace4b500d365da245","study_id":"60edd13110225f80f9f3709b","session_id":"6196bf622543ca412e027953","condition":"contingent","relevant_dimensions":["antennae","wings"],"bee_group":{"antennae":"B","wings":"2","pattern":"X","legs":"X"},"action":"avoid","summary":"bad-avoid","bonus":1.4800000000000009},{"rt":701.8000000119209,"stimulus":"\n                    <p><b>Action: <em>avoid</em></b></p>\n                    <p>This is the bee that you just saw.</p>\n                    <img src=\"bees-with-color/bee-A2DF.svg\" width=\"200\">\n                    <p><br>Your bonus pay is unchanged, and remains at $0.62.</p>\n            ","response":0,"trial_type":"html-button-response","trial_index":24,"time_elapsed":253505,"internal_node_id":"0.0-4.0-1.8","subject_id":"5ec2cc6ace4b500d365da245","study_id":"60edd13110225f80f9f3709b","session_id":"6196bf622543ca412e027953","condition":"contingent","relevant_dimensions":["antennae","wings"],"bee_group":{"antennae":"B","wings":"2","pattern":"X","legs":"X"},"bonus":1.4800000000000009},{"rt":961.3999999761581,"stimulus":"bees-with-color/bee-B1DF.svg","response":0,"trial_type":"image-button-response","trial_index":25,"time_elapsed":254468,"internal_node_id":"0.0-4.0-0.9","subject_id":"5ec2cc6ace4b500d365da245","study_id":"60edd13110225f80f9f3709b","session_id":"6196bf622543ca412e027953","condition":"contingent","relevant_dimensions":["antennae","wings"],"bee_group":{"antennae":"B","wings":"2","pattern":"X","legs":"X"},"action":"harvest","summary":"good-harvest","bonus":1.4800000000000009},{"rt":991.8000000119209,"stimulus":"\n                    <p><b>Action: <em>harvest</em></b></p>\n                    <p>This is the bee that you just saw.</p>\n                    <img src=\"bees-with-color/bee-B1DF.svg\" width=\"200\">\n                    <p><span class=\"greenText\"><b>Successful harvest!</b></span><br>Your pay has increased by $0.02. Your bonus pay is now $0.64.</p>\n            ","response":0,"trial_type":"html-button-response","trial_index":26,"time_elapsed":255462,"internal_node_id":"0.0-4.0-1.9","subject_id":"5ec2cc6ace4b500d365da245","study_id":"60edd13110225f80f9f3709b","session_id":"6196bf622543ca412e027953","condition":"contingent","relevant_dimensions":["antennae","wings"],"bee_group":{"antennae":"B","wings":"2","pattern":"X","legs":"X"},"bonus":1.4800000000000009},{"rt":925.6999999880791,"stimulus":"bees-with-color/bee-B2DF.svg","response":1,"trial_type":"image-button-response","trial_index":27,"time_elapsed":256389,"internal_node_id":"0.0-4.0-0.10","subject_id":"5ec2cc6ace4b500d365da245","study_id":"60edd13110225f80f9f3709b","session_id":"6196bf622543ca412e027953","condition":"contingent","relevant_dimensions":["antennae","wings"],"bee_group":{"antennae":"B","wings":"2","pattern":"X","legs":"X"},"action":"avoid","summary":"good-avoid","bonus":1.4800000000000009},{"rt":1005.6999999880791,"stimulus":"\n                    <p><b>Action: <em>avoid</em></b></p>\n                    <p>This is the bee that you just saw.</p>\n                    <img src=\"bees-with-color/bee-B2DF.svg\" width=\"200\">\n                    <p><br>Your bonus pay is unchanged, and remains at $0.64.</p>\n            ","response":0,"trial_type":"html-button-response","trial_index":28,"time_elapsed":257397,"internal_node_id":"0.0-4.0-1.10","subject_id":"5ec2cc6ace4b500d365da245","study_id":"60edd13110225f80f9f3709b","session_id":"6196bf622543ca412e027953","condition":"contingent","relevant_dimensions":["antennae","wings"],"bee_group":{"antennae":"B","wings":"2","pattern":"X","legs":"X"},"bonus":1.4800000000000009},{"rt":844.2000000476837,"stimulus":"bees-with-color/bee-B1SM.svg","response":0,"trial_type":"image-button-response","trial_index":29,"time_elapsed":258243,"internal_node_id":"0.0-4.0-0.11","subject_id":"5ec2cc6ace4b500d365da245","study_id":"60edd13110225f80f9f3709b","session_id":"6196bf622543ca412e027953","condition":"contingent","relevant_dimensions":["antennae","wings"],"bee_group":{"antennae":"B","wings":"2","pattern":"X","legs":"X"},"action":"harvest","summary":"good-harvest","bonus":1.4800000000000009},{"rt":678.1999999880791,"stimulus":"\n                    <p><b>Action: <em>harvest</em></b></p>\n                    <p>This is the bee that you just saw.</p>\n                    <img src=\"bees-with-color/bee-B1SM.svg\" width=\"200\">\n                    <p><span class=\"greenText\"><b>Successful harvest!</b></span><br>Your pay has increased by $0.02. Your bonus pay is now $0.66.</p>\n            ","response":0,"trial_type":"html-button-response","trial_index":30,"time_elapsed":258923,"internal_node_id":"0.0-4.0-1.11","subject_id":"5ec2cc6ace4b500d365da245","study_id":"60edd13110225f80f9f3709b","session_id":"6196bf622543ca412e027953","condition":"contingent","relevant_dimensions":["antennae","wings"],"bee_group":{"antennae":"B","wings":"2","pattern":"X","legs":"X"},"bonus":1.4800000000000009},{"rt":2107.399999976158,"stimulus":"bees-with-color/bee-B1SF.svg","response":0,"trial_type":"image-button-response","trial_index":31,"time_elapsed":261032,"internal_node_id":"0.0-4.0-0.12","subject_id":"5ec2cc6ace4b500d365da245","study_id":"60edd13110225f80f9f3709b","session_id":"6196bf622543ca412e027953","condition":"contingent","relevant_dimensions":["antennae","wings"],"bee_group":{"antennae":"B","wings":"2","pattern":"X","legs":"X"},"action":"harvest","summary":"good-harvest","bonus":1.4800000000000009},{"rt":643.1000000238419,"stimulus":"\n                    <p><b>Action: <em>harvest</em></b></p>\n                    <p>This is the bee that you just saw.</p>\n                    <img src=\"bees-with-color/bee-B1SF.svg\" width=\"200\">\n                    <p><span class=\"greenText\"><b>Successful harvest!</b></span><br>Your pay has increased by $0.02. Your bonus pay is now $0.68.</p>\n            ","response":0,"trial_type":"html-button-response","trial_index":32,"time_elapsed":261677,"internal_node_id":"0.0-4.0-1.12","subject_id":"5ec2cc6ace4b500d365da245","study_id":"60edd13110225f80f9f3709b","session_id":"6196bf622543ca412e027953","condition":"contingent","relevant_dimensions":["antennae","wings"],"bee_group":{"antennae":"B","wings":"2","pattern":"X","legs":"X"},"bonus":1.4800000000000009},{"rt":963.5999999642372,"stimulus":"bees-with-color/bee-A2SM.svg","response":1,"trial_type":"image-button-response","trial_index":33,"time_elapsed":262642,"internal_node_id":"0.0-4.0-0.13","subject_id":"5ec2cc6ace4b500d365da245","study_id":"60edd13110225f80f9f3709b","session_id":"6196bf622543ca412e027953","condition":"contingent","relevant_dimensions":["antennae","wings"],"bee_group":{"antennae":"B","wings":"2","pattern":"X","legs":"X"},"action":"avoid","summary":"bad-avoid","bonus":1.4800000000000009},{"rt":682,"stimulus":"\n                    <p><b>Action: <em>avoid</em></b></p>\n                    <p>This is the bee that you just saw.</p>\n                    <img src=\"bees-with-color/bee-A2SM.svg\" width=\"200\">\n                    <p><br>Your bonus pay is unchanged, and remains at $0.68.</p>\n            ","response":0,"trial_type":"html-button-response","trial_index":34,"time_elapsed":263326,"internal_node_id":"0.0-4.0-1.13","subject_id":"5ec2cc6ace4b500d365da245","study_id":"60edd13110225f80f9f3709b","session_id":"6196bf622543ca412e027953","condition":"contingent","relevant_dimensions":["antennae","wings"],"bee_group":{"antennae":"B","wings":"2","pattern":"X","legs":"X"},"bonus":1.4800000000000009},{"rt":845.6000000238419,"stimulus":"bees-with-color/bee-B2SF.svg","response":1,"trial_type":"image-button-response","trial_index":35,"time_elapsed":264173,"internal_node_id":"0.0-4.0-0.14","subject_id":"5ec2cc6ace4b500d365da245","study_id":"60edd13110225f80f9f3709b","session_id":"6196bf622543ca412e027953","condition":"contingent","relevant_dimensions":["antennae","wings"],"bee_group":{"antennae":"B","wings":"2","pattern":"X","legs":"X"},"action":"avoid","summary":"good-avoid","bonus":1.4800000000000009},{"rt":852,"stimulus":"\n                    <p><b>Action: <em>avoid</em></b></p>\n                    <p>This is the bee that you just saw.</p>\n                    <img src=\"bees-with-color/bee-B2SF.svg\" width=\"200\">\n                    <p><br>Your bonus pay is unchanged, and remains at $0.68.</p>\n            ","response":0,"trial_type":"html-button-response","trial_index":36,"time_elapsed":265027,"internal_node_id":"0.0-4.0-1.14","subject_id":"5ec2cc6ace4b500d365da245","study_id":"60edd13110225f80f9f3709b","session_id":"6196bf622543ca412e027953","condition":"contingent","relevant_dimensions":["antennae","wings"],"bee_group":{"antennae":"B","wings":"2","pattern":"X","legs":"X"},"bonus":1.4800000000000009},{"rt":692.6000000238419,"stimulus":"bees-with-color/bee-A2DM.svg","response":1,"trial_type":"image-button-response","trial_index":37,"time_elapsed":265721,"internal_node_id":"0.0-4.0-0.15","subject_id":"5ec2cc6ace4b500d365da245","study_id":"60edd13110225f80f9f3709b","session_id":"6196bf622543ca412e027953","condition":"contingent","relevant_dimensions":["antennae","wings"],"bee_group":{"antennae":"B","wings":"2","pattern":"X","legs":"X"},"action":"avoid","summary":"bad-avoid","bonus":1.4800000000000009},{"rt":395.2000000476837,"stimulus":"\n                    <p><b>Action: <em>avoid</em></b></p>\n                    <p>This is the bee that you just saw.</p>\n                    <img src=\"bees-with-color/bee-A2DM.svg\" width=\"200\">\n                    <p><br>Your bonus pay is unchanged, and remains at $0.68.</p>\n            ","response":0,"trial_type":"html-button-response","trial_index":38,"time_elapsed":266118,"internal_node_id":"0.0-4.0-1.15","subject_id":"5ec2cc6ace4b500d365da245","study_id":"60edd13110225f80f9f3709b","session_id":"6196bf622543ca412e027953","condition":"contingent","relevant_dimensions":["antennae","wings"],"bee_group":{"antennae":"B","wings":"2","pattern":"X","legs":"X"},"bonus":1.4800000000000009},{"rt":763.5,"stimulus":"bees-with-color/bee-A1SM.svg","response":0,"trial_type":"image-button-response","trial_index":39,"time_elapsed":266883,"internal_node_id":"0.0-4.0-0.16","subject_id":"5ec2cc6ace4b500d365da245","study_id":"60edd13110225f80f9f3709b","session_id":"6196bf622543ca412e027953","condition":"contingent","relevant_dimensions":["antennae","wings"],"bee_group":{"antennae":"B","wings":"2","pattern":"X","legs":"X"},"action":"harvest","summary":"good-harvest","bonus":1.4800000000000009},{"rt":561.1999999880791,"stimulus":"\n                    <p><b>Action: <em>harvest</em></b></p>\n                    <p>This is the bee that you just saw.</p>\n                    <img src=\"bees-with-color/bee-A1SM.svg\" width=\"200\">\n                    <p><span class=\"greenText\"><b>Successful harvest!</b></span><br>Your pay has increased by $0.02. Your bonus pay is now $0.70.</p>\n            ","response":0,"trial_type":"html-button-response","trial_index":40,"time_elapsed":267446,"internal_node_id":"0.0-4.0-1.16","subject_id":"5ec2cc6ace4b500d365da245","study_id":"60edd13110225f80f9f3709b","session_id":"6196bf622543ca412e027953","condition":"contingent","relevant_dimensions":["antennae","wings"],"bee_group":{"antennae":"B","wings":"2","pattern":"X","legs":"X"},"bonus":1.4800000000000009},{"rt":869.6000000238419,"stimulus":"bees-with-color/bee-A2DM.svg","response":1,"trial_type":"image-button-response","trial_index":41,"time_elapsed":268317,"internal_node_id":"0.0-4.0-0.17","subject_id":"5ec2cc6ace4b500d365da245","study_id":"60edd13110225f80f9f3709b","session_id":"6196bf622543ca412e027953","condition":"contingent","relevant_dimensions":["antennae","wings"],"bee_group":{"antennae":"B","wings":"2","pattern":"X","legs":"X"},"action":"avoid","summary":"bad-avoid","bonus":1.4800000000000009},{"rt":513,"stimulus":"\n                    <p><b>Action: <em>avoid</em></b></p>\n                    <p>This is the bee that you just saw.</p>\n                    <img src=\"bees-with-color/bee-A2DM.svg\" width=\"200\">\n                    <p><br>Your bonus pay is unchanged, and remains at $0.70.</p>\n            ","response":0,"trial_type":"html-button-response","trial_index":42,"time_elapsed":268832,"internal_node_id":"0.0-4.0-1.17","subject_id":"5ec2cc6ace4b500d365da245","study_id":"60edd13110225f80f9f3709b","session_id":"6196bf622543ca412e027953","condition":"contingent","relevant_dimensions":["antennae","wings"],"bee_group":{"antennae":"B","wings":"2","pattern":"X","legs":"X"},"bonus":1.4800000000000009},{"rt":841.6000000238419,"stimulus":"bees-with-color/bee-A2DF.svg","response":1,"trial_type":"image-button-response","trial_index":43,"time_elapsed":269675,"internal_node_id":"0.0-4.0-0.18","subject_id":"5ec2cc6ace4b500d365da245","study_id":"60edd13110225f80f9f3709b","session_id":"6196bf622543ca412e027953","condition":"contingent","relevant_dimensions":["antennae","wings"],"bee_group":{"antennae":"B","wings":"2","pattern":"X","legs":"X"},"action":"avoid","summary":"bad-avoid","bonus":1.4800000000000009},{"rt":415,"stimulus":"\n                    <p><b>Action: <em>avoid</em></b></p>\n                    <p>This is the bee that you just saw.</p>\n                    <img src=\"bees-with-color/bee-A2DF.svg\" width=\"200\">\n                    <p><br>Your bonus pay is unchanged, and remains at $0.70.</p>\n            ","response":0,"trial_type":"html-button-response","trial_index":44,"time_elapsed":270092,"internal_node_id":"0.0-4.0-1.18","subject_id":"5ec2cc6ace4b500d365da245","study_id":"60edd13110225f80f9f3709b","session_id":"6196bf622543ca412e027953","condition":"contingent","relevant_dimensions":["antennae","wings"],"bee_group":{"antennae":"B","wings":"2","pattern":"X","legs":"X"},"bonus":1.4800000000000009},{"rt":709.5,"stimulus":"bees-with-color/bee-B1DF.svg","response":0,"trial_type":"image-button-response","trial_index":45,"time_elapsed":270803,"internal_node_id":"0.0-4.0-0.19","subject_id":"5ec2cc6ace4b500d365da245","study_id":"60edd13110225f80f9f3709b","session_id":"6196bf622543ca412e027953","condition":"contingent","relevant_dimensions":["antennae","wings"],"bee_group":{"antennae":"B","wings":"2","pattern":"X","legs":"X"},"action":"harvest","summary":"good-harvest","bonus":1.4800000000000009},{"rt":476.10000002384186,"stimulus":"\n                    <p><b>Action: <em>harvest</em></b></p>\n                    <p>This is the bee that you just saw.</p>\n                    <img src=\"bees-with-color/bee-B1DF.svg\" width=\"200\">\n                    <p><span class=\"greenText\"><b>Successful harvest!</b></span><br>Your pay has increased by $0.02. Your bonus pay is now $0.72.</p>\n            ","response":0,"trial_type":"html-button-response","trial_index":46,"time_elapsed":271281,"internal_node_id":"0.0-4.0-1.19","subject_id":"5ec2cc6ace4b500d365da245","study_id":"60edd13110225f80f9f3709b","session_id":"6196bf622543ca412e027953","condition":"contingent","relevant_dimensions":["antennae","wings"],"bee_group":{"antennae":"B","wings":"2","pattern":"X","legs":"X"},"bonus":1.4800000000000009},{"rt":1691.5,"stimulus":"bees-with-color/bee-A1SF.svg","response":0,"trial_type":"image-button-response","trial_index":47,"time_elapsed":272974,"internal_node_id":"0.0-4.0-0.20","subject_id":"5ec2cc6ace4b500d365da245","study_id":"60edd13110225f80f9f3709b","session_id":"6196bf622543ca412e027953","condition":"contingent","relevant_dimensions":["antennae","wings"],"bee_group":{"antennae":"B","wings":"2","pattern":"X","legs":"X"},"action":"harvest","summary":"good-harvest","bonus":1.4800000000000009},{"rt":489.89999997615814,"stimulus":"\n                    <p><b>Action: <em>harvest</em></b></p>\n                    <p>This is the bee that you just saw.</p>\n                    <img src=\"bees-with-color/bee-A1SF.svg\" width=\"200\">\n                    <p><span class=\"greenText\"><b>Successful harvest!</b></span><br>Your pay has increased by $0.02. Your bonus pay is now $0.74.</p>\n            ","response":0,"trial_type":"html-button-response","trial_index":48,"time_elapsed":273466,"internal_node_id":"0.0-4.0-1.20","subject_id":"5ec2cc6ace4b500d365da245","study_id":"60edd13110225f80f9f3709b","session_id":"6196bf622543ca412e027953","condition":"contingent","relevant_dimensions":["antennae","wings"],"bee_group":{"antennae":"B","wings":"2","pattern":"X","legs":"X"},"bonus":1.4800000000000009},{"rt":722.6000000238419,"stimulus":"bees-with-color/bee-B2SM.svg","response":1,"trial_type":"image-button-response","trial_index":49,"time_elapsed":274190,"internal_node_id":"0.0-4.0-0.21","subject_id":"5ec2cc6ace4b500d365da245","study_id":"60edd13110225f80f9f3709b","session_id":"6196bf622543ca412e027953","condition":"contingent","relevant_dimensions":["antennae","wings"],"bee_group":{"antennae":"B","wings":"2","pattern":"X","legs":"X"},"action":"avoid","summary":"good-avoid","bonus":1.4800000000000009},{"rt":445.89999997615814,"stimulus":"\n                    <p><b>Action: <em>avoid</em></b></p>\n                    <p>This is the bee that you just saw.</p>\n                    <img src=\"bees-with-color/bee-B2SM.svg\" width=\"200\">\n                    <p><br>Your bonus pay is unchanged, and remains at $0.74.</p>\n            ","response":0,"trial_type":"html-button-response","trial_index":50,"time_elapsed":274638,"internal_node_id":"0.0-4.0-1.21","subject_id":"5ec2cc6ace4b500d365da245","study_id":"60edd13110225f80f9f3709b","session_id":"6196bf622543ca412e027953","condition":"contingent","relevant_dimensions":["antennae","wings"],"bee_group":{"antennae":"B","wings":"2","pattern":"X","legs":"X"},"bonus":1.4800000000000009},{"rt":760.4000000357628,"stimulus":"bees-with-color/bee-B2SF.svg","response":1,"trial_type":"image-button-response","trial_index":51,"time_elapsed":275400,"internal_node_id":"0.0-4.0-0.22","subject_id":"5ec2cc6ace4b500d365da245","study_id":"60edd13110225f80f9f3709b","session_id":"6196bf622543ca412e027953","condition":"contingent","relevant_dimensions":["antennae","wings"],"bee_group":{"antennae":"B","wings":"2","pattern":"X","legs":"X"},"action":"avoid","summary":"good-avoid","bonus":1.4800000000000009},{"rt":358.0999999642372,"stimulus":"\n                    <p><b>Action: <em>avoid</em></b></p>\n                    <p>This is the bee that you just saw.</p>\n                    <img src=\"bees-with-color/bee-B2SF.svg\" width=\"200\">\n                    <p><br>Your bonus pay is unchanged, and remains at $0.74.</p>\n            ","response":0,"trial_type":"html-button-response","trial_index":52,"time_elapsed":275761,"internal_node_id":"0.0-4.0-1.22","subject_id":"5ec2cc6ace4b500d365da245","study_id":"60edd13110225f80f9f3709b","session_id":"6196bf622543ca412e027953","condition":"contingent","relevant_dimensions":["antennae","wings"],"bee_group":{"antennae":"B","wings":"2","pattern":"X","legs":"X"},"bonus":1.4800000000000009},{"rt":606.5,"stimulus":"bees-with-color/bee-A2SM.svg","response":1,"trial_type":"image-button-response","trial_index":53,"time_elapsed":276369,"internal_node_id":"0.0-4.0-0.23","subject_id":"5ec2cc6ace4b500d365da245","study_id":"60edd13110225f80f9f3709b","session_id":"6196bf622543ca412e027953","condition":"contingent","relevant_dimensions":["antennae","wings"],"bee_group":{"antennae":"B","wings":"2","pattern":"X","legs":"X"},"action":"avoid","summary":"bad-avoid","bonus":1.4800000000000009},{"rt":350.7999999523163,"stimulus":"\n                    <p><b>Action: <em>avoid</em></b></p>\n                    <p>This is the bee that you just saw.</p>\n                    <img src=\"bees-with-color/bee-A2SM.svg\" width=\"200\">\n                    <p><br>Your bonus pay is unchanged, and remains at $0.74.</p>\n            ","response":0,"trial_type":"html-button-response","trial_index":54,"time_elapsed":276722,"internal_node_id":"0.0-4.0-1.23","subject_id":"5ec2cc6ace4b500d365da245","study_id":"60edd13110225f80f9f3709b","session_id":"6196bf622543ca412e027953","condition":"contingent","relevant_dimensions":["antennae","wings"],"bee_group":{"antennae":"B","wings":"2","pattern":"X","legs":"X"},"bonus":1.4800000000000009},{"rt":719.6000000238419,"stimulus":"bees-with-color/bee-A1DF.svg","response":0,"trial_type":"image-button-response","trial_index":55,"time_elapsed":277443,"internal_node_id":"0.0-4.0-0.24","subject_id":"5ec2cc6ace4b500d365da245","study_id":"60edd13110225f80f9f3709b","session_id":"6196bf622543ca412e027953","condition":"contingent","relevant_dimensions":["antennae","wings"],"bee_group":{"antennae":"B","wings":"2","pattern":"X","legs":"X"},"action":"harvest","summary":"good-harvest","bonus":1.4800000000000009},{"rt":416.80000001192093,"stimulus":"\n                    <p><b>Action: <em>harvest</em></b></p>\n                    <p>This is the bee that you just saw.</p>\n                    <img src=\"bees-with-color/bee-A1DF.svg\" width=\"200\">\n                    <p><span class=\"greenText\"><b>Successful harvest!</b></span><br>Your pay has increased by $0.02. Your bonus pay is now $0.76.</p>\n            ","response":0,"trial_type":"html-button-response","trial_index":56,"time_elapsed":277862,"internal_node_id":"0.0-4.0-1.24","subject_id":"5ec2cc6ace4b500d365da245","study_id":"60edd13110225f80f9f3709b","session_id":"6196bf622543ca412e027953","condition":"contingent","relevant_dimensions":["antennae","wings"],"bee_group":{"antennae":"B","wings":"2","pattern":"X","legs":"X"},"bonus":1.4800000000000009},{"rt":775.0999999642372,"stimulus":"bees-with-color/bee-B2DF.svg","response":1,"trial_type":"image-button-response","trial_index":57,"time_elapsed":278639,"internal_node_id":"0.0-4.0-0.25","subject_id":"5ec2cc6ace4b500d365da245","study_id":"60edd13110225f80f9f3709b","session_id":"6196bf622543ca412e027953","condition":"contingent","relevant_dimensions":["antennae","wings"],"bee_group":{"antennae":"B","wings":"2","pattern":"X","legs":"X"},"action":"avoid","summary":"good-avoid","bonus":1.4800000000000009},{"rt":372.69999998807907,"stimulus":"\n                    <p><b>Action: <em>avoid</em></b></p>\n                    <p>This is the bee that you just saw.</p>\n                    <img src=\"bees-with-color/bee-B2DF.svg\" width=\"200\">\n                    <p><br>Your bonus pay is unchanged, and remains at $0.76.</p>\n            ","response":0,"trial_type":"html-button-response","trial_index":58,"time_elapsed":279014,"internal_node_id":"0.0-4.0-1.25","subject_id":"5ec2cc6ace4b500d365da245","study_id":"60edd13110225f80f9f3709b","session_id":"6196bf622543ca412e027953","condition":"contingent","relevant_dimensions":["antennae","wings"],"bee_group":{"antennae":"B","wings":"2","pattern":"X","legs":"X"},"bonus":1.4800000000000009},{"rt":717.3999999761581,"stimulus":"bees-with-color/bee-B1SF.svg","response":0,"trial_type":"image-button-response","trial_index":59,"time_elapsed":279733,"internal_node_id":"0.0-4.0-0.26","subject_id":"5ec2cc6ace4b500d365da245","study_id":"60edd13110225f80f9f3709b","session_id":"6196bf622543ca412e027953","condition":"contingent","relevant_dimensions":["antennae","wings"],"bee_group":{"antennae":"B","wings":"2","pattern":"X","legs":"X"},"action":"harvest","summary":"good-harvest","bonus":1.4800000000000009},{"rt":664.1999999880791,"stimulus":"\n                    <p><b>Action: <em>harvest</em></b></p>\n                    <p>This is the bee that you just saw.</p>\n                    <img src=\"bees-with-color/bee-B1SF.svg\" width=\"200\">\n                    <p><span class=\"greenText\"><b>Successful harvest!</b></span><br>Your pay has increased by $0.02. Your bonus pay is now $0.78.</p>\n            ","response":0,"trial_type":"html-button-response","trial_index":60,"time_elapsed":280399,"internal_node_id":"0.0-4.0-1.26","subject_id":"5ec2cc6ace4b500d365da245","study_id":"60edd13110225f80f9f3709b","session_id":"6196bf622543ca412e027953","condition":"contingent","relevant_dimensions":["antennae","wings"],"bee_group":{"antennae":"B","wings":"2","pattern":"X","legs":"X"},"bonus":1.4800000000000009},{"rt":1232,"stimulus":"bees-with-color/bee-B1DM.svg","response":0,"trial_type":"image-button-response","trial_index":61,"time_elapsed":281633,"internal_node_id":"0.0-4.0-0.27","subject_id":"5ec2cc6ace4b500d365da245","study_id":"60edd13110225f80f9f3709b","session_id":"6196bf622543ca412e027953","condition":"contingent","relevant_dimensions":["antennae","wings"],"bee_group":{"antennae":"B","wings":"2","pattern":"X","legs":"X"},"action":"harvest","summary":"good-harvest","bonus":1.4800000000000009},{"rt":466,"stimulus":"\n                    <p><b>Action: <em>harvest</em></b></p>\n                    <p>This is the bee that you just saw.</p>\n                    <img src=\"bees-with-color/bee-B1DM.svg\" width=\"200\">\n                    <p><span class=\"greenText\"><b>Successful harvest!</b></span><br>Your pay has increased by $0.02. Your bonus pay is now $0.80.</p>\n            ","response":0,"trial_type":"html-button-response","trial_index":62,"time_elapsed":282101,"internal_node_id":"0.0-4.0-1.27","subject_id":"5ec2cc6ace4b500d365da245","study_id":"60edd13110225f80f9f3709b","session_id":"6196bf622543ca412e027953","condition":"contingent","relevant_dimensions":["antennae","wings"],"bee_group":{"antennae":"B","wings":"2","pattern":"X","legs":"X"},"bonus":1.4800000000000009},{"rt":932.6999999880791,"stimulus":"bees-with-color/bee-A1DM.svg","response":0,"trial_type":"image-button-response","trial_index":63,"time_elapsed":283035,"internal_node_id":"0.0-4.0-0.28","subject_id":"5ec2cc6ace4b500d365da245","study_id":"60edd13110225f80f9f3709b","session_id":"6196bf622543ca412e027953","condition":"contingent","relevant_dimensions":["antennae","wings"],"bee_group":{"antennae":"B","wings":"2","pattern":"X","legs":"X"},"action":"harvest","summary":"good-harvest","bonus":1.4800000000000009},{"rt":375.89999997615814,"stimulus":"\n                    <p><b>Action: <em>harvest</em></b></p>\n                    <p>This is the bee that you just saw.</p>\n                    <img src=\"bees-with-color/bee-A1DM.svg\" width=\"200\">\n                    <p><span class=\"greenText\"><b>Successful harvest!</b></span><br>Your pay has increased by $0.02. Your bonus pay is now $0.82.</p>\n            ","response":0,"trial_type":"html-button-response","trial_index":64,"time_elapsed":283413,"internal_node_id":"0.0-4.0-1.28","subject_id":"5ec2cc6ace4b500d365da245","study_id":"60edd13110225f80f9f3709b","session_id":"6196bf622543ca412e027953","condition":"contingent","relevant_dimensions":["antennae","wings"],"bee_group":{"antennae":"B","wings":"2","pattern":"X","legs":"X"},"bonus":1.4800000000000009},{"rt":761.5,"stimulus":"bees-with-color/bee-B2DM.svg","response":1,"trial_type":"image-button-response","trial_index":65,"time_elapsed":284176,"internal_node_id":"0.0-4.0-0.29","subject_id":"5ec2cc6ace4b500d365da245","study_id":"60edd13110225f80f9f3709b","session_id":"6196bf622543ca412e027953","condition":"contingent","relevant_dimensions":["antennae","wings"],"bee_group":{"antennae":"B","wings":"2","pattern":"X","legs":"X"},"action":"avoid","summary":"good-avoid","bonus":1.4800000000000009},{"rt":448.0999999642372,"stimulus":"\n                    <p><b>Action: <em>avoid</em></b></p>\n                    <p>This is the bee that you just saw.</p>\n                    <img src=\"bees-with-color/bee-B2DM.svg\" width=\"200\">\n                    <p><br>Your bonus pay is unchanged, and remains at $0.82.</p>\n            ","response":0,"trial_type":"html-button-response","trial_index":66,"time_elapsed":284626,"internal_node_id":"0.0-4.0-1.29","subject_id":"5ec2cc6ace4b500d365da245","study_id":"60edd13110225f80f9f3709b","session_id":"6196bf622543ca412e027953","condition":"contingent","relevant_dimensions":["antennae","wings"],"bee_group":{"antennae":"B","wings":"2","pattern":"X","legs":"X"},"bonus":1.4800000000000009},{"rt":739.5,"stimulus":"bees-with-color/bee-A2SF.svg","response":1,"trial_type":"image-button-response","trial_index":67,"time_elapsed":285367,"internal_node_id":"0.0-4.0-0.30","subject_id":"5ec2cc6ace4b500d365da245","study_id":"60edd13110225f80f9f3709b","session_id":"6196bf622543ca412e027953","condition":"contingent","relevant_dimensions":["antennae","wings"],"bee_group":{"antennae":"B","wings":"2","pattern":"X","legs":"X"},"action":"avoid","summary":"bad-avoid","bonus":1.4800000000000009},{"rt":390.19999998807907,"stimulus":"\n                    <p><b>Action: <em>avoid</em></b></p>\n                    <p>This is the bee that you just saw.</p>\n                    <img src=\"bees-with-color/bee-A2SF.svg\" width=\"200\">\n                    <p><br>Your bonus pay is unchanged, and remains at $0.82.</p>\n            ","response":0,"trial_type":"html-button-response","trial_index":68,"time_elapsed":285759,"internal_node_id":"0.0-4.0-1.30","subject_id":"5ec2cc6ace4b500d365da245","study_id":"60edd13110225f80f9f3709b","session_id":"6196bf622543ca412e027953","condition":"contingent","relevant_dimensions":["antennae","wings"],"bee_group":{"antennae":"B","wings":"2","pattern":"X","legs":"X"},"bonus":1.4800000000000009},{"rt":845.3000000119209,"stimulus":"bees-with-color/bee-B1SM.svg","response":0,"trial_type":"image-button-response","trial_index":69,"time_elapsed":286606,"internal_node_id":"0.0-4.0-0.31","subject_id":"5ec2cc6ace4b500d365da245","study_id":"60edd13110225f80f9f3709b","session_id":"6196bf622543ca412e027953","condition":"contingent","relevant_dimensions":["antennae","wings"],"bee_group":{"antennae":"B","wings":"2","pattern":"X","legs":"X"},"action":"harvest","summary":"good-harvest","bonus":1.4800000000000009},{"rt":402,"stimulus":"\n                    <p><b>Action: <em>harvest</em></b></p>\n                    <p>This is the bee that you just saw.</p>\n                    <img src=\"bees-with-color/bee-B1SM.svg\" width=\"200\">\n                    <p><span class=\"greenText\"><b>Successful harvest!</b></span><br>Your pay has increased by $0.02. Your bonus pay is now $0.84.</p>\n            ","response":0,"trial_type":"html-button-response","trial_index":70,"time_elapsed":287010,"internal_node_id":"0.0-4.0-1.31","subject_id":"5ec2cc6ace4b500d365da245","study_id":"60edd13110225f80f9f3709b","session_id":"6196bf622543ca412e027953","condition":"contingent","relevant_dimensions":["antennae","wings"],"bee_group":{"antennae":"B","wings":"2","pattern":"X","legs":"X"},"bonus":1.4800000000000009},{"rt":900.4000000357628,"stimulus":"bees-with-color/bee-A1SM.svg","response":0,"trial_type":"image-button-response","trial_index":71,"time_elapsed":287912,"internal_node_id":"0.0-4.0-0.32","subject_id":"5ec2cc6ace4b500d365da245","study_id":"60edd13110225f80f9f3709b","session_id":"6196bf622543ca412e027953","condition":"contingent","relevant_dimensions":["antennae","wings"],"bee_group":{"antennae":"B","wings":"2","pattern":"X","legs":"X"},"action":"harvest","summary":"good-harvest","bonus":1.4800000000000009},{"rt":400.10000002384186,"stimulus":"\n                    <p><b>Action: <em>harvest</em></b></p>\n                    <p>This is the bee that you just saw.</p>\n                    <img src=\"bees-with-color/bee-A1SM.svg\" width=\"200\">\n                    <p><span class=\"greenText\"><b>Successful harvest!</b></span><br>Your pay has increased by $0.02. Your bonus pay is now $0.86.</p>\n            ","response":0,"trial_type":"html-button-response","trial_index":72,"time_elapsed":288314,"internal_node_id":"0.0-4.0-1.32","subject_id":"5ec2cc6ace4b500d365da245","study_id":"60edd13110225f80f9f3709b","session_id":"6196bf622543ca412e027953","condition":"contingent","relevant_dimensions":["antennae","wings"],"bee_group":{"antennae":"B","wings":"2","pattern":"X","legs":"X"},"bonus":1.4800000000000009},{"rt":1047.300000011921,"stimulus":"bees-with-color/bee-A2SM.svg","response":1,"trial_type":"image-button-response","trial_index":73,"time_elapsed":289363,"internal_node_id":"0.0-4.0-0.33","subject_id":"5ec2cc6ace4b500d365da245","study_id":"60edd13110225f80f9f3709b","session_id":"6196bf622543ca412e027953","condition":"contingent","relevant_dimensions":["antennae","wings"],"bee_group":{"antennae":"B","wings":"2","pattern":"X","legs":"X"},"action":"avoid","summary":"bad-avoid","bonus":1.4800000000000009},{"rt":442,"stimulus":"\n                    <p><b>Action: <em>avoid</em></b></p>\n                    <p>This is the bee that you just saw.</p>\n                    <img src=\"bees-with-color/bee-A2SM.svg\" width=\"200\">\n                    <p><br>Your bonus pay is unchanged, and remains at $0.86.</p>\n            ","response":0,"trial_type":"html-button-response","trial_index":74,"time_elapsed":289807,"internal_node_id":"0.0-4.0-1.33","subject_id":"5ec2cc6ace4b500d365da245","study_id":"60edd13110225f80f9f3709b","session_id":"6196bf622543ca412e027953","condition":"contingent","relevant_dimensions":["antennae","wings"],"bee_group":{"antennae":"B","wings":"2","pattern":"X","legs":"X"},"bonus":1.4800000000000009},{"rt":817.3000000119209,"stimulus":"bees-with-color/bee-B1SM.svg","response":0,"trial_type":"image-button-response","trial_index":75,"time_elapsed":290626,"internal_node_id":"0.0-4.0-0.34","subject_id":"5ec2cc6ace4b500d365da245","study_id":"60edd13110225f80f9f3709b","session_id":"6196bf622543ca412e027953","condition":"contingent","relevant_dimensions":["antennae","wings"],"bee_group":{"antennae":"B","wings":"2","pattern":"X","legs":"X"},"action":"harvest","summary":"good-harvest","bonus":1.4800000000000009},{"rt":508.5,"stimulus":"\n                    <p><b>Action: <em>harvest</em></b></p>\n                    <p>This is the bee that you just saw.</p>\n                    <img src=\"bees-with-color/bee-B1SM.svg\" width=\"200\">\n                    <p><span class=\"greenText\"><b>Successful harvest!</b></span><br>Your pay has increased by $0.02. Your bonus pay is now $0.88.</p>\n            ","response":0,"trial_type":"html-button-response","trial_index":76,"time_elapsed":291137,"internal_node_id":"0.0-4.0-1.34","subject_id":"5ec2cc6ace4b500d365da245","study_id":"60edd13110225f80f9f3709b","session_id":"6196bf622543ca412e027953","condition":"contingent","relevant_dimensions":["antennae","wings"],"bee_group":{"antennae":"B","wings":"2","pattern":"X","legs":"X"},"bonus":1.4800000000000009},{"rt":753.5,"stimulus":"bees-with-color/bee-B2DM.svg","response":1,"trial_type":"image-button-response","trial_index":77,"time_elapsed":291892,"internal_node_id":"0.0-4.0-0.35","subject_id":"5ec2cc6ace4b500d365da245","study_id":"60edd13110225f80f9f3709b","session_id":"6196bf622543ca412e027953","condition":"contingent","relevant_dimensions":["antennae","wings"],"bee_group":{"antennae":"B","wings":"2","pattern":"X","legs":"X"},"action":"avoid","summary":"good-avoid","bonus":1.4800000000000009},{"rt":380.5,"stimulus":"\n                    <p><b>Action: <em>avoid</em></b></p>\n                    <p>This is the bee that you just saw.</p>\n                    <img src=\"bees-with-color/bee-B2DM.svg\" width=\"200\">\n                    <p><br>Your bonus pay is unchanged, and remains at $0.88.</p>\n            ","response":0,"trial_type":"html-button-response","trial_index":78,"time_elapsed":292275,"internal_node_id":"0.0-4.0-1.35","subject_id":"5ec2cc6ace4b500d365da245","study_id":"60edd13110225f80f9f3709b","session_id":"6196bf622543ca412e027953","condition":"contingent","relevant_dimensions":["antennae","wings"],"bee_group":{"antennae":"B","wings":"2","pattern":"X","legs":"X"},"bonus":1.4800000000000009},{"rt":748.1000000238419,"stimulus":"bees-with-color/bee-A1SF.svg","response":0,"trial_type":"image-button-response","trial_index":79,"time_elapsed":293024,"internal_node_id":"0.0-4.0-0.36","subject_id":"5ec2cc6ace4b500d365da245","study_id":"60edd13110225f80f9f3709b","session_id":"6196bf622543ca412e027953","condition":"contingent","relevant_dimensions":["antennae","wings"],"bee_group":{"antennae":"B","wings":"2","pattern":"X","legs":"X"},"action":"harvest","summary":"good-harvest","bonus":1.4800000000000009},{"rt":540.1000000238419,"stimulus":"\n                    <p><b>Action: <em>harvest</em></b></p>\n                    <p>This is the bee that you just saw.</p>\n                    <img src=\"bees-with-color/bee-A1SF.svg\" width=\"200\">\n                    <p><span class=\"greenText\"><b>Successful harvest!</b></span><br>Your pay has increased by $0.02. Your bonus pay is now $0.90.</p>\n            ","response":0,"trial_type":"html-button-response","trial_index":80,"time_elapsed":293567,"internal_node_id":"0.0-4.0-1.36","subject_id":"5ec2cc6ace4b500d365da245","study_id":"60edd13110225f80f9f3709b","session_id":"6196bf622543ca412e027953","condition":"contingent","relevant_dimensions":["antennae","wings"],"bee_group":{"antennae":"B","wings":"2","pattern":"X","legs":"X"},"bonus":1.4800000000000009},{"rt":872.4000000357628,"stimulus":"bees-with-color/bee-A1DF.svg","response":0,"trial_type":"image-button-response","trial_index":81,"time_elapsed":294441,"internal_node_id":"0.0-4.0-0.37","subject_id":"5ec2cc6ace4b500d365da245","study_id":"60edd13110225f80f9f3709b","session_id":"6196bf622543ca412e027953","condition":"contingent","relevant_dimensions":["antennae","wings"],"bee_group":{"antennae":"B","wings":"2","pattern":"X","legs":"X"},"action":"harvest","summary":"good-harvest","bonus":1.4800000000000009},{"rt":404.80000001192093,"stimulus":"\n                    <p><b>Action: <em>harvest</em></b></p>\n                    <p>This is the bee that you just saw.</p>\n                    <img src=\"bees-with-color/bee-A1DF.svg\" width=\"200\">\n                    <p><span class=\"greenText\"><b>Successful harvest!</b></span><br>Your pay has increased by $0.02. Your bonus pay is now $0.92.</p>\n            ","response":0,"trial_type":"html-button-response","trial_index":82,"time_elapsed":294848,"internal_node_id":"0.0-4.0-1.37","subject_id":"5ec2cc6ace4b500d365da245","study_id":"60edd13110225f80f9f3709b","session_id":"6196bf622543ca412e027953","condition":"contingent","relevant_dimensions":["antennae","wings"],"bee_group":{"antennae":"B","wings":"2","pattern":"X","legs":"X"},"bonus":1.4800000000000009},{"rt":1275.300000011921,"stimulus":"bees-with-color/bee-B2SM.svg","response":1,"trial_type":"image-button-response","trial_index":83,"time_elapsed":296125,"internal_node_id":"0.0-4.0-0.38","subject_id":"5ec2cc6ace4b500d365da245","study_id":"60edd13110225f80f9f3709b","session_id":"6196bf622543ca412e027953","condition":"contingent","relevant_dimensions":["antennae","wings"],"bee_group":{"antennae":"B","wings":"2","pattern":"X","legs":"X"},"action":"avoid","summary":"good-avoid","bonus":1.4800000000000009},{"rt":473.60000002384186,"stimulus":"\n                    <p><b>Action: <em>avoid</em></b></p>\n                    <p>This is the bee that you just saw.</p>\n                    <img src=\"bees-with-color/bee-B2SM.svg\" width=\"200\">\n                    <p><br>Your bonus pay is unchanged, and remains at $0.92.</p>\n            ","response":0,"trial_type":"html-button-response","trial_index":84,"time_elapsed":296601,"internal_node_id":"0.0-4.0-1.38","subject_id":"5ec2cc6ace4b500d365da245","study_id":"60edd13110225f80f9f3709b","session_id":"6196bf622543ca412e027953","condition":"contingent","relevant_dimensions":["antennae","wings"],"bee_group":{"antennae":"B","wings":"2","pattern":"X","legs":"X"},"bonus":1.4800000000000009},{"rt":868.8999999761581,"stimulus":"bees-with-color/bee-A1DM.svg","response":0,"trial_type":"image-button-response","trial_index":85,"time_elapsed":297471,"internal_node_id":"0.0-4.0-0.39","subject_id":"5ec2cc6ace4b500d365da245","study_id":"60edd13110225f80f9f3709b","session_id":"6196bf622543ca412e027953","condition":"contingent","relevant_dimensions":["antennae","wings"],"bee_group":{"antennae":"B","wings":"2","pattern":"X","legs":"X"},"action":"harvest","summary":"good-harvest","bonus":1.4800000000000009},{"rt":421.60000002384186,"stimulus":"\n                    <p><b>Action: <em>harvest</em></b></p>\n                    <p>This is the bee that you just saw.</p>\n                    <img src=\"bees-with-color/bee-A1DM.svg\" width=\"200\">\n                    <p><span class=\"greenText\"><b>Successful harvest!</b></span><br>Your pay has increased by $0.02. Your bonus pay is now $0.94.</p>\n            ","response":0,"trial_type":"html-button-response","trial_index":86,"time_elapsed":297895,"internal_node_id":"0.0-4.0-1.39","subject_id":"5ec2cc6ace4b500d365da245","study_id":"60edd13110225f80f9f3709b","session_id":"6196bf622543ca412e027953","condition":"contingent","relevant_dimensions":["antennae","wings"],"bee_group":{"antennae":"B","wings":"2","pattern":"X","legs":"X"},"bonus":1.4800000000000009},{"rt":829.5999999642372,"stimulus":"bees-with-color/bee-B1DM.svg","response":0,"trial_type":"image-button-response","trial_index":87,"time_elapsed":298726,"internal_node_id":"0.0-4.0-0.40","subject_id":"5ec2cc6ace4b500d365da245","study_id":"60edd13110225f80f9f3709b","session_id":"6196bf622543ca412e027953","condition":"contingent","relevant_dimensions":["antennae","wings"],"bee_group":{"antennae":"B","wings":"2","pattern":"X","legs":"X"},"action":"harvest","summary":"good-harvest","bonus":1.4800000000000009},{"rt":415.0999999642372,"stimulus":"\n                    <p><b>Action: <em>harvest</em></b></p>\n                    <p>This is the bee that you just saw.</p>\n                    <img src=\"bees-with-color/bee-B1DM.svg\" width=\"200\">\n                    <p><span class=\"greenText\"><b>Successful harvest!</b></span><br>Your pay has increased by $0.02. Your bonus pay is now $0.96.</p>\n            ","response":0,"trial_type":"html-button-response","trial_index":88,"time_elapsed":299143,"internal_node_id":"0.0-4.0-1.40","subject_id":"5ec2cc6ace4b500d365da245","study_id":"60edd13110225f80f9f3709b","session_id":"6196bf622543ca412e027953","condition":"contingent","relevant_dimensions":["antennae","wings"],"bee_group":{"antennae":"B","wings":"2","pattern":"X","legs":"X"},"bonus":1.4800000000000009},{"rt":719.6000000238419,"stimulus":"bees-with-color/bee-A2DF.svg","response":1,"trial_type":"image-button-response","trial_index":89,"time_elapsed":299864,"internal_node_id":"0.0-4.0-0.41","subject_id":"5ec2cc6ace4b500d365da245","study_id":"60edd13110225f80f9f3709b","session_id":"6196bf622543ca412e027953","condition":"contingent","relevant_dimensions":["antennae","wings"],"bee_group":{"antennae":"B","wings":"2","pattern":"X","legs":"X"},"action":"avoid","summary":"bad-avoid","bonus":1.4800000000000009},{"rt":467,"stimulus":"\n                    <p><b>Action: <em>avoid</em></b></p>\n                    <p>This is the bee that you just saw.</p>\n                    <img src=\"bees-with-color/bee-A2DF.svg\" width=\"200\">\n                    <p><br>Your bonus pay is unchanged, and remains at $0.96.</p>\n            ","response":0,"trial_type":"html-button-response","trial_index":90,"time_elapsed":300333,"internal_node_id":"0.0-4.0-1.41","subject_id":"5ec2cc6ace4b500d365da245","study_id":"60edd13110225f80f9f3709b","session_id":"6196bf622543ca412e027953","condition":"contingent","relevant_dimensions":["antennae","wings"],"bee_group":{"antennae":"B","wings":"2","pattern":"X","legs":"X"},"bonus":1.4800000000000009},{"rt":714.5,"stimulus":"bees-with-color/bee-B1SF.svg","response":0,"trial_type":"image-button-response","trial_index":91,"time_elapsed":301049,"internal_node_id":"0.0-4.0-0.42","subject_id":"5ec2cc6ace4b500d365da245","study_id":"60edd13110225f80f9f3709b","session_id":"6196bf622543ca412e027953","condition":"contingent","relevant_dimensions":["antennae","wings"],"bee_group":{"antennae":"B","wings":"2","pattern":"X","legs":"X"},"action":"harvest","summary":"good-harvest","bonus":1.4800000000000009},{"rt":435.30000001192093,"stimulus":"\n                    <p><b>Action: <em>harvest</em></b></p>\n                    <p>This is the bee that you just saw.</p>\n                    <img src=\"bees-with-color/bee-B1SF.svg\" width=\"200\">\n                    <p><span class=\"greenText\"><b>Successful harvest!</b></span><br>Your pay has increased by $0.02. Your bonus pay is now $0.98.</p>\n            ","response":0,"trial_type":"html-button-response","trial_index":92,"time_elapsed":301486,"internal_node_id":"0.0-4.0-1.42","subject_id":"5ec2cc6ace4b500d365da245","study_id":"60edd13110225f80f9f3709b","session_id":"6196bf622543ca412e027953","condition":"contingent","relevant_dimensions":["antennae","wings"],"bee_group":{"antennae":"B","wings":"2","pattern":"X","legs":"X"},"bonus":1.4800000000000009},{"rt":996.7000000476837,"stimulus":"bees-with-color/bee-A2DM.svg","response":1,"trial_type":"image-button-response","trial_index":93,"time_elapsed":302485,"internal_node_id":"0.0-4.0-0.43","subject_id":"5ec2cc6ace4b500d365da245","study_id":"60edd13110225f80f9f3709b","session_id":"6196bf622543ca412e027953","condition":"contingent","relevant_dimensions":["antennae","wings"],"bee_group":{"antennae":"B","wings":"2","pattern":"X","legs":"X"},"action":"avoid","summary":"bad-avoid","bonus":1.4800000000000009},{"rt":402.5,"stimulus":"\n                    <p><b>Action: <em>avoid</em></b></p>\n                    <p>This is the bee that you just saw.</p>\n                    <img src=\"bees-with-color/bee-A2DM.svg\" width=\"200\">\n                    <p><br>Your bonus pay is unchanged, and remains at $0.98.</p>\n            ","response":0,"trial_type":"html-button-response","trial_index":94,"time_elapsed":302890,"internal_node_id":"0.0-4.0-1.43","subject_id":"5ec2cc6ace4b500d365da245","study_id":"60edd13110225f80f9f3709b","session_id":"6196bf622543ca412e027953","condition":"contingent","relevant_dimensions":["antennae","wings"],"bee_group":{"antennae":"B","wings":"2","pattern":"X","legs":"X"},"bonus":1.4800000000000009},{"rt":2040.2000000476837,"stimulus":"bees-with-color/bee-B2SF.svg","response":1,"trial_type":"image-button-response","trial_index":95,"time_elapsed":304932,"internal_node_id":"0.0-4.0-0.44","subject_id":"5ec2cc6ace4b500d365da245","study_id":"60edd13110225f80f9f3709b","session_id":"6196bf622543ca412e027953","condition":"contingent","relevant_dimensions":["antennae","wings"],"bee_group":{"antennae":"B","wings":"2","pattern":"X","legs":"X"},"action":"avoid","summary":"good-avoid","bonus":1.4800000000000009},{"rt":469.10000002384186,"stimulus":"\n                    <p><b>Action: <em>avoid</em></b></p>\n                    <p>This is the bee that you just saw.</p>\n                    <img src=\"bees-with-color/bee-B2SF.svg\" width=\"200\">\n                    <p><br>Your bonus pay is unchanged, and remains at $0.98.</p>\n            ","response":0,"trial_type":"html-button-response","trial_index":96,"time_elapsed":305403,"internal_node_id":"0.0-4.0-1.44","subject_id":"5ec2cc6ace4b500d365da245","study_id":"60edd13110225f80f9f3709b","session_id":"6196bf622543ca412e027953","condition":"contingent","relevant_dimensions":["antennae","wings"],"bee_group":{"antennae":"B","wings":"2","pattern":"X","legs":"X"},"bonus":1.4800000000000009},{"rt":761.1000000238419,"stimulus":"bees-with-color/bee-B2DF.svg","response":1,"trial_type":"image-button-response","trial_index":97,"time_elapsed":306166,"internal_node_id":"0.0-4.0-0.45","subject_id":"5ec2cc6ace4b500d365da245","study_id":"60edd13110225f80f9f3709b","session_id":"6196bf622543ca412e027953","condition":"contingent","relevant_dimensions":["antennae","wings"],"bee_group":{"antennae":"B","wings":"2","pattern":"X","legs":"X"},"action":"avoid","summary":"good-avoid","bonus":1.4800000000000009},{"rt":627,"stimulus":"\n                    <p><b>Action: <em>avoid</em></b></p>\n                    <p>This is the bee that you just saw.</p>\n                    <img src=\"bees-with-color/bee-B2DF.svg\" width=\"200\">\n                    <p><br>Your bonus pay is unchanged, and remains at $0.98.</p>\n            ","response":0,"trial_type":"html-button-response","trial_index":98,"time_elapsed":306795,"internal_node_id":"0.0-4.0-1.45","subject_id":"5ec2cc6ace4b500d365da245","study_id":"60edd13110225f80f9f3709b","session_id":"6196bf622543ca412e027953","condition":"contingent","relevant_dimensions":["antennae","wings"],"bee_group":{"antennae":"B","wings":"2","pattern":"X","legs":"X"},"bonus":1.4800000000000009},{"rt":1102.6000000238419,"stimulus":"bees-with-color/bee-A2SF.svg","response":1,"trial_type":"image-button-response","trial_index":99,"time_elapsed":307899,"internal_node_id":"0.0-4.0-0.46","subject_id":"5ec2cc6ace4b500d365da245","study_id":"60edd13110225f80f9f3709b","session_id":"6196bf622543ca412e027953","condition":"contingent","relevant_dimensions":["antennae","wings"],"bee_group":{"antennae":"B","wings":"2","pattern":"X","legs":"X"},"action":"avoid","summary":"bad-avoid","bonus":1.4800000000000009},{"rt":654.6999999880791,"stimulus":"\n                    <p><b>Action: <em>avoid</em></b></p>\n                    <p>This is the bee that you just saw.</p>\n                    <img src=\"bees-with-color/bee-A2SF.svg\" width=\"200\">\n                    <p><br>Your bonus pay is unchanged, and remains at $0.98.</p>\n            ","response":0,"trial_type":"html-button-response","trial_index":100,"time_elapsed":308556,"internal_node_id":"0.0-4.0-1.46","subject_id":"5ec2cc6ace4b500d365da245","study_id":"60edd13110225f80f9f3709b","session_id":"6196bf622543ca412e027953","condition":"contingent","relevant_dimensions":["antennae","wings"],"bee_group":{"antennae":"B","wings":"2","pattern":"X","legs":"X"},"bonus":1.4800000000000009},{"rt":632.6000000238419,"stimulus":"bees-with-color/bee-B1DF.svg","response":0,"trial_type":"image-button-response","trial_index":101,"time_elapsed":309190,"internal_node_id":"0.0-4.0-0.47","subject_id":"5ec2cc6ace4b500d365da245","study_id":"60edd13110225f80f9f3709b","session_id":"6196bf622543ca412e027953","condition":"contingent","relevant_dimensions":["antennae","wings"],"bee_group":{"antennae":"B","wings":"2","pattern":"X","legs":"X"},"action":"harvest","summary":"good-harvest","bonus":1.4800000000000009},{"rt":405.10000002384186,"stimulus":"\n                    <p><b>Action: <em>harvest</em></b></p>\n                    <p>This is the bee that you just saw.</p>\n                    <img src=\"bees-with-color/bee-B1DF.svg\" width=\"200\">\n                    <p><span class=\"greenText\"><b>Successful harvest!</b></span><br>Your pay has increased by $0.02. Your bonus pay is now $1.00.</p>\n            ","response":0,"trial_type":"html-button-response","trial_index":102,"time_elapsed":309597,"internal_node_id":"0.0-4.0-1.47","subject_id":"5ec2cc6ace4b500d365da245","study_id":"60edd13110225f80f9f3709b","session_id":"6196bf622543ca412e027953","condition":"contingent","relevant_dimensions":["antennae","wings"],"bee_group":{"antennae":"B","wings":"2","pattern":"X","legs":"X"},"bonus":1.4800000000000009},{"rt":1202.2999999523163,"stimulus":"bees-with-color/bee-A2SF.svg","response":1,"trial_type":"image-button-response","trial_index":103,"time_elapsed":310801,"internal_node_id":"0.0-4.0-0.48","subject_id":"5ec2cc6ace4b500d365da245","study_id":"60edd13110225f80f9f3709b","session_id":"6196bf622543ca412e027953","condition":"contingent","relevant_dimensions":["antennae","wings"],"bee_group":{"antennae":"B","wings":"2","pattern":"X","legs":"X"},"action":"avoid","summary":"bad-avoid","bonus":1.4800000000000009},{"rt":419.89999997615814,"stimulus":"\n                    <p><b>Action: <em>avoid</em></b></p>\n                    <p>This is the bee that you just saw.</p>\n                    <img src=\"bees-with-color/bee-A2SF.svg\" width=\"200\">\n                    <p><br>Your bonus pay is unchanged, and remains at $1.00.</p>\n            ","response":0,"trial_type":"html-button-response","trial_index":104,"time_elapsed":311223,"internal_node_id":"0.0-4.0-1.48","subject_id":"5ec2cc6ace4b500d365da245","study_id":"60edd13110225f80f9f3709b","session_id":"6196bf622543ca412e027953","condition":"contingent","relevant_dimensions":["antennae","wings"],"bee_group":{"antennae":"B","wings":"2","pattern":"X","legs":"X"},"bonus":1.4800000000000009},{"rt":877.3999999761581,"stimulus":"bees-with-color/bee-B1DF.svg","response":0,"trial_type":"image-button-response","trial_index":105,"time_elapsed":312102,"internal_node_id":"0.0-4.0-0.49","subject_id":"5ec2cc6ace4b500d365da245","study_id":"60edd13110225f80f9f3709b","session_id":"6196bf622543ca412e027953","condition":"contingent","relevant_dimensions":["antennae","wings"],"bee_group":{"antennae":"B","wings":"2","pattern":"X","legs":"X"},"action":"harvest","summary":"good-harvest","bonus":1.4800000000000009},{"rt":447.5,"stimulus":"\n                    <p><b>Action: <em>harvest</em></b></p>\n                    <p>This is the bee that you just saw.</p>\n                    <img src=\"bees-with-color/bee-B1DF.svg\" width=\"200\">\n                    <p><span class=\"greenText\"><b>Successful harvest!</b></span><br>Your pay has increased by $0.02. Your bonus pay is now $1.02.</p>\n            ","response":0,"trial_type":"html-button-response","trial_index":106,"time_elapsed":312552,"internal_node_id":"0.0-4.0-1.49","subject_id":"5ec2cc6ace4b500d365da245","study_id":"60edd13110225f80f9f3709b","session_id":"6196bf622543ca412e027953","condition":"contingent","relevant_dimensions":["antennae","wings"],"bee_group":{"antennae":"B","wings":"2","pattern":"X","legs":"X"},"bonus":1.4800000000000009},{"rt":892.5,"stimulus":"bees-with-color/bee-B1SM.svg","response":0,"trial_type":"image-button-response","trial_index":107,"time_elapsed":313446,"internal_node_id":"0.0-4.0-0.50","subject_id":"5ec2cc6ace4b500d365da245","study_id":"60edd13110225f80f9f3709b","session_id":"6196bf622543ca412e027953","condition":"contingent","relevant_dimensions":["antennae","wings"],"bee_group":{"antennae":"B","wings":"2","pattern":"X","legs":"X"},"action":"harvest","summary":"good-harvest","bonus":1.4800000000000009},{"rt":467.10000002384186,"stimulus":"\n                    <p><b>Action: <em>harvest</em></b></p>\n                    <p>This is the bee that you just saw.</p>\n                    <img src=\"bees-with-color/bee-B1SM.svg\" width=\"200\">\n                    <p><span class=\"greenText\"><b>Successful harvest!</b></span><br>Your pay has increased by $0.02. Your bonus pay is now $1.04.</p>\n            ","response":0,"trial_type":"html-button-response","trial_index":108,"time_elapsed":313915,"internal_node_id":"0.0-4.0-1.50","subject_id":"5ec2cc6ace4b500d365da245","study_id":"60edd13110225f80f9f3709b","session_id":"6196bf622543ca412e027953","condition":"contingent","relevant_dimensions":["antennae","wings"],"bee_group":{"antennae":"B","wings":"2","pattern":"X","legs":"X"},"bonus":1.4800000000000009},{"rt":701.3999999761581,"stimulus":"bees-with-color/bee-A1SF.svg","response":0,"trial_type":"image-button-response","trial_index":109,"time_elapsed":314618,"internal_node_id":"0.0-4.0-0.51","subject_id":"5ec2cc6ace4b500d365da245","study_id":"60edd13110225f80f9f3709b","session_id":"6196bf622543ca412e027953","condition":"contingent","relevant_dimensions":["antennae","wings"],"bee_group":{"antennae":"B","wings":"2","pattern":"X","legs":"X"},"action":"harvest","summary":"good-harvest","bonus":1.4800000000000009},{"rt":392.7999999523163,"stimulus":"\n                    <p><b>Action: <em>harvest</em></b></p>\n                    <p>This is the bee that you just saw.</p>\n                    <img src=\"bees-with-color/bee-A1SF.svg\" width=\"200\">\n                    <p><span class=\"greenText\"><b>Successful harvest!</b></span><br>Your pay has increased by $0.02. Your bonus pay is now $1.06.</p>\n            ","response":0,"trial_type":"html-button-response","trial_index":110,"time_elapsed":315013,"internal_node_id":"0.0-4.0-1.51","subject_id":"5ec2cc6ace4b500d365da245","study_id":"60edd13110225f80f9f3709b","session_id":"6196bf622543ca412e027953","condition":"contingent","relevant_dimensions":["antennae","wings"],"bee_group":{"antennae":"B","wings":"2","pattern":"X","legs":"X"},"bonus":1.4800000000000009},{"rt":698.5,"stimulus":"bees-with-color/bee-B2SM.svg","response":1,"trial_type":"image-button-response","trial_index":111,"time_elapsed":315713,"internal_node_id":"0.0-4.0-0.52","subject_id":"5ec2cc6ace4b500d365da245","study_id":"60edd13110225f80f9f3709b","session_id":"6196bf622543ca412e027953","condition":"contingent","relevant_dimensions":["antennae","wings"],"bee_group":{"antennae":"B","wings":"2","pattern":"X","legs":"X"},"action":"avoid","summary":"good-avoid","bonus":1.4800000000000009},{"rt":445,"stimulus":"\n                    <p><b>Action: <em>avoid</em></b></p>\n                    <p>This is the bee that you just saw.</p>\n                    <img src=\"bees-with-color/bee-B2SM.svg\" width=\"200\">\n                    <p><br>Your bonus pay is unchanged, and remains at $1.06.</p>\n            ","response":0,"trial_type":"html-button-response","trial_index":112,"time_elapsed":316160,"internal_node_id":"0.0-4.0-1.52","subject_id":"5ec2cc6ace4b500d365da245","study_id":"60edd13110225f80f9f3709b","session_id":"6196bf622543ca412e027953","condition":"contingent","relevant_dimensions":["antennae","wings"],"bee_group":{"antennae":"B","wings":"2","pattern":"X","legs":"X"},"bonus":1.4800000000000009},{"rt":978.5999999642372,"stimulus":"bees-with-color/bee-A2DM.svg","response":1,"trial_type":"image-button-response","trial_index":113,"time_elapsed":317140,"internal_node_id":"0.0-4.0-0.53","subject_id":"5ec2cc6ace4b500d365da245","study_id":"60edd13110225f80f9f3709b","session_id":"6196bf622543ca412e027953","condition":"contingent","relevant_dimensions":["antennae","wings"],"bee_group":{"antennae":"B","wings":"2","pattern":"X","legs":"X"},"action":"avoid","summary":"bad-avoid","bonus":1.4800000000000009},{"rt":508,"stimulus":"\n                    <p><b>Action: <em>avoid</em></b></p>\n                    <p>This is the bee that you just saw.</p>\n                    <img src=\"bees-with-color/bee-A2DM.svg\" width=\"200\">\n                    <p><br>Your bonus pay is unchanged, and remains at $1.06.</p>\n            ","response":0,"trial_type":"html-button-response","trial_index":114,"time_elapsed":317650,"internal_node_id":"0.0-4.0-1.53","subject_id":"5ec2cc6ace4b500d365da245","study_id":"60edd13110225f80f9f3709b","session_id":"6196bf622543ca412e027953","condition":"contingent","relevant_dimensions":["antennae","wings"],"bee_group":{"antennae":"B","wings":"2","pattern":"X","legs":"X"},"bonus":1.4800000000000009},{"rt":886.3999999761581,"stimulus":"bees-with-color/bee-B2DM.svg","response":1,"trial_type":"image-button-response","trial_index":115,"time_elapsed":318538,"internal_node_id":"0.0-4.0-0.54","subject_id":"5ec2cc6ace4b500d365da245","study_id":"60edd13110225f80f9f3709b","session_id":"6196bf622543ca412e027953","condition":"contingent","relevant_dimensions":["antennae","wings"],"bee_group":{"antennae":"B","wings":"2","pattern":"X","legs":"X"},"action":"avoid","summary":"good-avoid","bonus":1.4800000000000009},{"rt":436.30000001192093,"stimulus":"\n                    <p><b>Action: <em>avoid</em></b></p>\n                    <p>This is the bee that you just saw.</p>\n                    <img src=\"bees-with-color/bee-B2DM.svg\" width=\"200\">\n                    <p><br>Your bonus pay is unchanged, and remains at $1.06.</p>\n            ","response":0,"trial_type":"html-button-response","trial_index":116,"time_elapsed":318976,"internal_node_id":"0.0-4.0-1.54","subject_id":"5ec2cc6ace4b500d365da245","study_id":"60edd13110225f80f9f3709b","session_id":"6196bf622543ca412e027953","condition":"contingent","relevant_dimensions":["antennae","wings"],"bee_group":{"antennae":"B","wings":"2","pattern":"X","legs":"X"},"bonus":1.4800000000000009},{"rt":674.5999999642372,"stimulus":"bees-with-color/bee-B1DM.svg","response":0,"trial_type":"image-button-response","trial_index":117,"time_elapsed":319652,"internal_node_id":"0.0-4.0-0.55","subject_id":"5ec2cc6ace4b500d365da245","study_id":"60edd13110225f80f9f3709b","session_id":"6196bf622543ca412e027953","condition":"contingent","relevant_dimensions":["antennae","wings"],"bee_group":{"antennae":"B","wings":"2","pattern":"X","legs":"X"},"action":"harvest","summary":"good-harvest","bonus":1.4800000000000009},{"rt":355.19999998807907,"stimulus":"\n                    <p><b>Action: <em>harvest</em></b></p>\n                    <p>This is the bee that you just saw.</p>\n                    <img src=\"bees-with-color/bee-B1DM.svg\" width=\"200\">\n                    <p><span class=\"greenText\"><b>Successful harvest!</b></span><br>Your pay has increased by $0.02. Your bonus pay is now $1.08.</p>\n            ","response":0,"trial_type":"html-button-response","trial_index":118,"time_elapsed":320009,"internal_node_id":"0.0-4.0-1.55","subject_id":"5ec2cc6ace4b500d365da245","study_id":"60edd13110225f80f9f3709b","session_id":"6196bf622543ca412e027953","condition":"contingent","relevant_dimensions":["antennae","wings"],"bee_group":{"antennae":"B","wings":"2","pattern":"X","legs":"X"},"bonus":1.4800000000000009},{"rt":689.5999999642372,"stimulus":"bees-with-color/bee-A1DM.svg","response":0,"trial_type":"image-button-response","trial_index":119,"time_elapsed":320700,"internal_node_id":"0.0-4.0-0.56","subject_id":"5ec2cc6ace4b500d365da245","study_id":"60edd13110225f80f9f3709b","session_id":"6196bf622543ca412e027953","condition":"contingent","relevant_dimensions":["antennae","wings"],"bee_group":{"antennae":"B","wings":"2","pattern":"X","legs":"X"},"action":"harvest","summary":"good-harvest","bonus":1.4800000000000009},{"rt":304.0999999642372,"stimulus":"\n                    <p><b>Action: <em>harvest</em></b></p>\n                    <p>This is the bee that you just saw.</p>\n                    <img src=\"bees-with-color/bee-A1DM.svg\" width=\"200\">\n                    <p><span class=\"greenText\"><b>Successful harvest!</b></span><br>Your pay has increased by $0.02. Your bonus pay is now $1.10.</p>\n            ","response":0,"trial_type":"html-button-response","trial_index":120,"time_elapsed":321006,"internal_node_id":"0.0-4.0-1.56","subject_id":"5ec2cc6ace4b500d365da245","study_id":"60edd13110225f80f9f3709b","session_id":"6196bf622543ca412e027953","condition":"contingent","relevant_dimensions":["antennae","wings"],"bee_group":{"antennae":"B","wings":"2","pattern":"X","legs":"X"},"bonus":1.4800000000000009},{"rt":675.4000000357628,"stimulus":"bees-with-color/bee-B2DF.svg","response":1,"trial_type":"image-button-response","trial_index":121,"time_elapsed":321683,"internal_node_id":"0.0-4.0-0.57","subject_id":"5ec2cc6ace4b500d365da245","study_id":"60edd13110225f80f9f3709b","session_id":"6196bf622543ca412e027953","condition":"contingent","relevant_dimensions":["antennae","wings"],"bee_group":{"antennae":"B","wings":"2","pattern":"X","legs":"X"},"action":"avoid","summary":"good-avoid","bonus":1.4800000000000009},{"rt":675.1999999880791,"stimulus":"\n                    <p><b>Action: <em>avoid</em></b></p>\n                    <p>This is the bee that you just saw.</p>\n                    <img src=\"bees-with-color/bee-B2DF.svg\" width=\"200\">\n                    <p><br>Your bonus pay is unchanged, and remains at $1.10.</p>\n            ","response":0,"trial_type":"html-button-response","trial_index":122,"time_elapsed":322360,"internal_node_id":"0.0-4.0-1.57","subject_id":"5ec2cc6ace4b500d365da245","study_id":"60edd13110225f80f9f3709b","session_id":"6196bf622543ca412e027953","condition":"contingent","relevant_dimensions":["antennae","wings"],"bee_group":{"antennae":"B","wings":"2","pattern":"X","legs":"X"},"bonus":1.4800000000000009},{"rt":1499.300000011921,"stimulus":"bees-with-color/bee-B2SF.svg","response":1,"trial_type":"image-button-response","trial_index":123,"time_elapsed":323861,"internal_node_id":"0.0-4.0-0.58","subject_id":"5ec2cc6ace4b500d365da245","study_id":"60edd13110225f80f9f3709b","session_id":"6196bf622543ca412e027953","condition":"contingent","relevant_dimensions":["antennae","wings"],"bee_group":{"antennae":"B","wings":"2","pattern":"X","legs":"X"},"action":"avoid","summary":"good-avoid","bonus":1.4800000000000009},{"rt":919.1000000238419,"stimulus":"\n                    <p><b>Action: <em>avoid</em></b></p>\n                    <p>This is the bee that you just saw.</p>\n                    <img src=\"bees-with-color/bee-B2SF.svg\" width=\"200\">\n                    <p><br>Your bonus pay is unchanged, and remains at $1.10.</p>\n            ","response":0,"trial_type":"html-button-response","trial_index":124,"time_elapsed":324782,"internal_node_id":"0.0-4.0-1.58","subject_id":"5ec2cc6ace4b500d365da245","study_id":"60edd13110225f80f9f3709b","session_id":"6196bf622543ca412e027953","condition":"contingent","relevant_dimensions":["antennae","wings"],"bee_group":{"antennae":"B","wings":"2","pattern":"X","legs":"X"},"bonus":1.4800000000000009},{"rt":787.3000000119209,"stimulus":"bees-with-color/bee-A2SM.svg","response":1,"trial_type":"image-button-response","trial_index":125,"time_elapsed":325571,"internal_node_id":"0.0-4.0-0.59","subject_id":"5ec2cc6ace4b500d365da245","study_id":"60edd13110225f80f9f3709b","session_id":"6196bf622543ca412e027953","condition":"contingent","relevant_dimensions":["antennae","wings"],"bee_group":{"antennae":"B","wings":"2","pattern":"X","legs":"X"},"action":"avoid","summary":"bad-avoid","bonus":1.4800000000000009},{"rt":806.5,"stimulus":"\n                    <p><b>Action: <em>avoid</em></b></p>\n                    <p>This is the bee that you just saw.</p>\n                    <img src=\"bees-with-color/bee-A2SM.svg\" width=\"200\">\n                    <p><br>Your bonus pay is unchanged, and remains at $1.10.</p>\n            ","response":0,"trial_type":"html-button-response","trial_index":126,"time_elapsed":326380,"internal_node_id":"0.0-4.0-1.59","subject_id":"5ec2cc6ace4b500d365da245","study_id":"60edd13110225f80f9f3709b","session_id":"6196bf622543ca412e027953","condition":"contingent","relevant_dimensions":["antennae","wings"],"bee_group":{"antennae":"B","wings":"2","pattern":"X","legs":"X"},"bonus":1.4800000000000009},{"rt":646.4000000357628,"stimulus":"bees-with-color/bee-A1DF.svg","response":0,"trial_type":"image-button-response","trial_index":127,"time_elapsed":327028,"internal_node_id":"0.0-4.0-0.60","subject_id":"5ec2cc6ace4b500d365da245","study_id":"60edd13110225f80f9f3709b","session_id":"6196bf622543ca412e027953","condition":"contingent","relevant_dimensions":["antennae","wings"],"bee_group":{"antennae":"B","wings":"2","pattern":"X","legs":"X"},"action":"harvest","summary":"good-harvest","bonus":1.4800000000000009},{"rt":715.8999999761581,"stimulus":"\n                    <p><b>Action: <em>harvest</em></b></p>\n                    <p>This is the bee that you just saw.</p>\n                    <img src=\"bees-with-color/bee-A1DF.svg\" width=\"200\">\n                    <p><span class=\"greenText\"><b>Successful harvest!</b></span><br>Your pay has increased by $0.02. Your bonus pay is now $1.12.</p>\n            ","response":0,"trial_type":"html-button-response","trial_index":128,"time_elapsed":327746,"internal_node_id":"0.0-4.0-1.60","subject_id":"5ec2cc6ace4b500d365da245","study_id":"60edd13110225f80f9f3709b","session_id":"6196bf622543ca412e027953","condition":"contingent","relevant_dimensions":["antennae","wings"],"bee_group":{"antennae":"B","wings":"2","pattern":"X","legs":"X"},"bonus":1.4800000000000009},{"rt":637.5999999642372,"stimulus":"bees-with-color/bee-A1SM.svg","response":0,"trial_type":"image-button-response","trial_index":129,"time_elapsed":328385,"internal_node_id":"0.0-4.0-0.61","subject_id":"5ec2cc6ace4b500d365da245","study_id":"60edd13110225f80f9f3709b","session_id":"6196bf622543ca412e027953","condition":"contingent","relevant_dimensions":["antennae","wings"],"bee_group":{"antennae":"B","wings":"2","pattern":"X","legs":"X"},"action":"harvest","summary":"good-harvest","bonus":1.4800000000000009},{"rt":574.8000000119209,"stimulus":"\n                    <p><b>Action: <em>harvest</em></b></p>\n                    <p>This is the bee that you just saw.</p>\n                    <img src=\"bees-with-color/bee-A1SM.svg\" width=\"200\">\n                    <p><span class=\"greenText\"><b>Successful harvest!</b></span><br>Your pay has increased by $0.02. Your bonus pay is now $1.14.</p>\n            ","response":0,"trial_type":"html-button-response","trial_index":130,"time_elapsed":328962,"internal_node_id":"0.0-4.0-1.61","subject_id":"5ec2cc6ace4b500d365da245","study_id":"60edd13110225f80f9f3709b","session_id":"6196bf622543ca412e027953","condition":"contingent","relevant_dimensions":["antennae","wings"],"bee_group":{"antennae":"B","wings":"2","pattern":"X","legs":"X"},"bonus":1.4800000000000009},{"rt":1064.5999999642372,"stimulus":"bees-with-color/bee-A2DF.svg","response":1,"trial_type":"image-button-response","trial_index":131,"time_elapsed":330028,"internal_node_id":"0.0-4.0-0.62","subject_id":"5ec2cc6ace4b500d365da245","study_id":"60edd13110225f80f9f3709b","session_id":"6196bf622543ca412e027953","condition":"contingent","relevant_dimensions":["antennae","wings"],"bee_group":{"antennae":"B","wings":"2","pattern":"X","legs":"X"},"action":"avoid","summary":"bad-avoid","bonus":1.4800000000000009},{"rt":523.8000000119209,"stimulus":"\n                    <p><b>Action: <em>avoid</em></b></p>\n                    <p>This is the bee that you just saw.</p>\n                    <img src=\"bees-with-color/bee-A2DF.svg\" width=\"200\">\n                    <p><br>Your bonus pay is unchanged, and remains at $1.14.</p>\n            ","response":0,"trial_type":"html-button-response","trial_index":132,"time_elapsed":330554,"internal_node_id":"0.0-4.0-1.62","subject_id":"5ec2cc6ace4b500d365da245","study_id":"60edd13110225f80f9f3709b","session_id":"6196bf622543ca412e027953","condition":"contingent","relevant_dimensions":["antennae","wings"],"bee_group":{"antennae":"B","wings":"2","pattern":"X","legs":"X"},"bonus":1.4800000000000009},{"rt":1250.3999999761581,"stimulus":"bees-with-color/bee-B1SF.svg","response":0,"trial_type":"image-button-response","trial_index":133,"time_elapsed":331806,"internal_node_id":"0.0-4.0-0.63","subject_id":"5ec2cc6ace4b500d365da245","study_id":"60edd13110225f80f9f3709b","session_id":"6196bf622543ca412e027953","condition":"contingent","relevant_dimensions":["antennae","wings"],"bee_group":{"antennae":"B","wings":"2","pattern":"X","legs":"X"},"action":"harvest","summary":"good-harvest","bonus":1.4800000000000009},{"rt":719.8999999761581,"stimulus":"\n                    <p><b>Action: <em>harvest</em></b></p>\n                    <p>This is the bee that you just saw.</p>\n                    <img src=\"bees-with-color/bee-B1SF.svg\" width=\"200\">\n                    <p><span class=\"greenText\"><b>Successful harvest!</b></span><br>Your pay has increased by $0.02. Your bonus pay is now $1.16.</p>\n            ","response":0,"trial_type":"html-button-response","trial_index":134,"time_elapsed":332528,"internal_node_id":"0.0-4.0-1.63","subject_id":"5ec2cc6ace4b500d365da245","study_id":"60edd13110225f80f9f3709b","session_id":"6196bf622543ca412e027953","condition":"contingent","relevant_dimensions":["antennae","wings"],"bee_group":{"antennae":"B","wings":"2","pattern":"X","legs":"X"},"bonus":1.4800000000000009},{"rt":6552.799999952316,"stimulus":"You have completed the first part of this experiment.<br><br>You will now begin a shorter second part, in which you will receive no feedback.<br>The same rules regarding bonus pay apply.<br><br>Press any key to begin.","response":" ","trial_type":"html-keyboard-response","trial_index":135,"time_elapsed":339082,"internal_node_id":"0.0-5.0","subject_id":"5ec2cc6ace4b500d365da245","study_id":"60edd13110225f80f9f3709b","session_id":"6196bf622543ca412e027953","condition":"contingent","relevant_dimensions":["antennae","wings"],"bee_group":{"antennae":"B","wings":"2","pattern":"X","legs":"X"},"bonus":1.4800000000000009},{"rt":2751.600000023842,"stimulus":"bees-with-color/bee-A2SM.svg","response":1,"trial_type":"image-button-response","trial_index":136,"time_elapsed":341841,"internal_node_id":"0.0-6.0-0.0","subject_id":"5ec2cc6ace4b500d365da245","study_id":"60edd13110225f80f9f3709b","session_id":"6196bf622543ca412e027953","condition":"contingent","relevant_dimensions":["antennae","wings"],"bee_group":{"antennae":"B","wings":"2","pattern":"X","legs":"X"},"bonus":1.4800000000000009},{"rt":2457,"stimulus":"bees-with-color/bee-B2SF.svg","response":1,"trial_type":"image-button-response","trial_index":137,"time_elapsed":344301,"internal_node_id":"0.0-6.0-0.1","subject_id":"5ec2cc6ace4b500d365da245","study_id":"60edd13110225f80f9f3709b","session_id":"6196bf622543ca412e027953","condition":"contingent","relevant_dimensions":["antennae","wings"],"bee_group":{"antennae":"B","wings":"2","pattern":"X","legs":"X"},"bonus":1.4800000000000009},{"rt":906.9000000357628,"stimulus":"bees-with-color/bee-A1DM.svg","response":0,"trial_type":"image-button-response","trial_index":138,"time_elapsed":345211,"internal_node_id":"0.0-6.0-0.2","subject_id":"5ec2cc6ace4b500d365da245","study_id":"60edd13110225f80f9f3709b","session_id":"6196bf622543ca412e027953","condition":"contingent","relevant_dimensions":["antennae","wings"],"bee_group":{"antennae":"B","wings":"2","pattern":"X","legs":"X"},"bonus":1.4800000000000009},{"rt":1833.300000011921,"stimulus":"bees-with-color/bee-B1SM.svg","response":0,"trial_type":"image-button-response","trial_index":139,"time_elapsed":347047,"internal_node_id":"0.0-6.0-0.3","subject_id":"5ec2cc6ace4b500d365da245","study_id":"60edd13110225f80f9f3709b","session_id":"6196bf622543ca412e027953","condition":"contingent","relevant_dimensions":["antennae","wings"],"bee_group":{"antennae":"B","wings":"2","pattern":"X","legs":"X"},"bonus":1.4800000000000009},{"rt":818.1999999880791,"stimulus":"bees-with-color/bee-A2SF.svg","response":1,"trial_type":"image-button-response","trial_index":140,"time_elapsed":347868,"internal_node_id":"0.0-6.0-0.4","subject_id":"5ec2cc6ace4b500d365da245","study_id":"60edd13110225f80f9f3709b","session_id":"6196bf622543ca412e027953","condition":"contingent","relevant_dimensions":["antennae","wings"],"bee_group":{"antennae":"B","wings":"2","pattern":"X","legs":"X"},"bonus":1.4800000000000009},{"rt":724.1000000238419,"stimulus":"bees-with-color/bee-A1SF.svg","response":0,"trial_type":"image-button-response","trial_index":141,"time_elapsed":348595,"internal_node_id":"0.0-6.0-0.5","subject_id":"5ec2cc6ace4b500d365da245","study_id":"60edd13110225f80f9f3709b","session_id":"6196bf622543ca412e027953","condition":"contingent","relevant_dimensions":["antennae","wings"],"bee_group":{"antennae":"B","wings":"2","pattern":"X","legs":"X"},"bonus":1.4800000000000009},{"rt":1207.800000011921,"stimulus":"bees-with-color/bee-A1DF.svg","response":0,"trial_type":"image-button-response","trial_index":142,"time_elapsed":349805,"internal_node_id":"0.0-6.0-0.6","subject_id":"5ec2cc6ace4b500d365da245","study_id":"60edd13110225f80f9f3709b","session_id":"6196bf622543ca412e027953","condition":"contingent","relevant_dimensions":["antennae","wings"],"bee_group":{"antennae":"B","wings":"2","pattern":"X","legs":"X"},"bonus":1.4800000000000009},{"rt":1338.699999988079,"stimulus":"bees-with-color/bee-B2SM.svg","response":1,"trial_type":"image-button-response","trial_index":143,"time_elapsed":351146,"internal_node_id":"0.0-6.0-0.7","subject_id":"5ec2cc6ace4b500d365da245","study_id":"60edd13110225f80f9f3709b","session_id":"6196bf622543ca412e027953","condition":"contingent","relevant_dimensions":["antennae","wings"],"bee_group":{"antennae":"B","wings":"2","pattern":"X","legs":"X"},"bonus":1.4800000000000009},{"rt":634.3999999761581,"stimulus":"bees-with-color/bee-A2DM.svg","response":1,"trial_type":"image-button-response","trial_index":144,"time_elapsed":351782,"internal_node_id":"0.0-6.0-0.8","subject_id":"5ec2cc6ace4b500d365da245","study_id":"60edd13110225f80f9f3709b","session_id":"6196bf622543ca412e027953","condition":"contingent","relevant_dimensions":["antennae","wings"],"bee_group":{"antennae":"B","wings":"2","pattern":"X","legs":"X"},"bonus":1.4800000000000009},{"rt":462.80000001192093,"stimulus":"bees-with-color/bee-B2DM.svg","response":1,"trial_type":"image-button-response","trial_index":145,"time_elapsed":352248,"internal_node_id":"0.0-6.0-0.9","subject_id":"5ec2cc6ace4b500d365da245","study_id":"60edd13110225f80f9f3709b","session_id":"6196bf622543ca412e027953","condition":"contingent","relevant_dimensions":["antennae","wings"],"bee_group":{"antennae":"B","wings":"2","pattern":"X","legs":"X"},"bonus":1.4800000000000009},{"rt":786.6999999880791,"stimulus":"bees-with-color/bee-B1DM.svg","response":0,"trial_type":"image-button-response","trial_index":146,"time_elapsed":353036,"internal_node_id":"0.0-6.0-0.10","subject_id":"5ec2cc6ace4b500d365da245","study_id":"60edd13110225f80f9f3709b","session_id":"6196bf622543ca412e027953","condition":"contingent","relevant_dimensions":["antennae","wings"],"bee_group":{"antennae":"B","wings":"2","pattern":"X","legs":"X"},"bonus":1.4800000000000009},{"rt":1269.800000011921,"stimulus":"bees-with-color/bee-B2DF.svg","response":1,"trial_type":"image-button-response","trial_index":147,"time_elapsed":354309,"internal_node_id":"0.0-6.0-0.11","subject_id":"5ec2cc6ace4b500d365da245","study_id":"60edd13110225f80f9f3709b","session_id":"6196bf622543ca412e027953","condition":"contingent","relevant_dimensions":["antennae","wings"],"bee_group":{"antennae":"B","wings":"2","pattern":"X","legs":"X"},"bonus":1.4800000000000009},{"rt":621.6999999880791,"stimulus":"bees-with-color/bee-A2DF.svg","response":1,"trial_type":"image-button-response","trial_index":148,"time_elapsed":354934,"internal_node_id":"0.0-6.0-0.12","subject_id":"5ec2cc6ace4b500d365da245","study_id":"60edd13110225f80f9f3709b","session_id":"6196bf622543ca412e027953","condition":"contingent","relevant_dimensions":["antennae","wings"],"bee_group":{"antennae":"B","wings":"2","pattern":"X","legs":"X"},"bonus":1.4800000000000009},{"rt":592.1999999880791,"stimulus":"bees-with-color/bee-B1DF.svg","response":0,"trial_type":"image-button-response","trial_index":149,"time_elapsed":355528,"internal_node_id":"0.0-6.0-0.13","subject_id":"5ec2cc6ace4b500d365da245","study_id":"60edd13110225f80f9f3709b","session_id":"6196bf622543ca412e027953","condition":"contingent","relevant_dimensions":["antennae","wings"],"bee_group":{"antennae":"B","wings":"2","pattern":"X","legs":"X"},"bonus":1.4800000000000009},{"rt":851.5,"stimulus":"bees-with-color/bee-A1SM.svg","response":0,"trial_type":"image-button-response","trial_index":150,"time_elapsed":356382,"internal_node_id":"0.0-6.0-0.14","subject_id":"5ec2cc6ace4b500d365da245","study_id":"60edd13110225f80f9f3709b","session_id":"6196bf622543ca412e027953","condition":"contingent","relevant_dimensions":["antennae","wings"],"bee_group":{"antennae":"B","wings":"2","pattern":"X","legs":"X"},"bonus":1.4800000000000009},{"rt":785.6999999880791,"stimulus":"bees-with-color/bee-B1SF.svg","response":0,"trial_type":"image-button-response","trial_index":151,"time_elapsed":357170,"internal_node_id":"0.0-6.0-0.15","subject_id":"5ec2cc6ace4b500d365da245","study_id":"60edd13110225f80f9f3709b","session_id":"6196bf622543ca412e027953","condition":"contingent","relevant_dimensions":["antennae","wings"],"bee_group":{"antennae":"B","wings":"2","pattern":"X","legs":"X"},"bonus":1.4800000000000009},{"rt":591.6999999880791,"stimulus":"bees-with-color/bee-A2DF.svg","response":1,"trial_type":"image-button-response","trial_index":152,"time_elapsed":357764,"internal_node_id":"0.0-6.0-0.16","subject_id":"5ec2cc6ace4b500d365da245","study_id":"60edd13110225f80f9f3709b","session_id":"6196bf622543ca412e027953","condition":"contingent","relevant_dimensions":["antennae","wings"],"bee_group":{"antennae":"B","wings":"2","pattern":"X","legs":"X"},"bonus":1.4800000000000009},{"rt":875.1999999880791,"stimulus":"bees-with-color/bee-B2SF.svg","response":1,"trial_type":"image-button-response","trial_index":153,"time_elapsed":358642,"internal_node_id":"0.0-6.0-0.17","subject_id":"5ec2cc6ace4b500d365da245","study_id":"60edd13110225f80f9f3709b","session_id":"6196bf622543ca412e027953","condition":"contingent","relevant_dimensions":["antennae","wings"],"bee_group":{"antennae":"B","wings":"2","pattern":"X","legs":"X"},"bonus":1.4800000000000009},{"rt":665.8999999761581,"stimulus":"bees-with-color/bee-A1SM.svg","response":0,"trial_type":"image-button-response","trial_index":154,"time_elapsed":359309,"internal_node_id":"0.0-6.0-0.18","subject_id":"5ec2cc6ace4b500d365da245","study_id":"60edd13110225f80f9f3709b","session_id":"6196bf622543ca412e027953","condition":"contingent","relevant_dimensions":["antennae","wings"],"bee_group":{"antennae":"B","wings":"2","pattern":"X","legs":"X"},"bonus":1.4800000000000009},{"rt":1193,"stimulus":"bees-with-color/bee-B2DF.svg","response":1,"trial_type":"image-button-response","trial_index":155,"time_elapsed":360505,"internal_node_id":"0.0-6.0-0.19","subject_id":"5ec2cc6ace4b500d365da245","study_id":"60edd13110225f80f9f3709b","session_id":"6196bf622543ca412e027953","condition":"contingent","relevant_dimensions":["antennae","wings"],"bee_group":{"antennae":"B","wings":"2","pattern":"X","legs":"X"},"bonus":1.4800000000000009},{"rt":518,"stimulus":"bees-with-color/bee-A2SF.svg","response":1,"trial_type":"image-button-response","trial_index":156,"time_elapsed":361025,"internal_node_id":"0.0-6.0-0.20","subject_id":"5ec2cc6ace4b500d365da245","study_id":"60edd13110225f80f9f3709b","session_id":"6196bf622543ca412e027953","condition":"contingent","relevant_dimensions":["antennae","wings"],"bee_group":{"antennae":"B","wings":"2","pattern":"X","legs":"X"},"bonus":1.4800000000000009},{"rt":630,"stimulus":"bees-with-color/bee-A1DF.svg","response":0,"trial_type":"image-button-response","trial_index":157,"time_elapsed":361657,"internal_node_id":"0.0-6.0-0.21","subject_id":"5ec2cc6ace4b500d365da245","study_id":"60edd13110225f80f9f3709b","session_id":"6196bf622543ca412e027953","condition":"contingent","relevant_dimensions":["antennae","wings"],"bee_group":{"antennae":"B","wings":"2","pattern":"X","legs":"X"},"bonus":1.4800000000000009},{"rt":722.1000000238419,"stimulus":"bees-with-color/bee-B1DF.svg","response":0,"trial_type":"image-button-response","trial_index":158,"time_elapsed":362382,"internal_node_id":"0.0-6.0-0.22","subject_id":"5ec2cc6ace4b500d365da245","study_id":"60edd13110225f80f9f3709b","session_id":"6196bf622543ca412e027953","condition":"contingent","relevant_dimensions":["antennae","wings"],"bee_group":{"antennae":"B","wings":"2","pattern":"X","legs":"X"},"bonus":1.4800000000000009},{"rt":741.3999999761581,"stimulus":"bees-with-color/bee-A2DM.svg","response":1,"trial_type":"image-button-response","trial_index":159,"time_elapsed":363125,"internal_node_id":"0.0-6.0-0.23","subject_id":"5ec2cc6ace4b500d365da245","study_id":"60edd13110225f80f9f3709b","session_id":"6196bf622543ca412e027953","condition":"contingent","relevant_dimensions":["antennae","wings"],"bee_group":{"antennae":"B","wings":"2","pattern":"X","legs":"X"},"bonus":1.4800000000000009},{"rt":2207.800000011921,"stimulus":"bees-with-color/bee-B2SM.svg","response":1,"trial_type":"image-button-response","trial_index":160,"time_elapsed":365336,"internal_node_id":"0.0-6.0-0.24","subject_id":"5ec2cc6ace4b500d365da245","study_id":"60edd13110225f80f9f3709b","session_id":"6196bf622543ca412e027953","condition":"contingent","relevant_dimensions":["antennae","wings"],"bee_group":{"antennae":"B","wings":"2","pattern":"X","legs":"X"},"bonus":1.4800000000000009},{"rt":708.8000000119209,"stimulus":"bees-with-color/bee-B1DM.svg","response":0,"trial_type":"image-button-response","trial_index":161,"time_elapsed":366046,"internal_node_id":"0.0-6.0-0.25","subject_id":"5ec2cc6ace4b500d365da245","study_id":"60edd13110225f80f9f3709b","session_id":"6196bf622543ca412e027953","condition":"contingent","relevant_dimensions":["antennae","wings"],"bee_group":{"antennae":"B","wings":"2","pattern":"X","legs":"X"},"bonus":1.4800000000000009},{"rt":625.8000000119209,"stimulus":"bees-with-color/bee-B1SF.svg","response":0,"trial_type":"image-button-response","trial_index":162,"time_elapsed":366674,"internal_node_id":"0.0-6.0-0.26","subject_id":"5ec2cc6ace4b500d365da245","study_id":"60edd13110225f80f9f3709b","session_id":"6196bf622543ca412e027953","condition":"contingent","relevant_dimensions":["antennae","wings"],"bee_group":{"antennae":"B","wings":"2","pattern":"X","legs":"X"},"bonus":1.4800000000000009},{"rt":1835.9000000357628,"stimulus":"bees-with-color/bee-B2DM.svg","response":1,"trial_type":"image-button-response","trial_index":163,"time_elapsed":368512,"internal_node_id":"0.0-6.0-0.27","subject_id":"5ec2cc6ace4b500d365da245","study_id":"60edd13110225f80f9f3709b","session_id":"6196bf622543ca412e027953","condition":"contingent","relevant_dimensions":["antennae","wings"],"bee_group":{"antennae":"B","wings":"2","pattern":"X","legs":"X"},"bonus":1.4800000000000009},{"rt":806.9000000357628,"stimulus":"bees-with-color/bee-A1SF.svg","response":0,"trial_type":"image-button-response","trial_index":164,"time_elapsed":369321,"internal_node_id":"0.0-6.0-0.28","subject_id":"5ec2cc6ace4b500d365da245","study_id":"60edd13110225f80f9f3709b","session_id":"6196bf622543ca412e027953","condition":"contingent","relevant_dimensions":["antennae","wings"],"bee_group":{"anten