[{"success":true,"trial_type":"fullscreen","trial_index":0,"time_elapsed":3353,"internal_node_id":"0.0-0.0","subject_id":"5f10e66a9df7fd41db27b663","study_id":"6197b3f67c2b5cd3b6d9596a","session_id":"6197b9f2bee13d001226c999","condition":"contingent","relevant_dimensions":["antennae","legs"],"bee_group":{"antennae":"B","wings":"X","pattern":"X","legs":"F"},"bonus":0.16000000000000078},{"success":true,"timeout":false,"failed_images":[],"failed_audio":[],"failed_video":[],"trial_type":"preload","trial_index":1,"time_elapsed":5860,"internal_node_id":"0.0-1.0","subject_id":"5f10e66a9df7fd41db27b663","study_id":"6197b3f67c2b5cd3b6d9596a","session_id":"6197b9f2bee13d001226c999","condition":"contingent","relevant_dimensions":["antennae","legs"],"bee_group":{"antennae":"B","wings":"X","pattern":"X","legs":"F"},"bonus":0.16000000000000078},{"rt":1771.2999999970198,"stimulus":"Welcome! Press any key to begin.","response":"enter","trial_type":"html-keyboard-response","trial_index":2,"time_elapsed":7632,"internal_node_id":"0.0-2.0","subject_id":"5f10e66a9df7fd41db27b663","study_id":"6197b3f67c2b5cd3b6d9596a","session_id":"6197b9f2bee13d001226c999","condition":"contingent","relevant_dimensions":["antennae","legs"],"bee_group":{"antennae":"B","wings":"X","pattern":"X","legs":"F"},"bonus":0.16000000000000078},{"view_history":[{"page_index":0,"viewing_time":2814.300000011921},{"page_index":1,"viewing_time":12208.09999999404},{"page_index":2,"viewing_time":9471.90000000596},{"page_index":3,"viewing_time":9678},{"page_index":4,"viewing_time":3079.7999999970198},{"page_index":5,"viewing_time":3348.7999999970198},{"page_index":6,"viewing_time":6460.29999999702},{"page_index":7,"viewing_time":4154.100000008941},{"page_index":8,"viewing_time":4843.899999991059},{"page_index":9,"viewing_time":2450.7999999970198},{"page_index":10,"viewing_time":3793.1000000089407},{"page_index":11,"viewing_time":4366.899999991059},{"page_index":12,"viewing_time":5655.9000000059605},{"page_index":13,"viewing_time":980},{"page_index":14,"viewing_time":1428.2999999970198}],"rt":74734.40000000596,"trial_type":"instructions","trial_index":3,"time_elapsed":82366,"internal_node_id":"0.0-3.0-0.0","subject_id":"5f10e66a9df7fd41db27b663","study_id":"6197b3f67c2b5cd3b6d9596a","session_id":"6197b9f2bee13d001226c999","condition":"contingent","relevant_dimensions":["antennae","legs"],"bee_group":{"antennae":"B","wings":"X","pattern":"X","legs":"F"},"bonus":0.16000000000000078},{"rt":13008.29999999702,"response":{"Q0":["Two or six legs","Stripes or spots on body","Single or double wings","Antennae or no antennae"]},"question_order":[0],"trial_type":"survey-multi-select","trial_index":4,"time_elapsed":95377,"internal_node_id":"0.0-3.0-1.0","subject_id":"5f10e66a9df7fd41db27b663","study_id":"6197b3f67c2b5cd3b6d9596a","session_id":"6197b9f2bee13d001226c999","condition":"contingent","relevant_dimensions":["antennae","legs"],"bee_group":{"antennae":"B","wings":"X","pattern":"X","legs":"F"},"correct":true,"bonus":0.16000000000000078},{"rt":22777.60000000894,"response":{"Q1":"Yes.","Q2":"Based on the four features of the bee.","Q3":"You do not learn if it was friendly or dangerous, and do not alter your bonus."},"question_order":[0,1,2],"trial_type":"survey-multi-choice","trial_index":5,"time_elapsed":118157,"internal_node_id":"0.0-3.0-2.0","subject_id":"5f10e66a9df7fd41db27b663","study_id":"6197b3f67c2b5cd3b6d9596a","session_id":"6197b9f2bee13d001226c999","condition":"contingent","relevant_dimensions":["antennae","legs"],"bee_group":{"antennae":"B","wings":"X","pattern":"X","legs":"F"},"correct":false,"bonus":0.16000000000000078},{"rt":2452.7999999970198,"stimulus":"<p>You did not answer all comprehension questions correctly.<br>Press <b>continue</b> to review the instructions again.</p>","response":0,"trial_type":"html-button-response","trial_index":6,"time_elapsed":120611,"internal_node_id":"0.0-3.0-3.0","subject_id":"5f10e66a9df7fd41db27b663","study_id":"6197b3f67c2b5cd3b6d9596a","session_id":"6197b9f2bee13d001226c999","condition":"contingent","relevant_dimensions":["antennae","legs"],"bee_group":{"antennae":"B","wings":"X","pattern":"X","legs":"F"},"bonus":0.16000000000000078},{"view_history":[{"page_index":0,"viewing_time":646.9000000059605},{"page_index":1,"viewing_time":771.0999999940395},{"page_index":2,"viewing_time":442.90000000596046},{"page_index":3,"viewing_time":546},{"page_index":4,"viewing_time":527},{"page_index":5,"viewing_time":618.5},{"page_index":6,"viewing_time":449.59999999403954},{"page_index":7,"viewing_time":1148.1000000089407},{"page_index":8,"viewing_time":158.70000000298023},{"page_index":9,"viewing_time":157.19999998807907},{"page_index":10,"viewing_time":164},{"page_index":11,"viewing_time":721.8000000119209},{"page_index":12,"viewing_time":984},{"page_index":13,"viewing_time":818.0999999940395},{"page_index":14,"viewing_time":656.2999999970198}],"rt":8810.5,"trial_type":"instructions","trial_index":7,"time_elapsed":129422,"internal_node_id":"0.0-3.0-4.0-0.0","subject_id":"5f10e66a9df7fd41db27b663","study_id":"6197b3f67c2b5cd3b6d9596a","session_id":"6197b9f2bee13d001226c999","condition":"contingent","relevant_dimensions":["antennae","legs"],"bee_group":{"antennae":"B","wings":"X","pattern":"X","legs":"F"},"bonus":0.16000000000000078},{"rt":8391.09999999404,"response":{"Q0":["Two or six legs","Stripes or spots on body","Single or double wings","Antennae or no antennae"]},"question_order":[0],"trial_type":"survey-multi-select","trial_index":8,"time_elapsed":137815,"internal_node_id":"0.0-3.0-4.0-1.0","subject_id":"5f10e66a9df7fd41db27b663","study_id":"6197b3f67c2b5cd3b6d9596a","session_id":"6197b9f2bee13d001226c999","condition":"contingent","relevant_dimensions":["antennae","legs"],"bee_group":{"antennae":"B","wings":"X","pattern":"X","legs":"F"},"correct":true,"bonus":0.16000000000000078},{"rt":4435.79999999702,"response":{"Q1":"No.","Q2":"Based on the four features of the bee.","Q3":"You do not learn if it was friendly or dangerous, and do not alter your bonus."},"question_order":[0,1,2],"trial_type":"survey-multi-choice","trial_index":9,"time_elapsed":142251,"internal_node_id":"0.0-3.0-4.0-2.0","subject_id":"5f10e66a9df7fd41db27b663","study_id":"6197b3f67c2b5cd3b6d9596a","session_id":"6197b9f2bee13d001226c999","condition":"contingent","relevant_dimensions":["antennae","legs"],"bee_group":{"antennae":"B","wings":"X","pattern":"X","legs":"F"},"correct":true,"bonus":0.16000000000000078},{"rt":1223.0999999940395,"stimulus":"<p>Congrats, you got everything right<br>When you're ready, click the button below to continue to the experiment.</p>","response":0,"trial_type":"html-button-response","trial_index":10,"time_elapsed":143475,"internal_node_id":"0.0-3.0-4.0-3.0","subject_id":"5f10e66a9df7fd41db27b663","study_id":"6197b3f67c2b5cd3b6d9596a","session_id":"6197b9f2bee13d001226c999","condition":"contingent","relevant_dimensions":["antennae","legs"],"bee_group":{"antennae":"B","wings":"X","pattern":"X","legs":"F"},"bonus":0.16000000000000078},{"rt":3733,"stimulus":"bees-with-color/bee-B1SF.svg","response":0,"trial_type":"image-button-response","trial_index":11,"time_elapsed":147210,"internal_node_id":"0.0-4.0-0.0","subject_id":"5f10e66a9df7fd41db27b663","study_id":"6197b3f67c2b5cd3b6d9596a","session_id":"6197b9f2bee13d001226c999","condition":"contingent","relevant_dimensions":["antennae","legs"],"bee_group":{"antennae":"B","wings":"X","pattern":"X","legs":"F"},"action":"harvest","summary":"bad-harvest","bonus":0.16000000000000078},{"rt":5296.9000000059605,"stimulus":"\n                    <p><b>Action: <em>harvest</em></b></p>\n                    <p>This is the bee that you just saw.</p>\n                    <img src=\"bees-with-color/bee-B1SF.svg\" width=\"200\">\n                    <p><span class=\"redText\">Bad choice, the bee was angry.</span><br><b>You have been stung!</b><br>Your pay has been decreased by $0.10. Your bonus pay is now $0.44.</p>\n            ","response":0,"trial_type":"html-button-response","trial_index":12,"time_elapsed":152509,"internal_node_id":"0.0-4.0-1.0","subject_id":"5f10e66a9df7fd41db27b663","study_id":"6197b3f67c2b5cd3b6d9596a","session_id":"6197b9f2bee13d001226c999","condition":"contingent","relevant_dimensions":["antennae","legs"],"bee_group":{"antennae":"B","wings":"X","pattern":"X","legs":"F"},"bonus":0.16000000000000078},{"rt":1461.5,"stimulus":"bees-with-color/bee-A2DF.svg","response":0,"trial_type":"image-button-response","trial_index":13,"time_elapsed":153971,"internal_node_id":"0.0-4.0-0.1","subject_id":"5f10e66a9df7fd41db27b663","study_id":"6197b3f67c2b5cd3b6d9596a","session_id":"6197b9f2bee13d001226c999","condition":"contingent","relevant_dimensions":["antennae","legs"],"bee_group":{"antennae":"B","wings":"X","pattern":"X","legs":"F"},"action":"harvest","summary":"good-harvest","bonus":0.16000000000000078},{"rt":2457.5,"stimulus":"\n                    <p><b>Action: <em>harvest</em></b></p>\n                    <p>This is the bee that you just saw.</p>\n                    <img src=\"bees-with-color/bee-A2DF.svg\" width=\"200\">\n                    <p><span class=\"greenText\"><b>Successful harvest!</b></span><br>Your pay has increased by $0.02. Your bonus pay is now $0.46.</p>\n            ","response":0,"trial_type":"html-button-response","trial_index":14,"time_elapsed":156430,"internal_node_id":"0.0-4.0-1.1","subject_id":"5f10e66a9df7fd41db27b663","study_id":"6197b3f67c2b5cd3b6d9596a","session_id":"6197b9f2bee13d001226c999","condition":"contingent","relevant_dimensions":["antennae","legs"],"bee_group":{"antennae":"B","wings":"X","pattern":"X","legs":"F"},"bonus":0.16000000000000078},{"rt":1543,"stimulus":"bees-with-color/bee-B1SM.svg","response":1,"trial_type":"image-button-response","trial_index":15,"time_elapsed":157974,"internal_node_id":"0.0-4.0-0.2","subject_id":"5f10e66a9df7fd41db27b663","study_id":"6197b3f67c2b5cd3b6d9596a","session_id":"6197b9f2bee13d001226c999","condition":"contingent","relevant_dimensions":["antennae","legs"],"bee_group":{"antennae":"B","wings":"X","pattern":"X","legs":"F"},"action":"avoid","summary":"bad-avoid","bonus":0.16000000000000078},{"rt":879.2000000029802,"stimulus":"\n                    <p><b>Action: <em>avoid</em></b></p>\n                    <p>This is the bee that you just saw.</p>\n                    <img src=\"bees-with-color/bee-B1SM.svg\" width=\"200\">\n                    <p><br>Your bonus pay is unchanged, and remains at $0.46.</p>\n            ","response":0,"trial_type":"html-button-response","trial_index":16,"time_elapsed":158854,"internal_node_id":"0.0-4.0-1.2","subject_id":"5f10e66a9df7fd41db27b663","study_id":"6197b3f67c2b5cd3b6d9596a","session_id":"6197b9f2bee13d001226c999","condition":"contingent","relevant_dimensions":["antennae","legs"],"bee_group":{"antennae":"B","wings":"X","pattern":"X","legs":"F"},"bonus":0.16000000000000078},{"rt":3591.5999999940395,"stimulus":"bees-with-color/bee-A1SM.svg","response":1,"trial_type":"image-button-response","trial_index":17,"time_elapsed":162447,"internal_node_id":"0.0-4.0-0.3","subject_id":"5f10e66a9df7fd41db27b663","study_id":"6197b3f67c2b5cd3b6d9596a","session_id":"6197b9f2bee13d001226c999","condition":"contingent","relevant_dimensions":["antennae","legs"],"bee_group":{"antennae":"B","wings":"X","pattern":"X","legs":"F"},"action":"avoid","summary":"bad-avoid","bonus":0.16000000000000078},{"rt":554.5,"stimulus":"\n                    <p><b>Action: <em>avoid</em></b></p>\n                    <p>This is the bee that you just saw.</p>\n                    <img src=\"bees-with-color/bee-A1SM.svg\" width=\"200\">\n                    <p><br>Your bonus pay is unchanged, and remains at $0.46.</p>\n            ","response":0,"trial_type":"html-button-response","trial_index":18,"time_elapsed":163002,"internal_node_id":"0.0-4.0-1.3","subject_id":"5f10e66a9df7fd41db27b663","study_id":"6197b3f67c2b5cd3b6d9596a","session_id":"6197b9f2bee13d001226c999","condition":"contingent","relevant_dimensions":["antennae","legs"],"bee_group":{"antennae":"B","wings":"X","pattern":"X","legs":"F"},"bonus":0.16000000000000078},{"rt":765,"stimulus":"bees-with-color/bee-B2SM.svg","response":1,"trial_type":"image-button-response","trial_index":19,"time_elapsed":163768,"internal_node_id":"0.0-4.0-0.4","subject_id":"5f10e66a9df7fd41db27b663","study_id":"6197b3f67c2b5cd3b6d9596a","session_id":"6197b9f2bee13d001226c999","condition":"contingent","relevant_dimensions":["antennae","legs"],"bee_group":{"antennae":"B","wings":"X","pattern":"X","legs":"F"},"action":"avoid","summary":"bad-avoid","bonus":0.16000000000000078},{"rt":329.1000000089407,"stimulus":"\n                    <p><b>Action: <em>avoid</em></b></p>\n                    <p>This is the bee that you just saw.</p>\n                    <img src=\"bees-with-color/bee-B2SM.svg\" width=\"200\">\n                    <p><br>Your bonus pay is unchanged, and remains at $0.46.</p>\n            ","response":0,"trial_type":"html-button-response","trial_index":20,"time_elapsed":164098,"internal_node_id":"0.0-4.0-1.4","subject_id":"5f10e66a9df7fd41db27b663","study_id":"6197b3f67c2b5cd3b6d9596a","session_id":"6197b9f2bee13d001226c999","condition":"contingent","relevant_dimensions":["antennae","legs"],"bee_group":{"antennae":"B","wings":"X","pattern":"X","legs":"F"},"bonus":0.16000000000000078},{"rt":601.2000000029802,"stimulus":"bees-with-color/bee-A1SF.svg","response":1,"trial_type":"image-button-response","trial_index":21,"time_elapsed":164700,"internal_node_id":"0.0-4.0-0.5","subject_id":"5f10e66a9df7fd41db27b663","study_id":"6197b3f67c2b5cd3b6d9596a","session_id":"6197b9f2bee13d001226c999","condition":"contingent","relevant_dimensions":["antennae","legs"],"bee_group":{"antennae":"B","wings":"X","pattern":"X","legs":"F"},"action":"avoid","summary":"bad-avoid","bonus":0.16000000000000078},{"rt":301.8999999910593,"stimulus":"\n                    <p><b>Action: <em>avoid</em></b></p>\n                    <p>This is the bee that you just saw.</p>\n                    <img src=\"bees-with-color/bee-A1SF.svg\" width=\"200\">\n                    <p><br>Your bonus pay is unchanged, and remains at $0.46.</p>\n            ","response":0,"trial_type":"html-button-response","trial_index":22,"time_elapsed":165003,"internal_node_id":"0.0-4.0-1.5","subject_id":"5f10e66a9df7fd41db27b663","study_id":"6197b3f67c2b5cd3b6d9596a","session_id":"6197b9f2bee13d001226c999","condition":"contingent","relevant_dimensions":["antennae","legs"],"bee_group":{"antennae":"B","wings":"X","pattern":"X","legs":"F"},"bonus":0.16000000000000078},{"rt":502,"stimulus":"bees-with-color/bee-B2SF.svg","response":1,"trial_type":"image-button-response","trial_index":23,"time_elapsed":165506,"internal_node_id":"0.0-4.0-0.6","subject_id":"5f10e66a9df7fd41db27b663","study_id":"6197b3f67c2b5cd3b6d9596a","session_id":"6197b9f2bee13d001226c999","condition":"contingent","relevant_dimensions":["antennae","legs"],"bee_group":{"antennae":"B","wings":"X","pattern":"X","legs":"F"},"action":"avoid","summary":"good-avoid","bonus":0.16000000000000078},{"rt":351.19999998807907,"stimulus":"\n                    <p><b>Action: <em>avoid</em></b></p>\n                    <p>This is the bee that you just saw.</p>\n                    <img src=\"bees-with-color/bee-B2SF.svg\" width=\"200\">\n                    <p><br>Your bonus pay is unchanged, and remains at $0.46.</p>\n            ","response":0,"trial_type":"html-button-response","trial_index":24,"time_elapsed":165858,"internal_node_id":"0.0-4.0-1.6","subject_id":"5f10e66a9df7fd41db27b663","study_id":"6197b3f67c2b5cd3b6d9596a","session_id":"6197b9f2bee13d001226c999","condition":"contingent","relevant_dimensions":["antennae","legs"],"bee_group":{"antennae":"B","wings":"X","pattern":"X","legs":"F"},"bonus":0.16000000000000078},{"rt":691.9000000059605,"stimulus":"bees-with-color/bee-A2DM.svg","response":0,"trial_type":"image-button-response","trial_index":25,"time_elapsed":166551,"internal_node_id":"0.0-4.0-0.7","subject_id":"5f10e66a9df7fd41db27b663","study_id":"6197b3f67c2b5cd3b6d9596a","session_id":"6197b9f2bee13d001226c999","condition":"contingent","relevant_dimensions":["antennae","legs"],"bee_group":{"antennae":"B","wings":"X","pattern":"X","legs":"F"},"action":"harvest","summary":"good-harvest","bonus":0.16000000000000078},{"rt":796,"stimulus":"\n                    <p><b>Action: <em>harvest</em></b></p>\n                    <p>This is the bee that you just saw.</p>\n                    <img src=\"bees-with-color/bee-A2DM.svg\" width=\"200\">\n                    <p><span class=\"greenText\"><b>Successful harvest!</b></span><br>Your pay has increased by $0.02. Your bonus pay is now $0.48.</p>\n            ","response":0,"trial_type":"html-button-response","trial_index":26,"time_elapsed":167348,"internal_node_id":"0.0-4.0-1.7","subject_id":"5f10e66a9df7fd41db27b663","study_id":"6197b3f67c2b5cd3b6d9596a","session_id":"6197b9f2bee13d001226c999","condition":"contingent","relevant_dimensions":["antennae","legs"],"bee_group":{"antennae":"B","wings":"X","pattern":"X","legs":"F"},"bonus":0.16000000000000078},{"rt":831.9000000059605,"stimulus":"bees-with-color/bee-A2SF.svg","response":1,"trial_type":"image-button-response","trial_index":27,"time_elapsed":168181,"internal_node_id":"0.0-4.0-0.8","subject_id":"5f10e66a9df7fd41db27b663","study_id":"6197b3f67c2b5cd3b6d9596a","session_id":"6197b9f2bee13d001226c999","condition":"contingent","relevant_dimensions":["antennae","legs"],"bee_group":{"antennae":"B","wings":"X","pattern":"X","legs":"F"},"action":"avoid","summary":"bad-avoid","bonus":0.16000000000000078},{"rt":451.29999999701977,"stimulus":"\n                    <p><b>Action: <em>avoid</em></b></p>\n                    <p>This is the bee that you just saw.</p>\n                    <img src=\"bees-with-color/bee-A2SF.svg\" width=\"200\">\n                    <p><br>Your bonus pay is unchanged, and remains at $0.48.</p>\n            ","response":0,"trial_type":"html-button-response","trial_index":28,"time_elapsed":168634,"internal_node_id":"0.0-4.0-1.8","subject_id":"5f10e66a9df7fd41db27b663","study_id":"6197b3f67c2b5cd3b6d9596a","session_id":"6197b9f2bee13d001226c999","condition":"contingent","relevant_dimensions":["antennae","legs"],"bee_group":{"antennae":"B","wings":"X","pattern":"X","legs":"F"},"bonus":0.16000000000000078},{"rt":623.7000000029802,"stimulus":"bees-with-color/bee-A2SM.svg","response":1,"trial_type":"image-button-response","trial_index":29,"time_elapsed":169258,"internal_node_id":"0.0-4.0-0.9","subject_id":"5f10e66a9df7fd41db27b663","study_id":"6197b3f67c2b5cd3b6d9596a","session_id":"6197b9f2bee13d001226c999","condition":"contingent","relevant_dimensions":["antennae","legs"],"bee_group":{"antennae":"B","wings":"X","pattern":"X","legs":"F"},"action":"avoid","summary":"bad-avoid","bonus":0.16000000000000078},{"rt":306,"stimulus":"\n                    <p><b>Action: <em>avoid</em></b></p>\n                    <p>This is the bee that you just saw.</p>\n                    <img src=\"bees-with-color/bee-A2SM.svg\" width=\"200\">\n                    <p><br>Your bonus pay is unchanged, and remains at $0.48.</p>\n            ","response":0,"trial_type":"html-button-response","trial_index":30,"time_elapsed":169565,"internal_node_id":"0.0-4.0-1.9","subject_id":"5f10e66a9df7fd41db27b663","study_id":"6197b3f67c2b5cd3b6d9596a","session_id":"6197b9f2bee13d001226c999","condition":"contingent","relevant_dimensions":["antennae","legs"],"bee_group":{"antennae":"B","wings":"X","pattern":"X","legs":"F"},"bonus":0.16000000000000078},{"rt":783.4000000059605,"stimulus":"bees-with-color/bee-A1DF.svg","response":0,"trial_type":"image-button-response","trial_index":31,"time_elapsed":170349,"internal_node_id":"0.0-4.0-0.10","subject_id":"5f10e66a9df7fd41db27b663","study_id":"6197b3f67c2b5cd3b6d9596a","session_id":"6197b9f2bee13d001226c999","condition":"contingent","relevant_dimensions":["antennae","legs"],"bee_group":{"antennae":"B","wings":"X","pattern":"X","legs":"F"},"action":"harvest","summary":"good-harvest","bonus":0.16000000000000078},{"rt":575.2000000029802,"stimulus":"\n                    <p><b>Action: <em>harvest</em></b></p>\n                    <p>This is the bee that you just saw.</p>\n                    <img src=\"bees-with-color/bee-A1DF.svg\" width=\"200\">\n                    <p><span class=\"greenText\"><b>Successful harvest!</b></span><br>Your pay has increased by $0.02. Your bonus pay is now $0.50.</p>\n            ","response":0,"trial_type":"html-button-response","trial_index":32,"time_elapsed":170925,"internal_node_id":"0.0-4.0-1.10","subject_id":"5f10e66a9df7fd41db27b663","study_id":"6197b3f67c2b5cd3b6d9596a","session_id":"6197b9f2bee13d001226c999","condition":"contingent","relevant_dimensions":["antennae","legs"],"bee_group":{"antennae":"B","wings":"X","pattern":"X","legs":"F"},"bonus":0.16000000000000078},{"rt":862.7999999970198,"stimulus":"bees-with-color/bee-B1DF.svg","response":0,"trial_type":"image-button-response","trial_index":33,"time_elapsed":171789,"internal_node_id":"0.0-4.0-0.11","subject_id":"5f10e66a9df7fd41db27b663","study_id":"6197b3f67c2b5cd3b6d9596a","session_id":"6197b9f2bee13d001226c999","condition":"contingent","relevant_dimensions":["antennae","legs"],"bee_group":{"antennae":"B","wings":"X","pattern":"X","legs":"F"},"action":"harvest","summary":"bad-harvest","bonus":0.16000000000000078},{"rt":3684.4000000059605,"stimulus":"\n                    <p><b>Action: <em>harvest</em></b></p>\n                    <p>This is the bee that you just saw.</p>\n                    <img src=\"bees-with-color/bee-B1DF.svg\" width=\"200\">\n                    <p><span class=\"redText\">Bad choice, the bee was angry.</span><br><b>You have been stung!</b><br>Your pay has been decreased by $0.10. Your bonus pay is now $0.40.</p>\n            ","response":0,"trial_type":"html-button-response","trial_index":34,"time_elapsed":175474,"internal_node_id":"0.0-4.0-1.11","subject_id":"5f10e66a9df7fd41db27b663","study_id":"6197b3f67c2b5cd3b6d9596a","session_id":"6197b9f2bee13d001226c999","condition":"contingent","relevant_dimensions":["antennae","legs"],"bee_group":{"antennae":"B","wings":"X","pattern":"X","legs":"F"},"bonus":0.16000000000000078},{"rt":1168.7000000029802,"stimulus":"bees-with-color/bee-B2DF.svg","response":0,"trial_type":"image-button-response","trial_index":35,"time_elapsed":176644,"internal_node_id":"0.0-4.0-0.12","subject_id":"5f10e66a9df7fd41db27b663","study_id":"6197b3f67c2b5cd3b6d9596a","session_id":"6197b9f2bee13d001226c999","condition":"contingent","relevant_dimensions":["antennae","legs"],"bee_group":{"antennae":"B","wings":"X","pattern":"X","legs":"F"},"action":"harvest","summary":"bad-harvest","bonus":0.16000000000000078},{"rt":708.0999999940395,"stimulus":"\n                    <p><b>Action: <em>harvest</em></b></p>\n                    <p>This is the bee that you just saw.</p>\n                    <img src=\"bees-with-color/bee-B2DF.svg\" width=\"200\">\n                    <p><span class=\"redText\">Bad choice, the bee was angry.</span><br><b>You have been stung!</b><br>Your pay has been decreased by $0.10. Your bonus pay is now $0.30.</p>\n            ","response":0,"trial_type":"html-button-response","trial_index":36,"time_elapsed":177354,"internal_node_id":"0.0-4.0-1.12","subject_id":"5f10e66a9df7fd41db27b663","study_id":"6197b3f67c2b5cd3b6d9596a","session_id":"6197b9f2bee13d001226c999","condition":"contingent","relevant_dimensions":["antennae","legs"],"bee_group":{"antennae":"B","wings":"X","pattern":"X","legs":"F"},"bonus":0.16000000000000078},{"rt":1538.300000011921,"stimulus":"bees-with-color/bee-A1DM.svg","response":0,"trial_type":"image-button-response","trial_index":37,"time_elapsed":178893,"internal_node_id":"0.0-4.0-0.13","subject_id":"5f10e66a9df7fd41db27b663","study_id":"6197b3f67c2b5cd3b6d9596a","session_id":"6197b9f2bee13d001226c999","condition":"contingent","relevant_dimensions":["antennae","legs"],"bee_group":{"antennae":"B","wings":"X","pattern":"X","legs":"F"},"action":"harvest","summary":"good-harvest","bonus":0.16000000000000078},{"rt":2932.5999999940395,"stimulus":"\n                    <p><b>Action: <em>harvest</em></b></p>\n                    <p>This is the bee that you just saw.</p>\n                    <img src=\"bees-with-color/bee-A1DM.svg\" width=\"200\">\n                    <p><span class=\"greenText\"><b>Successful harvest!</b></span><br>Your pay has increased by $0.02. Your bonus pay is now $0.32.</p>\n            ","response":0,"trial_type":"html-button-response","trial_index":38,"time_elapsed":181826,"internal_node_id":"0.0-4.0-1.13","subject_id":"5f10e66a9df7fd41db27b663","study_id":"6197b3f67c2b5cd3b6d9596a","session_id":"6197b9f2bee13d001226c999","condition":"contingent","relevant_dimensions":["antennae","legs"],"bee_group":{"antennae":"B","wings":"X","pattern":"X","legs":"F"},"bonus":0.16000000000000078},{"rt":884.5,"stimulus":"bees-with-color/bee-B2DM.svg","response":1,"trial_type":"image-button-response","trial_index":39,"time_elapsed":182712,"internal_node_id":"0.0-4.0-0.14","subject_id":"5f10e66a9df7fd41db27b663","study_id":"6197b3f67c2b5cd3b6d9596a","session_id":"6197b9f2bee13d001226c999","condition":"contingent","relevant_dimensions":["antennae","legs"],"bee_group":{"antennae":"B","wings":"X","pattern":"X","legs":"F"},"action":"avoid","summary":"bad-avoid","bonus":0.16000000000000078},{"rt":2124.2000000029802,"stimulus":"\n                    <p><b>Action: <em>avoid</em></b></p>\n                    <p>This is the bee that you just saw.</p>\n                    <img src=\"bees-with-color/bee-B2DM.svg\" width=\"200\">\n                    <p><br>Your bonus pay is unchanged, and remains at $0.32.</p>\n            ","response":0,"trial_type":"html-button-response","trial_index":40,"time_elapsed":184837,"internal_node_id":"0.0-4.0-1.14","subject_id":"5f10e66a9df7fd41db27b663","study_id":"6197b3f67c2b5cd3b6d9596a","session_id":"6197b9f2bee13d001226c999","condition":"contingent","relevant_dimensions":["antennae","legs"],"bee_group":{"antennae":"B","wings":"X","pattern":"X","legs":"F"},"bonus":0.16000000000000078},{"rt":857.1000000089407,"stimulus":"bees-with-color/bee-B1DM.svg","response":1,"trial_type":"image-button-response","trial_index":41,"time_elapsed":185695,"internal_node_id":"0.0-4.0-0.15","subject_id":"5f10e66a9df7fd41db27b663","study_id":"6197b3f67c2b5cd3b6d9596a","session_id":"6197b9f2bee13d001226c999","condition":"contingent","relevant_dimensions":["antennae","legs"],"bee_group":{"antennae":"B","wings":"X","pattern":"X","legs":"F"},"action":"avoid","summary":"bad-avoid","bonus":0.16000000000000078},{"rt":398,"stimulus":"\n                    <p><b>Action: <em>avoid</em></b></p>\n                    <p>This is the bee that you just saw.</p>\n                    <img src=\"bees-with-color/bee-B1DM.svg\" width=\"200\">\n                    <p><br>Your bonus pay is unchanged, and remains at $0.32.</p>\n            ","response":0,"trial_type":"html-button-response","trial_index":42,"time_elapsed":186094,"internal_node_id":"0.0-4.0-1.15","subject_id":"5f10e66a9df7fd41db27b663","study_id":"6197b3f67c2b5cd3b6d9596a","session_id":"6197b9f2bee13d001226c999","condition":"contingent","relevant_dimensions":["antennae","legs"],"bee_group":{"antennae":"B","wings":"X","pattern":"X","legs":"F"},"bonus":0.16000000000000078},{"rt":455.09999999403954,"stimulus":"bees-with-color/bee-B1DM.svg","response":1,"trial_type":"image-button-response","trial_index":43,"time_elapsed":186550,"internal_node_id":"0.0-4.0-0.16","subject_id":"5f10e66a9df7fd41db27b663","study_id":"6197b3f67c2b5cd3b6d9596a","session_id":"6197b9f2bee13d001226c999","condition":"contingent","relevant_dimensions":["antennae","legs"],"bee_group":{"antennae":"B","wings":"X","pattern":"X","legs":"F"},"action":"avoid","summary":"bad-avoid","bonus":0.16000000000000078},{"rt":576,"stimulus":"\n                    <p><b>Action: <em>avoid</em></b></p>\n                    <p>This is the bee that you just saw.</p>\n                    <img src=\"bees-with-color/bee-B1DM.svg\" width=\"200\">\n                    <p><br>Your bonus pay is unchanged, and remains at $0.32.</p>\n            ","response":0,"trial_type":"html-button-response","trial_index":44,"time_elapsed":187127,"internal_node_id":"0.0-4.0-1.16","subject_id":"5f10e66a9df7fd41db27b663","study_id":"6197b3f67c2b5cd3b6d9596a","session_id":"6197b9f2bee13d001226c999","condition":"contingent","relevant_dimensions":["antennae","legs"],"bee_group":{"antennae":"B","wings":"X","pattern":"X","legs":"F"},"bonus":0.16000000000000078},{"rt":740.2000000029802,"stimulus":"bees-with-color/bee-B1SF.svg","response":1,"trial_type":"image-button-response","trial_index":45,"time_elapsed":187868,"internal_node_id":"0.0-4.0-0.17","subject_id":"5f10e66a9df7fd41db27b663","study_id":"6197b3f67c2b5cd3b6d9596a","session_id":"6197b9f2bee13d001226c999","condition":"contingent","relevant_dimensions":["antennae","legs"],"bee_group":{"antennae":"B","wings":"X","pattern":"X","legs":"F"},"action":"avoid","summary":"good-avoid","bonus":0.16000000000000078},{"rt":352.90000000596046,"stimulus":"\n                    <p><b>Action: <em>avoid</em></b></p>\n                    <p>This is the bee that you just saw.</p>\n                    <img src=\"bees-with-color/bee-B1SF.svg\" width=\"200\">\n                    <p><br>Your bonus pay is unchanged, and remains at $0.32.</p>\n            ","response":0,"trial_type":"html-button-response","trial_index":46,"time_elapsed":188221,"internal_node_id":"0.0-4.0-1.17","subject_id":"5f10e66a9df7fd41db27b663","study_id":"6197b3f67c2b5cd3b6d9596a","session_id":"6197b9f2bee13d001226c999","condition":"contingent","relevant_dimensions":["antennae","legs"],"bee_group":{"antennae":"B","wings":"X","pattern":"X","legs":"F"},"bonus":0.16000000000000078},{"rt":605.2999999970198,"stimulus":"bees-with-color/bee-A2DM.svg","response":0,"trial_type":"image-button-response","trial_index":47,"time_elapsed":188828,"internal_node_id":"0.0-4.0-0.18","subject_id":"5f10e66a9df7fd41db27b663","study_id":"6197b3f67c2b5cd3b6d9596a","session_id":"6197b9f2bee13d001226c999","condition":"contingent","relevant_dimensions":["antennae","legs"],"bee_group":{"antennae":"B","wings":"X","pattern":"X","legs":"F"},"action":"harvest","summary":"good-harvest","bonus":0.16000000000000078},{"rt":489.20000000298023,"stimulus":"\n                    <p><b>Action: <em>harvest</em></b></p>\n                    <p>This is the bee that you just saw.</p>\n                    <img src=\"bees-with-color/bee-A2DM.svg\" width=\"200\">\n                    <p><span class=\"greenText\"><b>Successful harvest!</b></span><br>Your pay has increased by $0.02. Your bonus pay is now $0.34.</p>\n            ","response":0,"trial_type":"html-button-response","trial_index":48,"time_elapsed":189318,"internal_node_id":"0.0-4.0-1.18","subject_id":"5f10e66a9df7fd41db27b663","study_id":"6197b3f67c2b5cd3b6d9596a","session_id":"6197b9f2bee13d001226c999","condition":"contingent","relevant_dimensions":["antennae","legs"],"bee_group":{"antennae":"B","wings":"X","pattern":"X","legs":"F"},"bonus":0.16000000000000078},{"rt":630.2000000029802,"stimulus":"bees-with-color/bee-A2SF.svg","response":0,"trial_type":"image-button-response","trial_index":49,"time_elapsed":189949,"internal_node_id":"0.0-4.0-0.19","subject_id":"5f10e66a9df7fd41db27b663","study_id":"6197b3f67c2b5cd3b6d9596a","session_id":"6197b9f2bee13d001226c999","condition":"contingent","relevant_dimensions":["antennae","legs"],"bee_group":{"antennae":"B","wings":"X","pattern":"X","legs":"F"},"action":"harvest","summary":"good-harvest","bonus":0.16000000000000078},{"rt":474,"stimulus":"\n                    <p><b>Action: <em>harvest</em></b></p>\n                    <p>This is the bee that you just saw.</p>\n                    <img src=\"bees-with-color/bee-A2SF.svg\" width=\"200\">\n                    <p><span class=\"greenText\"><b>Successful harvest!</b></span><br>Your pay has increased by $0.02. Your bonus pay is now $0.36.</p>\n            ","response":0,"trial_type":"html-button-response","trial_index":50,"time_elapsed":190424,"internal_node_id":"0.0-4.0-1.19","subject_id":"5f10e66a9df7fd41db27b663","study_id":"6197b3f67c2b5cd3b6d9596a","session_id":"6197b9f2bee13d001226c999","condition":"contingent","relevant_dimensions":["antennae","legs"],"bee_group":{"antennae":"B","wings":"X","pattern":"X","legs":"F"},"bonus":0.16000000000000078},{"rt":592.0999999940395,"stimulus":"bees-with-color/bee-B2DF.svg","response":1,"trial_type":"image-button-response","trial_index":51,"time_elapsed":191017,"internal_node_id":"0.0-4.0-0.20","subject_id":"5f10e66a9df7fd41db27b663","study_id":"6197b3f67c2b5cd3b6d9596a","session_id":"6197b9f2bee13d001226c999","condition":"contingent","relevant_dimensions":["antennae","legs"],"bee_group":{"antennae":"B","wings":"X","pattern":"X","legs":"F"},"action":"avoid","summary":"good-avoid","bonus":0.16000000000000078},{"rt":381.09999999403954,"stimulus":"\n                    <p><b>Action: <em>avoid</em></b></p>\n                    <p>This is the bee that you just saw.</p>\n                    <img src=\"bees-with-color/bee-B2DF.svg\" width=\"200\">\n                    <p><br>Your bonus pay is unchanged, and remains at $0.36.</p>\n            ","response":0,"trial_type":"html-button-response","trial_index":52,"time_elapsed":191399,"internal_node_id":"0.0-4.0-1.20","subject_id":"5f10e66a9df7fd41db27b663","study_id":"6197b3f67c2b5cd3b6d9596a","session_id":"6197b9f2bee13d001226c999","condition":"contingent","relevant_dimensions":["antennae","legs"],"bee_group":{"antennae":"B","wings":"X","pattern":"X","legs":"F"},"bonus":0.16000000000000078},{"rt":471.30000001192093,"stimulus":"bees-with-color/bee-A1SM.svg","response":0,"trial_type":"image-button-response","trial_index":53,"time_elapsed":191871,"internal_node_id":"0.0-4.0-0.21","subject_id":"5f10e66a9df7fd41db27b663","study_id":"6197b3f67c2b5cd3b6d9596a","session_id":"6197b9f2bee13d001226c999","condition":"contingent","relevant_dimensions":["antennae","legs"],"bee_group":{"antennae":"B","wings":"X","pattern":"X","legs":"F"},"action":"harvest","summary":"good-harvest","bonus":0.16000000000000078},{"rt":507,"stimulus":"\n                    <p><b>Action: <em>harvest</em></b></p>\n                    <p>This is the bee that you just saw.</p>\n                    <img src=\"bees-with-color/bee-A1SM.svg\" width=\"200\">\n                    <p><span class=\"greenText\"><b>Successful harvest!</b></span><br>Your pay has increased by $0.02. Your bonus pay is now $0.38.</p>\n            ","response":0,"trial_type":"html-button-response","trial_index":54,"time_elapsed":192379,"internal_node_id":"0.0-4.0-1.21","subject_id":"5f10e66a9df7fd41db27b663","study_id":"6197b3f67c2b5cd3b6d9596a","session_id":"6197b9f2bee13d001226c999","condition":"contingent","relevant_dimensions":["antennae","legs"],"bee_group":{"antennae":"B","wings":"X","pattern":"X","legs":"F"},"bonus":0.16000000000000078},{"rt":537.2000000029802,"stimulus":"bees-with-color/bee-B1SM.svg","response":1,"trial_type":"image-button-response","trial_index":55,"time_elapsed":192917,"internal_node_id":"0.0-4.0-0.22","subject_id":"5f10e66a9df7fd41db27b663","study_id":"6197b3f67c2b5cd3b6d9596a","session_id":"6197b9f2bee13d001226c999","condition":"contingent","relevant_dimensions":["antennae","legs"],"bee_group":{"antennae":"B","wings":"X","pattern":"X","legs":"F"},"action":"avoid","summary":"bad-avoid","bonus":0.16000000000000078},{"rt":747,"stimulus":"\n                    <p><b>Action: <em>avoid</em></b></p>\n                    <p>This is the bee that you just saw.</p>\n                    <img src=\"bees-with-color/bee-B1SM.svg\" width=\"200\">\n                    <p><br>Your bonus pay is unchanged, and remains at $0.38.</p>\n            ","response":0,"trial_type":"html-button-response","trial_index":56,"time_elapsed":193665,"internal_node_id":"0.0-4.0-1.22","subject_id":"5f10e66a9df7fd41db27b663","study_id":"6197b3f67c2b5cd3b6d9596a","session_id":"6197b9f2bee13d001226c999","condition":"contingent","relevant_dimensions":["antennae","legs"],"bee_group":{"antennae":"B","wings":"X","pattern":"X","legs":"F"},"bonus":0.16000000000000078},{"rt":588.2999999970198,"stimulus":"bees-with-color/bee-B2SM.svg","response":1,"trial_type":"image-button-response","trial_index":57,"time_elapsed":194254,"internal_node_id":"0.0-4.0-0.23","subject_id":"5f10e66a9df7fd41db27b663","study_id":"6197b3f67c2b5cd3b6d9596a","session_id":"6197b9f2bee13d001226c999","condition":"contingent","relevant_dimensions":["antennae","legs"],"bee_group":{"antennae":"B","wings":"X","pattern":"X","legs":"F"},"action":"avoid","summary":"bad-avoid","bonus":0.16000000000000078},{"rt":445.79999999701977,"stimulus":"\n                    <p><b>Action: <em>avoid</em></b></p>\n                    <p>This is the bee that you just saw.</p>\n                    <img src=\"bees-with-color/bee-B2SM.svg\" width=\"200\">\n                    <p><br>Your bonus pay is unchanged, and remains at $0.38.</p>\n            ","response":0,"trial_type":"html-button-response","trial_index":58,"time_elapsed":194701,"internal_node_id":"0.0-4.0-1.23","subject_id":"5f10e66a9df7fd41db27b663","study_id":"6197b3f67c2b5cd3b6d9596a","session_id":"6197b9f2bee13d001226c999","condition":"contingent","relevant_dimensions":["antennae","legs"],"bee_group":{"antennae":"B","wings":"X","pattern":"X","legs":"F"},"bonus":0.16000000000000078},{"rt":643,"stimulus":"bees-with-color/bee-A2SM.svg","response":0,"trial_type":"image-button-response","trial_index":59,"time_elapsed":195345,"internal_node_id":"0.0-4.0-0.24","subject_id":"5f10e66a9df7fd41db27b663","study_id":"6197b3f67c2b5cd3b6d9596a","session_id":"6197b9f2bee13d001226c999","condition":"contingent","relevant_dimensions":["antennae","legs"],"bee_group":{"antennae":"B","wings":"X","pattern":"X","legs":"F"},"action":"harvest","summary":"good-harvest","bonus":0.16000000000000078},{"rt":889,"stimulus":"\n                    <p><b>Action: <em>harvest</em></b></p>\n                    <p>This is the bee that you just saw.</p>\n                    <img src=\"bees-with-color/bee-A2SM.svg\" width=\"200\">\n                    <p><span class=\"greenText\"><b>Successful harvest!</b></span><br>Your pay has increased by $0.02. Your bonus pay is now $0.40.</p>\n            ","response":0,"trial_type":"html-button-response","trial_index":60,"time_elapsed":196235,"internal_node_id":"0.0-4.0-1.24","subject_id":"5f10e66a9df7fd41db27b663","study_id":"6197b3f67c2b5cd3b6d9596a","session_id":"6197b9f2bee13d001226c999","condition":"contingent","relevant_dimensions":["antennae","legs"],"bee_group":{"antennae":"B","wings":"X","pattern":"X","legs":"F"},"bonus":0.16000000000000078},{"rt":817.9000000059605,"stimulus":"bees-with-color/bee-A1DM.svg","response":0,"trial_type":"image-button-response","trial_index":61,"time_elapsed":197054,"internal_node_id":"0.0-4.0-0.25","subject_id":"5f10e66a9df7fd41db27b663","study_id":"6197b3f67c2b5cd3b6d9596a","session_id":"6197b9f2bee13d001226c999","condition":"contingent","relevant_dimensions":["antennae","legs"],"bee_group":{"antennae":"B","wings":"X","pattern":"X","legs":"F"},"action":"harvest","summary":"good-harvest","bonus":0.16000000000000078},{"rt":509.90000000596046,"stimulus":"\n                    <p><b>Action: <em>harvest</em></b></p>\n                    <p>This is the bee that you just saw.</p>\n                    <img src=\"bees-with-color/bee-A1DM.svg\" width=\"200\">\n                    <p><span class=\"greenText\"><b>Successful harvest!</b></span><br>Your pay has increased by $0.02. Your bonus pay is now $0.42.</p>\n            ","response":0,"trial_type":"html-button-response","trial_index":62,"time_elapsed":197565,"internal_node_id":"0.0-4.0-1.25","subject_id":"5f10e66a9df7fd41db27b663","study_id":"6197b3f67c2b5cd3b6d9596a","session_id":"6197b9f2bee13d001226c999","condition":"contingent","relevant_dimensions":["antennae","legs"],"bee_group":{"antennae":"B","wings":"X","pattern":"X","legs":"F"},"bonus":0.16000000000000078},{"rt":808.0999999940395,"stimulus":"bees-with-color/bee-B2SF.svg","response":1,"trial_type":"image-button-response","trial_index":63,"time_elapsed":198374,"internal_node_id":"0.0-4.0-0.26","subject_id":"5f10e66a9df7fd41db27b663","study_id":"6197b3f67c2b5cd3b6d9596a","session_id":"6197b9f2bee13d001226c999","condition":"contingent","relevant_dimensions":["antennae","legs"],"bee_group":{"antennae":"B","wings":"X","pattern":"X","legs":"F"},"action":"avoid","summary":"good-avoid","bonus":0.16000000000000078},{"rt":338,"stimulus":"\n                    <p><b>Action: <em>avoid</em></b></p>\n                    <p>This is the bee that you just saw.</p>\n                    <img src=\"bees-with-color/bee-B2SF.svg\" width=\"200\">\n                    <p><br>Your bonus pay is unchanged, and remains at $0.42.</p>\n            ","response":0,"trial_type":"html-button-response","trial_index":64,"time_elapsed":198713,"internal_node_id":"0.0-4.0-1.26","subject_id":"5f10e66a9df7fd41db27b663","study_id":"6197b3f67c2b5cd3b6d9596a","session_id":"6197b9f2bee13d001226c999","condition":"contingent","relevant_dimensions":["antennae","legs"],"bee_group":{"antennae":"B","wings":"X","pattern":"X","legs":"F"},"bonus":0.16000000000000078},{"rt":623.5,"stimulus":"bees-with-color/bee-A1SF.svg","response":0,"trial_type":"image-button-response","trial_index":65,"time_elapsed":199337,"internal_node_id":"0.0-4.0-0.27","subject_id":"5f10e66a9df7fd41db27b663","study_id":"6197b3f67c2b5cd3b6d9596a","session_id":"6197b9f2bee13d001226c999","condition":"contingent","relevant_dimensions":["antennae","legs"],"bee_group":{"antennae":"B","wings":"X","pattern":"X","legs":"F"},"action":"harvest","summary":"good-harvest","bonus":0.16000000000000078},{"rt":383.79999999701977,"stimulus":"\n                    <p><b>Action: <em>harvest</em></b></p>\n                    <p>This is the bee that you just saw.</p>\n                    <img src=\"bees-with-color/bee-A1SF.svg\" width=\"200\">\n                    <p><span class=\"greenText\"><b>Successful harvest!</b></span><br>Your pay has increased by $0.02. Your bonus pay is now $0.44.</p>\n            ","response":0,"trial_type":"html-button-response","trial_index":66,"time_elapsed":199722,"internal_node_id":"0.0-4.0-1.27","subject_id":"5f10e66a9df7fd41db27b663","study_id":"6197b3f67c2b5cd3b6d9596a","session_id":"6197b9f2bee13d001226c999","condition":"contingent","relevant_dimensions":["antennae","legs"],"bee_group":{"antennae":"B","wings":"X","pattern":"X","legs":"F"},"bonus":0.16000000000000078},{"rt":627.3000000119209,"stimulus":"bees-with-color/bee-A2DF.svg","response":0,"trial_type":"image-button-response","trial_index":67,"time_elapsed":200350,"internal_node_id":"0.0-4.0-0.28","subject_id":"5f10e66a9df7fd41db27b663","study_id":"6197b3f67c2b5cd3b6d9596a","session_id":"6197b9f2bee13d001226c999","condition":"contingent","relevant_dimensions":["antennae","legs"],"bee_group":{"antennae":"B","wings":"X","pattern":"X","legs":"F"},"action":"harvest","summary":"good-harvest","bonus":0.16000000000000078},{"rt":434.90000000596046,"stimulus":"\n                    <p><b>Action: <em>harvest</em></b></p>\n                    <p>This is the bee that you just saw.</p>\n                    <img src=\"bees-with-color/bee-A2DF.svg\" width=\"200\">\n                    <p><span class=\"greenText\"><b>Successful harvest!</b></span><br>Your pay has increased by $0.02. Your bonus pay is now $0.46.</p>\n            ","response":0,"trial_type":"html-button-response","trial_index":68,"time_elapsed":200786,"internal_node_id":"0.0-4.0-1.28","subject_id":"5f10e66a9df7fd41db27b663","study_id":"6197b3f67c2b5cd3b6d9596a","session_id":"6197b9f2bee13d001226c999","condition":"contingent","relevant_dimensions":["antennae","legs"],"bee_group":{"antennae":"B","wings":"X","pattern":"X","legs":"F"},"bonus":0.16000000000000078},{"rt":730.2999999970198,"stimulus":"bees-with-color/bee-B1DF.svg","response":1,"trial_type":"image-button-response","trial_index":69,"time_elapsed":201517,"internal_node_id":"0.0-4.0-0.29","subject_id":"5f10e66a9df7fd41db27b663","study_id":"6197b3f67c2b5cd3b6d9596a","session_id":"6197b9f2bee13d001226c999","condition":"contingent","relevant_dimensions":["antennae","legs"],"bee_group":{"antennae":"B","wings":"X","pattern":"X","legs":"F"},"action":"avoid","summary":"good-avoid","bonus":0.16000000000000078},{"rt":1064.2000000029802,"stimulus":"\n                    <p><b>Action: <em>avoid</em></b></p>\n                    <p>This is the bee that you just saw.</p>\n                    <img src=\"bees-with-color/bee-B1DF.svg\" width=\"200\">\n                    <p><br>Your bonus pay is unchanged, and remains at $0.46.</p>\n            ","response":0,"trial_type":"html-button-response","trial_index":70,"time_elapsed":202582,"internal_node_id":"0.0-4.0-1.29","subject_id":"5f10e66a9df7fd41db27b663","study_id":"6197b3f67c2b5cd3b6d9596a","session_id":"6197b9f2bee13d001226c999","condition":"contingent","relevant_dimensions":["antennae","legs"],"bee_group":{"antennae":"B","wings":"X","pattern":"X","legs":"F"},"bonus":0.16000000000000078},{"rt":891.0999999940395,"stimulus":"bees-with-color/bee-B2DM.svg","response":1,"trial_type":"image-button-response","trial_index":71,"time_elapsed":203474,"internal_node_id":"0.0-4.0-0.30","subject_id":"5f10e66a9df7fd41db27b663","study_id":"6197b3f67c2b5cd3b6d9596a","session_id":"6197b9f2bee13d001226c999","condition":"contingent","relevant_dimensions":["antennae","legs"],"bee_group":{"antennae":"B","wings":"X","pattern":"X","legs":"F"},"action":"avoid","summary":"bad-avoid","bonus":0.16000000000000078},{"rt":374.29999999701977,"stimulus":"\n                    <p><b>Action: <em>avoid</em></b></p>\n                    <p>This is the bee that you just saw.</p>\n                    <img src=\"bees-with-color/bee-B2DM.svg\" width=\"200\">\n                    <p><br>Your bonus pay is unchanged, and remains at $0.46.</p>\n            ","response":0,"trial_type":"html-button-response","trial_index":72,"time_elapsed":203849,"internal_node_id":"0.0-4.0-1.30","subject_id":"5f10e66a9df7fd41db27b663","study_id":"6197b3f67c2b5cd3b6d9596a","session_id":"6197b9f2bee13d001226c999","condition":"contingent","relevant_dimensions":["antennae","legs"],"bee_group":{"antennae":"B","wings":"X","pattern":"X","legs":"F"},"bonus":0.16000000000000078},{"rt":707.8999999910593,"stimulus":"bees-with-color/bee-A1DF.svg","response":0,"trial_type":"image-button-response","trial_index":73,"time_elapsed":204558,"internal_node_id":"0.0-4.0-0.31","subject_id":"5f10e66a9df7fd41db27b663","study_id":"6197b3f67c2b5cd3b6d9596a","session_id":"6197b9f2bee13d001226c999","condition":"contingent","relevant_dimensions":["antennae","legs"],"bee_group":{"antennae":"B","wings":"X","pattern":"X","legs":"F"},"action":"harvest","summary":"good-harvest","bonus":0.16000000000000078},{"rt":505,"stimulus":"\n                    <p><b>Action: <em>harvest</em></b></p>\n                    <p>This is the bee that you just saw.</p>\n                    <img src=\"bees-with-color/bee-A1DF.svg\" width=\"200\">\n                    <p><span class=\"greenText\"><b>Successful harvest!</b></span><br>Your pay has increased by $0.02. Your bonus pay is now $0.48.</p>\n            ","response":0,"trial_type":"html-button-response","trial_index":74,"time_elapsed":205064,"internal_node_id":"0.0-4.0-1.31","subject_id":"5f10e66a9df7fd41db27b663","study_id":"6197b3f67c2b5cd3b6d9596a","session_id":"6197b9f2bee13d001226c999","condition":"contingent","relevant_dimensions":["antennae","legs"],"bee_group":{"antennae":"B","wings":"X","pattern":"X","legs":"F"},"bonus":0.16000000000000078},{"rt":629.1000000089407,"stimulus":"bees-with-color/bee-A2SM.svg","response":0,"trial_type":"image-button-response","trial_index":75,"time_elapsed":205694,"internal_node_id":"0.0-4.0-0.32","subject_id":"5f10e66a9df7fd41db27b663","study_id":"6197b3f67c2b5cd3b6d9596a","session_id":"6197b9f2bee13d001226c999","condition":"contingent","relevant_dimensions":["antennae","legs"],"bee_group":{"antennae":"B","wings":"X","pattern":"X","legs":"F"},"action":"harvest","summary":"good-harvest","bonus":0.16000000000000078},{"rt":1347.5,"stimulus":"\n                    <p><b>Action: <em>harvest</em></b></p>\n                    <p>This is the bee that you just saw.</p>\n                    <img src=\"bees-with-color/bee-A2SM.svg\" width=\"200\">\n                    <p><span class=\"greenText\"><b>Successful harvest!</b></span><br>Your pay has increased by $0.02. Your bonus pay is now $0.50.</p>\n            ","response":0,"trial_type":"html-button-response","trial_index":76,"time_elapsed":207042,"internal_node_id":"0.0-4.0-1.32","subject_id":"5f10e66a9df7fd41db27b663","study_id":"6197b3f67c2b5cd3b6d9596a","session_id":"6197b9f2bee13d001226c999","condition":"contingent","relevant_dimensions":["antennae","legs"],"bee_group":{"antennae":"B","wings":"X","pattern":"X","legs":"F"},"bonus":0.16000000000000078},{"rt":972.1000000089407,"stimulus":"bees-with-color/bee-B1DM.svg","response":1,"trial_type":"image-button-response","trial_index":77,"time_elapsed":208015,"internal_node_id":"0.0-4.0-0.33","subject_id":"5f10e66a9df7fd41db27b663","study_id":"6197b3f67c2b5cd3b6d9596a","session_id":"6197b9f2bee13d001226c999","condition":"contingent","relevant_dimensions":["antennae","legs"],"bee_group":{"antennae":"B","wings":"X","pattern":"X","legs":"F"},"action":"avoid","summary":"bad-avoid","bonus":0.16000000000000078},{"rt":516.0999999940395,"stimulus":"\n                    <p><b>Action: <em>avoid</em></b></p>\n                    <p>This is the bee that you just saw.</p>\n                    <img src=\"bees-with-color/bee-B1DM.svg\" width=\"200\">\n                    <p><br>Your bonus pay is unchanged, and remains at $0.50.</p>\n            ","response":0,"trial_type":"html-button-response","trial_index":78,"time_elapsed":208532,"internal_node_id":"0.0-4.0-1.33","subject_id":"5f10e66a9df7fd41db27b663","study_id":"6197b3f67c2b5cd3b6d9596a","session_id":"6197b9f2bee13d001226c999","condition":"contingent","relevant_dimensions":["antennae","legs"],"bee_group":{"antennae":"B","wings":"X","pattern":"X","legs":"F"},"bonus":0.16000000000000078},{"rt":664.3000000119209,"stimulus":"bees-with-color/bee-B2SF.svg","response":1,"trial_type":"image-button-response","trial_index":79,"time_elapsed":209197,"internal_node_id":"0.0-4.0-0.34","subject_id":"5f10e66a9df7fd41db27b663","study_id":"6197b3f67c2b5cd3b6d9596a","session_id":"6197b9f2bee13d001226c999","condition":"contingent","relevant_dimensions":["antennae","legs"],"bee_group":{"antennae":"B","wings":"X","pattern":"X","legs":"F"},"action":"avoid","summary":"good-avoid","bonus":0.16000000000000078},{"rt":364,"stimulus":"\n                    <p><b>Action: <em>avoid</em></b></p>\n                    <p>This is the bee that you just saw.</p>\n                    <img src=\"bees-with-color/bee-B2SF.svg\" width=\"200\">\n                    <p><br>Your bonus pay is unchanged, and remains at $0.50.</p>\n            ","response":0,"trial_type":"html-button-response","trial_index":80,"time_elapsed":209562,"internal_node_id":"0.0-4.0-1.34","subject_id":"5f10e66a9df7fd41db27b663","study_id":"6197b3f67c2b5cd3b6d9596a","session_id":"6197b9f2bee13d001226c999","condition":"contingent","relevant_dimensions":["antennae","legs"],"bee_group":{"antennae":"B","wings":"X","pattern":"X","legs":"F"},"bonus":0.16000000000000078},{"rt":690.2000000029802,"stimulus":"bees-with-color/bee-A2DM.svg","response":0,"trial_type":"image-button-response","trial_index":81,"time_elapsed":210253,"internal_node_id":"0.0-4.0-0.35","subject_id":"5f10e66a9df7fd41db27b663","study_id":"6197b3f67c2b5cd3b6d9596a","session_id":"6197b9f2bee13d001226c999","condition":"contingent","relevant_dimensions":["antennae","legs"],"bee_group":{"antennae":"B","wings":"X","pattern":"X","legs":"F"},"action":"harvest","summary":"good-harvest","bonus":0.16000000000000078},{"rt":728.4000000059605,"stimulus":"\n                    <p><b>Action: <em>harvest</em></b></p>\n                    <p>This is the bee that you just saw.</p>\n                    <img src=\"bees-with-color/bee-A2DM.svg\" width=\"200\">\n                    <p><span class=\"greenText\"><b>Successful harvest!</b></span><br>Your pay has increased by $0.02. Your bonus pay is now $0.52.</p>\n            ","response":0,"trial_type":"html-button-response","trial_index":82,"time_elapsed":210982,"internal_node_id":"0.0-4.0-1.35","subject_id":"5f10e66a9df7fd41db27b663","study_id":"6197b3f67c2b5cd3b6d9596a","session_id":"6197b9f2bee13d001226c999","condition":"contingent","relevant_dimensions":["antennae","legs"],"bee_group":{"antennae":"B","wings":"X","pattern":"X","legs":"F"},"bonus":0.16000000000000078},{"rt":551,"stimulus":"bees-with-color/bee-B1SM.svg","response":1,"trial_type":"image-button-response","trial_index":83,"time_elapsed":211534,"internal_node_id":"0.0-4.0-0.36","subject_id":"5f10e66a9df7fd41db27b663","study_id":"6197b3f67c2b5cd3b6d9596a","session_id":"6197b9f2bee13d001226c999","condition":"contingent","relevant_dimensions":["antennae","legs"],"bee_group":{"antennae":"B","wings":"X","pattern":"X","legs":"F"},"action":"avoid","summary":"bad-avoid","bonus":0.16000000000000078},{"rt":532.3999999910593,"stimulus":"\n                    <p><b>Action: <em>avoid</em></b></p>\n                    <p>This is the bee that you just saw.</p>\n                    <img src=\"bees-with-color/bee-B1SM.svg\" width=\"200\">\n                    <p><br>Your bonus pay is unchanged, and remains at $0.52.</p>\n            ","response":0,"trial_type":"html-button-response","trial_index":84,"time_elapsed":212067,"internal_node_id":"0.0-4.0-1.36","subject_id":"5f10e66a9df7fd41db27b663","study_id":"6197b3f67c2b5cd3b6d9596a","session_id":"6197b9f2bee13d001226c999","condition":"contingent","relevant_dimensions":["antennae","legs"],"bee_group":{"antennae":"B","wings":"X","pattern":"X","legs":"F"},"bonus":0.16000000000000078},{"rt":582.3999999910593,"stimulus":"bees-with-color/bee-A1DF.svg","response":0,"trial_type":"image-button-response","trial_index":85,"time_elapsed":212650,"internal_node_id":"0.0-4.0-0.37","subject_id":"5f10e66a9df7fd41db27b663","study_id":"6197b3f67c2b5cd3b6d9596a","session_id":"6197b9f2bee13d001226c999","condition":"contingent","relevant_dimensions":["antennae","legs"],"bee_group":{"antennae":"B","wings":"X","pattern":"X","legs":"F"},"action":"harvest","summary":"good-harvest","bonus":0.16000000000000078},{"rt":649.5999999940395,"stimulus":"\n                    <p><b>Action: <em>harvest</em></b></p>\n                    <p>This is the bee that you just saw.</p>\n                    <img src=\"bees-with-color/bee-A1DF.svg\" width=\"200\">\n                    <p><span class=\"greenText\"><b>Successful harvest!</b></span><br>Your pay has increased by $0.02. Your bonus pay is now $0.54.</p>\n            ","response":0,"trial_type":"html-button-response","trial_index":86,"time_elapsed":213301,"internal_node_id":"0.0-4.0-1.37","subject_id":"5f10e66a9df7fd41db27b663","study_id":"6197b3f67c2b5cd3b6d9596a","session_id":"6197b9f2bee13d001226c999","condition":"contingent","relevant_dimensions":["antennae","legs"],"bee_group":{"antennae":"B","wings":"X","pattern":"X","legs":"F"},"bonus":0.16000000000000078},{"rt":764,"stimulus":"bees-with-color/bee-A1SM.svg","response":0,"trial_type":"image-button-response","trial_index":87,"time_elapsed":214066,"internal_node_id":"0.0-4.0-0.38","subject_id":"5f10e66a9df7fd41db27b663","study_id":"6197b3f67c2b5cd3b6d9596a","session_id":"6197b9f2bee13d001226c999","condition":"contingent","relevant_dimensions":["antennae","legs"],"bee_group":{"antennae":"B","wings":"X","pattern":"X","legs":"F"},"action":"harvest","summary":"good-harvest","bonus":0.16000000000000078},{"rt":468.40000000596046,"stimulus":"\n                    <p><b>Action: <em>harvest</em></b></p>\n                    <p>This is the bee that you just saw.</p>\n                    <img src=\"bees-with-color/bee-A1SM.svg\" width=\"200\">\n                    <p><span class=\"greenText\"><b>Successful harvest!</b></span><br>Your pay has increased by $0.02. Your bonus pay is now $0.56.</p>\n            ","response":0,"trial_type":"html-button-response","trial_index":88,"time_elapsed":214535,"internal_node_id":"0.0-4.0-1.38","subject_id":"5f10e66a9df7fd41db27b663","study_id":"6197b3f67c2b5cd3b6d9596a","session_id":"6197b9f2bee13d001226c999","condition":"contingent","relevant_dimensions":["antennae","legs"],"bee_group":{"antennae":"B","wings":"X","pattern":"X","legs":"F"},"bonus":0.16000000000000078},{"rt":654.8999999910593,"stimulus":"bees-with-color/bee-B2DF.svg","response":1,"trial_type":"image-button-response","trial_index":89,"time_elapsed":215191,"internal_node_id":"0.0-4.0-0.39","subject_id":"5f10e66a9df7fd41db27b663","study_id":"6197b3f67c2b5cd3b6d9596a","session_id":"6197b9f2bee13d001226c999","condition":"contingent","relevant_dimensions":["antennae","legs"],"bee_group":{"antennae":"B","wings":"X","pattern":"X","legs":"F"},"action":"avoid","summary":"good-avoid","bonus":0.16000000000000078},{"rt":324,"stimulus":"\n                    <p><b>Action: <em>avoid</em></b></p>\n                    <p>This is the bee that you just saw.</p>\n                    <img src=\"bees-with-color/bee-B2DF.svg\" width=\"200\">\n                    <p><br>Your bonus pay is unchanged, and remains at $0.56.</p>\n            ","response":0,"trial_type":"html-button-response","trial_index":90,"time_elapsed":215516,"internal_node_id":"0.0-4.0-1.39","subject_id":"5f10e66a9df7fd41db27b663","study_id":"6197b3f67c2b5cd3b6d9596a","session_id":"6197b9f2bee13d001226c999","condition":"contingent","relevant_dimensions":["antennae","legs"],"bee_group":{"antennae":"B","wings":"X","pattern":"X","legs":"F"},"bonus":0.16000000000000078},{"rt":587.1000000089407,"stimulus":"bees-with-color/bee-B1DF.svg","response":1,"trial_type":"image-button-response","trial_index":91,"time_elapsed":216104,"internal_node_id":"0.0-4.0-0.40","subject_id":"5f10e66a9df7fd41db27b663","study_id":"6197b3f67c2b5cd3b6d9596a","session_id":"6197b9f2bee13d001226c999","condition":"contingent","relevant_dimensions":["antennae","legs"],"bee_group":{"antennae":"B","wings":"X","pattern":"X","legs":"F"},"action":"avoid","summary":"good-avoid","bonus":0.16000000000000078},{"rt":332,"stimulus":"\n                    <p><b>Action: <em>avoid</em></b></p>\n                    <p>This is the bee that you just saw.</p>\n                    <img src=\"bees-with-color/bee-B1DF.svg\" width=\"200\">\n                    <p><br>Your bonus pay is unchanged, and remains at $0.56.</p>\n            ","response":0,"trial_type":"html-button-response","trial_index":92,"time_elapsed":216437,"internal_node_id":"0.0-4.0-1.40","subject_id":"5f10e66a9df7fd41db27b663","study_id":"6197b3f67c2b5cd3b6d9596a","session_id":"6197b9f2bee13d001226c999","condition":"contingent","relevant_dimensions":["antennae","legs"],"bee_group":{"antennae":"B","wings":"X","pattern":"X","legs":"F"},"bonus":0.16000000000000078},{"rt":558.2000000029802,"stimulus":"bees-with-color/bee-B2SM.svg","response":1,"trial_type":"image-button-response","trial_index":93,"time_elapsed":216996,"internal_node_id":"0.0-4.0-0.41","subject_id":"5f10e66a9df7fd41db27b663","study_id":"6197b3f67c2b5cd3b6d9596a","session_id":"6197b9f2bee13d001226c999","condition":"contingent","relevant_dimensions":["antennae","legs"],"bee_group":{"antennae":"B","wings":"X","pattern":"X","legs":"F"},"action":"avoid","summary":"bad-avoid","bonus":0.16000000000000078},{"rt":341.20000000298023,"stimulus":"\n                    <p><b>Action: <em>avoid</em></b></p>\n                    <p>This is the bee that you just saw.</p>\n                    <img src=\"bees-with-color/bee-B2SM.svg\" width=\"200\">\n                    <p><br>Your bonus pay is unchanged, and remains at $0.56.</p>\n            ","response":0,"trial_type":"html-button-response","trial_index":94,"time_elapsed":217338,"internal_node_id":"0.0-4.0-1.41","subject_id":"5f10e66a9df7fd41db27b663","study_id":"6197b3f67c2b5cd3b6d9596a","session_id":"6197b9f2bee13d001226c999","condition":"contingent","relevant_dimensions":["antennae","legs"],"bee_group":{"antennae":"B","wings":"X","pattern":"X","legs":"F"},"bonus":0.16000000000000078},{"rt":569.2999999970198,"stimulus":"bees-with-color/bee-B2DM.svg","response":1,"trial_type":"image-button-response","trial_index":95,"time_elapsed":217908,"internal_node_id":"0.0-4.0-0.42","subject_id":"5f10e66a9df7fd41db27b663","study_id":"6197b3f67c2b5cd3b6d9596a","session_id":"6197b9f2bee13d001226c999","condition":"contingent","relevant_dimensions":["antennae","legs"],"bee_group":{"antennae":"B","wings":"X","pattern":"X","legs":"F"},"action":"avoid","summary":"bad-avoid","bonus":0.16000000000000078},{"rt":405,"stimulus":"\n                    <p><b>Action: <em>avoid</em></b></p>\n                    <p>This is the bee that you just saw.</p>\n                    <img src=\"bees-with-color/bee-B2DM.svg\" width=\"200\">\n                    <p><br>Your bonus pay is unchanged, and remains at $0.56.</p>\n            ","response":0,"trial_type":"html-button-response","trial_index":96,"time_elapsed":218313,"internal_node_id":"0.0-4.0-1.42","subject_id":"5f10e66a9df7fd41db27b663","study_id":"6197b3f67c2b5cd3b6d9596a","session_id":"6197b9f2bee13d001226c999","condition":"contingent","relevant_dimensions":["antennae","legs"],"bee_group":{"antennae":"B","wings":"X","pattern":"X","legs":"F"},"bonus":0.16000000000000078},{"rt":708.5,"stimulus":"bees-with-color/bee-A1SF.svg","response":0,"trial_type":"image-button-response","trial_index":97,"time_elapsed":219023,"internal_node_id":"0.0-4.0-0.43","subject_id":"5f10e66a9df7fd41db27b663","study_id":"6197b3f67c2b5cd3b6d9596a","session_id":"6197b9f2bee13d001226c999","condition":"contingent","relevant_dimensions":["antennae","legs"],"bee_group":{"antennae":"B","wings":"X","pattern":"X","legs":"F"},"action":"harvest","summary":"good-harvest","bonus":0.16000000000000078},{"rt":561,"stimulus":"\n                    <p><b>Action: <em>harvest</em></b></p>\n                    <p>This is the bee that you just saw.</p>\n                    <img src=\"bees-with-color/bee-A1SF.svg\" width=\"200\">\n                    <p><span class=\"greenText\"><b>Successful harvest!</b></span><br>Your pay has increased by $0.02. Your bonus pay is now $0.58.</p>\n            ","response":0,"trial_type":"html-button-response","trial_index":98,"time_elapsed":219585,"internal_node_id":"0.0-4.0-1.43","subject_id":"5f10e66a9df7fd41db27b663","study_id":"6197b3f67c2b5cd3b6d9596a","session_id":"6197b9f2bee13d001226c999","condition":"contingent","relevant_dimensions":["antennae","legs"],"bee_group":{"antennae":"B","wings":"X","pattern":"X","legs":"F"},"bonus":0.16000000000000078},{"rt":617.2000000029802,"stimulus":"bees-with-color/bee-A2DF.svg","response":0,"trial_type":"image-button-response","trial_index":99,"time_elapsed":220203,"internal_node_id":"0.0-4.0-0.44","subject_id":"5f10e66a9df7fd41db27b663","study_id":"6197b3f67c2b5cd3b6d9596a","session_id":"6197b9f2bee13d001226c999","condition":"contingent","relevant_dimensions":["antennae","legs"],"bee_group":{"antennae":"B","wings":"X","pattern":"X","legs":"F"},"action":"harvest","summary":"good-harvest","bonus":0.16000000000000078},{"rt":434.20000000298023,"stimulus":"\n                    <p><b>Action: <em>harvest</em></b></p>\n                    <p>This is the bee that you just saw.</p>\n                    <img src=\"bees-with-color/bee-A2DF.svg\" width=\"200\">\n                    <p><span class=\"greenText\"><b>Successful harvest!</b></span><br>Your pay has increased by $0.02. Your bonus pay is now $0.60.</p>\n            ","response":0,"trial_type":"html-button-response","trial_index":100,"time_elapsed":220638,"internal_node_id":"0.0-4.0-1.44","subject_id":"5f10e66a9df7fd41db27b663","study_id":"6197b3f67c2b5cd3b6d9596a","session_id":"6197b9f2bee13d001226c999","condition":"contingent","relevant_dimensions":["antennae","legs"],"bee_group":{"antennae":"B","wings":"X","pattern":"X","legs":"F"},"bonus":0.16000000000000078},{"rt":784.3000000119209,"stimulus":"bees-with-color/bee-A1DM.svg","response":0,"trial_type":"image-button-response","trial_index":101,"time_elapsed":221423,"internal_node_id":"0.0-4.0-0.45","subject_id":"5f10e66a9df7fd41db27b663","study_id":"6197b3f67c2b5cd3b6d9596a","session_id":"6197b9f2bee13d001226c999","condition":"contingent","relevant_dimensions":["antennae","legs"],"bee_group":{"antennae":"B","wings":"X","pattern":"X","legs":"F"},"action":"harvest","summary":"good-harvest","bonus":0.16000000000000078},{"rt":435.79999999701977,"stimulus":"\n                    <p><b>Action: <em>harvest</em></b></p>\n                    <p>This is the bee that you just saw.</p>\n                    <img src=\"bees-with-color/bee-A1DM.svg\" width=\"200\">\n                    <p><span class=\"greenText\"><b>Successful harvest!</b></span><br>Your pay has increased by $0.02. Your bonus pay is now $0.62.</p>\n            ","response":0,"trial_type":"html-button-response","trial_index":102,"time_elapsed":221860,"internal_node_id":"0.0-4.0-1.45","subject_id":"5f10e66a9df7fd41db27b663","study_id":"6197b3f67c2b5cd3b6d9596a","session_id":"6197b9f2bee13d001226c999","condition":"contingent","relevant_dimensions":["antennae","legs"],"bee_group":{"antennae":"B","wings":"X","pattern":"X","legs":"F"},"bonus":0.16000000000000078},{"rt":591.2000000029802,"stimulus":"bees-with-color/bee-B1SF.svg","response":1,"trial_type":"image-button-response","trial_index":103,"time_elapsed":222452,"internal_node_id":"0.0-4.0-0.46","subject_id":"5f10e66a9df7fd41db27b663","study_id":"6197b3f67c2b5cd3b6d9596a","session_id":"6197b9f2bee13d001226c999","condition":"contingent","relevant_dimensions":["antennae","legs"],"bee_group":{"antennae":"B","wings":"X","pattern":"X","legs":"F"},"action":"avoid","summary":"good-avoid","bonus":0.16000000000000078},{"rt":326.90000000596046,"stimulus":"\n                    <p><b>Action: <em>avoid</em></b></p>\n                    <p>This is the bee that you just saw.</p>\n                    <img src=\"bees-with-color/bee-B1SF.svg\" width=\"200\">\n                    <p><br>Your bonus pay is unchanged, and remains at $0.62.</p>\n            ","response":0,"trial_type":"html-button-response","trial_index":104,"time_elapsed":222780,"internal_node_id":"0.0-4.0-1.46","subject_id":"5f10e66a9df7fd41db27b663","study_id":"6197b3f67c2b5cd3b6d9596a","session_id":"6197b9f2bee13d001226c999","condition":"contingent","relevant_dimensions":["antennae","legs"],"bee_group":{"antennae":"B","wings":"X","pattern":"X","legs":"F"},"bonus":0.16000000000000078},{"rt":593.2000000029802,"stimulus":"bees-with-color/bee-A2SF.svg","response":0,"trial_type":"image-button-response","trial_index":105,"time_elapsed":223374,"internal_node_id":"0.0-4.0-0.47","subject_id":"5f10e66a9df7fd41db27b663","study_id":"6197b3f67c2b5cd3b6d9596a","session_id":"6197b9f2bee13d001226c999","condition":"contingent","relevant_dimensions":["antennae","legs"],"bee_group":{"antennae":"B","wings":"X","pattern":"X","legs":"F"},"action":"harvest","summary":"good-harvest","bonus":0.16000000000000078},{"rt":513,"stimulus":"\n                    <p><b>Action: <em>harvest</em></b></p>\n                    <p>This is the bee that you just saw.</p>\n                    <img src=\"bees-with-color/bee-A2SF.svg\" width=\"200\">\n                    <p><span class=\"greenText\"><b>Successful harvest!</b></span><br>Your pay has increased by $0.02. Your bonus pay is now $0.64.</p>\n            ","response":0,"trial_type":"html-button-response","trial_index":106,"time_elapsed":223888,"internal_node_id":"0.0-4.0-1.47","subject_id":"5f10e66a9df7fd41db27b663","study_id":"6197b3f67c2b5cd3b6d9596a","session_id":"6197b9f2bee13d001226c999","condition":"contingent","relevant_dimensions":["antennae","legs"],"bee_group":{"antennae":"B","wings":"X","pattern":"X","legs":"F"},"bonus":0.16000000000000078},{"rt":605.3000000119209,"stimulus":"bees-with-color/bee-B1DF.svg","response":1,"trial_type":"image-button-response","trial_index":107,"time_elapsed":224494,"internal_node_id":"0.0-4.0-0.48","subject_id":"5f10e66a9df7fd41db27b663","study_id":"6197b3f67c2b5cd3b6d9596a","session_id":"6197b9f2bee13d001226c999","condition":"contingent","relevant_dimensions":["antennae","legs"],"bee_group":{"antennae":"B","wings":"X","pattern":"X","legs":"F"},"action":"avoid","summary":"good-avoid","bonus":0.16000000000000078},{"rt":523,"stimulus":"\n                    <p><b>Action: <em>avoid</em></b></p>\n                    <p>This is the bee that you just saw.</p>\n                    <img src=\"bees-with-color/bee-B1DF.svg\" width=\"200\">\n                    <p><br>Your bonus pay is unchanged, and remains at $0.64.</p>\n            ","response":0,"trial_type":"html-button-response","trial_index":108,"time_elapsed":225018,"internal_node_id":"0.0-4.0-1.48","subject_id":"5f10e66a9df7fd41db27b663","study_id":"6197b3f67c2b5cd3b6d9596a","session_id":"6197b9f2bee13d001226c999","condition":"contingent","relevant_dimensions":["antennae","legs"],"bee_group":{"antennae":"B","wings":"X","pattern":"X","legs":"F"},"bonus":0.16000000000000078},{"rt":678,"stimulus":"bees-with-color/bee-A1SF.svg","response":0,"trial_type":"image-button-response","trial_index":109,"time_elapsed":225697,"internal_node_id":"0.0-4.0-0.49","subject_id":"5f10e66a9df7fd41db27b663","study_id":"6197b3f67c2b5cd3b6d9596a","session_id":"6197b9f2bee13d001226c999","condition":"contingent","relevant_dimensions":["antennae","legs"],"bee_group":{"antennae":"B","wings":"X","pattern":"X","legs":"F"},"action":"harvest","summary":"good-harvest","bonus":0.16000000000000078},{"rt":444.90000000596046,"stimulus":"\n                    <p><b>Action: <em>harvest</em></b></p>\n                    <p>This is the bee that you just saw.</p>\n                    <img src=\"bees-with-color/bee-A1SF.svg\" width=\"200\">\n                    <p><span class=\"greenText\"><b>Successful harvest!</b></span><br>Your pay has increased by $0.02. Your bonus pay is now $0.66.</p>\n            ","response":0,"trial_type":"html-button-response","trial_index":110,"time_elapsed":226142,"internal_node_id":"0.0-4.0-1.49","subject_id":"5f10e66a9df7fd41db27b663","study_id":"6197b3f67c2b5cd3b6d9596a","session_id":"6197b9f2bee13d001226c999","condition":"contingent","relevant_dimensions":["antennae","legs"],"bee_group":{"antennae":"B","wings":"X","pattern":"X","legs":"F"},"bonus":0.16000000000000078},{"rt":789.1000000089407,"stimulus":"bees-with-color/bee-A1SM.svg","response":0,"trial_type":"image-button-response","trial_index":111,"time_elapsed":226932,"internal_node_id":"0.0-4.0-0.50","subject_id":"5f10e66a9df7fd41db27b663","study_id":"6197b3f67c2b5cd3b6d9596a","session_id":"6197b9f2bee13d001226c999","condition":"contingent","relevant_dimensions":["antennae","legs"],"bee_group":{"antennae":"B","wings":"X","pattern":"X","legs":"F"},"action":"harvest","summary":"good-harvest","bonus":0.16000000000000078},{"rt":528.2999999970198,"stimulus":"\n                    <p><b>Action: <em>harvest</em></b></p>\n                    <p>This is the bee that you just saw.</p>\n                    <img src=\"bees-with-color/bee-A1SM.svg\" width=\"200\">\n                    <p><span class=\"greenText\"><b>Successful harvest!</b></span><br>Your pay has increased by $0.02. Your bonus pay is now $0.68.</p>\n            ","response":0,"trial_type":"html-button-response","trial_index":112,"time_elapsed":227462,"internal_node_id":"0.0-4.0-1.50","subject_id":"5f10e66a9df7fd41db27b663","study_id":"6197b3f67c2b5cd3b6d9596a","session_id":"6197b9f2bee13d001226c999","condition":"contingent","relevant_dimensions":["antennae","legs"],"bee_group":{"antennae":"B","wings":"X","pattern":"X","legs":"F"},"bonus":0.16000000000000078},{"rt":539,"stimulus":"bees-with-color/bee-A1DF.svg","response":0,"trial_type":"image-button-response","trial_index":113,"time_elapsed":228002,"internal_node_id":"0.0-4.0-0.51","subject_id":"5f10e66a9df7fd41db27b663","study_id":"6197b3f67c2b5cd3b6d9596a","session_id":"6197b9f2bee13d001226c999","condition":"contingent","relevant_dimensions":["antennae","legs"],"bee_group":{"antennae":"B","wings":"X","pattern":"X","legs":"F"},"action":"harvest","summary":"good-harvest","bonus":0.16000000000000078},{"rt":387.29999999701977,"stimulus":"\n                    <p><b>Action: <em>harvest</em></b></p>\n                    <p>This is the bee that you just saw.</p>\n                    <img src=\"bees-with-color/bee-A1DF.svg\" width=\"200\">\n                    <p><span class=\"greenText\"><b>Successful harvest!</b></span><br>Your pay has increased by $0.02. Your bonus pay is now $0.70.</p>\n            ","response":0,"trial_type":"html-button-response","trial_index":114,"time_elapsed":228390,"internal_node_id":"0.0-4.0-1.51","subject_id":"5f10e66a9df7fd41db27b663","study_id":"6197b3f67c2b5cd3b6d9596a","session_id":"6197b9f2bee13d001226c999","condition":"contingent","relevant_dimensions":["antennae","legs"],"bee_group":{"antennae":"B","wings":"X","pattern":"X","legs":"F"},"bonus":0.16000000000000078},{"rt":620.2999999970198,"stimulus":"bees-with-color/bee-A1DM.svg","response":0,"trial_type":"image-button-response","trial_index":115,"time_elapsed":229011,"internal_node_id":"0.0-4.0-0.52","subject_id":"5f10e66a9df7fd41db27b663","study_id":"6197b3f67c2b5cd3b6d9596a","session_id":"6197b9f2bee13d001226c999","condition":"contingent","relevant_dimensions":["antennae","legs"],"bee_group":{"antennae":"B","wings":"X","pattern":"X","legs":"F"},"action":"harvest","summary":"good-harvest","bonus":0.16000000000000078},{"rt":513.9000000059605,"stimulus":"\n                    <p><b>Action: <em>harvest</em></b></p>\n                    <p>This is the bee that you just saw.</p>\n                    <img src=\"bees-with-color/bee-A1DM.svg\" width=\"200\">\n                    <p><span class=\"greenText\"><b>Successful harvest!</b></span><br>Your pay has increased by $0.02. Your bonus pay is now $0.72.</p>\n            ","response":0,"trial_type":"html-button-response","trial_index":116,"time_elapsed":229525,"internal_node_id":"0.0-4.0-1.52","subject_id":"5f10e66a9df7fd41db27b663","study_id":"6197b3f67c2b5cd3b6d9596a","session_id":"6197b9f2bee13d001226c999","condition":"contingent","relevant_dimensions":["antennae","legs"],"bee_group":{"antennae":"B","wings":"X","pattern":"X","legs":"F"},"bonus":0.16000000000000078},{"rt":1087.3999999910593,"stimulus":"bees-with-color/bee-B2DM.svg","response":1,"trial_type":"image-button-response","trial_index":117,"time_elapsed":230614,"internal_node_id":"0.0-4.0-0.53","subject_id":"5f10e66a9df7fd41db27b663","study_id":"6197b3f67c2b5cd3b6d9596a","session_id":"6197b9f2bee13d001226c999","condition":"contingent","relevant_dimensions":["antennae","legs"],"bee_group":{"antennae":"B","wings":"X","pattern":"X","legs":"F"},"action":"avoid","summary":"bad-avoid","bonus":0.16000000000000078},{"rt":363,"stimulus":"\n                    <p><b>Action: <em>avoid</em></b></p>\n                    <p>This is the bee that you just saw.</p>\n                    <img src=\"bees-with-color/bee-B2DM.svg\" width=\"200\">\n                    <p><br>Your bonus pay is unchanged, and remains at $0.72.</p>\n            ","response":0,"trial_type":"html-button-response","trial_index":118,"time_elapsed":230978,"internal_node_id":"0.0-4.0-1.53","subject_id":"5f10e66a9df7fd41db27b663","study_id":"6197b3f67c2b5cd3b6d9596a","session_id":"6197b9f2bee13d001226c999","condition":"contingent","relevant_dimensions":["antennae","legs"],"bee_group":{"antennae":"B","wings":"X","pattern":"X","legs":"F"},"bonus":0.16000000000000078},{"rt":538.2000000029802,"stimulus":"bees-with-color/bee-B1SF.svg","response":1,"trial_type":"image-button-response","trial_index":119,"time_elapsed":231517,"internal_node_id":"0.0-4.0-0.54","subject_id":"5f10e66a9df7fd41db27b663","study_id":"6197b3f67c2b5cd3b6d9596a","session_id":"6197b9f2bee13d001226c999","condition":"contingent","relevant_dimensions":["antennae","legs"],"bee_group":{"antennae":"B","wings":"X","pattern":"X","legs":"F"},"action":"avoid","summary":"good-avoid","bonus":0.16000000000000078},{"rt":302.90000000596046,"stimulus":"\n                    <p><b>Action: <em>avoid</em></b></p>\n                    <p>This is the bee that you just saw.</p>\n                    <img src=\"bees-with-color/bee-B1SF.svg\" width=\"200\">\n                    <p><br>Your bonus pay is unchanged, and remains at $0.72.</p>\n            ","response":0,"trial_type":"html-button-response","trial_index":120,"time_elapsed":231820,"internal_node_id":"0.0-4.0-1.54","subject_id":"5f10e66a9df7fd41db27b663","study_id":"6197b3f67c2b5cd3b6d9596a","session_id":"6197b9f2bee13d001226c999","condition":"contingent","relevant_dimensions":["antennae","legs"],"bee_group":{"antennae":"B","wings":"X","pattern":"X","legs":"F"},"bonus":0.16000000000000078},{"rt":793.3999999910593,"stimulus":"bees-with-color/bee-A2DF.svg","response":0,"trial_type":"image-button-response","trial_index":121,"time_elapsed":232615,"internal_node_id":"0.0-4.0-0.55","subject_id":"5f10e66a9df7fd41db27b663","study_id":"6197b3f67c2b5cd3b6d9596a","session_id":"6197b9f2bee13d001226c999","condition":"contingent","relevant_dimensions":["antennae","legs"],"bee_group":{"antennae":"B","wings":"X","pattern":"X","legs":"F"},"action":"harvest","summary":"good-harvest","bonus":0.16000000000000078},{"rt":499.3999999910593,"stimulus":"\n                    <p><b>Action: <em>harvest</em></b></p>\n                    <p>This is the bee that you just saw.</p>\n                    <img src=\"bees-with-color/bee-A2DF.svg\" width=\"200\">\n                    <p><span class=\"greenText\"><b>Successful harvest!</b></span><br>Your pay has increased by $0.02. Your bonus pay is now $0.74.</p>\n            ","response":0,"trial_type":"html-button-response","trial_index":122,"time_elapsed":233115,"internal_node_id":"0.0-4.0-1.55","subject_id":"5f10e66a9df7fd41db27b663","study_id":"6197b3f67c2b5cd3b6d9596a","session_id":"6197b9f2bee13d001226c999","condition":"contingent","relevant_dimensions":["antennae","legs"],"bee_group":{"antennae":"B","wings":"X","pattern":"X","legs":"F"},"bonus":0.16000000000000078},{"rt":611.7999999970198,"stimulus":"bees-with-color/bee-A2DM.svg","response":0,"trial_type":"image-button-response","trial_index":123,"time_elapsed":233728,"internal_node_id":"0.0-4.0-0.56","subject_id":"5f10e66a9df7fd41db27b663","study_id":"6197b3f67c2b5cd3b6d9596a","session_id":"6197b9f2bee13d001226c999","condition":"contingent","relevant_dimensions":["antennae","legs"],"bee_group":{"antennae":"B","wings":"X","pattern":"X","legs":"F"},"action":"harvest","summary":"good-harvest","bonus":0.16000000000000078},{"rt":403.09999999403954,"stimulus":"\n                    <p><b>Action: <em>harvest</em></b></p>\n                    <p>This is the bee that you just saw.</p>\n                    <img src=\"bees-with-color/bee-A2DM.svg\" width=\"200\">\n                    <p><span class=\"greenText\"><b>Successful harvest!</b></span><br>Your pay has increased by $0.02. Your bonus pay is now $0.76.</p>\n            ","response":0,"trial_type":"html-button-response","trial_index":124,"time_elapsed":234132,"internal_node_id":"0.0-4.0-1.56","subject_id":"5f10e66a9df7fd41db27b663","study_id":"6197b3f67c2b5cd3b6d9596a","session_id":"6197b9f2bee13d001226c999","condition":"contingent","relevant_dimensions":["antennae","legs"],"bee_group":{"antennae":"B","wings":"X","pattern":"X","legs":"F"},"bonus":0.16000000000000078},{"rt":689.1000000089407,"stimulus":"bees-with-color/bee-B2SM.svg","response":1,"trial_type":"image-button-response","trial_index":125,"time_elapsed":234822,"internal_node_id":"0.0-4.0-0.57","subject_id":"5f10e66a9df7fd41db27b663","study_id":"6197b3f67c2b5cd3b6d9596a","session_id":"6197b9f2bee13d001226c999","condition":"contingent","relevant_dimensions":["antennae","legs"],"bee_group":{"antennae":"B","wings":"X","pattern":"X","legs":"F"},"action":"avoid","summary":"bad-avoid","bonus":0.16000000000000078},{"rt":372.1000000089407,"stimulus":"\n                    <p><b>Action: <em>avoid</em></b></p>\n                    <p>This is the bee that you just saw.</p>\n                    <img src=\"bees-with-color/bee-B2SM.svg\" width=\"200\">\n                    <p><br>Your bonus pay is unchanged, and remains at $0.76.</p>\n            ","response":0,"trial_type":"html-button-response","trial_index":126,"time_elapsed":235195,"internal_node_id":"0.0-4.0-1.57","subject_id":"5f10e66a9df7fd41db27b663","study_id":"6197b3f67c2b5cd3b6d9596a","session_id":"6197b9f2bee13d001226c999","condition":"contingent","relevant_dimensions":["antennae","legs"],"bee_group":{"antennae":"B","wings":"X","pattern":"X","legs":"F"},"bonus":0.16000000000000078},{"rt":540.7000000029802,"stimulus":"bees-with-color/bee-B2SF.svg","response":1,"trial_type":"image-button-response","trial_index":127,"time_elapsed":235737,"internal_node_id":"0.0-4.0-0.58","subject_id":"5f10e66a9df7fd41db27b663","study_id":"6197b3f67c2b5cd3b6d9596a","session_id":"6197b9f2bee13d001226c999","condition":"contingent","relevant_dimensions":["antennae","legs"],"bee_group":{"antennae":"B","wings":"X","pattern":"X","legs":"F"},"action":"avoid","summary":"good-avoid","bonus":0.16000000000000078},{"rt":324.70000000298023,"stimulus":"\n                    <p><b>Action: <em>avoid</em></b></p>\n                    <p>This is the bee that you just saw.</p>\n                    <img src=\"bees-with-color/bee-B2SF.svg\" width=\"200\">\n                    <p><br>Your bonus pay is unchanged, and remains at $0.76.</p>\n            ","response":0,"trial_type":"html-button-response","trial_index":128,"time_elapsed":236063,"internal_node_id":"0.0-4.0-1.58","subject_id":"5f10e66a9df7fd41db27b663","study_id":"6197b3f67c2b5cd3b6d9596a","session_id":"6197b9f2bee13d001226c999","condition":"contingent","relevant_dimensions":["antennae","legs"],"bee_group":{"antennae":"B","wings":"X","pattern":"X","legs":"F"},"bonus":0.16000000000000078},{"rt":769.4000000059605,"stimulus":"bees-with-color/bee-B2DF.svg","response":1,"trial_type":"image-button-response","trial_index":129,"time_elapsed":236833,"internal_node_id":"0.0-4.0-0.59","subject_id":"5f10e66a9df7fd41db27b663","study_id":"6197b3f67c2b5cd3b6d9596a","session_id":"6197b9f2bee13d001226c999","condition":"contingent","relevant_dimensions":["antennae","legs"],"bee_group":{"antennae":"B","wings":"X","pattern":"X","legs":"F"},"action":"avoid","summary":"good-avoid","bonus":0.16000000000000078},{"rt":364.90000000596046,"stimulus":"\n                    <p><b>Action: <em>avoid</em></b></p>\n                    <p>This is the bee that you just saw.</p>\n                    <img src=\"bees-with-color/bee-B2DF.svg\" width=\"200\">\n                    <p><br>Your bonus pay is unchanged, and remains at $0.76.</p>\n            ","response":0,"trial_type":"html-button-response","trial_index":130,"time_elapsed":237198,"internal_node_id":"0.0-4.0-1.59","subject_id":"5f10e66a9df7fd41db27b663","study_id":"6197b3f67c2b5cd3b6d9596a","session_id":"6197b9f2bee13d001226c999","condition":"contingent","relevant_dimensions":["antennae","legs"],"bee_group":{"antennae":"B","wings":"X","pattern":"X","legs":"F"},"bonus":0.16000000000000078},{"rt":543.2999999970198,"stimulus":"bees-with-color/bee-B1DM.svg","response":1,"trial_type":"image-button-response","trial_index":131,"time_elapsed":237742,"internal_node_id":"0.0-4.0-0.60","subject_id":"5f10e66a9df7fd41db27b663","study_id":"6197b3f67c2b5cd3b6d9596a","session_id":"6197b9f2bee13d001226c999","condition":"contingent","relevant_dimensions":["antennae","legs"],"bee_group":{"antennae":"B","wings":"X","pattern":"X","legs":"F"},"action":"avoid","summary":"bad-avoid","bonus":0.16000000000000078},{"rt":348.1000000089407,"stimulus":"\n                    <p><b>Action: <em>avoid</em></b></p>\n                    <p>This is the bee that you just saw.</p>\n                    <img src=\"bees-with-color/bee-B1DM.svg\" width=\"200\">\n                    <p><br>Your bonus pay is unchanged, and remains at $0.76.</p>\n            ","response":0,"trial_type":"html-button-response","trial_index":132,"time_elapsed":238091,"internal_node_id":"0.0-4.0-1.60","subject_id":"5f10e66a9df7fd41db27b663","study_id":"6197b3f67c2b5cd3b6d9596a","session_id":"6197b9f2bee13d001226c999","condition":"contingent","relevant_dimensions":["antennae","legs"],"bee_group":{"antennae":"B","wings":"X","pattern":"X","legs":"F"},"bonus":0.16000000000000078},{"rt":677.5,"stimulus":"bees-with-color/bee-B1SM.svg","response":1,"trial_type":"image-button-response","trial_index":133,"time_elapsed":238769,"internal_node_id":"0.0-4.0-0.61","subject_id":"5f10e66a9df7fd41db27b663","study_id":"6197b3f67c2b5cd3b6d9596a","session_id":"6197b9f2bee13d001226c999","condition":"contingent","relevant_dimensions":["antennae","legs"],"bee_group":{"antennae":"B","wings":"X","pattern":"X","legs":"F"},"action":"avoid","summary":"bad-avoid","bonus":0.16000000000000078},{"rt":344.90000000596046,"stimulus":"\n                    <p><b>Action: <em>avoid</em></b></p>\n                    <p>This is the bee that you just saw.</p>\n                    <img src=\"bees-with-color/bee-B1SM.svg\" width=\"200\">\n                    <p><br>Your bonus pay is unchanged, and remains at $0.76.</p>\n            ","response":0,"trial_type":"html-button-response","trial_index":134,"time_elapsed":239115,"internal_node_id":"0.0-4.0-1.61","subject_id":"5f10e66a9df7fd41db27b663","study_id":"6197b3f67c2b5cd3b6d9596a","session_id":"6197b9f2bee13d001226c999","condition":"contingent","relevant_dimensions":["antennae","legs"],"bee_group":{"antennae":"B","wings":"X","pattern":"X","legs":"F"},"bonus":0.16000000000000078},{"rt":662.5999999940395,"stimulus":"bees-with-color/bee-A2SF.svg","response":0,"trial_type":"image-button-response","trial_index":135,"time_elapsed":239778,"internal_node_id":"0.0-4.0-0.62","subject_id":"5f10e66a9df7fd41db27b663","study_id":"6197b3f67c2b5cd3b6d9596a","session_id":"6197b9f2bee13d001226c999","condition":"contingent","relevant_dimensions":["antennae","legs"],"bee_group":{"antennae":"B","wings":"X","pattern":"X","legs":"F"},"action":"harvest","summary":"good-harvest","bonus":0.16000000000000078},{"rt":537,"stimulus":"\n                    <p><b>Action: <em>harvest</em></b></p>\n                    <p>This is the bee that you just saw.</p>\n                    <img src=\"bees-with-color/bee-A2SF.svg\" width=\"200\">\n                    <p><span class=\"greenText\"><b>Successful harvest!</b></span><br>Your pay has increased by $0.02. Your bonus pay is now $0.78.</p>\n            ","response":0,"trial_type":"html-button-response","trial_index":136,"time_elapsed":240316,"internal_node_id":"0.0-4.0-1.62","subject_id":"5f10e66a9df7fd41db27b663","study_id":"6197b3f67c2b5cd3b6d9596a","session_id":"6197b9f2bee13d001226c999","condition":"contingent","relevant_dimensions":["antennae","legs"],"bee_group":{"antennae":"B","wings":"X","pattern":"X","legs":"F"},"bonus":0.16000000000000078},{"rt":761,"stimulus":"bees-with-color/bee-A2SM.svg","response":0,"trial_type":"image-button-response","trial_index":137,"time_elapsed":241078,"internal_node_id":"0.0-4.0-0.63","subject_id":"5f10e66a9df7fd41db27b663","study_id":"6197b3f67c2b5cd3b6d9596a","session_id":"6197b9f2bee13d001226c999","condition":"contingent","relevant_dimensions":["antennae","legs"],"bee_group":{"antennae":"B","wings":"X","pattern":"X","legs":"F"},"action":"harvest","summary":"good-harvest","bonus":0.16000000000000078},{"rt":655.2000000029802,"stimulus":"\n                    <p><b>Action: <em>harvest</em></b></p>\n                    <p>This is the bee that you just saw.</p>\n                    <img src=\"bees-with-color/bee-A2SM.svg\" width=\"200\">\n                    <p><span class=\"greenText\"><b>Successful harvest!</b></span><br>Your pay has increased by $0.02. Your bonus pay is now $0.80.</p>\n            ","response":0,"trial_type":"html-button-response","trial_index":138,"time_elapsed":241734,"internal_node_id":"0.0-4.0-1.63","subject_id":"5f10e66a9df7fd41db27b663","study_id":"6197b3f67c2b5cd3b6d9596a","session_id":"6197b9f2bee13d001226c999","condition":"contingent","relevant_dimensions":["antennae","legs"],"bee_group":{"antennae":"B","wings":"X","pattern":"X","legs":"F"},"bonus":0.16000000000000078},{"rt":4175.5,"stimulus":"You have completed the first part of this experiment.<br><br>You will now begin a shorter second part, in which you will receive no feedback.<br>The same rules regarding bonus pay apply.<br><br>Press any key to begin.","response":"enter","trial_type":"html-keyboard-response","trial_index":139,"time_elapsed":245910,"internal_node_id":"0.0-5.0","subject_id":"5f10e66a9df7fd41db27b663","study_id":"6197b3f67c2b5cd3b6d9596a","session_id":"6197b9f2bee13d001226c999","condition":"contingent","relevant_dimensions":["antennae","legs"],"bee_group":{"antennae":"B","wings":"X","pattern":"X","legs":"F"},"bonus":0.16000000000000078},{"rt":3225.2999999970198,"stimulus":"bees-with-color/bee-B1DF.svg","response":0,"trial_type":"image-button-response","trial_index":140,"time_elapsed":249141,"internal_node_id":"0.0-6.0-0.0","subject_id":"5f10e66a9df7fd41db27b663","study_id":"6197b3f67c2b5cd3b6d9596a","session_id":"6197b9f2bee13d001226c999","condition":"contingent","relevant_dimensions":["antennae","legs"],"bee_group":{"antennae":"B","wings":"X","pattern":"X","legs":"F"},"bonus":0.16000000000000078},{"rt":1806.6000000089407,"stimulus":"bees-with-color/bee-A1DM.svg","response":1,"trial_type":"image-button-response","trial_index":141,"time_elapsed":250949,"internal_node_id":"0.0-6.0-0.1","subject_id":"5f10e66a9df7fd41db27b663","study_id":"6197b3f67c2b5cd3b6d9596a","session_id":"6197b9f2bee13d001226c999","condition":"contingent","relevant_dimensions":["antennae","legs"],"bee_group":{"antennae":"B","wings":"X","pattern":"X","legs":"F"},"bonus":0.16000000000000078},{"rt":470.5,"stimulus":"bees-with-color/bee-A2SF.svg","response":1,"trial_type":"image-button-response","trial_index":142,"time_elapsed":251421,"internal_node_id":"0.0-6.0-0.2","subject_id":"5f10e66a9df7fd41db27b663","study_id":"6197b3f67c2b5cd3b6d9596a","session_id":"6197b9f2bee13d001226c999","condition":"contingent","relevant_dimensions":["antennae","legs"],"bee_group":{"antennae":"B","wings":"X","pattern":"X","legs":"F"},"bonus":0.16000000000000078},{"rt":523.5,"stimulus":"bees-with-color/bee-B2SM.svg","response":0,"trial_type":"image-button-response","trial_index":143,"time_elapsed":251946,"internal_node_id":"0.0-6.0-0.3","subject_id":"5f10e66a9df7fd41db27b663","study_id":"6197b3f67c2b5cd3b6d9596a","session_id":"6197b9f2bee13d001226c999","condition":"contingent","relevant_dimensions":["antennae","legs"],"bee_group":{"antennae":"B","wings":"X","pattern":"X","legs":"F"},"bonus":0.16000000000000078},{"rt":734.6999999880791,"stimulus":"bees-with-color/bee-B1SM.svg","response":0,"trial_type":"image-button-response","trial_index":144,"time_elapsed":252682,"internal_node_id":"0.0-6.0-0.4","subject_id":"5f10e66a9df7fd41db27b663","study_id":"6197b3f67c2b5cd3b6d9596a","session_id":"6197b9f2bee13d001226c999","condition":"contingent","relevant_dimensions":["antennae","legs"],"bee_group":{"antennae":"B","wings":"X","pattern":"X","legs":"F"},"bonus":0.16000000000000078},{"rt":471,"stimulus":"bees-with-color/bee-B1SF.svg","response":0,"trial_type":"image-button-response","trial_index":145,"time_elapsed":253154,"internal_node_id":"0.0-6.0-0.5","subject_id":"5f10e66a9df7fd41db27b663","study_id":"6197b3f67c2b5cd3b6d9596a","session_id":"6197b9f2bee13d001226c999","condition":"contingent","relevant_dimensions":["antennae","legs"],"bee_group":{"antennae":"B","wings":"X","pattern":"X","legs":"F"},"bonus":0.16000000000000078},{"rt":533.7000000029802,"stimulus":"bees-with-color/bee-A1SF.svg","response":1,"trial_type":"image-button-response","trial_index":146,"time_elapsed":253689,"internal_node_id":"0.0-6.0-0.6","subject_id":"5f10e66a9df7fd41db27b663","study_id":"6197b3f67c2b5cd3b6d9596a","session_id":"6197b9f2bee13d001226c999","condition":"contingent","relevant_dimensions":["antennae","legs"],"bee_group":{"antennae":"B","wings":"X","pattern":"X","legs":"F"},"bonus":0.16000000000000078},{"rt":578.7999999970198,"stimulus":"bees-with-color/bee-B1DM.svg","response":0,"trial_type":"image-button-response","trial_index":147,"time_elapsed":254269,"internal_node_id":"0.0-6.0-0.7","subject_id":"5f10e66a9df7fd41db27b663","study_id":"6197b3f67c2b5cd3b6d9596a","session_id":"6197b9f2bee13d001226c999","condition":"contingent","relevant_dimensions":["antennae","legs"],"bee_group":{"antennae":"B","wings":"X","pattern":"X","legs":"F"},"bonus":0.16000000000000078},{"rt":383.70000000298023,"stimulus":"bees-with-color/bee-A1SM.svg","response":1,"trial_type":"image-button-response","trial_index":148,"time_elapsed":254654,"internal_node_id":"0.0-6.0-0.8","subject_id":"5f10e66a9df7fd41db27b663","study_id":"6197b3f67c2b5cd3b6d9596a","session_id":"6197b9f2bee13d001226c999","condition":"contingent","relevant_dimensions":["antennae","legs"],"bee_group":{"antennae":"B","wings":"X","pattern":"X","legs":"F"},"bonus":0.16000000000000078},{"rt":520.9000000059605,"stimulus":"bees-with-color/bee-A2DF.svg","response":1,"trial_type":"image-button-response","trial_index":149,"time_elapsed":255176,"internal_node_id":"0.0-6.0-0.9","subject_id":"5f10e66a9df7fd41db27b663","study_id":"6197b3f67c2b5cd3b6d9596a","session_id":"6197b9f2bee13d001226c999","condition":"contingent","relevant_dimensions":["antennae","legs"],"bee_group":{"antennae":"B","wings":"X","pattern":"X","legs":"F"},"bonus":0.16000000000000078},{"rt":384.79999999701977,"stimulus":"bees-with-color/bee-A2SM.svg","response":1,"trial_type":"image-button-response","trial_index":150,"time_elapsed":255562,"internal_node_id":"0.0-6.0-0.10","subject_id":"5f10e66a9df7fd41db27b663","study_id":"6197b3f67c2b5cd3b6d9596a","session_id":"6197b9f2bee13d001226c999","condition":"contingent","relevant_dimensions":["antennae","legs"],"bee_group":{"antennae":"B","wings":"X","pattern":"X","legs":"F"},"bonus":0.16000000000000078},{"rt":462,"stimulus":"bees-with-color/bee-A1DF.svg","response":1,"trial_type":"image-button-response","trial_index":151,"time_elapsed":256025,"internal_node_id":"0.0-6.0-0.11","subject_id":"5f10e66a9df7fd41db27b663","study_id":"6197b3f67c2b5cd3b6d9596a","session_id":"6197b9f2bee13d001226c999","condition":"contingent","relevant_dimensions":["antennae","legs"],"bee_group":{"antennae":"B","wings":"X","pattern":"X","legs":"F"},"bonus":0.16000000000000078},{"rt":762.6999999880791,"stimulus":"bees-with-color/bee-B2DM.svg","response":0,"trial_type":"image-button-response","trial_index":152,"time_elapsed":256789,"internal_node_id":"0.0-6.0-0.12","subject_id":"5f10e66a9df7fd41db27b663","study_id":"6197b3f67c2b5cd3b6d9596a","session_id":"6197b9f2bee13d001226c999","condition":"contingent","relevant_dimensions":["antennae","legs"],"bee_group":{"antennae":"B","wings":"X","pattern":"X","legs":"F"},"bonus":0.16000000000000078},{"rt":406.90000000596046,"stimulus":"bees-with-color/bee-B2SF.svg","response":0,"trial_type":"image-button-response","trial_index":153,"time_elapsed":257197,"internal_node_id":"0.0-6.0-0.13","subject_id":"5f10e66a9df7fd41db27b663","study_id":"6197b3f67c2b5cd3b6d9596a","session_id":"6197b9f2bee13d001226c999","condition":"contingent","relevant_dimensions":["antennae","legs"],"bee_group":{"antennae":"B","wings":"X","pattern":"X","legs":"F"},"bonus":0.16000000000000078},{"rt":456.8999999910593,"stimulus":"bees-with-color/bee-B2DF.svg","response":0,"trial_type":"image-button-response","trial_index":154,"time_elapsed":257655,"internal_node_id":"0.0-6.0-0.14","subject_id":"5f10e66a9df7fd41db27b663","study_id":"6197b3f67c2b5cd3b6d9596a","session_id":"6197b9f2bee13d001226c999","condition":"contingent","relevant_dimensions":["antennae","legs"],"bee_group":{"antennae":"B","wings":"X","pattern":"X","legs":"F"},"bonus":0.16000000000000078},{"rt":562.7000000029802,"stimulus":"bees-with-color/bee-A2DM.svg","response":1,"trial_type":"image-button-response","trial_index":155,"time_elapsed":258219,"internal_node_id":"0.0-6.0-0.15","subject_id":"5f10e66a9df7fd41db27b663","study_id":"6197b3f67c2b5cd3b6d9596a","session_id":"6197b9f2bee13d001226c999","condition":"contingent","relevant_dimensions":["antennae","legs"],"bee_group":{"antennae":"B","wings":"X","pattern":"X","legs":"F"},"bonus":0.16000000000000078},{"rt":530,"stimulus":"bees-with-color/bee-A1DM.svg","response":1,"trial_type":"image-button-response","trial_index":156,"time_elapsed":258750,"internal_node_id":"0.0-6.0-0.16","subject_id":"5f10e66a9df7fd41db27b663","study_id":"6197b3f67c2b5cd3b6d9596a","session_id":"6197b9f2bee13d001226c999","condition":"contingent","relevant_dimensions":["antennae","legs"],"bee_group":{"antennae":"B","wings":"X","pattern":"X","legs":"F"},"bonus":0.16000000000000078},{"rt":1251.699999988079,"stimulus":"bees-with-color/bee-B2SF.svg","response":0,"trial_type":"image-button-response","trial_index":157,"time_elapsed":260003,"internal_node_id":"0.0-6.0-0.17","subject_id":"5f10e66a9df7fd41db27b663","study_id":"6197b3f67c2b5cd3b6d9596a","session_id":"6197b9f2bee13d001226c999","condition":"contingent","relevant_dimensions":["antennae","legs"],"bee_group":{"antennae":"B","wings":"X","pattern":"X","legs":"F"},"bonus":0.16000000000000078},{"rt":662.7999999970198,"stimulus":"bees-with-color/bee-A2DM.svg","response":1,"trial_type":"image-button-response","trial_index":158,"time_elapsed":260667,"internal_node_id":"0.0-6.0-0.18","subject_id":"5f10e66a9df7fd41db27b663","study_id":"6197b3f67c2b5cd3b6d9596a","session_id":"6197b9f2bee13d001226c999","condition":"contingent","relevant_dimensions":["antennae","legs"],"bee_group":{"antennae":"B","wings":"X","pattern":"X","legs":"F"},"bonus":0.16000000000000078},{"rt":469.8999999910593,"stimulus":"bees-with-color/bee-B2DF.svg","response":0,"trial_type":"image-button-response","trial_index":159,"time_elapsed":261138,"internal_node_id":"0.0-6.0-0.19","subject_id":"5f10e66a9df7fd41db27b663","study_id":"6197b3f67c2b5cd3b6d9596a","session_id":"6197b9f2bee13d001226c999","condition":"contingent","relevant_dimensions":["antennae","legs"],"bee_group":{"antennae":"B","wings":"X","pattern":"X","legs":"F"},"bonus":0.16000000000000078},{"rt":454.90000000596046,"stimulus":"bees-with-color/bee-A1SF.svg","response":1,"trial_type":"image-button-response","trial_index":160,"time_elapsed":261594,"internal_node_id":"0.0-6.0-0.20","subject_id":"5f10e66a9df7fd41db27b663","study_id":"6197b3f67c2b5cd3b6d9596a","session_id":"6197b9f2bee13d001226c999","condition":"contingent","relevant_dimensions":["antennae","legs"],"bee_group":{"antennae":"B","wings":"X","pattern":"X","legs":"F"},"bonus":0.16000000000000078},{"rt":400.90000000596046,"stimulus":"bees-with-color/bee-A1DF.svg","response":1,"trial_type":"image-button-response","trial_index":161,"time_elapsed":261996,"internal_node_id":"0.0-6.0-0.21","subject_id":"5f10e66a9df7fd41db27b663","study_id":"6197b3f67c2b5cd3b6d9596a","session_id":"6197b9f2bee13d001226c999","condition":"contingent","relevant_dimensions":["antennae","legs"],"bee_group":{"antennae":"B","wings":"X","pattern":"X","legs":"F"},"bonus":0.16000000000000078},{"rt":528,"stimulus":"bees-with-color/bee-B2DM.svg","response":0,"trial_type":"image-button-response","trial_index":162,"time_elapsed":262525,"internal_node_id":"0.0-6.0-0.22","subject_id":"5f10e66a9df7fd41db27b663","study_id":"6197b3f67c2b5cd3b6d9596a","session_id":"6197b9f2bee13d001226c999","condition":"contingent","relevant_dimensions":["antennae","legs"]