[{"success":true,"trial_type":"fullscreen","trial_index":0,"time_elapsed":6847,"internal_node_id":"0.0-0.0","subject_id":"61087e0903e2256a25669b09","study_id":"6197b3f67c2b5cd3b6d9596a","session_id":"6197b88b7f0a7e5365228fd1","condition":"full-information","relevant_dimensions":["pattern","legs"],"bee_group":{"antennae":"X","wings":"X","pattern":"D","legs":"F"},"bonus":0.4400000000000013},{"success":true,"timeout":false,"failed_images":[],"failed_audio":[],"failed_video":[],"trial_type":"preload","trial_index":1,"time_elapsed":8934,"internal_node_id":"0.0-1.0","subject_id":"61087e0903e2256a25669b09","study_id":"6197b3f67c2b5cd3b6d9596a","session_id":"6197b88b7f0a7e5365228fd1","condition":"full-information","relevant_dimensions":["pattern","legs"],"bee_group":{"antennae":"X","wings":"X","pattern":"D","legs":"F"},"bonus":0.4400000000000013},{"rt":1948.2999999523163,"stimulus":"Welcome! Press any key to begin.","response":" ","trial_type":"html-keyboard-response","trial_index":2,"time_elapsed":10884,"internal_node_id":"0.0-2.0","subject_id":"61087e0903e2256a25669b09","study_id":"6197b3f67c2b5cd3b6d9596a","session_id":"6197b88b7f0a7e5365228fd1","condition":"full-information","relevant_dimensions":["pattern","legs"],"bee_group":{"antennae":"X","wings":"X","pattern":"D","legs":"F"},"bonus":0.4400000000000013},{"view_history":[{"page_index":0,"viewing_time":5119.299999952316},{"page_index":1,"viewing_time":16548.200000047684},{"page_index":2,"viewing_time":13423.600000023842},{"page_index":3,"viewing_time":31240.299999952316},{"page_index":4,"viewing_time":4938.399999976158},{"page_index":5,"viewing_time":5798.400000095367},{"page_index":6,"viewing_time":6500.899999976158},{"page_index":7,"viewing_time":4993.5},{"page_index":8,"viewing_time":2916.6999999284744},{"page_index":9,"viewing_time":1992.1000000238419},{"page_index":10,"viewing_time":1509.7000000476837},{"page_index":11,"viewing_time":6575.5},{"page_index":12,"viewing_time":8388.699999928474},{"page_index":13,"viewing_time":1575.9000000953674},{"page_index":14,"viewing_time":1555.2999999523163}],"rt":113076.79999995232,"trial_type":"instructions","trial_index":3,"time_elapsed":123961,"internal_node_id":"0.0-3.0-0.0","subject_id":"61087e0903e2256a25669b09","study_id":"6197b3f67c2b5cd3b6d9596a","session_id":"6197b88b7f0a7e5365228fd1","condition":"full-information","relevant_dimensions":["pattern","legs"],"bee_group":{"antennae":"X","wings":"X","pattern":"D","legs":"F"},"bonus":0.4400000000000013},{"rt":12516.5,"response":{"Q0":["Two or six legs","Stripes or spots on body","Single or double wings","Antennae or no antennae"]},"question_order":[0],"trial_type":"survey-multi-select","trial_index":4,"time_elapsed":136483,"internal_node_id":"0.0-3.0-1.0","subject_id":"61087e0903e2256a25669b09","study_id":"6197b3f67c2b5cd3b6d9596a","session_id":"6197b88b7f0a7e5365228fd1","condition":"full-information","relevant_dimensions":["pattern","legs"],"bee_group":{"antennae":"X","wings":"X","pattern":"D","legs":"F"},"correct":true,"bonus":0.4400000000000013},{"rt":20324.5,"response":{"Q1":"No.","Q2":"Based on the four features of the bee.","Q3":"You learn if it was friendly or dangerous, but do not alter your bonus."},"question_order":[0,1,2],"trial_type":"survey-multi-choice","trial_index":5,"time_elapsed":156809,"internal_node_id":"0.0-3.0-2.0","subject_id":"61087e0903e2256a25669b09","study_id":"6197b3f67c2b5cd3b6d9596a","session_id":"6197b88b7f0a7e5365228fd1","condition":"full-information","relevant_dimensions":["pattern","legs"],"bee_group":{"antennae":"X","wings":"X","pattern":"D","legs":"F"},"correct":true,"bonus":0.4400000000000013},{"rt":2954.2999999523163,"stimulus":"<p>Congrats, you got everything right<br>When you're ready, click the button below to continue to the experiment.</p>","response":0,"trial_type":"html-button-response","trial_index":6,"time_elapsed":159765,"internal_node_id":"0.0-3.0-3.0","subject_id":"61087e0903e2256a25669b09","study_id":"6197b3f67c2b5cd3b6d9596a","session_id":"6197b88b7f0a7e5365228fd1","condition":"full-information","relevant_dimensions":["pattern","legs"],"bee_group":{"antennae":"X","wings":"X","pattern":"D","legs":"F"},"bonus":0.4400000000000013},{"rt":2622.2000000476837,"stimulus":"bees-with-color/bee-B1DM.svg","response":0,"trial_type":"image-button-response","trial_index":7,"time_elapsed":162390,"internal_node_id":"0.0-4.0-0.0","subject_id":"61087e0903e2256a25669b09","study_id":"6197b3f67c2b5cd3b6d9596a","session_id":"6197b88b7f0a7e5365228fd1","condition":"full-information","relevant_dimensions":["pattern","legs"],"bee_group":{"antennae":"X","wings":"X","pattern":"D","legs":"F"},"action":"harvest","summary":"good-harvest","bonus":0.4400000000000013},{"rt":30143.399999976158,"stimulus":"\n                    <p><b>Action: <em>harvest</em></b></p>\n                    <p>This is the bee that you just saw.</p>\n                    <img src=\"bees-with-color/bee-B1DM.svg\" width=\"200\">\n                    <p><span class=\"greenText\"><b>Successful harvest!</b></span><br>Your pay has increased by $0.02. Your bonus pay is now $0.56.</p>\n            ","response":0,"trial_type":"html-button-response","trial_index":8,"time_elapsed":192537,"internal_node_id":"0.0-4.0-1.0","subject_id":"61087e0903e2256a25669b09","study_id":"6197b3f67c2b5cd3b6d9596a","session_id":"6197b88b7f0a7e5365228fd1","condition":"full-information","relevant_dimensions":["pattern","legs"],"bee_group":{"antennae":"X","wings":"X","pattern":"D","legs":"F"},"bonus":0.4400000000000013},{"rt":1676.8000000715256,"stimulus":"bees-with-color/bee-A2DF.svg","response":1,"trial_type":"image-button-response","trial_index":9,"time_elapsed":194216,"internal_node_id":"0.0-4.0-0.1","subject_id":"61087e0903e2256a25669b09","study_id":"6197b3f67c2b5cd3b6d9596a","session_id":"6197b88b7f0a7e5365228fd1","condition":"full-information","relevant_dimensions":["pattern","legs"],"bee_group":{"antennae":"X","wings":"X","pattern":"D","legs":"F"},"action":"avoid","summary":"good-avoid","bonus":0.4400000000000013},{"rt":14524.800000071526,"stimulus":"\n                    <p><b>Action: <em>avoid</em></b></p>\n                    <p>This is the bee that you just saw.</p>\n                    <img src=\"bees-with-color/bee-A2DF.svg\" width=\"200\">\n                    <p><span class=\"greenText\">Good choice!</span>  This bee would have stung you.<br>Your bonus pay is unchanged, and remains at $0.56.</p>\n            ","response":0,"trial_type":"html-button-response","trial_index":10,"time_elapsed":208743,"internal_node_id":"0.0-4.0-1.1","subject_id":"61087e0903e2256a25669b09","study_id":"6197b3f67c2b5cd3b6d9596a","session_id":"6197b88b7f0a7e5365228fd1","condition":"full-information","relevant_dimensions":["pattern","legs"],"bee_group":{"antennae":"X","wings":"X","pattern":"D","legs":"F"},"bonus":0.4400000000000013},{"rt":1719.3000000715256,"stimulus":"bees-with-color/bee-A1DF.svg","response":0,"trial_type":"image-button-response","trial_index":11,"time_elapsed":210465,"internal_node_id":"0.0-4.0-0.2","subject_id":"61087e0903e2256a25669b09","study_id":"6197b3f67c2b5cd3b6d9596a","session_id":"6197b88b7f0a7e5365228fd1","condition":"full-information","relevant_dimensions":["pattern","legs"],"bee_group":{"antennae":"X","wings":"X","pattern":"D","legs":"F"},"action":"harvest","summary":"bad-harvest","bonus":0.4400000000000013},{"rt":12084,"stimulus":"\n                    <p><b>Action: <em>harvest</em></b></p>\n                    <p>This is the bee that you just saw.</p>\n                    <img src=\"bees-with-color/bee-A1DF.svg\" width=\"200\">\n                    <p><span class=\"redText\">Bad choice, the bee was angry.</span><br><b>You have been stung!</b><br>Your pay has been decreased by $0.10. Your bonus pay is now $0.46.</p>\n            ","response":0,"trial_type":"html-button-response","trial_index":12,"time_elapsed":222551,"internal_node_id":"0.0-4.0-1.2","subject_id":"61087e0903e2256a25669b09","study_id":"6197b3f67c2b5cd3b6d9596a","session_id":"6197b88b7f0a7e5365228fd1","condition":"full-information","relevant_dimensions":["pattern","legs"],"bee_group":{"antennae":"X","wings":"X","pattern":"D","legs":"F"},"bonus":0.4400000000000013},{"rt":2041.5,"stimulus":"bees-with-color/bee-B2SM.svg","response":0,"trial_type":"image-button-response","trial_index":13,"time_elapsed":224594,"internal_node_id":"0.0-4.0-0.3","subject_id":"61087e0903e2256a25669b09","study_id":"6197b3f67c2b5cd3b6d9596a","session_id":"6197b88b7f0a7e5365228fd1","condition":"full-information","relevant_dimensions":["pattern","legs"],"bee_group":{"antennae":"X","wings":"X","pattern":"D","legs":"F"},"action":"harvest","summary":"good-harvest","bonus":0.4400000000000013},{"rt":5607.200000047684,"stimulus":"\n                    <p><b>Action: <em>harvest</em></b></p>\n                    <p>This is the bee that you just saw.</p>\n                    <img src=\"bees-with-color/bee-B2SM.svg\" width=\"200\">\n                    <p><span class=\"greenText\"><b>Successful harvest!</b></span><br>Your pay has increased by $0.02. Your bonus pay is now $0.48.</p>\n            ","response":0,"trial_type":"html-button-response","trial_index":14,"time_elapsed":230204,"internal_node_id":"0.0-4.0-1.3","subject_id":"61087e0903e2256a25669b09","study_id":"6197b3f67c2b5cd3b6d9596a","session_id":"6197b88b7f0a7e5365228fd1","condition":"full-information","relevant_dimensions":["pattern","legs"],"bee_group":{"antennae":"X","wings":"X","pattern":"D","legs":"F"},"bonus":0.4400000000000013},{"rt":2589.7000000476837,"stimulus":"bees-with-color/bee-B2SF.svg","response":1,"trial_type":"image-button-response","trial_index":15,"time_elapsed":232796,"internal_node_id":"0.0-4.0-0.4","subject_id":"61087e0903e2256a25669b09","study_id":"6197b3f67c2b5cd3b6d9596a","session_id":"6197b88b7f0a7e5365228fd1","condition":"full-information","relevant_dimensions":["pattern","legs"],"bee_group":{"antennae":"X","wings":"X","pattern":"D","legs":"F"},"action":"avoid","summary":"bad-avoid","bonus":0.4400000000000013},{"rt":5586.699999928474,"stimulus":"\n                    <p><b>Action: <em>avoid</em></b></p>\n                    <p>This is the bee that you just saw.</p>\n                    <img src=\"bees-with-color/bee-B2SF.svg\" width=\"200\">\n                    <p><span class=\"redText\">Bad choice,</span> the bee was friendly.<br>Your bonus pay is unchanged, and remains at $0.48.</p>\n            ","response":0,"trial_type":"html-button-response","trial_index":16,"time_elapsed":238385,"internal_node_id":"0.0-4.0-1.4","subject_id":"61087e0903e2256a25669b09","study_id":"6197b3f67c2b5cd3b6d9596a","session_id":"6197b88b7f0a7e5365228fd1","condition":"full-information","relevant_dimensions":["pattern","legs"],"bee_group":{"antennae":"X","wings":"X","pattern":"D","legs":"F"},"bonus":0.4400000000000013},{"rt":2037.1000000238419,"stimulus":"bees-with-color/bee-A1SF.svg","response":1,"trial_type":"image-button-response","trial_index":17,"time_elapsed":240424,"internal_node_id":"0.0-4.0-0.5","subject_id":"61087e0903e2256a25669b09","study_id":"6197b3f67c2b5cd3b6d9596a","session_id":"6197b88b7f0a7e5365228fd1","condition":"full-information","relevant_dimensions":["pattern","legs"],"bee_group":{"antennae":"X","wings":"X","pattern":"D","legs":"F"},"action":"avoid","summary":"bad-avoid","bonus":0.4400000000000013},{"rt":2279,"stimulus":"\n                    <p><b>Action: <em>avoid</em></b></p>\n                    <p>This is the bee that you just saw.</p>\n                    <img src=\"bees-with-color/bee-A1SF.svg\" width=\"200\">\n                    <p><span class=\"redText\">Bad choice,</span> the bee was friendly.<br>Your bonus pay is unchanged, and remains at $0.48.</p>\n            ","response":0,"trial_type":"html-button-response","trial_index":18,"time_elapsed":242705,"internal_node_id":"0.0-4.0-1.5","subject_id":"61087e0903e2256a25669b09","study_id":"6197b3f67c2b5cd3b6d9596a","session_id":"6197b88b7f0a7e5365228fd1","condition":"full-information","relevant_dimensions":["pattern","legs"],"bee_group":{"antennae":"X","wings":"X","pattern":"D","legs":"F"},"bonus":0.4400000000000013},{"rt":1699.6000000238419,"stimulus":"bees-with-color/bee-A1DM.svg","response":0,"trial_type":"image-button-response","trial_index":19,"time_elapsed":244407,"internal_node_id":"0.0-4.0-0.6","subject_id":"61087e0903e2256a25669b09","study_id":"6197b3f67c2b5cd3b6d9596a","session_id":"6197b88b7f0a7e5365228fd1","condition":"full-information","relevant_dimensions":["pattern","legs"],"bee_group":{"antennae":"X","wings":"X","pattern":"D","legs":"F"},"action":"harvest","summary":"good-harvest","bonus":0.4400000000000013},{"rt":1633.2000000476837,"stimulus":"\n                    <p><b>Action: <em>harvest</em></b></p>\n                    <p>This is the bee that you just saw.</p>\n                    <img src=\"bees-with-color/bee-A1DM.svg\" width=\"200\">\n                    <p><span class=\"greenText\"><b>Successful harvest!</b></span><br>Your pay has increased by $0.02. Your bonus pay is now $0.50.</p>\n            ","response":0,"trial_type":"html-button-response","trial_index":20,"time_elapsed":246042,"internal_node_id":"0.0-4.0-1.6","subject_id":"61087e0903e2256a25669b09","study_id":"6197b3f67c2b5cd3b6d9596a","session_id":"6197b88b7f0a7e5365228fd1","condition":"full-information","relevant_dimensions":["pattern","legs"],"bee_group":{"antennae":"X","wings":"X","pattern":"D","legs":"F"},"bonus":0.4400000000000013},{"rt":1276,"stimulus":"bees-with-color/bee-A1SM.svg","response":0,"trial_type":"image-button-response","trial_index":21,"time_elapsed":247320,"internal_node_id":"0.0-4.0-0.7","subject_id":"61087e0903e2256a25669b09","study_id":"6197b3f67c2b5cd3b6d9596a","session_id":"6197b88b7f0a7e5365228fd1","condition":"full-information","relevant_dimensions":["pattern","legs"],"bee_group":{"antennae":"X","wings":"X","pattern":"D","legs":"F"},"action":"harvest","summary":"good-harvest","bonus":0.4400000000000013},{"rt":1471.6000000238419,"stimulus":"\n                    <p><b>Action: <em>harvest</em></b></p>\n                    <p>This is the bee that you just saw.</p>\n                    <img src=\"bees-with-color/bee-A1SM.svg\" width=\"200\">\n                    <p><span class=\"greenText\"><b>Successful harvest!</b></span><br>Your pay has increased by $0.02. Your bonus pay is now $0.52.</p>\n            ","response":0,"trial_type":"html-button-response","trial_index":22,"time_elapsed":248793,"internal_node_id":"0.0-4.0-1.7","subject_id":"61087e0903e2256a25669b09","study_id":"6197b3f67c2b5cd3b6d9596a","session_id":"6197b88b7f0a7e5365228fd1","condition":"full-information","relevant_dimensions":["pattern","legs"],"bee_group":{"antennae":"X","wings":"X","pattern":"D","legs":"F"},"bonus":0.4400000000000013},{"rt":1679.3000000715256,"stimulus":"bees-with-color/bee-B1DF.svg","response":0,"trial_type":"image-button-response","trial_index":23,"time_elapsed":250475,"internal_node_id":"0.0-4.0-0.8","subject_id":"61087e0903e2256a25669b09","study_id":"6197b3f67c2b5cd3b6d9596a","session_id":"6197b88b7f0a7e5365228fd1","condition":"full-information","relevant_dimensions":["pattern","legs"],"bee_group":{"antennae":"X","wings":"X","pattern":"D","legs":"F"},"action":"harvest","summary":"bad-harvest","bonus":0.4400000000000013},{"rt":5641.600000023842,"stimulus":"\n                    <p><b>Action: <em>harvest</em></b></p>\n                    <p>This is the bee that you just saw.</p>\n                    <img src=\"bees-with-color/bee-B1DF.svg\" width=\"200\">\n                    <p><span class=\"redText\">Bad choice, the bee was angry.</span><br><b>You have been stung!</b><br>Your pay has been decreased by $0.10. Your bonus pay is now $0.42.</p>\n            ","response":0,"trial_type":"html-button-response","trial_index":24,"time_elapsed":256120,"internal_node_id":"0.0-4.0-1.8","subject_id":"61087e0903e2256a25669b09","study_id":"6197b3f67c2b5cd3b6d9596a","session_id":"6197b88b7f0a7e5365228fd1","condition":"full-information","relevant_dimensions":["pattern","legs"],"bee_group":{"antennae":"X","wings":"X","pattern":"D","legs":"F"},"bonus":0.4400000000000013},{"rt":1294.8999999761581,"stimulus":"bees-with-color/bee-A2DM.svg","response":0,"trial_type":"image-button-response","trial_index":25,"time_elapsed":257417,"internal_node_id":"0.0-4.0-0.9","subject_id":"61087e0903e2256a25669b09","study_id":"6197b3f67c2b5cd3b6d9596a","session_id":"6197b88b7f0a7e5365228fd1","condition":"full-information","relevant_dimensions":["pattern","legs"],"bee_group":{"antennae":"X","wings":"X","pattern":"D","legs":"F"},"action":"harvest","summary":"good-harvest","bonus":0.4400000000000013},{"rt":2441.7999999523163,"stimulus":"\n                    <p><b>Action: <em>harvest</em></b></p>\n                    <p>This is the bee that you just saw.</p>\n                    <img src=\"bees-with-color/bee-A2DM.svg\" width=\"200\">\n                    <p><span class=\"greenText\"><b>Successful harvest!</b></span><br>Your pay has increased by $0.02. Your bonus pay is now $0.44.</p>\n            ","response":0,"trial_type":"html-button-response","trial_index":26,"time_elapsed":259861,"internal_node_id":"0.0-4.0-1.9","subject_id":"61087e0903e2256a25669b09","study_id":"6197b3f67c2b5cd3b6d9596a","session_id":"6197b88b7f0a7e5365228fd1","condition":"full-information","relevant_dimensions":["pattern","legs"],"bee_group":{"antennae":"X","wings":"X","pattern":"D","legs":"F"},"bonus":0.4400000000000013},{"rt":2154,"stimulus":"bees-with-color/bee-A2SF.svg","response":1,"trial_type":"image-button-response","trial_index":27,"time_elapsed":262017,"internal_node_id":"0.0-4.0-0.10","subject_id":"61087e0903e2256a25669b09","study_id":"6197b3f67c2b5cd3b6d9596a","session_id":"6197b88b7f0a7e5365228fd1","condition":"full-information","relevant_dimensions":["pattern","legs"],"bee_group":{"antennae":"X","wings":"X","pattern":"D","legs":"F"},"action":"avoid","summary":"bad-avoid","bonus":0.4400000000000013},{"rt":2146.5,"stimulus":"\n                    <p><b>Action: <em>avoid</em></b></p>\n                    <p>This is the bee that you just saw.</p>\n                    <img src=\"bees-with-color/bee-A2SF.svg\" width=\"200\">\n                    <p><span class=\"redText\">Bad choice,</span> the bee was friendly.<br>Your bonus pay is unchanged, and remains at $0.44.</p>\n            ","response":0,"trial_type":"html-button-response","trial_index":28,"time_elapsed":264166,"internal_node_id":"0.0-4.0-1.10","subject_id":"61087e0903e2256a25669b09","study_id":"6197b3f67c2b5cd3b6d9596a","session_id":"6197b88b7f0a7e5365228fd1","condition":"full-information","relevant_dimensions":["pattern","legs"],"bee_group":{"antennae":"X","wings":"X","pattern":"D","legs":"F"},"bonus":0.4400000000000013},{"rt":2646.2999999523163,"stimulus":"bees-with-color/bee-B2DM.svg","response":0,"trial_type":"image-button-response","trial_index":29,"time_elapsed":266815,"internal_node_id":"0.0-4.0-0.11","subject_id":"61087e0903e2256a25669b09","study_id":"6197b3f67c2b5cd3b6d9596a","session_id":"6197b88b7f0a7e5365228fd1","condition":"full-information","relevant_dimensions":["pattern","legs"],"bee_group":{"antennae":"X","wings":"X","pattern":"D","legs":"F"},"action":"harvest","summary":"good-harvest","bonus":0.4400000000000013},{"rt":1305.6000000238419,"stimulus":"\n                    <p><b>Action: <em>harvest</em></b></p>\n                    <p>This is the bee that you just saw.</p>\n                    <img src=\"bees-with-color/bee-B2DM.svg\" width=\"200\">\n                    <p><span class=\"greenText\"><b>Successful harvest!</b></span><br>Your pay has increased by $0.02. Your bonus pay is now $0.46.</p>\n            ","response":0,"trial_type":"html-button-response","trial_index":30,"time_elapsed":268122,"internal_node_id":"0.0-4.0-1.11","subject_id":"61087e0903e2256a25669b09","study_id":"6197b3f67c2b5cd3b6d9596a","session_id":"6197b88b7f0a7e5365228fd1","condition":"full-information","relevant_dimensions":["pattern","legs"],"bee_group":{"antennae":"X","wings":"X","pattern":"D","legs":"F"},"bonus":0.4400000000000013},{"rt":1726.1999999284744,"stimulus":"bees-with-color/bee-A2SM.svg","response":0,"trial_type":"image-button-response","trial_index":31,"time_elapsed":269850,"internal_node_id":"0.0-4.0-0.12","subject_id":"61087e0903e2256a25669b09","study_id":"6197b3f67c2b5cd3b6d9596a","session_id":"6197b88b7f0a7e5365228fd1","condition":"full-information","relevant_dimensions":["pattern","legs"],"bee_group":{"antennae":"X","wings":"X","pattern":"D","legs":"F"},"action":"harvest","summary":"good-harvest","bonus":0.4400000000000013},{"rt":1398.3999999761581,"stimulus":"\n                    <p><b>Action: <em>harvest</em></b></p>\n                    <p>This is the bee that you just saw.</p>\n                    <img src=\"bees-with-color/bee-A2SM.svg\" width=\"200\">\n                    <p><span class=\"greenText\"><b>Successful harvest!</b></span><br>Your pay has increased by $0.02. Your bonus pay is now $0.48.</p>\n            ","response":0,"trial_type":"html-button-response","trial_index":32,"time_elapsed":271251,"internal_node_id":"0.0-4.0-1.12","subject_id":"61087e0903e2256a25669b09","study_id":"6197b3f67c2b5cd3b6d9596a","session_id":"6197b88b7f0a7e5365228fd1","condition":"full-information","relevant_dimensions":["pattern","legs"],"bee_group":{"antennae":"X","wings":"X","pattern":"D","legs":"F"},"bonus":0.4400000000000013},{"rt":1510.8999999761581,"stimulus":"bees-with-color/bee-B1SM.svg","response":0,"trial_type":"image-button-response","trial_index":33,"time_elapsed":272764,"internal_node_id":"0.0-4.0-0.13","subject_id":"61087e0903e2256a25669b09","study_id":"6197b3f67c2b5cd3b6d9596a","session_id":"6197b88b7f0a7e5365228fd1","condition":"full-information","relevant_dimensions":["pattern","legs"],"bee_group":{"antennae":"X","wings":"X","pattern":"D","legs":"F"},"action":"harvest","summary":"good-harvest","bonus":0.4400000000000013},{"rt":1403.1999999284744,"stimulus":"\n                    <p><b>Action: <em>harvest</em></b></p>\n                    <p>This is the bee that you just saw.</p>\n                    <img src=\"bees-with-color/bee-B1SM.svg\" width=\"200\">\n                    <p><span class=\"greenText\"><b>Successful harvest!</b></span><br>Your pay has increased by $0.02. Your bonus pay is now $0.50.</p>\n            ","response":0,"trial_type":"html-button-response","trial_index":34,"time_elapsed":274170,"internal_node_id":"0.0-4.0-1.13","subject_id":"61087e0903e2256a25669b09","study_id":"6197b3f67c2b5cd3b6d9596a","session_id":"6197b88b7f0a7e5365228fd1","condition":"full-information","relevant_dimensions":["pattern","legs"],"bee_group":{"antennae":"X","wings":"X","pattern":"D","legs":"F"},"bonus":0.4400000000000013},{"rt":1427.8999999761581,"stimulus":"bees-with-color/bee-B2DF.svg","response":1,"trial_type":"image-button-response","trial_index":35,"time_elapsed":275600,"internal_node_id":"0.0-4.0-0.14","subject_id":"61087e0903e2256a25669b09","study_id":"6197b3f67c2b5cd3b6d9596a","session_id":"6197b88b7f0a7e5365228fd1","condition":"full-information","relevant_dimensions":["pattern","legs"],"bee_group":{"antennae":"X","wings":"X","pattern":"D","legs":"F"},"action":"avoid","summary":"good-avoid","bonus":0.4400000000000013},{"rt":1836.3999999761581,"stimulus":"\n                    <p><b>Action: <em>avoid</em></b></p>\n                    <p>This is the bee that you just saw.</p>\n                    <img src=\"bees-with-color/bee-B2DF.svg\" width=\"200\">\n                    <p><span class=\"greenText\">Good choice!</span>  This bee would have stung you.<br>Your bonus pay is unchanged, and remains at $0.50.</p>\n            ","response":0,"trial_type":"html-button-response","trial_index":36,"time_elapsed":277438,"internal_node_id":"0.0-4.0-1.14","subject_id":"61087e0903e2256a25669b09","study_id":"6197b3f67c2b5cd3b6d9596a","session_id":"6197b88b7f0a7e5365228fd1","condition":"full-information","relevant_dimensions":["pattern","legs"],"bee_group":{"antennae":"X","wings":"X","pattern":"D","legs":"F"},"bonus":0.4400000000000013},{"rt":1359.8999999761581,"stimulus":"bees-with-color/bee-B1SF.svg","response":1,"trial_type":"image-button-response","trial_index":37,"time_elapsed":278801,"internal_node_id":"0.0-4.0-0.15","subject_id":"61087e0903e2256a25669b09","study_id":"6197b3f67c2b5cd3b6d9596a","session_id":"6197b88b7f0a7e5365228fd1","condition":"full-information","relevant_dimensions":["pattern","legs"],"bee_group":{"antennae":"X","wings":"X","pattern":"D","legs":"F"},"action":"avoid","summary":"bad-avoid","bonus":0.4400000000000013},{"rt":1454.1000000238419,"stimulus":"\n                    <p><b>Action: <em>avoid</em></b></p>\n                    <p>This is the bee that you just saw.</p>\n                    <img src=\"bees-with-color/bee-B1SF.svg\" width=\"200\">\n                    <p><span class=\"redText\">Bad choice,</span> the bee was friendly.<br>Your bonus pay is unchanged, and remains at $0.50.</p>\n            ","response":0,"trial_type":"html-button-response","trial_index":38,"time_elapsed":280257,"internal_node_id":"0.0-4.0-1.15","subject_id":"61087e0903e2256a25669b09","study_id":"6197b3f67c2b5cd3b6d9596a","session_id":"6197b88b7f0a7e5365228fd1","condition":"full-information","relevant_dimensions":["pattern","legs"],"bee_group":{"antennae":"X","wings":"X","pattern":"D","legs":"F"},"bonus":0.4400000000000013},{"rt":1853.6000000238419,"stimulus":"bees-with-color/bee-B2SF.svg","response":1,"trial_type":"image-button-response","trial_index":39,"time_elapsed":282112,"internal_node_id":"0.0-4.0-0.16","subject_id":"61087e0903e2256a25669b09","study_id":"6197b3f67c2b5cd3b6d9596a","session_id":"6197b88b7f0a7e5365228fd1","condition":"full-information","relevant_dimensions":["pattern","legs"],"bee_group":{"antennae":"X","wings":"X","pattern":"D","legs":"F"},"action":"avoid","summary":"bad-avoid","bonus":0.4400000000000013},{"rt":1244.3999999761581,"stimulus":"\n                    <p><b>Action: <em>avoid</em></b></p>\n                    <p>This is the bee that you just saw.</p>\n                    <img src=\"bees-with-color/bee-B2SF.svg\" width=\"200\">\n                    <p><span class=\"redText\">Bad choice,</span> the bee was friendly.<br>Your bonus pay is unchanged, and remains at $0.50.</p>\n            ","response":0,"trial_type":"html-button-response","trial_index":40,"time_elapsed":283359,"internal_node_id":"0.0-4.0-1.16","subject_id":"61087e0903e2256a25669b09","study_id":"6197b3f67c2b5cd3b6d9596a","session_id":"6197b88b7f0a7e5365228fd1","condition":"full-information","relevant_dimensions":["pattern","legs"],"bee_group":{"antennae":"X","wings":"X","pattern":"D","legs":"F"},"bonus":0.4400000000000013},{"rt":1754.6000000238419,"stimulus":"bees-with-color/bee-A1DF.svg","response":0,"trial_type":"image-button-response","trial_index":41,"time_elapsed":285116,"internal_node_id":"0.0-4.0-0.17","subject_id":"61087e0903e2256a25669b09","study_id":"6197b3f67c2b5cd3b6d9596a","session_id":"6197b88b7f0a7e5365228fd1","condition":"full-information","relevant_dimensions":["pattern","legs"],"bee_group":{"antennae":"X","wings":"X","pattern":"D","legs":"F"},"action":"harvest","summary":"bad-harvest","bonus":0.4400000000000013},{"rt":2019.9000000953674,"stimulus":"\n                    <p><b>Action: <em>harvest</em></b></p>\n                    <p>This is the bee that you just saw.</p>\n                    <img src=\"bees-with-color/bee-A1DF.svg\" width=\"200\">\n                    <p><span class=\"redText\">Bad choice, the bee was angry.</span><br><b>You have been stung!</b><br>Your pay has been decreased by $0.10. Your bonus pay is now $0.40.</p>\n            ","response":0,"trial_type":"html-button-response","trial_index":42,"time_elapsed":287139,"internal_node_id":"0.0-4.0-1.17","subject_id":"61087e0903e2256a25669b09","study_id":"6197b3f67c2b5cd3b6d9596a","session_id":"6197b88b7f0a7e5365228fd1","condition":"full-information","relevant_dimensions":["pattern","legs"],"bee_group":{"antennae":"X","wings":"X","pattern":"D","legs":"F"},"bonus":0.4400000000000013},{"rt":1469.7000000476837,"stimulus":"bees-with-color/bee-A2SF.svg","response":0,"trial_type":"image-button-response","trial_index":43,"time_elapsed":288611,"internal_node_id":"0.0-4.0-0.18","subject_id":"61087e0903e2256a25669b09","study_id":"6197b3f67c2b5cd3b6d9596a","session_id":"6197b88b7f0a7e5365228fd1","condition":"full-information","relevant_dimensions":["pattern","legs"],"bee_group":{"antennae":"X","wings":"X","pattern":"D","legs":"F"},"action":"harvest","summary":"good-harvest","bonus":0.4400000000000013},{"rt":28541.799999952316,"stimulus":"\n                    <p><b>Action: <em>harvest</em></b></p>\n                    <p>This is the bee that you just saw.</p>\n                    <img src=\"bees-with-color/bee-A2SF.svg\" width=\"200\">\n                    <p><span class=\"greenText\"><b>Successful harvest!</b></span><br>Your pay has increased by $0.02. Your bonus pay is now $0.42.</p>\n            ","response":0,"trial_type":"html-button-response","trial_index":44,"time_elapsed":317155,"internal_node_id":"0.0-4.0-1.18","subject_id":"61087e0903e2256a25669b09","study_id":"6197b3f67c2b5cd3b6d9596a","session_id":"6197b88b7f0a7e5365228fd1","condition":"full-information","relevant_dimensions":["pattern","legs"],"bee_group":{"antennae":"X","wings":"X","pattern":"D","legs":"F"},"bonus":0.4400000000000013},{"rt":2171.7999999523163,"stimulus":"bees-with-color/bee-A1SM.svg","response":0,"trial_type":"image-button-response","trial_index":45,"time_elapsed":319329,"internal_node_id":"0.0-4.0-0.19","subject_id":"61087e0903e2256a25669b09","study_id":"6197b3f67c2b5cd3b6d9596a","session_id":"6197b88b7f0a7e5365228fd1","condition":"full-information","relevant_dimensions":["pattern","legs"],"bee_group":{"antennae":"X","wings":"X","pattern":"D","legs":"F"},"action":"harvest","summary":"good-harvest","bonus":0.4400000000000013},{"rt":993.9000000953674,"stimulus":"\n                    <p><b>Action: <em>harvest</em></b></p>\n                    <p>This is the bee that you just saw.</p>\n                    <img src=\"bees-with-color/bee-A1SM.svg\" width=\"200\">\n                    <p><span class=\"greenText\"><b>Successful harvest!</b></span><br>Your pay has increased by $0.02. Your bonus pay is now $0.44.</p>\n            ","response":0,"trial_type":"html-button-response","trial_index":46,"time_elapsed":320325,"internal_node_id":"0.0-4.0-1.19","subject_id":"61087e0903e2256a25669b09","study_id":"6197b3f67c2b5cd3b6d9596a","session_id":"6197b88b7f0a7e5365228fd1","condition":"full-information","relevant_dimensions":["pattern","legs"],"bee_group":{"antennae":"X","wings":"X","pattern":"D","legs":"F"},"bonus":0.4400000000000013},{"rt":1575.8999999761581,"stimulus":"bees-with-color/bee-B2DM.svg","response":1,"trial_type":"image-button-response","trial_index":47,"time_elapsed":321902,"internal_node_id":"0.0-4.0-0.20","subject_id":"61087e0903e2256a25669b09","study_id":"6197b3f67c2b5cd3b6d9596a","session_id":"6197b88b7f0a7e5365228fd1","condition":"full-information","relevant_dimensions":["pattern","legs"],"bee_group":{"antennae":"X","wings":"X","pattern":"D","legs":"F"},"action":"avoid","summary":"bad-avoid","bonus":0.4400000000000013},{"rt":1047.3000000715256,"stimulus":"\n                    <p><b>Action: <em>avoid</em></b></p>\n                    <p>This is the bee that you just saw.</p>\n                    <img src=\"bees-with-color/bee-B2DM.svg\" width=\"200\">\n                    <p><span class=\"redText\">Bad choice,</span> the bee was friendly.<br>Your bonus pay is unchanged, and remains at $0.44.</p>\n            ","response":0,"trial_type":"html-button-response","trial_index":48,"time_elapsed":322952,"internal_node_id":"0.0-4.0-1.20","subject_id":"61087e0903e2256a25669b09","study_id":"6197b3f67c2b5cd3b6d9596a","session_id":"6197b88b7f0a7e5365228fd1","condition":"full-information","relevant_dimensions":["pattern","legs"],"bee_group":{"antennae":"X","wings":"X","pattern":"D","legs":"F"},"bonus":0.4400000000000013},{"rt":3010.9000000953674,"stimulus":"bees-with-color/bee-B2DF.svg","response":1,"trial_type":"image-button-response","trial_index":49,"time_elapsed":325964,"internal_node_id":"0.0-4.0-0.21","subject_id":"61087e0903e2256a25669b09","study_id":"6197b3f67c2b5cd3b6d9596a","session_id":"6197b88b7f0a7e5365228fd1","condition":"full-information","relevant_dimensions":["pattern","legs"],"bee_group":{"antennae":"X","wings":"X","pattern":"D","legs":"F"},"action":"avoid","summary":"good-avoid","bonus":0.4400000000000013},{"rt":11251.699999928474,"stimulus":"\n                    <p><b>Action: <em>avoid</em></b></p>\n                    <p>This is the bee that you just saw.</p>\n                    <img src=\"bees-with-color/bee-B2DF.svg\" width=\"200\">\n                    <p><span class=\"greenText\">Good choice!</span>  This bee would have stung you.<br>Your bonus pay is unchanged, and remains at $0.44.</p>\n            ","response":0,"trial_type":"html-button-response","trial_index":50,"time_elapsed":337218,"internal_node_id":"0.0-4.0-1.21","subject_id":"61087e0903e2256a25669b09","study_id":"6197b3f67c2b5cd3b6d9596a","session_id":"6197b88b7f0a7e5365228fd1","condition":"full-information","relevant_dimensions":["pattern","legs"],"bee_group":{"antennae":"X","wings":"X","pattern":"D","legs":"F"},"bonus":0.4400000000000013},{"rt":1602.6000000238419,"stimulus":"bees-with-color/bee-B1SM.svg","response":0,"trial_type":"image-button-response","trial_index":51,"time_elapsed":338822,"internal_node_id":"0.0-4.0-0.22","subject_id":"61087e0903e2256a25669b09","study_id":"6197b3f67c2b5cd3b6d9596a","session_id":"6197b88b7f0a7e5365228fd1","condition":"full-information","relevant_dimensions":["pattern","legs"],"bee_group":{"antennae":"X","wings":"X","pattern":"D","legs":"F"},"action":"harvest","summary":"good-harvest","bonus":0.4400000000000013},{"rt":1030,"stimulus":"\n                    <p><b>Action: <em>harvest</em></b></p>\n                    <p>This is the bee that you just saw.</p>\n                    <img src=\"bees-with-color/bee-B1SM.svg\" width=\"200\">\n                    <p><span class=\"greenText\"><b>Successful harvest!</b></span><br>Your pay has increased by $0.02. Your bonus pay is now $0.46.</p>\n            ","response":0,"trial_type":"html-button-response","trial_index":52,"time_elapsed":339854,"internal_node_id":"0.0-4.0-1.22","subject_id":"61087e0903e2256a25669b09","study_id":"6197b3f67c2b5cd3b6d9596a","session_id":"6197b88b7f0a7e5365228fd1","condition":"full-information","relevant_dimensions":["pattern","legs"],"bee_group":{"antennae":"X","wings":"X","pattern":"D","legs":"F"},"bonus":0.4400000000000013},{"rt":1616.6000000238419,"stimulus":"bees-with-color/bee-B1DM.svg","response":0,"trial_type":"image-button-response","trial_index":53,"time_elapsed":341472,"internal_node_id":"0.0-4.0-0.23","subject_id":"61087e0903e2256a25669b09","study_id":"6197b3f67c2b5cd3b6d9596a","session_id":"6197b88b7f0a7e5365228fd1","condition":"full-information","relevant_dimensions":["pattern","legs"],"bee_group":{"antennae":"X","wings":"X","pattern":"D","legs":"F"},"action":"harvest","summary":"good-harvest","bonus":0.4400000000000013},{"rt":1097.5999999046326,"stimulus":"\n                    <p><b>Action: <em>harvest</em></b></p>\n                    <p>This is the bee that you just saw.</p>\n                    <img src=\"bees-with-color/bee-B1DM.svg\" width=\"200\">\n                    <p><span class=\"greenText\"><b>Successful harvest!</b></span><br>Your pay has increased by $0.02. Your bonus pay is now $0.48.</p>\n            ","response":0,"trial_type":"html-button-response","trial_index":54,"time_elapsed":342573,"internal_node_id":"0.0-4.0-1.23","subject_id":"61087e0903e2256a25669b09","study_id":"6197b3f67c2b5cd3b6d9596a","session_id":"6197b88b7f0a7e5365228fd1","condition":"full-information","relevant_dimensions":["pattern","legs"],"bee_group":{"antennae":"X","wings":"X","pattern":"D","legs":"F"},"bonus":0.4400000000000013},{"rt":1546.2999999523163,"stimulus":"bees-with-color/bee-A1SF.svg","response":0,"trial_type":"image-button-response","trial_index":55,"time_elapsed":344121,"internal_node_id":"0.0-4.0-0.24","subject_id":"61087e0903e2256a25669b09","study_id":"6197b3f67c2b5cd3b6d9596a","session_id":"6197b88b7f0a7e5365228fd1","condition":"full-information","relevant_dimensions":["pattern","legs"],"bee_group":{"antennae":"X","wings":"X","pattern":"D","legs":"F"},"action":"harvest","summary":"good-harvest","bonus":0.4400000000000013},{"rt":1233.3000000715256,"stimulus":"\n                    <p><b>Action: <em>harvest</em></b></p>\n                    <p>This is the bee that you just saw.</p>\n                    <img src=\"bees-with-color/bee-A1SF.svg\" width=\"200\">\n                    <p><span class=\"greenText\"><b>Successful harvest!</b></span><br>Your pay has increased by $0.02. Your bonus pay is now $0.50.</p>\n            ","response":0,"trial_type":"html-button-response","trial_index":56,"time_elapsed":345356,"internal_node_id":"0.0-4.0-1.24","subject_id":"61087e0903e2256a25669b09","study_id":"6197b3f67c2b5cd3b6d9596a","session_id":"6197b88b7f0a7e5365228fd1","condition":"full-information","relevant_dimensions":["pattern","legs"],"bee_group":{"antennae":"X","wings":"X","pattern":"D","legs":"F"},"bonus":0.4400000000000013},{"rt":2188.6999999284744,"stimulus":"bees-with-color/bee-B2SM.svg","response":0,"trial_type":"image-button-response","trial_index":57,"time_elapsed":347547,"internal_node_id":"0.0-4.0-0.25","subject_id":"61087e0903e2256a25669b09","study_id":"6197b3f67c2b5cd3b6d9596a","session_id":"6197b88b7f0a7e5365228fd1","condition":"full-information","relevant_dimensions":["pattern","legs"],"bee_group":{"antennae":"X","wings":"X","pattern":"D","legs":"F"},"action":"harvest","summary":"good-harvest","bonus":0.4400000000000013},{"rt":1324,"stimulus":"\n                    <p><b>Action: <em>harvest</em></b></p>\n                    <p>This is the bee that you just saw.</p>\n                    <img src=\"bees-with-color/bee-B2SM.svg\" width=\"200\">\n                    <p><span class=\"greenText\"><b>Successful harvest!</b></span><br>Your pay has increased by $0.02. Your bonus pay is now $0.52.</p>\n            ","response":0,"trial_type":"html-button-response","trial_index":58,"time_elapsed":348873,"internal_node_id":"0.0-4.0-1.25","subject_id":"61087e0903e2256a25669b09","study_id":"6197b3f67c2b5cd3b6d9596a","session_id":"6197b88b7f0a7e5365228fd1","condition":"full-information","relevant_dimensions":["pattern","legs"],"bee_group":{"antennae":"X","wings":"X","pattern":"D","legs":"F"},"bonus":0.4400000000000013},{"rt":1199.7999999523163,"stimulus":"bees-with-color/bee-A2DF.svg","response":1,"trial_type":"image-button-response","trial_index":59,"time_elapsed":350074,"internal_node_id":"0.0-4.0-0.26","subject_id":"61087e0903e2256a25669b09","study_id":"6197b3f67c2b5cd3b6d9596a","session_id":"6197b88b7f0a7e5365228fd1","condition":"full-information","relevant_dimensions":["pattern","legs"],"bee_group":{"antennae":"X","wings":"X","pattern":"D","legs":"F"},"action":"avoid","summary":"good-avoid","bonus":0.4400000000000013},{"rt":1011.9000000953674,"stimulus":"\n                    <p><b>Action: <em>avoid</em></b></p>\n                    <p>This is the bee that you just saw.</p>\n                    <img src=\"bees-with-color/bee-A2DF.svg\" width=\"200\">\n                    <p><span class=\"greenText\">Good choice!</span>  This bee would have stung you.<br>Your bonus pay is unchanged, and remains at $0.52.</p>\n            ","response":0,"trial_type":"html-button-response","trial_index":60,"time_elapsed":351089,"internal_node_id":"0.0-4.0-1.26","subject_id":"61087e0903e2256a25669b09","study_id":"6197b3f67c2b5cd3b6d9596a","session_id":"6197b88b7f0a7e5365228fd1","condition":"full-information","relevant_dimensions":["pattern","legs"],"bee_group":{"antennae":"X","wings":"X","pattern":"D","legs":"F"},"bonus":0.4400000000000013},{"rt":1382.5,"stimulus":"bees-with-color/bee-B1SF.svg","response":0,"trial_type":"image-button-response","trial_index":61,"time_elapsed":352473,"internal_node_id":"0.0-4.0-0.27","subject_id":"61087e0903e2256a25669b09","study_id":"6197b3f67c2b5cd3b6d9596a","session_id":"6197b88b7f0a7e5365228fd1","condition":"full-information","relevant_dimensions":["pattern","legs"],"bee_group":{"antennae":"X","wings":"X","pattern":"D","legs":"F"},"action":"harvest","summary":"good-harvest","bonus":0.4400000000000013},{"rt":1011.4000000953674,"stimulus":"\n                    <p><b>Action: <em>harvest</em></b></p>\n                    <p>This is the bee that you just saw.</p>\n                    <img src=\"bees-with-color/bee-B1SF.svg\" width=\"200\">\n                    <p><span class=\"greenText\"><b>Successful harvest!</b></span><br>Your pay has increased by $0.02. Your bonus pay is now $0.54.</p>\n            ","response":0,"trial_type":"html-button-response","trial_index":62,"time_elapsed":353486,"internal_node_id":"0.0-4.0-1.27","subject_id":"61087e0903e2256a25669b09","study_id":"6197b3f67c2b5cd3b6d9596a","session_id":"6197b88b7f0a7e5365228fd1","condition":"full-information","relevant_dimensions":["pattern","legs"],"bee_group":{"antennae":"X","wings":"X","pattern":"D","legs":"F"},"bonus":0.4400000000000013},{"rt":1745.2000000476837,"stimulus":"bees-with-color/bee-A2SM.svg","response":0,"trial_type":"image-button-response","trial_index":63,"time_elapsed":355233,"internal_node_id":"0.0-4.0-0.28","subject_id":"61087e0903e2256a25669b09","study_id":"6197b3f67c2b5cd3b6d9596a","session_id":"6197b88b7f0a7e5365228fd1","condition":"full-information","relevant_dimensions":["pattern","legs"],"bee_group":{"antennae":"X","wings":"X","pattern":"D","legs":"F"},"action":"harvest","summary":"good-harvest","bonus":0.4400000000000013},{"rt":1025,"stimulus":"\n                    <p><b>Action: <em>harvest</em></b></p>\n                    <p>This is the bee that you just saw.</p>\n                    <img src=\"bees-with-color/bee-A2SM.svg\" width=\"200\">\n                    <p><span class=\"greenText\"><b>Successful harvest!</b></span><br>Your pay has increased by $0.02. Your bonus pay is now $0.56.</p>\n            ","response":0,"trial_type":"html-button-response","trial_index":64,"time_elapsed":356260,"internal_node_id":"0.0-4.0-1.28","subject_id":"61087e0903e2256a25669b09","study_id":"6197b3f67c2b5cd3b6d9596a","session_id":"6197b88b7f0a7e5365228fd1","condition":"full-information","relevant_dimensions":["pattern","legs"],"bee_group":{"antennae":"X","wings":"X","pattern":"D","legs":"F"},"bonus":0.4400000000000013},{"rt":1574.7000000476837,"stimulus":"bees-with-color/bee-B1DF.svg","response":0,"trial_type":"image-button-response","trial_index":65,"time_elapsed":357836,"internal_node_id":"0.0-4.0-0.29","subject_id":"61087e0903e2256a25669b09","study_id":"6197b3f67c2b5cd3b6d9596a","session_id":"6197b88b7f0a7e5365228fd1","condition":"full-information","relevant_dimensions":["pattern","legs"],"bee_group":{"antennae":"X","wings":"X","pattern":"D","legs":"F"},"action":"harvest","summary":"bad-harvest","bonus":0.4400000000000013},{"rt":1025.1999999284744,"stimulus":"\n                    <p><b>Action: <em>harvest</em></b></p>\n                    <p>This is the bee that you just saw.</p>\n                    <img src=\"bees-with-color/bee-B1DF.svg\" width=\"200\">\n                    <p><span class=\"redText\">Bad choice, the bee was angry.</span><br><b>You have been stung!</b><br>Your pay has been decreased by $0.10. Your bonus pay is now $0.46.</p>\n            ","response":0,"trial_type":"html-button-response","trial_index":66,"time_elapsed":358863,"internal_node_id":"0.0-4.0-1.29","subject_id":"61087e0903e2256a25669b09","study_id":"6197b3f67c2b5cd3b6d9596a","session_id":"6197b88b7f0a7e5365228fd1","condition":"full-information","relevant_dimensions":["pattern","legs"],"bee_group":{"antennae":"X","wings":"X","pattern":"D","legs":"F"},"bonus":0.4400000000000013},{"rt":2415,"stimulus":"bees-with-color/bee-A2DM.svg","response":0,"trial_type":"image-button-response","trial_index":67,"time_elapsed":361280,"internal_node_id":"0.0-4.0-0.30","subject_id":"61087e0903e2256a25669b09","study_id":"6197b3f67c2b5cd3b6d9596a","session_id":"6197b88b7f0a7e5365228fd1","condition":"full-information","relevant_dimensions":["pattern","legs"],"bee_group":{"antennae":"X","wings":"X","pattern":"D","legs":"F"},"action":"harvest","summary":"good-harvest","bonus":0.4400000000000013},{"rt":984.1999999284744,"stimulus":"\n                    <p><b>Action: <em>harvest</em></b></p>\n                    <p>This is the bee that you just saw.</p>\n                    <img src=\"bees-with-color/bee-A2DM.svg\" width=\"200\">\n                    <p><span class=\"greenText\"><b>Successful harvest!</b></span><br>Your pay has increased by $0.02. Your bonus pay is now $0.48.</p>\n            ","response":0,"trial_type":"html-button-response","trial_index":68,"time_elapsed":362266,"internal_node_id":"0.0-4.0-1.30","subject_id":"61087e0903e2256a25669b09","study_id":"6197b3f67c2b5cd3b6d9596a","session_id":"6197b88b7f0a7e5365228fd1","condition":"full-information","relevant_dimensions":["pattern","legs"],"bee_group":{"antennae":"X","wings":"X","pattern":"D","legs":"F"},"bonus":0.4400000000000013},{"rt":2089.600000023842,"stimulus":"bees-with-color/bee-A1DM.svg","response":1,"trial_type":"image-button-response","trial_index":69,"time_elapsed":364357,"internal_node_id":"0.0-4.0-0.31","subject_id":"61087e0903e2256a25669b09","study_id":"6197b3f67c2b5cd3b6d9596a","session_id":"6197b88b7f0a7e5365228fd1","condition":"full-information","relevant_dimensions":["pattern","legs"],"bee_group":{"antennae":"X","wings":"X","pattern":"D","legs":"F"},"action":"avoid","summary":"bad-avoid","bonus":0.4400000000000013},{"rt":1060.5,"stimulus":"\n                    <p><b>Action: <em>avoid</em></b></p>\n                    <p>This is the bee that you just saw.</p>\n                    <img src=\"bees-with-color/bee-A1DM.svg\" width=\"200\">\n                    <p><span class=\"redText\">Bad choice,</span> the bee was friendly.<br>Your bonus pay is unchanged, and remains at $0.48.</p>\n            ","response":0,"trial_type":"html-button-response","trial_index":70,"time_elapsed":365420,"internal_node_id":"0.0-4.0-1.31","subject_id":"61087e0903e2256a25669b09","study_id":"6197b3f67c2b5cd3b6d9596a","session_id":"6197b88b7f0a7e5365228fd1","condition":"full-information","relevant_dimensions":["pattern","legs"],"bee_group":{"antennae":"X","wings":"X","pattern":"D","legs":"F"},"bonus":0.4400000000000013},{"rt":1638.7999999523163,"stimulus":"bees-with-color/bee-A2DF.svg","response":1,"trial_type":"image-button-response","trial_index":71,"time_elapsed":367061,"internal_node_id":"0.0-4.0-0.32","subject_id":"61087e0903e2256a25669b09","study_id":"6197b3f67c2b5cd3b6d9596a","session_id":"6197b88b7f0a7e5365228fd1","condition":"full-information","relevant_dimensions":["pattern","legs"],"bee_group":{"antennae":"X","wings":"X","pattern":"D","legs":"F"},"action":"avoid","summary":"good-avoid","bonus":0.4400000000000013},{"rt":900.6000000238419,"stimulus":"\n                    <p><b>Action: <em>avoid</em></b></p>\n                    <p>This is the bee that you just saw.</p>\n                    <img src=\"bees-with-color/bee-A2DF.svg\" width=\"200\">\n                    <p><span class=\"greenText\">Good choice!</span>  This bee would have stung you.<br>Your bonus pay is unchanged, and remains at $0.48.</p>\n            ","response":0,"trial_type":"html-button-response","trial_index":72,"time_elapsed":367964,"internal_node_id":"0.0-4.0-1.32","subject_id":"61087e0903e2256a25669b09","study_id":"6197b3f67c2b5cd3b6d9596a","session_id":"6197b88b7f0a7e5365228fd1","condition":"full-information","relevant_dimensions":["pattern","legs"],"bee_group":{"antennae":"X","wings":"X","pattern":"D","legs":"F"},"bonus":0.4400000000000013},{"rt":1529.6000000238419,"stimulus":"bees-with-color/bee-A1DF.svg","response":0,"trial_type":"image-button-response","trial_index":73,"time_elapsed":369495,"internal_node_id":"0.0-4.0-0.33","subject_id":"61087e0903e2256a25669b09","study_id":"6197b3f67c2b5cd3b6d9596a","session_id":"6197b88b7f0a7e5365228fd1","condition":"full-information","relevant_dimensions":["pattern","legs"],"bee_group":{"antennae":"X","wings":"X","pattern":"D","legs":"F"},"action":"harvest","summary":"bad-harvest","bonus":0.4400000000000013},{"rt":20957.100000023842,"stimulus":"\n                    <p><b>Action: <em>harvest</em></b></p>\n                    <p>This is the bee that you just saw.</p>\n                    <img src=\"bees-with-color/bee-A1DF.svg\" width=\"200\">\n                    <p><span class=\"redText\">Bad choice, the bee was angry.</span><br><b>You have been stung!</b><br>Your pay has been decreased by $0.10. Your bonus pay is now $0.38.</p>\n            ","response":0,"trial_type":"html-button-response","trial_index":74,"time_elapsed":390454,"internal_node_id":"0.0-4.0-1.33","subject_id":"61087e0903e2256a25669b09","study_id":"6197b3f67c2b5cd3b6d9596a","session_id":"6197b88b7f0a7e5365228fd1","condition":"full-information","relevant_dimensions":["pattern","legs"],"bee_group":{"antennae":"X","wings":"X","pattern":"D","legs":"F"},"bonus":0.4400000000000013},{"rt":2605.8000000715256,"stimulus":"bees-with-color/bee-A1SM.svg","response":0,"trial_type":"image-button-response","trial_index":75,"time_elapsed":393061,"internal_node_id":"0.0-4.0-0.34","subject_id":"61087e0903e2256a25669b09","study_id":"6197b3f67c2b5cd3b6d9596a","session_id":"6197b88b7f0a7e5365228fd1","condition":"full-information","relevant_dimensions":["pattern","legs"],"bee_group":{"antennae":"X","wings":"X","pattern":"D","legs":"F"},"action":"harvest","summary":"good-harvest","bonus":0.4400000000000013},{"rt":1781.8999999761581,"stimulus":"\n                    <p><b>Action: <em>harvest</em></b></p>\n                    <p>This is the bee that you just saw.</p>\n                    <img src=\"bees-with-color/bee-A1SM.svg\" width=\"200\">\n                    <p><span class=\"greenText\"><b>Successful harvest!</b></span><br>Your pay has increased by $0.02. Your bonus pay is now $0.40.</p>\n            ","response":0,"trial_type":"html-button-response","trial_index":76,"time_elapsed":394845,"internal_node_id":"0.0-4.0-1.34","subject_id":"61087e0903e2256a25669b09","study_id":"6197b3f67c2b5cd3b6d9596a","session_id":"6197b88b7f0a7e5365228fd1","condition":"full-information","relevant_dimensions":["pattern","legs"],"bee_group":{"antennae":"X","wings":"X","pattern":"D","legs":"F"},"bonus":0.4400000000000013},{"rt":2164.4000000953674,"stimulus":"bees-with-color/bee-B2SF.svg","response":1,"trial_type":"image-button-response","trial_index":77,"time_elapsed":397011,"internal_node_id":"0.0-4.0-0.35","subject_id":"61087e0903e2256a25669b09","study_id":"6197b3f67c2b5cd3b6d9596a","session_id":"6197b88b7f0a7e5365228fd1","condition":"full-information","relevant_dimensions":["pattern","legs"],"bee_group":{"antennae":"X","wings":"X","pattern":"D","legs":"F"},"action":"avoid","summary":"bad-avoid","bonus":0.4400000000000013},{"rt":3994,"stimulus":"\n                    <p><b>Action: <em>avoid</em></b></p>\n                    <p>This is the bee that you just saw.</p>\n                    <img src=\"bees-with-color/bee-B2SF.svg\" width=\"200\">\n                    <p><span class=\"redText\">Bad choice,</span> the bee was friendly.<br>Your bonus pay is unchanged, and remains at $0.40.</p>\n            ","response":0,"trial_type":"html-button-response","trial_index":78,"time_elapsed":401008,"internal_node_id":"0.0-4.0-1.35","subject_id":"61087e0903e2256a25669b09","study_id":"6197b3f67c2b5cd3b6d9596a","session_id":"6197b88b7f0a7e5365228fd1","condition":"full-information","relevant_dimensions":["pattern","legs"],"bee_group":{"antennae":"X","wings":"X","pattern":"D","legs":"F"},"bonus":0.4400000000000013},{"rt":1819.8999999761581,"stimulus":"bees-with-color/bee-A1DM.svg","response":0,"trial_type":"image-button-response","trial_index":79,"time_elapsed":402830,"internal_node_id":"0.0-4.0-0.36","subject_id":"61087e0903e2256a25669b09","study_id":"6197b3f67c2b5cd3b6d9596a","session_id":"6197b88b7f0a7e5365228fd1","condition":"full-information","relevant_dimensions":["pattern","legs"],"bee_group":{"antennae":"X","wings":"X","pattern":"D","legs":"F"},"action":"harvest","summary":"good-harvest","bonus":0.4400000000000013},{"rt":1483.8999999761581,"stimulus":"\n                    <p><b>Action: <em>harvest</em></b></p>\n                    <p>This is the bee that you just saw.</p>\n                    <img src=\"bees-with-color/bee-A1DM.svg\" width=\"200\">\n                    <p><span class=\"greenText\"><b>Successful harvest!</b></span><br>Your pay has increased by $0.02. Your bonus pay is now $0.42.</p>\n            ","response":0,"trial_type":"html-button-response","trial_index":80,"time_elapsed":404316,"internal_node_id":"0.0-4.0-1.36","subject_id":"61087e0903e2256a25669b09","study_id":"6197b3f67c2b5cd3b6d9596a","session_id":"6197b88b7f0a7e5365228fd1","condition":"full-information","relevant_dimensions":["pattern","legs"],"bee_group":{"antennae":"X","wings":"X","pattern":"D","legs":"F"},"bonus":0.4400000000000013},{"rt":2234.1999999284744,"stimulus":"bees-with-color/bee-A1SF.svg","response":0,"trial_type":"image-button-response","trial_index":81,"time_elapsed":406553,"internal_node_id":"0.0-4.0-0.37","subject_id":"61087e0903e2256a25669b09","study_id":"6197b3f67c2b5cd3b6d9596a","session_id":"6197b88b7f0a7e5365228fd1","condition":"full-information","relevant_dimensions":["pattern","legs"],"bee_group":{"antennae":"X","wings":"X","pattern":"D","legs":"F"},"action":"harvest","summary":"good-harvest","bonus":0.4400000000000013},{"rt":1322.4000000953674,"stimulus":"\n                    <p><b>Action: <em>harvest</em></b></p>\n                    <p>This is the bee that you just saw.</p>\n                    <img src=\"bees-with-color/bee-A1SF.svg\" width=\"200\">\n                    <p><span class=\"greenText\"><b>Successful harvest!</b></span><br>Your pay has increased by $0.02. Your bonus pay is now $0.44.</p>\n            ","response":0,"trial_type":"html-button-response","trial_index":82,"time_elapsed":407877,"internal_node_id":"0.0-4.0-1.37","subject_id":"61087e0903e2256a25669b09","study_id":"6197b3f67c2b5cd3b6d9596a","session_id":"6197b88b7f0a7e5365228fd1","condition":"full-information","relevant_dimensions":["pattern","legs"],"bee_group":{"antennae":"X","wings":"X","pattern":"D","legs":"F"},"bonus":0.4400000000000013},{"rt":2051.2000000476837,"stimulus":"bees-with-color/bee-B1SM.svg","response":0,"trial_type":"image-button-response","trial_index":83,"time_elapsed":409931,"internal_node_id":"0.0-4.0-0.38","subject_id":"61087e0903e2256a25669b09","study_id":"6197b3f67c2b5cd3b6d9596a","session_id":"6197b88b7f0a7e5365228fd1","condition":"full-information","relevant_dimensions":["pattern","legs"],"bee_group":{"antennae":"X","wings":"X","pattern":"D","legs":"F"},"action":"harvest","summary":"good-harvest","bonus":0.4400000000000013},{"rt":981.9000000953674,"stimulus":"\n                    <p><b>Action: <em>harvest</em></b></p>\n                    <p>This is the bee that you just saw.</p>\n                    <img src=\"bees-with-color/bee-B1SM.svg\" width=\"200\">\n                    <p><span class=\"greenText\"><b>Successful harvest!</b></span><br>Your pay has increased by $0.02. Your bonus pay is now $0.46.</p>\n            ","response":0,"trial_type":"html-button-response","trial_index":84,"time_elapsed":410915,"internal_node_id":"0.0-4.0-1.38","subject_id":"61087e0903e2256a25669b09","study_id":"6197b3f67c2b5cd3b6d9596a","session_id":"6197b88b7f0a7e5365228fd1","condition":"full-information","relevant_dimensions":["pattern","legs"],"bee_group":{"antennae":"X","wings":"X","pattern":"D","legs":"F"},"bonus":0.4400000000000013},{"rt":2477,"stimulus":"bees-with-color/bee-B2DM.svg","response":1,"trial_type":"image-button-response","trial_index":85,"time_elapsed":413394,"internal_node_id":"0.0-4.0-0.39","subject_id":"61087e0903e2256a25669b09","study_id":"6197b3f67c2b5cd3b6d9596a","session_id":"6197b88b7f0a7e5365228fd1","condition":"full-information","relevant_dimensions":["pattern","legs"],"bee_group":{"antennae":"X","wings":"X","pattern":"D","legs":"F"},"action":"avoid","summary":"bad-avoid","bonus":0.4400000000000013},{"rt":1711.2999999523163,"stimulus":"\n                    <p><b>Action: <em>avoid</em></b></p>\n                    <p>This is the bee that you just saw.</p>\n                    <img src=\"bees-with-color/bee-B2DM.svg\" width=\"200\">\n                    <p><span class=\"redText\">Bad choice,</span> the bee was friendly.<br>Your bonus pay is unchanged, and remains at $0.46.</p>\n            ","response":0,"trial_type":"html-button-response","trial_index":86,"time_elapsed":415107,"internal_node_id":"0.0-4.0-1.39","subject_id":"61087e0903e2256a25669b09","study_id":"6197b3f67c2b5cd3b6d9596a","session_id":"6197b88b7f0a7e5365228fd1","condition":"full-information","relevant_dimensions":["pattern","legs"],"bee_group":{"antennae":"X","wings":"X","pattern":"D","legs":"F"},"bonus":0.4400000000000013},{"rt":1276.3999999761581,"stimulus":"bees-with-color/bee-B1DF.svg","response":1,"trial_type":"image-button-response","trial_index":87,"time_elapsed":416386,"internal_node_id":"0.0-4.0-0.40","subject_id":"61087e0903e2256a25669b09","study_id":"6197b3f67c2b5cd3b6d9596a","session_id":"6197b88b7f0a7e5365228fd1","condition":"full-information","relevant_dimensions":["pattern","legs"],"bee_group":{"antennae":"X","wings":"X","pattern":"D","legs":"F"},"action":"avoid","summary":"good-avoid","bonus":0.4400000000000013},{"rt":1466.1999999284744,"stimulus":"\n                    <p><b>Action: <em>avoid</em></b></p>\n                    <p>This is the bee that you just saw.</p>\n                    <img src=\"bees-with-color/bee-B1DF.svg\" width=\"200\">\n                    <p><span class=\"greenText\">Good choice!</span>  This bee would have stung you.<br>Your bonus pay is unchanged, and remains at $0.46.</p>\n            ","response":0,"trial_type":"html-button-response","trial_index":88,"time_elapsed":417857,"internal_node_id":"0.0-4.0-1.40","subject_id":"61087e0903e2256a25669b09","study_id":"6197b3f67c2b5cd3b6d9596a","session_id":"6197b88b7f0a7e5365228fd1","condition":"full-information","relevant_dimensions":["pattern","legs"],"bee_group":{"antennae":"X","wings":"X","pattern":"D","legs":"F"},"bonus":0.4400000000000013},{"rt":1656.3000000715256,"stimulus":"bees-with-color/bee-B2DF.svg","response":1,"trial_type":"image-button-response","trial_index":89,"time_elapsed":419515,"internal_node_id":"0.0-4.0-0.41","subject_id":"61087e0903e2256a25669b09","study_id":"6197b3f67c2b5cd3b6d9596a","session_id":"6197b88b7f0a7e5365228fd1","condition":"full-information","relevant_dimensions":["pattern","legs"],"bee_group":{"antennae":"X","wings":"X","pattern":"D","legs":"F"},"action":"avoid","summary":"good-avoid","bonus":0.4400000000000013},{"rt":1181,"stimulus":"\n                    <p><b>Action: <em>avoid</em></b></p>\n                    <p>This is the bee that you just saw.</p>\n                    <img src=\"bees-with-color/bee-B2DF.svg\" width=\"200\">\n                    <p><span class=\"greenText\">Good choice!</span>  This bee would have stung you.<br>Your bonus pay is unchanged, and remains at $0.46.</p>\n            ","response":0,"trial_type":"html-button-response","trial_index":90,"time_elapsed":420698,"internal_node_id":"0.0-4.0-1.41","subject_id":"61087e0903e2256a25669b09","study_id":"6197b3f67c2b5cd3b6d9596a","session_id":"6197b88b7f0a7e5365228fd1","condition":"full-information","relevant_dimensions":["pattern","legs"],"bee_group":{"antennae":"X","wings":"X","pattern":"D","legs":"F"},"bonus":0.4400000000000013},{"rt":1899.1000000238419,"stimulus":"bees-with-color/bee-B1SF.svg","response":0,"trial_type":"image-button-response","trial_index":91,"time_elapsed":422599,"internal_node_id":"0.0-4.0-0.42","subject_id":"61087e0903e2256a25669b09","study_id":"6197b3f67c2b5cd3b6d9596a","session_id":"6197b88b7f0a7e5365228fd1","condition":"full-information","relevant_dimensions":["pattern","legs"],"bee_group":{"antennae":"X","wings":"X","pattern":"D","legs":"F"},"action":"harvest","summary":"good-harvest","bonus":0.4400000000000013},{"rt":1168.5,"stimulus":"\n                    <p><b>Action: <em>harvest</em></b></p>\n                    <p>This is the bee that you just saw.</p>\n                    <img src=\"bees-with-color/bee-B1SF.svg\" width=\"200\">\n                    <p><span class=\"greenText\"><b>Successful harvest!</b></span><br>Your pay has increased by $0.02. Your bonus pay is now $0.48.</p>\n            ","response":0,"trial_type":"html-button-response","trial_index":92,"time_elapsed":423770,"internal_node_id":"0.0-4.0-1.42","subject_id":"61087e0903e2256a25669b09","study_id":"6197b3f67c2b5cd3b6d9596a","session_id":"6197b88b7f0a7e5365228fd1","condition":"full-information","relevant_dimensions":["pattern","legs"],"bee_group":{"antennae":"X","wings":"X","pattern":"D","legs":"F"},"bonus":0.4400000000000013},{"rt":1697.8999999761581,"stimulus":"bees-with-color/bee-A2DM.svg","response":0,"trial_type":"image-button-response","trial_index":93,"time_elapsed":425469,"internal_node_id":"0.0-4.0-0.43","subject_id":"61087e0903e2256a25669b09","study_id":"6197b3f67c2b5cd3b6d9596a","session_id":"6197b88b7f0a7e5365228fd1","condition":"full-information","relevant_dimensions":["pattern","legs"],"bee_group":{"antennae":"X","wings":"X","pattern":"D","legs":"F"},"action":"harvest","summary":"good-harvest","bonus":0.4400000000000013},{"rt":1118.3000000715256,"stimulus":"\n                    <p><b>Action: <em>harvest</em></b></p>\n                    <p>This is the bee that you just saw.</p>\n                    <img src=\"bees-with-color/bee-A2DM.svg\" width=\"200\">\n                    <p><span class=\"greenText\"><b>Successful harvest!</b></span><br>Your pay has increased by $0.02. Your bonus pay is now $0.50.</p>\n            ","response":0,"trial_type":"html-button-response","trial_index":94,"time_elapsed":426590,"internal_node_id":"0.0-4.0-1.43","subject_id":"61087e0903e2256a25669b09","study_id":"6197b3f67c2b5cd3b6d9596a","session_id":"6197b88b7f0a7e5365228fd1","condition":"full-information","relevant_dimensions":["pattern","legs"],"bee_group":{"antennae":"X","wings":"X","pattern":"D","legs":"F"},"bonus":0.4400000000000013},{"rt":1247.2999999523163,"stimulus":"bees-with-color/bee-A2SM.svg","response":0,"trial_type":"image-button-response","trial_index":95,"time_elapsed":427839,"internal_node_id":"0.0-4.0-0.44","subject_id":"61087e0903e2256a25669b09","study_id":"6197b3f67c2b5cd3b6d9596a","session_id":"6197b88b7f0a7e5365228fd1","condition":"full-information","relevant_dimensions":["pattern","legs"],"bee_group":{"antennae":"X","wings":"X","pattern":"D","legs":"F"},"action":"harvest","summary":"good-harvest","bonus":0.4400000000000013},{"rt":1273.6000000238419,"stimulus":"\n                    <p><b>Action: <em>harvest</em></b></p>\n                    <p>This is the bee that you just saw.</p>\n                    <img src=\"bees-with-color/bee-A2SM.svg\" width=\"200\">\n                    <p><span class=\"greenText\"><b>Successful harvest!</b></span><br>Your pay has increased by $0.02. Your bonus pay is now $0.52.</p>\n            ","response":0,"trial_type":"html-button-response","trial_index":96,"time_elapsed":429116,"internal_node_id":"0.0-4.0-1.44","subject_id":"61087e0903e2256a25669b09","study_id":"6197b3f67c2b5cd3b6d9596a","session_id":"6197b88b7f0a7e5365228fd1","condition":"full-information","relevant_dimensions":["pattern","legs"],"bee_group":{"antennae":"X","wings":"X","pattern":"D","legs":"F"},"bonus":0.4400000000000013},{"rt":1734.7000000476837,"stimulus":"bees-with-color/bee-B2SM.svg","response":0,"trial_type":"image-button-response","trial_index":97,"time_elapsed":430852,"internal_node_id":"0.0-4.0-0.45","subject_id":"61087e0903e2256a25669b09","study_id":"6197b3f67c2b5cd3b6d9596a","session_id":"6197b88b7f0a7e5365228fd1","condition":"full-information","relevant_dimensions":["pattern","legs"],"bee_group":{"antennae":"X","wings":"X","pattern":"D","legs":"F"},"action":"harvest","summary":"good-harvest","bonus":0.4400000000000013},{"rt":1414.5,"stimulus":"\n                    <p><b>Action: <em>harvest</em></b></p>\n                    <p>This is the bee that you just saw.</p>\n                    <img src=\"bees-with-color/bee-B2SM.svg\" width=\"200\">\n                    <p><span class=\"greenText\"><b>Successful harvest!</b></span><br>Your pay has increased by $0.02. Your bonus pay is now $0.54.</p>\n            ","response":0,"trial_type":"html-button-response","trial_index":98,"time_elapsed":432268,"internal_node_id":"0.0-4.0-1.45","subject_id":"61087e0903e2256a25669b09","study_id":"6197b3f67c2b5cd3b6d9596a","session_id":"6197b88b7f0a7e5365228fd1","condition":"full-information","relevant_dimensions":["pattern","legs"],"bee_group":{"antennae":"X","wings":"X","pattern":"D","legs":"F"},"bonus":0.4400000000000013},{"rt":1715.5,"stimulus":"bees-with-color/bee-A2SF.svg","response":1,"trial_type":"image-button-response","trial_index":99,"time_elapsed":433985,"internal_node_id":"0.0-4.0-0.46","subject_id":"61087e0903e2256a25669b09","study_id":"6197b3f67c2b5cd3b6d9596a","session_id":"6197b88b7f0a7e5365228fd1","condition":"full-information","relevant_dimensions":["pattern","legs"],"bee_group":{"antennae":"X","wings":"X","pattern":"D","legs":"F"},"action":"avoid","summary":"bad-avoid","bonus":0.4400000000000013},{"rt":14989.399999976158,"stimulus":"\n                    <p><b>Action: <em>avoid</em></b></p>\n                    <p>This is the bee that you just saw.</p>\n                    <img src=\"bees-with-color/bee-A2SF.svg\" width=\"200\">\n                    <p><span class=\"redText\">Bad choice,</span> the bee was friendly.<br>Your bonus pay is unchanged, and remains at $0.54.</p>\n            ","response":0,"trial_type":"html-button-response","trial_index":100,"time_elapsed":448977,"internal_node_id":"0.0-4.0-1.46","subject_id":"61087e0903e2256a25669b09","study_id":"6197b3f67c2b5cd3b6d9596a","session_id":"6197b88b7f0a7e5365228fd1","condition":"full-information","relevant_dimensions":["pattern","legs"],"bee_group":{"antennae":"X","wings":"X","pattern":"D","legs":"F"},"bonus":0.4400000000000013},{"rt":2210.9000000953674,"stimulus":"bees-with-color/bee-B1DM.svg","response":1,"trial_type":"image-button-response","trial_index":101,"time_elapsed":451190,"internal_node_id":"0.0-4.0-0.47","subject_id":"61087e0903e2256a25669b09","study_id":"6197b3f67c2b5cd3b6d9596a","session_id":"6197b88b7f0a7e5365228fd1","condition":"full-information","relevant_dimensions":["pattern","legs"],"bee_group":{"antennae":"X","wings":"X","pattern":"D","legs":"F"},"action":"avoid","summary":"bad-avoid","bonus":0.4400000000000013},{"rt":1075.7999999523163,"stimulus":"\n                    <p><b>Action: <em>avoid</em></b></p>\n                    <p>This is the bee that you just saw.</p>\n                    <img src=\"bees-with-color/bee-B1DM.svg\" width=\"200\">\n                    <p><span class=\"redText\">Bad choice,</span> the bee was friendly.<br>Your bonus pay is unchanged, and remains at $0.54.</p>\n            ","response":0,"trial_type":"html-button-response","trial_index":102,"time_elapsed":452268,"internal_node_id":"0.0-4.0-1.47","subject_id":"61087e0903e2256a25669b09","study_id":"6197b3f67c2b5cd3b6d9596a","session_id":"6197b88b7f0a7e5365228fd1","condition":"full-information","relevant_dimensions":["pattern","legs"],"bee_group":{"antennae":"X","wings":"X","pattern":"D","legs":"F"},"bonus":0.4400000000000013},{"rt":1867.1000000238419,"stimulus":"bees-with-color/bee-A1DF.svg","response":1,"trial_type":"image-button-response","trial_index":103,"time_elapsed":454136,"internal_node_id":"0.0-4.0-0.48","subject_id":"61087e0903e2256a25669b09","study_id":"6197b3f67c2b5cd3b6d9596a","session_id":"6197b88b7f0a7e5365228fd1","condition":"full-information","relevant_dimensions":["pattern","legs"],"bee_group":{"antennae":"X","wings":"X","pattern":"D","legs":"F"},"action":"avoid","summary":"good-avoid","bonus":0.4400000000000013},{"rt":1276.2999999523163,"stimulus":"\n                    <p><b>Action: <em>avoid</em></b></p>\n                    <p>This is the bee that you just saw.</p>\n                    <img src=\"bees-with-color/bee-A1DF.svg\" width=\"200\">\n                    <p><span class=\"greenText\">Good choice!</span>  This bee would have stung you.<br>Your bonus pay is unchanged, and remains at $0.54.</p>\n            ","response":0,"trial_type":"html-button-response","trial_index":104,"time_elapsed":455415,"internal_node_id":"0.0-4.0-1.48","subject_id":"61087e0903e2256a25669b09","study_id":"6197b3f67c2b5cd3b6d9596a","session_id":"6197b88b7f0a7e5365228fd1","condition":"full-information","relevant_dimensions":["pattern","legs"],"bee_group":{"antennae":"X","wings":"X","pattern":"D","legs":"F"},"bonus":0.4400000000000013},{"rt":1357.7000000476837,"stimulus":"bees-with-color/bee-A1DM.svg","response":0,"trial_type":"image-button-response","trial_index":105,"time_elapsed":456774,"internal_node_id":"0.0-4.0-0.49","subject_id":"61087e0903e2256a25669b09","study_id":"6197b3f67c2b5cd3b6d9596a","session_id":"6197b88b7f0a7e5365228fd1","condition":"full-information","relevant_dimensions":["pattern","legs"],"bee_group":{"antennae":"X","wings":"X","pattern":"D","legs":"F"},"action":"harvest","summary":"good-harvest","bonus":0.4400000000000013},{"rt":1265.3999999761581,"stimulus":"\n                    <p><b>Action: <em>harvest</em></b></p>\n                    <p>This is the bee that you just saw.</p>\n                    <img src=\"bees-with-color/bee-A1DM.svg\" width=\"200\">\n                    <p><span class=\"greenText\"><b>Successful harvest!</b></span><br>Your pay has increased by $0.02. Your bonus pay is now $0.56.</p>\n            ","response":0,"trial_type":"html-button-response","trial_index":106,"time_elapsed":458041,"internal_node_id":"0.0-4.0-1.49","subject_id":"61087e0903e2256a25669b09","study_id":"6197b3f67c2b5cd3b6d9596a","session_id":"6197b88b7f0a7e5365228fd1","condition":"full-information","relevant_dimensions":["pattern","legs"],"bee_group":{"antennae":"X","wings":"X","pattern":"D","legs":"F"},"bonus":0.4400000000000013},{"rt":1826.7000000476837,"stimulus":"bees-with-color/bee-B2SM.svg","response":0,"trial_type":"image-button-response","trial_index":107,"time_elapsed":459869,"internal_node_id":"0.0-4.0-0.50","subject_id":"61087e0903e2256a25669b09","study_id":"6197b3f67c2b5cd3b6d9596a","session_id":"6197b88b7f0a7e5365228fd1","condition":"full-information","relevant_dimensions":["pattern","legs"],"bee_group":{"antennae":"X","wings":"X","pattern":"D","legs":"F"},"action":"harvest","summary":"good-harvest","bonus":0.4400000000000013},{"rt":949.8999999761581,"stimulus":"\n                    <p><b>Action: <em>harvest</em></b></p>\n                    <p>This is the bee that you just saw.</p>\n                    <img src=\"bees-with-color/bee-B2SM.svg\" width=\"200\">\n                    <p><span class=\"greenText\"><b>Successful harvest!</b></span><br>Your pay has increased by $0.02. Your bonus pay is now $0.58.</p>\n            ","response":0,"trial_type":"html-button-response","trial_index":108,"time_elapsed":460820,"internal_node_id":"0.0-4.0-1.50","subject_id":"61087e0903e2256a25669b09","study_id":"6197b3f67c2b5cd3b6d9596a","session_id":"6197b88b7f0a7e5365228fd1","condition":"full-information","relevant_dimensions":["pattern","legs"],"bee_group":{"antennae":"X","wings":"X","pattern":"D","legs":"F"},"bonus":0.4400000000000013},{"rt":1400.1000000238419,"stimulus":"bees-with-color/bee-A2SM.svg","response":0,"trial_type":"image-button-response","trial_index":109,"time_elapsed":462222,"internal_node_id":"0.0-4.0-0.51","subject_id":"61087e0903e2256a25669b09","study_id":"6197b3f67c2b5cd3b6d9596a","session_id":"6197b88b7f0a7e5365228fd1","condition":"full-information","relevant_dimensions":["pattern","legs"],"bee_group":{"antennae":"X","wings":"X","pattern":"D","legs":"F"},"action":"harvest","summary":"good-harvest","bonus":0.4400000000000013},{"rt":1184.5,"stimulus":"\n                    <p><b>Action: <em>harvest</em></b></p>\n                    <p>This is the bee that you just saw.</p>\n                    <img src=\"bees-with-color/bee-A2SM.svg\" width=\"200\">\n                    <p><span class=\"greenText\"><b>Successful harvest!</b></span><br>Your pay has increased by $0.02. Your bonus pay is now $0.60.</p>\n            ","response":0,"trial_type":"html-button-response","trial_index":110,"time_elapsed":463408,"internal_node_id":"0.0-4.0-1.51","subject_id":"61087e0903e2256a25669b09","study_id":"6197b3f67c2b5cd3b6d9596a","session_id":"6197b88b7f0a7e5365228fd1","condition":"full-information","relevant_dimensions":["pattern","legs"],"bee_group":{"antennae":"X","wings":"X","pattern":"D","legs":"F"},"bonus":0.4400000000000013},{"rt":1636.2999999523163,"stimulus":"bees-with-color/bee-A1SM.svg","response":0,"trial_type":"image-button-response","trial_index":111,"time_elapsed":465046,"internal_node_id":"0.0-4.0-0.52","subject_id":"61087e0903e2256a25669b09","study_id":"6197b3f67c2b5cd3b6d9596a","session_id":"6197b88b7f0a7e5365228fd1","condition":"full-information","relevant_dimensions":["pattern","legs"],"bee_group":{"antennae":"X","wings":"X","pattern":"D","legs":"F"},"action":"harvest","summary":"good-harvest","bonus":0.4400000000000013},{"rt":1229,"stimulus":"\n                    <p><b>Action: <em>harvest</em></b></p>\n                    <p>This is the bee that you just saw.</p>\n                    <img src=\"bees-with-color/bee-A1SM.svg\" width=\"200\">\n                    <p><span class=\"greenText\"><b>Successful harvest!</b></span><br>Your pay has increased by $0.02. Your bonus pay is now $0.62.</p>\n            ","response":0,"trial_type":"html-button-response","trial_index":112,"time_elapsed":466277,"internal_node_id":"0.0-4.0-1.52","subject_id":"61087e0903e2256a25669b09","study_id":"6197b3f67c2b5cd3b6d9596a","session_id":"6197b88b7f0a7e5365228fd1","condition":"full-information","relevant_dimensions":["pattern","legs"],"bee_group":{"antennae":"X","wings":"X","pattern":"D","legs":"F"},"bonus":0.4400000000000013},{"rt":1685.7999999523163,"stimulus":"bees-with-color/bee-B2SF.svg","response":1,"trial_type":"image-button-response","trial_index":113,"time_elapsed":467964,"internal_node_id":"0.0-4.0-0.53","subject_id":"61087e0903e2256a25669b09","study_id":"6197b3f67c2b5cd3b6d9596a","session_id":"6197b88b7f0a7e5365228fd1","condition":"full-information","relevant_dimensions":["pattern","legs"],"bee_group":{"antennae":"X","wings":"X","pattern":"D","legs":"F"},"action":"avoid","summary":"bad-avoid","bonus":0.4400000000000013},{"rt":1859.7000000476837,"stimulus":"\n                    <p><b>Action: <em>avoid</em></b></p>\n                    <p>This is the bee that you just saw.</p>\n                    <img src=\"bees-with-color/bee-B2SF.svg\" width=\"200\">\n                    <p><span class=\"redText\">Bad choice,</span> the bee was friendly.<br>Your bonus pay is unchanged, and remains at $0.62.</p>\n            ","response":0,"trial_type":"html-button-response","trial_index":114,"time_elapsed":469826,"internal_node_id":"0.0-4.0-1.53","subject_id":"61087e0903e2256a25669b09","study_id":"6197b3f67c2b5cd3b6d9596a","session_id":"6197b88b7f0a7e5365228fd1","condition":"full-information","relevant_dimensions":["pattern","legs"],"bee_group":{"antennae":"X","wings":"X","pattern":"D","legs":"F"},"bonus":0.4400000000000013},{"rt":1762.9000000953674,"stimulus":"bees-with-color/bee-B1SM.svg","response":0,"trial_type":"image-button-response","trial_index":115,"time_elapsed":471591,"internal_node_id":"0.0-4.0-0.54","subject_id":"61087e0903e2256a25669b09","study_id":"6197b3f67c2b5cd3b6d9596a","session_id":"6197b88b7f0a7e5365228fd1","condition":"full-information","relevant_dimensions":["pattern","legs"],"bee_group":{"antennae":"X","wings":"X","pattern":"D","legs":"F"},"action":"harvest","summary":"good-harvest","bonus":0.4400000000000013},{"rt":1151.2999999523163,"stimulus":"\n                    <p><b>Action: <em>harvest</em></b></p>\n                    <p>This is the bee that you just saw.</p>\n                    <img src=\"bees-with-color/bee-B1SM.svg\" width=\"200\">\n                    <p><span class=\"greenText\"><b>Successful harvest!</b></span><br>Your pay has increased by $0.02. Your bonus pay is now $0.64.</p>\n            ","response":0,"trial_type":"html-button-response","trial_index":116,"time_elapsed":472744,"internal_node_id":"0.0-4.0-1.54","subject_id":"61087e0903e2256a25669b09","study_id":"6197b3f67c2b5cd3b6d9596a","session_id":"6197b88b7f0a7e5365228fd1","condition":"full-information","relevant_dimensions":["pattern","legs"],"bee_group":{"antennae":"X","wings":"X","pattern":"D","legs":"F"},"bonus":0.4400000000000013},{"rt":1360.5999999046326,"stimulus":"bees-with-color/bee-A2DF.svg","response":1,"trial_type":"image-button-response","trial_index":117,"time_elapsed":474106,"internal_node_id":"0.0-4.0-0.55","subject_id":"61087e0903e2256a25669b09","study_id":"6197b3f67c2b5cd3b6d9596a","session_id":"6197b88b7f0a7e5365228fd1","condition":"full-information","relevant_dimensions":["pattern","legs"],"bee_group":{"antennae":"X","wings":"X","pattern":"D","legs":"F"},"action":"avoid","summary":"good-avoid","bonus":0.4400000000000013},{"rt":1447.8999999761581,"stimulus":"\n                    <p><b>Action: <em>avoid</em></b></p>\n                    <p>This is the bee that you just saw.</p>\n                    <img src=\"bees-with-color/bee-A2DF.svg\" width=\"200\">\n                    <p><span class=\"greenText\">Good choice!</span>  This bee would have stung you.<br>Your bonus pay is unchanged, and remains at $0.64.</p>\n            ","response":0,"trial_type":"html-button-response","trial_index":118,"time_elapsed":475556,"internal_node_id":"0.0-4.0-1.55","subject_id":"61087e0903e2256a25669b09","study_id":"6197b3f67c2b5cd3b6d9596a","session_id":"6197b88b7f0a7e5365228fd1","condition":"full-information","relevant_dimensions":["pattern","legs"],"bee_group":{"antennae":"X","wings":"X","pattern":"D","legs":"F"},"bonus":0.4400000000000013},{"rt":1822.5,"stimulus":"bees-with-color/bee-A1SF.svg","response":0,"trial_type":"image-button-response","trial_index":119,"time_elapsed":477380,"internal_node_id":"0.0-4.0-0.56","subject_id":"61087e0903e2256a25669b09","study_id":"6197b3f67c2b5cd3b6d9596a","session_id":"6197b88b7f0a7e5365228fd1","condition":"full-information","relevant_dimensions":["pattern","legs"],"bee_group":{"antennae":"X","wings":"X","pattern":"D","legs":"F"},"action":"harvest","summary":"good-harvest","bonus":0.4400000000000013},{"rt":1622.3000000715256,"stimulus":"\n                    <p><b>Action: <em>harvest</em></b></p>\n                    <p>This is the bee that you just saw.</p>\n                    <img src=\"bees-with-color/bee-A1SF.svg\" width=\"200\">\n                    <p><span class=\"greenText\"><b>Successful harvest!</b></span><br>Your pay has increased by $0.02. Your bonus pay is now $0.66.</p>\n            ","response":0,"trial_type":"html-button-response","trial_index":120,"time_elapsed":479005,"internal_node_id":"0.0-4.0-1.56","subject_id":"61087e0903e2256a25669b09","study_id":"6197b3f67c2b5cd3b6d9596a","session_id":"6197b88b7f0a7e5365228fd1","condition":"full-information","relevant_dimensions":["pattern","legs"],"bee_group":{"antennae":"X","wings":"X","pattern":"D","legs":"F"},"bonus":0.4400000000000013},{"rt":2217.1999999284744,"stimulus":"bees-with-color/bee-B1SF.svg","response":1,"trial_type":"image-button-response","trial_index":121,"time_elapsed":481223,"internal_node_id":"0.0-4.0-0.57","subject_id":"61087e0903e2256a25669b09","study_id":"6197b3f67c2b5cd3b6d9596a","session_id":"6197b88b7f0a7e5365228fd1","condition":"full-information","relevant_dimensions":["pattern","legs"],"bee_group":{"antennae":"X","wings":"X","pattern":"D","legs":"F"},"action":"avoid","summary":"bad-avoid","bonus":0.4400000000000013},{"rt":1046.1000000238419,"stimulus":"\n                    <p><b>Action: <em>avoid</em></b></p>\n                    <p>This is the bee that you just saw.</p>\n                    <img src=\"bees-with-color/bee-B1SF.svg\" width=\"200\">\n                    <p><span class=\"redText\">Bad choice,</span> the bee was friendly.<br>Your bonus pay is unchanged, and remains at $0.66.</p>\n            ","response":0,"trial_type":"html-button-response","trial_index":122,"time_elapsed":482271,"internal_node_id":"0.0-4.0-1.57","subject_id":"61087e0903e2256a25669b09","study_id":"6197b3f67c2b5cd3b6d9596a","session_id":"6197b88b7f0a7e5365228fd1","condition":"full-information","relevant_dimensions":["pattern","legs"],"bee_group":{"antennae":"X","wings":"X","pattern":"D","legs":"F"},"bonus":0.4400000000000013},{"rt":1779.3999999761581,"stimulus":"bees-with-color/bee-B2DM.svg","response":0,"trial_type":"image-button-response","trial_index":123,"time_elapsed":484053,"internal_node_id":"0.0-4.0-0.58","subject_id":"61087e0903e2256a25669b09","study_id":"6197b3f67c2b5cd3b6d9596a","session_id":"6197b88b7f0a7e5365228fd1","condition":"full-information","relevant_dimensions":["pattern","legs"],"bee_group":{"antennae":"X","wings":"X","pattern":"D","legs":"F"},"action":"harvest","summary":"good-harvest","bonus":0.4400000000000013},{"rt":1227.1000000238419,"stimulus":"\n                    <p><b>Action: <em>harvest</em></b></p>\n                    <p>This is the bee that you just saw.</p>\n                    <img src=\"bees-with-color/bee-B2DM.svg\" width=\"200\">\n                    <p><span class=\"greenText\"><b>Successful harvest!</b></span><br>Your pay has increased by $0.02. Your bonus pay is now $0.68.</p>\n            ","response":0,"trial_type":"html-button-response","trial_index":124,"time_elapsed":485282,"internal_node_id":"0.0-4.0-1.58","subject_id":"61087e0903e2256a25669b09","study_id":"6197b3f67c2b5cd3b6d9596a","session_id":"6197b88b7f0a7e5365228fd1","condition":"full-information","relevant_dimensions":["pattern","legs"],"bee_group":{"antennae":"X","wings":"X","pattern":"D","legs":"F"},"bonus":0.4400000000000013},{"rt":1683.2999999523163,"stimulus":"bees-with-color/bee-A2DM.svg","response":0,"trial_type":"image-button-response","trial_index":125,"time_elapsed":486967,"internal_node_id":"0.0-4.0-0.59","subject_id":"61087e0903e2256a25669b09","study_id":"6197b3f67c2b5cd3b6d9596a","session_id":"6197b88b7f0a7e5365228fd1","condition":"full-information","relevant_dimensions":["pattern","legs"],"bee_group":{"antennae":"X","wings":"X","pattern":"D","legs":"F"},"action":"harvest","summary":"good-harvest","bonus":0.4400000000000013},{"rt":1197.3999999761581,"stimulus":"\n                    <p><b>Action: <em>harvest</em></b></p>\n                    <p>This is the bee that you just saw.</p>\n                    <img src=\"bees-with-color/bee-A2DM.svg\" width=\"200\">\n                    <p><span class=\"greenText\"><b>Successful harvest!</b></span><br>Your pay has increased by $0.02. Your bonus pay is now $0.70.</p>\n            ","response":0,"trial_type":"html-button-response","trial_index":126,"time_elapsed":488167,"internal_node_id":"0.0-4.0-1.59","subject_id":"61087e0903e2256a25669b09","study_id":"6197b3f67c2b5cd3b6d9596a","session_id":"6197b88b7f0a7e5365228fd1","condition":"full-information","relevant_dimensions":["pattern","legs"],"bee_group":{"antennae":"X","wings":"X","pattern":"D","legs":"F"},"bonus":0.4400000000000013},{"rt":2118.100000023842,"stimulus":"bees-with-color/bee-B2DF.svg","response":1,"trial_type":"image-button-response","trial_index":127,"time_elapsed":490287,"internal_node_id":"0.0-4.0-0.60","subject_id":"61087e0903e2256a25669b09","study_id":"6197b3f67c2b5cd3b6d9596a","session_id":"6197b88b7f0a7e5365228fd1","condition":"full-information","relevant_dimensions":["pattern","legs"],"bee_group":{"antennae":"X","wings":"X","pattern":"D","legs":"F"},"action":"avoid","summary":"good-avoid","bonus":0.4400000000000013},{"rt":1107.6999999284744,"stimulus":"\n                    <p><b>Action: <em>avoid</em></b></p>\n                    <p>This is the bee that you just saw.</p>\n                    <img src=\"bees-with-color/bee-B2DF.svg\" width=\"200\">\n                    <p><span class=\"greenText\">Good choice!</span>  This bee would have stung you.<br>Your bonus pay is unchanged, and remains at $0.70.</p>\n            ","response":0,"trial_type":"html-button-response","trial_index":128,"time_elapsed":491396,"internal_node_id":"0.0-4.0-1.60","subject_id":"61087e0903e2256a25669b09","study_id":"6197b3f67c2b5cd3b6d9596a","session_id":"6197b88b7f0a7e5365228fd1","condition":"full-information","relevant_dimensions":["pattern","legs"],"bee_group":{"antennae":"X","wings":"X","pattern":"D","legs":"F"},"bonus":0.4400000000000013},{"rt":1414.1999999284744,"stimulus":"bees-with-color/bee-B1DM.svg","response":0,"trial_type":"image-button-response","trial_index":129,"time_elapsed":492813,"internal_node_id":"0.0-4.0-0.61","subject_id":"61087e0903e2256a25669b09","study_id":"6197b3f67c2b5cd3b6d9596a","session_id":"6197b88b7f0a7e5365228fd1","condition":"full-information","relevant_dimensions":["pattern","legs"],"bee_group":{"antennae":"X","wings":"X","pattern":"D","legs":"F"},"action":"harvest","summary":"good-harvest","bonus":0.4400000000000013},{"rt":1258.1999999284744,"stimulus":"\n                    <p><b>Action: <em>harvest</em></b></p>\n                    <p>This is the bee that you just saw.</p>\n                    <img src=\"bees-with-color/bee-B1DM.svg\" width=\"200\">\n                    <p><span class=\"greenText\"><b>Successful harvest!</b></span><br>Your pay has increased by $0.02. Your bonus pay is now $0.72.</p>\n            ","response":0,"trial_type":"html-button-response","trial_index":130,"time_elapsed":494073,"internal_node_id":"0.0-4.0-1.61","subject_id":"61087e0903e2256a25669b09","study_id":"6197b3f67c2b5cd3b6d9596a","session_id":"6197b88b7f0a7e5365228fd1","condition":"full-information","relevant_dimensions":["pattern","legs"],"bee_group":{"antennae":"X","wings":"X","pattern":"D","legs":"F"},"bonus":0.4400000000000013},{"rt":1708,"stimulus":"bees-with-color/bee-B1DF.svg","response":0,"trial_type":"image-button-response","trial_index":131,"time_elapsed":495783,"internal_node_id":"0.0-4.0-0.62","subject_id":"61087e0903e2256a25669b09","study_id":"6197b3f67c2b5cd3b6d9596a","session_id":"6197b88b7f0a7e5365228fd1","condition":"full-information","relevant_dimensions":["pattern","legs"],"bee_group":{"antennae":"X","wings":"X","pattern":"D","legs":"F"},"action":"harvest","summary":"bad-harvest","bonus":0.4400000000000013},{"rt":1198.6999999284744,"stimulus":"\n                    <p><b>Action: <em>harvest</em></b></p>\n                    <p>This is the bee that you just saw.</p>\n                    <img src=\"bees-with-color/bee-B1DF.svg\" width=\"200\">\n                    <p><span class=\"redText\">Bad choice, the bee was angry.</span><br><b>You have been stung!</b><br>Your pay has been decreased by $0.10. Your bonus pay is now $0.62.</p>\n            ","response":0,"trial_type":"html-button-response","trial_index":132,"time_elapsed":496984,"internal_node_id":"0.0-4.0-1.62","subject_id":"61087e0903e2256a25669b09","study_id":"6197b3f67c2b5cd3b6d9596a","session_id":"6197b88b7f0a7e5365228fd1","condition":"full-information","relevant_dimensions":["pattern","legs"],"bee_group":{"antennae":"X","wings":"X","pattern":"D","legs":"F"},"bonus":0.4400000000000013},{"rt":2480.5,"stimulus":"bees-with-color/bee-A2SF.svg","response":1,"trial_type":"image-button-response","trial_index":133,"time_elapsed":499466,"internal_node_id":"0.0-4.0-0.63","subject_id":"61087e0903e2256a25669b09","study_id":"6197b3f67c2b5cd3b6d9596a","session_id":"6197b88b7f0a7e5365228fd1","condition":"full-information","relevant_dimensions":["pattern","legs"],"bee_group":{"antennae":"X","wings":"X","pattern":"D","legs":"F"},"action":"avoid","summary":"bad-avoid","bonus":0.4400000000000013},{"rt":2233.7000000476837,"stimulus":"\n                    <p><b>Action: <em>avoid</em></b></p>\n                    <p>This is the bee that you just saw.</p>\n                    <img src=\"bees-with-color/bee-A2SF.svg\" width=\"200\">\n                    <p><span class=\"redText\">Bad choice,</span> the bee was friendly.<br>Your bonus pay is unchanged, and remains at $0.62.</p>\n            ","response":0,"trial_type":"html-button-response","trial_index":134,"time_elapsed":501702,"internal_node_id":"0.0-4.0-1.63","subject_id":"61087e0903e2256a25669b09","study_id":"6197b3f67c2b5cd3b6d9596a","session_id":"6197b88b7f0a7e5365228fd1","condition":"full-information","relevant_dimensions":["pattern","legs"],"bee_group":{"antennae":"X","wings":"X","pattern":"D","legs":"F"},"bonus":0.4400000000000013},{"rt":4453.100000023842,"stimulus":"You have completed the first part of this experiment.<br><br>You will now begin a shorter second part, in which you will receive no feedback.<br>The same rules regarding bonus pay apply.<br><br>Press any key to begin.","response":" ","trial_type":"html-keyboard-response","trial_index":135,"time_elapsed":506157,"internal_node_id":"0.0-5.0","subject_id":"61087e0903e2256a25669b09","study_id":"6197b3f67c2b5cd3b6d9596a","session_id":"6197b88b7f0a7e5365228fd1","condition":"full-information","relevant_dimensions":["pattern","legs"],"bee_group":{"antennae":"X","wings":"X","pattern":"D","legs":"F"},"bonus":0.4400000000000013},{"rt":3292.0999999046326,"stimulus":"bees-with-color/bee-B1SF.svg","response":0,"trial_type":"image-button-response","trial_index":136,"time_elapsed":509480,"internal_node_id":"0.0-6.0-0.0","subject_id":"61087e0903e2256a25669b09","study_id":"6197b3f67c2b5cd3b6d9596a","session_id":"6197b88b7f0a7e5365228fd1","condition":"full-information","relevant_dimensions":["pattern","legs"],"bee_group":{"antennae":"X","wings":"X","pattern":"D","legs":"F"},"bonus":0.4400000000000013},{"rt":4738.300000071526,"stimulus":"bees-with-color/bee-B2DM.svg","response":0,"trial_type":"image-button-response","trial_index":137,"time_elapsed":514221,"internal_node_id":"0.0-6.0-0.1","subject_id":"61087e0903e2256a25669b09","study_id":"6197b3f67c2b5cd3b6d9596a","session_id":"6197b88b7f0a7e5365228fd1","condition":"full-information","relevant_dimensions":["pattern","legs"],"bee_group":{"antennae":"X","wings":"X","pattern":"D","legs":"F"},"bonus":0.4400000000000013},{"rt":1196.8999999761581,"stimulus":"bees-with-color/bee-A2SM.svg","response":0,"trial_type":"image-button-response","trial_index":138,"time_elapsed":515421,"internal_node_id":"0.0-6.0-0.2","subject_id":"61087e0903e2256a25669b09","study_id":"6197b3f67c2b5cd3b6d9596a","session_id":"6197b88b7f0a7e5365228fd1","condition":"full-information","relevant_dimensions":["pattern","legs"],"bee_group":{"antennae":"X","wings":"X","pattern":"D","legs":"F"},"bonus":0.4400000000000013},{"rt":2008.6999999284744,"stimulus":"bees-with-color/bee-A1DM.svg","response":0,"trial_type":"image-button-response","trial_index":139,"time_elapsed":517433,"internal_node_id":"0.0-6.0-0.3","subject_id":"61087e0903e2256a25669b09","study_id":"6197b3f67c2b5cd3b6d9596a","session_id":"6197b88b7f0a7e5365228fd1","condition":"full-information","relevant_dimensions":["pattern","legs"],"bee_group":{"antennae":"X","wings":"X","pattern":"D","legs":"F"},"bonus":0.4400000000000013},{"rt":2428.100000023842,"stimulus":"bees-with-color/bee-A2DF.svg","response":0,"trial_type":"image-button-response","trial_index":140,"time_elapsed":519863,"internal_node_id":"0.0-6.0-0.4","subject_id":"61087e0903e2256a25669b09","study_id":"6197b3f67c2b5cd3b6d9596a","session_id":"6197b88b7f0a7e5365228fd1","condition":"full-information","relevant_dimensions":["pattern","legs"],"bee_group":{"antennae":"X","wings":"X","pattern":"D","legs":"F"},"bonus":0.4400000000000013},{"rt":961.5,"stimulus":"bees-with-color/bee-B2DF.svg","response":1,"trial_type":"image-button-response","trial_index":141,"time_elapsed":520827,"internal_node_id":"0.0-6.0-0.5","subject_id":"61087e0903e2256a25669b09","study_id":"6197b3f67c2b5cd3b6d9596a","session_id":"6197b88b7f0a7e5365228fd1","condition":"full-information","relevant_dimensions":["pattern","legs"],"bee_group":{"antennae":"X","wings":"X","pattern":"D","legs":"F"},"bonus":0.4400000000000013},{"rt":3063.100000023842,"stimulus":"bees-with-color/bee-A2SF.svg","response":1,"trial_type":"image-button-response","trial_index":142,"time_elapsed":523893,"internal_node_id":"0.0-6.0-0.6","subject_id":"61087e0903e2256a25669b09","study_id":"6197b3f67c2b5cd3b6d9596a","session_id":"6197b88b7f0a7e5365228fd1","condition":"full-information","relevant_dimensions":["pattern","legs"],"bee_group":{"antennae":"X","wings":"X","pattern":"D","legs":"F"},"bonus":0.4400000000000013},{"rt":1807.3000000715256,"stimulus":"bees-with-color/bee-B2SF.svg","response":0,"trial_type":"image-button-response","trial_index":143,"time_elapsed":525702,"internal_node_id":"0.0-6.0-0.7","subject_id":"61087e0903e2256a25669b09","study_id":"6197b3f67c2b5cd3b6d9596a","session_id":"6197b88b7f0a7e5365228fd1","condition":"full-information","relevant_dimensions":["pattern","legs"],"bee_group":{"antennae":"X","wings":"X","pattern":"D","legs":"F"},"bonus":0.4400000000000013},{"rt":1123.7999999523163,"stimulus":"bees-with-color/bee-A1DF.svg","response":0,"trial_type":"image-button-response","trial_index":144,"time_elapsed":526829,"internal_node_id":"0.0-6.0-0.8","subject_id":"61087e0903e2256a25669b09","study_id":"6197b3f67c2b5cd3b6d9596a","session_id":"6197b88b7f0a7e5365228fd1","condition":"full-information","relevant_dimensions":["pattern","legs"],"bee_group":{"antennae":"X","wings":"X","pattern":"D","legs":"F"},"bonus":0.4400000000000013},{"rt":872.8000000715256,"stimulus":"bees-with-color/bee-B1DF.svg","response":0,"trial_type":"image-button-response","trial_index":145,"time_elapsed":527704,"internal_node_id":"0.0-6.0-0.9","subject_id":"61087e0903e2256a25669b09","study_id":"6197b3f67c2b5cd3b6d9596a","session_id":"6197b88b7f0a7e5365228fd1","condition":"full-information","relevant_dimensions":["pattern","legs"],"bee_group":{"antennae":"X","wings":"X","pattern":"D","legs":"F"},"bonus":0.4400000000000013},{"rt":1136.7999999523163,"stimulus":"bees-with-color/bee-B1DM.svg","response":0,"trial_type":"image-button-response","trial_index":146,"time_elapsed":528843,"internal_node_id":"0.0-6.0-0.10","subject_id":"61087e0903e2256a25669b09","study_id":"6197b3f67c2b5cd3b6d9596a","session_id":"6197b88b7f0a7e5365228fd1","condition":"full-information","relevant_dimensions":["pattern","legs"],"bee_group":{"antennae":"X","wings":"X","pattern":"D","legs":"F"},"bonus":0.4400000000000013},{"rt":1099,"stimulus":"bees-with-color/bee-A1SF.svg","response":0,"trial_type":"image-button-response","trial_index":147,"time_elapsed":529948,"internal_node_id":"0.0-6.0-0.11","subject_id":"61087e0903e2256a25669b09","study_id":"6197b3f67c2b5cd3b6d9596a","session_id":"6197b88b7f0a7e5365228fd1","condition":"full-information","relevant_dimensions":["pattern","legs"],"bee_group":{"antennae":"X","wings":"X","pattern":"D","legs":"F"},"bonus":0.4400000000000013},{"rt":2108.6999999284744,"stimulus":"bees-with-color/bee-A2DM.svg","response":0,"trial_type":"image-button-response","trial_index":148,"time_elapsed":532059,"internal_node_id":"0.0-6.0-0.12","subject_id":"61087e0903e2256a25669b09","study_id":"6197b3f67c2b5cd3b6d9596a","session_id":"6197b88b7f0a7e5365228fd1","condition":"full-information","relevant_dimensions":["pattern","legs"],"bee_group":{"antennae":"X","wings":"X","pattern":"D","legs":"F"},"bonus":0.4400000000000013},{"rt":1183.5,"stimulus":"bees-with-color/bee-B2SM.svg","response":0,"trial_type":"image-button-response","trial_index":149,"time_elapsed":533245,"internal_node_id":"0.0-6.0-0.13","subject_id":"61087e0903e2256a25669b09","study_id":"6197b3f67c2b5cd3b6d9596a","session_id":"6197b88b7f0a7e5365228fd1","condition":"full-information","relevant_dimensions":["pattern","legs"],"bee_group":{"antennae":"X","wings":"X","pattern":"D","legs":"F"},"bonus":0.4400000000000013},{"rt":1169.5,"stimulus":"bees-with-color/bee-A1SM.svg","response":0,"trial_type":"image-button-response","trial_index":150,"time_elapsed":534416,"internal_node_id":"0.0-6.0-0.14","subject_id":"61087e0903e2256a25669b09","study_id":"6197b3f67c2b5cd3b6d9596a","session_id":"6197b88b7f0a7e5365228fd1","condition":"full-information","relevant_dimensions":["pattern","legs"],"bee_group":{"antennae":"X","wings":"X","pattern":"D","legs":"F"},"bonus":0.4400000000000013},{"rt":979.3000000715256,"stimulus":"bees-with-color/bee-B1SM.svg","response":0,"trial_type":"image-button-response","trial_index":151,"time_elapsed":535398,"internal_node_id":"0.0-6.0-0.15","subject_id":"61087e0903e2256a25669b09","study_id":"6197b3f67c2b5cd3b6d9596a","session_id":"6197b88b7f0a7e5365228fd1","condition":"full-information","relevant_dimensions":["pattern","legs"],"bee_group":{"antennae":"X","wings":"X","pattern":"D","legs":"F"},"bonus":0.4400000000000013},{"rt":3164,"stimulus":"bees-with-color/bee-A2DF.svg","response":0,"trial_type":"image-button-response","trial_index":152,"time_elapsed":538563,"internal_node_id":"0.0-6.0-0.16","subject_id":"61087e0903e2256a25669b09","study_id":"6197b3f67c2b5cd3b6d9596a","session_id":"6197b88b7f0a7e5365228fd1","condition":"full-information","relevant_dimensions":["pattern","legs"],"bee_group":{"antennae":"X","wings":"X","pattern":"D","legs":"F"},"bonus":0.4400000000000013},{"rt":1059.2999999523163,"stimulus":"bees-with-color/bee-A2DM.svg","response":0,"trial_type":"image-button-response","trial_index":153,"time_elapsed":539625,"internal_node_id":"0.0-6.0-0.17","subject_id":"61087e0903e2256a25669b09","study_id":"6197b3f67c2b5cd3b6d9596a","session_id":"6197b88b7f0a7e5365228fd1","condition":"full-information","relevant_dimensions":["pattern","legs"],"bee_group":{"antennae":"X","wings":"X","pattern":"D","legs":"F"},"bonus":0.4400000000000013},{"rt":1180.2999999523163,"stimulus":"bees-with-color/bee-B2DM.svg","response":0,"trial_type":"image-button-response","trial_index":154,"time_elapsed":540807,"internal_node_id":"0.0-6.0-0.18","subject_id":"61087e0903e2256a25669b09","study_id":"6197b3f67c2b5cd3b6d9596a","session_id":"6197b88b7f0a7e5365228fd1","condition":"full-information","relevant_dimensions":["pattern","legs"],"bee_group":{"antennae":"X","wings":"X","pattern":"D","legs":"F"},"bonus":0.4400000000000013},{"rt":981.8999999761581,"stimulus":"bees-with-color/bee-A1SF.svg","response":0,"trial_type":"image-button-response","trial_index":155,"time_elapsed":541791,"internal_node_id":"0.0-6.0-0.19","subject_id":"61087e0903e2256a25669b09","study_id":"6197b3f67c2b5cd3b6d9596a","session_id":"6197b88b7f0a7e5365228fd1","condition":"full-information","relevant_dimensions":["pattern","legs"],"bee_group":{"antennae":"X","wings":"X","pattern":"D","legs":"F"},"bonus":0.4400000000000013},{"rt":794.1999999284744,"stimulus":"bees-with-color/bee-A2SM.svg","response":0,"trial_type":"image-button-response","trial_index":156,"time_elapsed":542587,"internal_node_id":"0.0-6.0-0.20","subject_id":"61087e0903e2256a25669b09","study_id":"6197b3f67c2b5cd3b6d9596a","session_id":"6197b88b7f0a7e5365228fd1","condition":"full-information","relevant_dimensions":["pattern","legs"],"bee_group":{"antennae":"X","wings":"X","pattern":"D","legs":"F"},"bonus":0.4400000000000013},{"rt":1559.1000000238419,"stimulus":"bees-with-color/bee-B2SF.svg","response":1,"trial_type":"image-button-response","trial_index":157,"time_elapsed":544147,"internal_node_id":"0.0-6.0-0.21","subject_id":"61087e0903e2256a25669b09","study_id":"6197b3f67c2b5cd3b6d9596a","session_id":"6197b88b7f0a7e5365228fd1","c