[{"success":true,"trial_type":"fullscreen","trial_index":0,"time_elapsed":16677,"internal_node_id":"0.0-0.0","subject_id":"615cc4ecf52463a34a7fd34a","study_id":"60edd13110225f80f9f3709b","session_id":"6196c1f654326fec89cc3122","condition":"full-information","relevant_dimensions":["wings","legs"],"bee_group":{"antennae":"X","wings":"2","pattern":"X","legs":"F"},"bonus":1.300000000000001},{"success":true,"timeout":false,"failed_images":[],"failed_audio":[],"failed_video":[],"trial_type":"preload","trial_index":1,"time_elapsed":18216,"internal_node_id":"0.0-1.0","subject_id":"615cc4ecf52463a34a7fd34a","study_id":"60edd13110225f80f9f3709b","session_id":"6196c1f654326fec89cc3122","condition":"full-information","relevant_dimensions":["wings","legs"],"bee_group":{"antennae":"X","wings":"2","pattern":"X","legs":"F"},"bonus":1.300000000000001},{"rt":1937.5,"stimulus":"Welcome! Press any key to begin.","response":"h","trial_type":"html-keyboard-response","trial_index":2,"time_elapsed":20155,"internal_node_id":"0.0-2.0","subject_id":"615cc4ecf52463a34a7fd34a","study_id":"60edd13110225f80f9f3709b","session_id":"6196c1f654326fec89cc3122","condition":"full-information","relevant_dimensions":["wings","legs"],"bee_group":{"antennae":"X","wings":"2","pattern":"X","legs":"F"},"bonus":1.300000000000001},{"view_history":[{"page_index":0,"viewing_time":4737},{"page_index":1,"viewing_time":12929.59999999404},{"page_index":2,"viewing_time":9991.699999988079},{"page_index":3,"viewing_time":13016},{"page_index":4,"viewing_time":10994.300000011921},{"page_index":5,"viewing_time":5749.4000000059605},{"page_index":6,"viewing_time":8004.5},{"page_index":7,"viewing_time":3814.9000000059605},{"page_index":8,"viewing_time":3043.2999999821186},{"page_index":9,"viewing_time":2068.0999999940395},{"page_index":10,"viewing_time":1679.7000000178814},{"page_index":11,"viewing_time":9858.699999988079},{"page_index":12,"viewing_time":6681.200000017881},{"page_index":13,"viewing_time":1410.2999999821186},{"page_index":14,"viewing_time":2216}],"rt":96195.09999999404,"trial_type":"instructions","trial_index":3,"time_elapsed":116351,"internal_node_id":"0.0-3.0-0.0","subject_id":"615cc4ecf52463a34a7fd34a","study_id":"60edd13110225f80f9f3709b","session_id":"6196c1f654326fec89cc3122","condition":"full-information","relevant_dimensions":["wings","legs"],"bee_group":{"antennae":"X","wings":"2","pattern":"X","legs":"F"},"bonus":1.300000000000001},{"rt":17849.40000000596,"response":{"Q0":["Two or six legs","Stripes or spots on body","Single or double wings","Antennae or no antennae"]},"question_order":[0],"trial_type":"survey-multi-select","trial_index":4,"time_elapsed":134205,"internal_node_id":"0.0-3.0-1.0","subject_id":"615cc4ecf52463a34a7fd34a","study_id":"60edd13110225f80f9f3709b","session_id":"6196c1f654326fec89cc3122","condition":"full-information","relevant_dimensions":["wings","legs"],"bee_group":{"antennae":"X","wings":"2","pattern":"X","legs":"F"},"correct":true,"bonus":1.300000000000001},{"rt":18845.09999999404,"response":{"Q1":"No.","Q2":"Based on the four features of the bee.","Q3":"You learn if it was friendly or dangerous, but do not alter your bonus."},"question_order":[0,1,2],"trial_type":"survey-multi-choice","trial_index":5,"time_elapsed":153053,"internal_node_id":"0.0-3.0-2.0","subject_id":"615cc4ecf52463a34a7fd34a","study_id":"60edd13110225f80f9f3709b","session_id":"6196c1f654326fec89cc3122","condition":"full-information","relevant_dimensions":["wings","legs"],"bee_group":{"antennae":"X","wings":"2","pattern":"X","legs":"F"},"correct":true,"bonus":1.300000000000001},{"rt":2247.300000011921,"stimulus":"<p>Congrats, you got everything right<br>When you're ready, click the button below to continue to the experiment.</p>","response":0,"trial_type":"html-button-response","trial_index":6,"time_elapsed":155303,"internal_node_id":"0.0-3.0-3.0","subject_id":"615cc4ecf52463a34a7fd34a","study_id":"60edd13110225f80f9f3709b","session_id":"6196c1f654326fec89cc3122","condition":"full-information","relevant_dimensions":["wings","legs"],"bee_group":{"antennae":"X","wings":"2","pattern":"X","legs":"F"},"bonus":1.300000000000001},{"rt":4519,"stimulus":"bees-with-color/bee-A2DM.svg","response":0,"trial_type":"image-button-response","trial_index":7,"time_elapsed":159825,"internal_node_id":"0.0-4.0-0.0","subject_id":"615cc4ecf52463a34a7fd34a","study_id":"60edd13110225f80f9f3709b","session_id":"6196c1f654326fec89cc3122","condition":"full-information","relevant_dimensions":["wings","legs"],"bee_group":{"antennae":"X","wings":"2","pattern":"X","legs":"F"},"action":"harvest","summary":"good-harvest","bonus":1.300000000000001},{"rt":4790.899999976158,"stimulus":"\n                    <p><b>Action: <em>harvest</em></b></p>\n                    <p>This is the bee that you just saw.</p>\n                    <img src=\"bees-with-color/bee-A2DM.svg\" width=\"200\">\n                    <p><span class=\"greenText\"><b>Successful harvest!</b></span><br>Your pay has increased by $0.02. Your bonus pay is now $0.56.</p>\n            ","response":0,"trial_type":"html-button-response","trial_index":8,"time_elapsed":164620,"internal_node_id":"0.0-4.0-1.0","subject_id":"615cc4ecf52463a34a7fd34a","study_id":"60edd13110225f80f9f3709b","session_id":"6196c1f654326fec89cc3122","condition":"full-information","relevant_dimensions":["wings","legs"],"bee_group":{"antennae":"X","wings":"2","pattern":"X","legs":"F"},"bonus":1.300000000000001},{"rt":1773.5999999940395,"stimulus":"bees-with-color/bee-B1DM.svg","response":0,"trial_type":"image-button-response","trial_index":9,"time_elapsed":166396,"internal_node_id":"0.0-4.0-0.1","subject_id":"615cc4ecf52463a34a7fd34a","study_id":"60edd13110225f80f9f3709b","session_id":"6196c1f654326fec89cc3122","condition":"full-information","relevant_dimensions":["wings","legs"],"bee_group":{"antennae":"X","wings":"2","pattern":"X","legs":"F"},"action":"harvest","summary":"good-harvest","bonus":1.300000000000001},{"rt":4149.5,"stimulus":"\n                    <p><b>Action: <em>harvest</em></b></p>\n                    <p>This is the bee that you just saw.</p>\n                    <img src=\"bees-with-color/bee-B1DM.svg\" width=\"200\">\n                    <p><span class=\"greenText\"><b>Successful harvest!</b></span><br>Your pay has increased by $0.02. Your bonus pay is now $0.58.</p>\n            ","response":0,"trial_type":"html-button-response","trial_index":10,"time_elapsed":170548,"internal_node_id":"0.0-4.0-1.1","subject_id":"615cc4ecf52463a34a7fd34a","study_id":"60edd13110225f80f9f3709b","session_id":"6196c1f654326fec89cc3122","condition":"full-information","relevant_dimensions":["wings","legs"],"bee_group":{"antennae":"X","wings":"2","pattern":"X","legs":"F"},"bonus":1.300000000000001},{"rt":2044.5,"stimulus":"bees-with-color/bee-B1SM.svg","response":1,"trial_type":"image-button-response","trial_index":11,"time_elapsed":172596,"internal_node_id":"0.0-4.0-0.2","subject_id":"615cc4ecf52463a34a7fd34a","study_id":"60edd13110225f80f9f3709b","session_id":"6196c1f654326fec89cc3122","condition":"full-information","relevant_dimensions":["wings","legs"],"bee_group":{"antennae":"X","wings":"2","pattern":"X","legs":"F"},"action":"avoid","summary":"bad-avoid","bonus":1.300000000000001},{"rt":4446,"stimulus":"\n                    <p><b>Action: <em>avoid</em></b></p>\n                    <p>This is the bee that you just saw.</p>\n                    <img src=\"bees-with-color/bee-B1SM.svg\" width=\"200\">\n                    <p><span class=\"redText\">Bad choice,</span> the bee was friendly.<br>Your bonus pay is unchanged, and remains at $0.58.</p>\n            ","response":0,"trial_type":"html-button-response","trial_index":12,"time_elapsed":177044,"internal_node_id":"0.0-4.0-1.2","subject_id":"615cc4ecf52463a34a7fd34a","study_id":"60edd13110225f80f9f3709b","session_id":"6196c1f654326fec89cc3122","condition":"full-information","relevant_dimensions":["wings","legs"],"bee_group":{"antennae":"X","wings":"2","pattern":"X","legs":"F"},"bonus":1.300000000000001},{"rt":1830.699999988079,"stimulus":"bees-with-color/bee-A1DM.svg","response":0,"trial_type":"image-button-response","trial_index":13,"time_elapsed":178878,"internal_node_id":"0.0-4.0-0.3","subject_id":"615cc4ecf52463a34a7fd34a","study_id":"60edd13110225f80f9f3709b","session_id":"6196c1f654326fec89cc3122","condition":"full-information","relevant_dimensions":["wings","legs"],"bee_group":{"antennae":"X","wings":"2","pattern":"X","legs":"F"},"action":"harvest","summary":"good-harvest","bonus":1.300000000000001},{"rt":1736.8999999761581,"stimulus":"\n                    <p><b>Action: <em>harvest</em></b></p>\n                    <p>This is the bee that you just saw.</p>\n                    <img src=\"bees-with-color/bee-A1DM.svg\" width=\"200\">\n                    <p><span class=\"greenText\"><b>Successful harvest!</b></span><br>Your pay has increased by $0.02. Your bonus pay is now $0.60.</p>\n            ","response":0,"trial_type":"html-button-response","trial_index":14,"time_elapsed":180617,"internal_node_id":"0.0-4.0-1.3","subject_id":"615cc4ecf52463a34a7fd34a","study_id":"60edd13110225f80f9f3709b","session_id":"6196c1f654326fec89cc3122","condition":"full-information","relevant_dimensions":["wings","legs"],"bee_group":{"antennae":"X","wings":"2","pattern":"X","legs":"F"},"bonus":1.300000000000001},{"rt":2329.199999988079,"stimulus":"bees-with-color/bee-A1SM.svg","response":0,"trial_type":"image-button-response","trial_index":15,"time_elapsed":182949,"internal_node_id":"0.0-4.0-0.4","subject_id":"615cc4ecf52463a34a7fd34a","study_id":"60edd13110225f80f9f3709b","session_id":"6196c1f654326fec89cc3122","condition":"full-information","relevant_dimensions":["wings","legs"],"bee_group":{"antennae":"X","wings":"2","pattern":"X","legs":"F"},"action":"harvest","summary":"good-harvest","bonus":1.300000000000001},{"rt":1664.9000000059605,"stimulus":"\n                    <p><b>Action: <em>harvest</em></b></p>\n                    <p>This is the bee that you just saw.</p>\n                    <img src=\"bees-with-color/bee-A1SM.svg\" width=\"200\">\n                    <p><span class=\"greenText\"><b>Successful harvest!</b></span><br>Your pay has increased by $0.02. Your bonus pay is now $0.62.</p>\n            ","response":0,"trial_type":"html-button-response","trial_index":16,"time_elapsed":184616,"internal_node_id":"0.0-4.0-1.4","subject_id":"615cc4ecf52463a34a7fd34a","study_id":"60edd13110225f80f9f3709b","session_id":"6196c1f654326fec89cc3122","condition":"full-information","relevant_dimensions":["wings","legs"],"bee_group":{"antennae":"X","wings":"2","pattern":"X","legs":"F"},"bonus":1.300000000000001},{"rt":1428.800000011921,"stimulus":"bees-with-color/bee-B2DF.svg","response":1,"trial_type":"image-button-response","trial_index":17,"time_elapsed":186048,"internal_node_id":"0.0-4.0-0.5","subject_id":"615cc4ecf52463a34a7fd34a","study_id":"60edd13110225f80f9f3709b","session_id":"6196c1f654326fec89cc3122","condition":"full-information","relevant_dimensions":["wings","legs"],"bee_group":{"antennae":"X","wings":"2","pattern":"X","legs":"F"},"action":"avoid","summary":"good-avoid","bonus":1.300000000000001},{"rt":3316.199999988079,"stimulus":"\n                    <p><b>Action: <em>avoid</em></b></p>\n                    <p>This is the bee that you just saw.</p>\n                    <img src=\"bees-with-color/bee-B2DF.svg\" width=\"200\">\n                    <p><span class=\"greenText\">Good choice!</span>  This bee would have stung you.<br>Your bonus pay is unchanged, and remains at $0.62.</p>\n            ","response":0,"trial_type":"html-button-response","trial_index":18,"time_elapsed":189367,"internal_node_id":"0.0-4.0-1.5","subject_id":"615cc4ecf52463a34a7fd34a","study_id":"60edd13110225f80f9f3709b","session_id":"6196c1f654326fec89cc3122","condition":"full-information","relevant_dimensions":["wings","legs"],"bee_group":{"antennae":"X","wings":"2","pattern":"X","legs":"F"},"bonus":1.300000000000001},{"rt":1786.5999999940395,"stimulus":"bees-with-color/bee-B2DM.svg","response":0,"trial_type":"image-button-response","trial_index":19,"time_elapsed":191157,"internal_node_id":"0.0-4.0-0.6","subject_id":"615cc4ecf52463a34a7fd34a","study_id":"60edd13110225f80f9f3709b","session_id":"6196c1f654326fec89cc3122","condition":"full-information","relevant_dimensions":["wings","legs"],"bee_group":{"antennae":"X","wings":"2","pattern":"X","legs":"F"},"action":"harvest","summary":"good-harvest","bonus":1.300000000000001},{"rt":1437.300000011921,"stimulus":"\n                    <p><b>Action: <em>harvest</em></b></p>\n                    <p>This is the bee that you just saw.</p>\n                    <img src=\"bees-with-color/bee-B2DM.svg\" width=\"200\">\n                    <p><span class=\"greenText\"><b>Successful harvest!</b></span><br>Your pay has increased by $0.02. Your bonus pay is now $0.64.</p>\n            ","response":0,"trial_type":"html-button-response","trial_index":20,"time_elapsed":192597,"internal_node_id":"0.0-4.0-1.6","subject_id":"615cc4ecf52463a34a7fd34a","study_id":"60edd13110225f80f9f3709b","session_id":"6196c1f654326fec89cc3122","condition":"full-information","relevant_dimensions":["wings","legs"],"bee_group":{"antennae":"X","wings":"2","pattern":"X","legs":"F"},"bonus":1.300000000000001},{"rt":1422.5,"stimulus":"bees-with-color/bee-B2SF.svg","response":1,"trial_type":"image-button-response","trial_index":21,"time_elapsed":194021,"internal_node_id":"0.0-4.0-0.7","subject_id":"615cc4ecf52463a34a7fd34a","study_id":"60edd13110225f80f9f3709b","session_id":"6196c1f654326fec89cc3122","condition":"full-information","relevant_dimensions":["wings","legs"],"bee_group":{"antennae":"X","wings":"2","pattern":"X","legs":"F"},"action":"avoid","summary":"good-avoid","bonus":1.300000000000001},{"rt":1442.699999988079,"stimulus":"\n                    <p><b>Action: <em>avoid</em></b></p>\n                    <p>This is the bee that you just saw.</p>\n                    <img src=\"bees-with-color/bee-B2SF.svg\" width=\"200\">\n                    <p><span class=\"greenText\">Good choice!</span>  This bee would have stung you.<br>Your bonus pay is unchanged, and remains at $0.64.</p>\n            ","response":0,"trial_type":"html-button-response","trial_index":22,"time_elapsed":195466,"internal_node_id":"0.0-4.0-1.7","subject_id":"615cc4ecf52463a34a7fd34a","study_id":"60edd13110225f80f9f3709b","session_id":"6196c1f654326fec89cc3122","condition":"full-information","relevant_dimensions":["wings","legs"],"bee_group":{"antennae":"X","wings":"2","pattern":"X","legs":"F"},"bonus":1.300000000000001},{"rt":1226.5999999940395,"stimulus":"bees-with-color/bee-B2SM.svg","response":0,"trial_type":"image-button-response","trial_index":23,"time_elapsed":196696,"internal_node_id":"0.0-4.0-0.8","subject_id":"615cc4ecf52463a34a7fd34a","study_id":"60edd13110225f80f9f3709b","session_id":"6196c1f654326fec89cc3122","condition":"full-information","relevant_dimensions":["wings","legs"],"bee_group":{"antennae":"X","wings":"2","pattern":"X","legs":"F"},"action":"harvest","summary":"good-harvest","bonus":1.300000000000001},{"rt":1407.5,"stimulus":"\n                    <p><b>Action: <em>harvest</em></b></p>\n                    <p>This is the bee that you just saw.</p>\n                    <img src=\"bees-with-color/bee-B2SM.svg\" width=\"200\">\n                    <p><span class=\"greenText\"><b>Successful harvest!</b></span><br>Your pay has increased by $0.02. Your bonus pay is now $0.66.</p>\n            ","response":0,"trial_type":"html-button-response","trial_index":24,"time_elapsed":198107,"internal_node_id":"0.0-4.0-1.8","subject_id":"615cc4ecf52463a34a7fd34a","study_id":"60edd13110225f80f9f3709b","session_id":"6196c1f654326fec89cc3122","condition":"full-information","relevant_dimensions":["wings","legs"],"bee_group":{"antennae":"X","wings":"2","pattern":"X","legs":"F"},"bonus":1.300000000000001},{"rt":1317.5999999940395,"stimulus":"bees-with-color/bee-B1DF.svg","response":1,"trial_type":"image-button-response","trial_index":25,"time_elapsed":199427,"internal_node_id":"0.0-4.0-0.9","subject_id":"615cc4ecf52463a34a7fd34a","study_id":"60edd13110225f80f9f3709b","session_id":"6196c1f654326fec89cc3122","condition":"full-information","relevant_dimensions":["wings","legs"],"bee_group":{"antennae":"X","wings":"2","pattern":"X","legs":"F"},"action":"avoid","summary":"bad-avoid","bonus":1.300000000000001},{"rt":6496.699999988079,"stimulus":"\n                    <p><b>Action: <em>avoid</em></b></p>\n                    <p>This is the bee that you just saw.</p>\n                    <img src=\"bees-with-color/bee-B1DF.svg\" width=\"200\">\n                    <p><span class=\"redText\">Bad choice,</span> the bee was friendly.<br>Your bonus pay is unchanged, and remains at $0.66.</p>\n            ","response":0,"trial_type":"html-button-response","trial_index":26,"time_elapsed":205926,"internal_node_id":"0.0-4.0-1.9","subject_id":"615cc4ecf52463a34a7fd34a","study_id":"60edd13110225f80f9f3709b","session_id":"6196c1f654326fec89cc3122","condition":"full-information","relevant_dimensions":["wings","legs"],"bee_group":{"antennae":"X","wings":"2","pattern":"X","legs":"F"},"bonus":1.300000000000001},{"rt":5056.9000000059605,"stimulus":"bees-with-color/bee-A2SF.svg","response":1,"trial_type":"image-button-response","trial_index":27,"time_elapsed":210986,"internal_node_id":"0.0-4.0-0.10","subject_id":"615cc4ecf52463a34a7fd34a","study_id":"60edd13110225f80f9f3709b","session_id":"6196c1f654326fec89cc3122","condition":"full-information","relevant_dimensions":["wings","legs"],"bee_group":{"antennae":"X","wings":"2","pattern":"X","legs":"F"},"action":"avoid","summary":"good-avoid","bonus":1.300000000000001},{"rt":1283.9000000059605,"stimulus":"\n                    <p><b>Action: <em>avoid</em></b></p>\n                    <p>This is the bee that you just saw.</p>\n                    <img src=\"bees-with-color/bee-A2SF.svg\" width=\"200\">\n                    <p><span class=\"greenText\">Good choice!</span>  This bee would have stung you.<br>Your bonus pay is unchanged, and remains at $0.66.</p>\n            ","response":0,"trial_type":"html-button-response","trial_index":28,"time_elapsed":212272,"internal_node_id":"0.0-4.0-1.10","subject_id":"615cc4ecf52463a34a7fd34a","study_id":"60edd13110225f80f9f3709b","session_id":"6196c1f654326fec89cc3122","condition":"full-information","relevant_dimensions":["wings","legs"],"bee_group":{"antennae":"X","wings":"2","pattern":"X","legs":"F"},"bonus":1.300000000000001},{"rt":2965.0999999940395,"stimulus":"bees-with-color/bee-A2DF.svg","response":1,"trial_type":"image-button-response","trial_index":29,"time_elapsed":215239,"internal_node_id":"0.0-4.0-0.11","subject_id":"615cc4ecf52463a34a7fd34a","study_id":"60edd13110225f80f9f3709b","session_id":"6196c1f654326fec89cc3122","condition":"full-information","relevant_dimensions":["wings","legs"],"bee_group":{"antennae":"X","wings":"2","pattern":"X","legs":"F"},"action":"avoid","summary":"good-avoid","bonus":1.300000000000001},{"rt":1204.5999999940395,"stimulus":"\n                    <p><b>Action: <em>avoid</em></b></p>\n                    <p>This is the bee that you just saw.</p>\n                    <img src=\"bees-with-color/bee-A2DF.svg\" width=\"200\">\n                    <p><span class=\"greenText\">Good choice!</span>  This bee would have stung you.<br>Your bonus pay is unchanged, and remains at $0.66.</p>\n            ","response":0,"trial_type":"html-button-response","trial_index":30,"time_elapsed":216446,"internal_node_id":"0.0-4.0-1.11","subject_id":"615cc4ecf52463a34a7fd34a","study_id":"60edd13110225f80f9f3709b","session_id":"6196c1f654326fec89cc3122","condition":"full-information","relevant_dimensions":["wings","legs"],"bee_group":{"antennae":"X","wings":"2","pattern":"X","legs":"F"},"bonus":1.300000000000001},{"rt":1598.5,"stimulus":"bees-with-color/bee-A2SM.svg","response":0,"trial_type":"image-button-response","trial_index":31,"time_elapsed":218046,"internal_node_id":"0.0-4.0-0.12","subject_id":"615cc4ecf52463a34a7fd34a","study_id":"60edd13110225f80f9f3709b","session_id":"6196c1f654326fec89cc3122","condition":"full-information","relevant_dimensions":["wings","legs"],"bee_group":{"antennae":"X","wings":"2","pattern":"X","legs":"F"},"action":"harvest","summary":"good-harvest","bonus":1.300000000000001},{"rt":1288.199999988079,"stimulus":"\n                    <p><b>Action: <em>harvest</em></b></p>\n                    <p>This is the bee that you just saw.</p>\n                    <img src=\"bees-with-color/bee-A2SM.svg\" width=\"200\">\n                    <p><span class=\"greenText\"><b>Successful harvest!</b></span><br>Your pay has increased by $0.02. Your bonus pay is now $0.68.</p>\n            ","response":0,"trial_type":"html-button-response","trial_index":32,"time_elapsed":219337,"internal_node_id":"0.0-4.0-1.12","subject_id":"615cc4ecf52463a34a7fd34a","study_id":"60edd13110225f80f9f3709b","session_id":"6196c1f654326fec89cc3122","condition":"full-information","relevant_dimensions":["wings","legs"],"bee_group":{"antennae":"X","wings":"2","pattern":"X","legs":"F"},"bonus":1.300000000000001},{"rt":1743.5,"stimulus":"bees-with-color/bee-A1SF.svg","response":0,"trial_type":"image-button-response","trial_index":33,"time_elapsed":221082,"internal_node_id":"0.0-4.0-0.13","subject_id":"615cc4ecf52463a34a7fd34a","study_id":"60edd13110225f80f9f3709b","session_id":"6196c1f654326fec89cc3122","condition":"full-information","relevant_dimensions":["wings","legs"],"bee_group":{"antennae":"X","wings":"2","pattern":"X","legs":"F"},"action":"harvest","summary":"good-harvest","bonus":1.300000000000001},{"rt":1181.0999999940395,"stimulus":"\n                    <p><b>Action: <em>harvest</em></b></p>\n                    <p>This is the bee that you just saw.</p>\n                    <img src=\"bees-with-color/bee-A1SF.svg\" width=\"200\">\n                    <p><span class=\"greenText\"><b>Successful harvest!</b></span><br>Your pay has increased by $0.02. Your bonus pay is now $0.70.</p>\n            ","response":0,"trial_type":"html-button-response","trial_index":34,"time_elapsed":222265,"internal_node_id":"0.0-4.0-1.13","subject_id":"615cc4ecf52463a34a7fd34a","study_id":"60edd13110225f80f9f3709b","session_id":"6196c1f654326fec89cc3122","condition":"full-information","relevant_dimensions":["wings","legs"],"bee_group":{"antennae":"X","wings":"2","pattern":"X","legs":"F"},"bonus":1.300000000000001},{"rt":1898,"stimulus":"bees-with-color/bee-B1SF.svg","response":0,"trial_type":"image-button-response","trial_index":35,"time_elapsed":224165,"internal_node_id":"0.0-4.0-0.14","subject_id":"615cc4ecf52463a34a7fd34a","study_id":"60edd13110225f80f9f3709b","session_id":"6196c1f654326fec89cc3122","condition":"full-information","relevant_dimensions":["wings","legs"],"bee_group":{"antennae":"X","wings":"2","pattern":"X","legs":"F"},"action":"harvest","summary":"good-harvest","bonus":1.300000000000001},{"rt":1134.6000000238419,"stimulus":"\n                    <p><b>Action: <em>harvest</em></b></p>\n                    <p>This is the bee that you just saw.</p>\n                    <img src=\"bees-with-color/bee-B1SF.svg\" width=\"200\">\n                    <p><span class=\"greenText\"><b>Successful harvest!</b></span><br>Your pay has increased by $0.02. Your bonus pay is now $0.72.</p>\n            ","response":0,"trial_type":"html-button-response","trial_index":36,"time_elapsed":225302,"internal_node_id":"0.0-4.0-1.14","subject_id":"615cc4ecf52463a34a7fd34a","study_id":"60edd13110225f80f9f3709b","session_id":"6196c1f654326fec89cc3122","condition":"full-information","relevant_dimensions":["wings","legs"],"bee_group":{"antennae":"X","wings":"2","pattern":"X","legs":"F"},"bonus":1.300000000000001},{"rt":1841.300000011921,"stimulus":"bees-with-color/bee-A1DF.svg","response":0,"trial_type":"image-button-response","trial_index":37,"time_elapsed":227145,"internal_node_id":"0.0-4.0-0.15","subject_id":"615cc4ecf52463a34a7fd34a","study_id":"60edd13110225f80f9f3709b","session_id":"6196c1f654326fec89cc3122","condition":"full-information","relevant_dimensions":["wings","legs"],"bee_group":{"antennae":"X","wings":"2","pattern":"X","legs":"F"},"action":"harvest","summary":"good-harvest","bonus":1.300000000000001},{"rt":1268.0999999940395,"stimulus":"\n                    <p><b>Action: <em>harvest</em></b></p>\n                    <p>This is the bee that you just saw.</p>\n                    <img src=\"bees-with-color/bee-A1DF.svg\" width=\"200\">\n                    <p><span class=\"greenText\"><b>Successful harvest!</b></span><br>Your pay has increased by $0.02. Your bonus pay is now $0.74.</p>\n            ","response":0,"trial_type":"html-button-response","trial_index":38,"time_elapsed":228416,"internal_node_id":"0.0-4.0-1.15","subject_id":"615cc4ecf52463a34a7fd34a","study_id":"60edd13110225f80f9f3709b","session_id":"6196c1f654326fec89cc3122","condition":"full-information","relevant_dimensions":["wings","legs"],"bee_group":{"antennae":"X","wings":"2","pattern":"X","legs":"F"},"bonus":1.300000000000001},{"rt":1748.5,"stimulus":"bees-with-color/bee-A1SF.svg","response":0,"trial_type":"image-button-response","trial_index":39,"time_elapsed":230166,"internal_node_id":"0.0-4.0-0.16","subject_id":"615cc4ecf52463a34a7fd34a","study_id":"60edd13110225f80f9f3709b","session_id":"6196c1f654326fec89cc3122","condition":"full-information","relevant_dimensions":["wings","legs"],"bee_group":{"antennae":"X","wings":"2","pattern":"X","legs":"F"},"action":"harvest","summary":"good-harvest","bonus":1.300000000000001},{"rt":1258.0999999940395,"stimulus":"\n                    <p><b>Action: <em>harvest</em></b></p>\n                    <p>This is the bee that you just saw.</p>\n                    <img src=\"bees-with-color/bee-A1SF.svg\" width=\"200\">\n                    <p><span class=\"greenText\"><b>Successful harvest!</b></span><br>Your pay has increased by $0.02. Your bonus pay is now $0.76.</p>\n            ","response":0,"trial_type":"html-button-response","trial_index":40,"time_elapsed":231427,"internal_node_id":"0.0-4.0-1.16","subject_id":"615cc4ecf52463a34a7fd34a","study_id":"60edd13110225f80f9f3709b","session_id":"6196c1f654326fec89cc3122","condition":"full-information","relevant_dimensions":["wings","legs"],"bee_group":{"antennae":"X","wings":"2","pattern":"X","legs":"F"},"bonus":1.300000000000001},{"rt":1487.800000011921,"stimulus":"bees-with-color/bee-A2DM.svg","response":0,"trial_type":"image-button-response","trial_index":41,"time_elapsed":232923,"internal_node_id":"0.0-4.0-0.17","subject_id":"615cc4ecf52463a34a7fd34a","study_id":"60edd13110225f80f9f3709b","session_id":"6196c1f654326fec89cc3122","condition":"full-information","relevant_dimensions":["wings","legs"],"bee_group":{"antennae":"X","wings":"2","pattern":"X","legs":"F"},"action":"harvest","summary":"good-harvest","bonus":1.300000000000001},{"rt":1145.8999999761581,"stimulus":"\n                    <p><b>Action: <em>harvest</em></b></p>\n                    <p>This is the bee that you just saw.</p>\n                    <img src=\"bees-with-color/bee-A2DM.svg\" width=\"200\">\n                    <p><span class=\"greenText\"><b>Successful harvest!</b></span><br>Your pay has increased by $0.02. Your bonus pay is now $0.78.</p>\n            ","response":0,"trial_type":"html-button-response","trial_index":42,"time_elapsed":234071,"internal_node_id":"0.0-4.0-1.17","subject_id":"615cc4ecf52463a34a7fd34a","study_id":"60edd13110225f80f9f3709b","session_id":"6196c1f654326fec89cc3122","condition":"full-information","relevant_dimensions":["wings","legs"],"bee_group":{"antennae":"X","wings":"2","pattern":"X","legs":"F"},"bonus":1.300000000000001},{"rt":1398.2999999821186,"stimulus":"bees-with-color/bee-B1SF.svg","response":0,"trial_type":"image-button-response","trial_index":43,"time_elapsed":235472,"internal_node_id":"0.0-4.0-0.18","subject_id":"615cc4ecf52463a34a7fd34a","study_id":"60edd13110225f80f9f3709b","session_id":"6196c1f654326fec89cc3122","condition":"full-information","relevant_dimensions":["wings","legs"],"bee_group":{"antennae":"X","wings":"2","pattern":"X","legs":"F"},"action":"harvest","summary":"good-harvest","bonus":1.300000000000001},{"rt":1687.699999988079,"stimulus":"\n                    <p><b>Action: <em>harvest</em></b></p>\n                    <p>This is the bee that you just saw.</p>\n                    <img src=\"bees-with-color/bee-B1SF.svg\" width=\"200\">\n                    <p><span class=\"greenText\"><b>Successful harvest!</b></span><br>Your pay has increased by $0.02. Your bonus pay is now $0.80.</p>\n            ","response":0,"trial_type":"html-button-response","trial_index":44,"time_elapsed":237162,"internal_node_id":"0.0-4.0-1.18","subject_id":"615cc4ecf52463a34a7fd34a","study_id":"60edd13110225f80f9f3709b","session_id":"6196c1f654326fec89cc3122","condition":"full-information","relevant_dimensions":["wings","legs"],"bee_group":{"antennae":"X","wings":"2","pattern":"X","legs":"F"},"bonus":1.300000000000001},{"rt":3786.800000011921,"stimulus":"bees-with-color/bee-B2SM.svg","response":0,"trial_type":"image-button-response","trial_index":45,"time_elapsed":240951,"internal_node_id":"0.0-4.0-0.19","subject_id":"615cc4ecf52463a34a7fd34a","study_id":"60edd13110225f80f9f3709b","session_id":"6196c1f654326fec89cc3122","condition":"full-information","relevant_dimensions":["wings","legs"],"bee_group":{"antennae":"X","wings":"2","pattern":"X","legs":"F"},"action":"harvest","summary":"good-harvest","bonus":1.300000000000001},{"rt":1087.9000000059605,"stimulus":"\n                    <p><b>Action: <em>harvest</em></b></p>\n                    <p>This is the bee that you just saw.</p>\n                    <img src=\"bees-with-color/bee-B2SM.svg\" width=\"200\">\n                    <p><span class=\"greenText\"><b>Successful harvest!</b></span><br>Your pay has increased by $0.02. Your bonus pay is now $0.82.</p>\n            ","response":0,"trial_type":"html-button-response","trial_index":46,"time_elapsed":242041,"internal_node_id":"0.0-4.0-1.19","subject_id":"615cc4ecf52463a34a7fd34a","study_id":"60edd13110225f80f9f3709b","session_id":"6196c1f654326fec89cc3122","condition":"full-information","relevant_dimensions":["wings","legs"],"bee_group":{"antennae":"X","wings":"2","pattern":"X","legs":"F"},"bonus":1.300000000000001},{"rt":1587,"stimulus":"bees-with-color/bee-B2DF.svg","response":0,"trial_type":"image-button-response","trial_index":47,"time_elapsed":243630,"internal_node_id":"0.0-4.0-0.20","subject_id":"615cc4ecf52463a34a7fd34a","study_id":"60edd13110225f80f9f3709b","session_id":"6196c1f654326fec89cc3122","condition":"full-information","relevant_dimensions":["wings","legs"],"bee_group":{"antennae":"X","wings":"2","pattern":"X","legs":"F"},"action":"harvest","summary":"bad-harvest","bonus":1.300000000000001},{"rt":2054.9000000059605,"stimulus":"\n                    <p><b>Action: <em>harvest</em></b></p>\n                    <p>This is the bee that you just saw.</p>\n                    <img src=\"bees-with-color/bee-B2DF.svg\" width=\"200\">\n                    <p><span class=\"redText\">Bad choice, the bee was angry.</span><br><b>You have been stung!</b><br>Your pay has been decreased by $0.10. Your bonus pay is now $0.72.</p>\n            ","response":0,"trial_type":"html-button-response","trial_index":48,"time_elapsed":245687,"internal_node_id":"0.0-4.0-1.20","subject_id":"615cc4ecf52463a34a7fd34a","study_id":"60edd13110225f80f9f3709b","session_id":"6196c1f654326fec89cc3122","condition":"full-information","relevant_dimensions":["wings","legs"],"bee_group":{"antennae":"X","wings":"2","pattern":"X","legs":"F"},"bonus":1.300000000000001},{"rt":2713.9000000059605,"stimulus":"bees-with-color/bee-B1DM.svg","response":1,"trial_type":"image-button-response","trial_index":49,"time_elapsed":248403,"internal_node_id":"0.0-4.0-0.21","subject_id":"615cc4ecf52463a34a7fd34a","study_id":"60edd13110225f80f9f3709b","session_id":"6196c1f654326fec89cc3122","condition":"full-information","relevant_dimensions":["wings","legs"],"bee_group":{"antennae":"X","wings":"2","pattern":"X","legs":"F"},"action":"avoid","summary":"bad-avoid","bonus":1.300000000000001},{"rt":2576.100000023842,"stimulus":"\n                    <p><b>Action: <em>avoid</em></b></p>\n                    <p>This is the bee that you just saw.</p>\n                    <img src=\"bees-with-color/bee-B1DM.svg\" width=\"200\">\n                    <p><span class=\"redText\">Bad choice,</span> the bee was friendly.<br>Your bonus pay is unchanged, and remains at $0.72.</p>\n            ","response":0,"trial_type":"html-button-response","trial_index":50,"time_elapsed":250982,"internal_node_id":"0.0-4.0-1.21","subject_id":"615cc4ecf52463a34a7fd34a","study_id":"60edd13110225f80f9f3709b","session_id":"6196c1f654326fec89cc3122","condition":"full-information","relevant_dimensions":["wings","legs"],"bee_group":{"antennae":"X","wings":"2","pattern":"X","legs":"F"},"bonus":1.300000000000001},{"rt":2282.7000000178814,"stimulus":"bees-with-color/bee-A1SM.svg","response":1,"trial_type":"image-button-response","trial_index":51,"time_elapsed":253268,"internal_node_id":"0.0-4.0-0.22","subject_id":"615cc4ecf52463a34a7fd34a","study_id":"60edd13110225f80f9f3709b","session_id":"6196c1f654326fec89cc3122","condition":"full-information","relevant_dimensions":["wings","legs"],"bee_group":{"antennae":"X","wings":"2","pattern":"X","legs":"F"},"action":"avoid","summary":"bad-avoid","bonus":1.300000000000001},{"rt":1643.199999988079,"stimulus":"\n                    <p><b>Action: <em>avoid</em></b></p>\n                    <p>This is the bee that you just saw.</p>\n                    <img src=\"bees-with-color/bee-A1SM.svg\" width=\"200\">\n                    <p><span class=\"redText\">Bad choice,</span> the bee was friendly.<br>Your bonus pay is unchanged, and remains at $0.72.</p>\n            ","response":0,"trial_type":"html-button-response","trial_index":52,"time_elapsed":254913,"internal_node_id":"0.0-4.0-1.22","subject_id":"615cc4ecf52463a34a7fd34a","study_id":"60edd13110225f80f9f3709b","session_id":"6196c1f654326fec89cc3122","condition":"full-information","relevant_dimensions":["wings","legs"],"bee_group":{"antennae":"X","wings":"2","pattern":"X","legs":"F"},"bonus":1.300000000000001},{"rt":2347.5999999940395,"stimulus":"bees-with-color/bee-B2SF.svg","response":1,"trial_type":"image-button-response","trial_index":53,"time_elapsed":257263,"internal_node_id":"0.0-4.0-0.23","subject_id":"615cc4ecf52463a34a7fd34a","study_id":"60edd13110225f80f9f3709b","session_id":"6196c1f654326fec89cc3122","condition":"full-information","relevant_dimensions":["wings","legs"],"bee_group":{"antennae":"X","wings":"2","pattern":"X","legs":"F"},"action":"avoid","summary":"good-avoid","bonus":1.300000000000001},{"rt":1186.199999988079,"stimulus":"\n                    <p><b>Action: <em>avoid</em></b></p>\n                    <p>This is the bee that you just saw.</p>\n                    <img src=\"bees-with-color/bee-B2SF.svg\" width=\"200\">\n                    <p><span class=\"greenText\">Good choice!</span>  This bee would have stung you.<br>Your bonus pay is unchanged, and remains at $0.72.</p>\n            ","response":0,"trial_type":"html-button-response","trial_index":54,"time_elapsed":258451,"internal_node_id":"0.0-4.0-1.23","subject_id":"615cc4ecf52463a34a7fd34a","study_id":"60edd13110225f80f9f3709b","session_id":"6196c1f654326fec89cc3122","condition":"full-information","relevant_dimensions":["wings","legs"],"bee_group":{"antennae":"X","wings":"2","pattern":"X","legs":"F"},"bonus":1.300000000000001},{"rt":1647.7000000178814,"stimulus":"bees-with-color/bee-B2DM.svg","response":0,"trial_type":"image-button-response","trial_index":55,"time_elapsed":260102,"internal_node_id":"0.0-4.0-0.24","subject_id":"615cc4ecf52463a34a7fd34a","study_id":"60edd13110225f80f9f3709b","session_id":"6196c1f654326fec89cc3122","condition":"full-information","relevant_dimensions":["wings","legs"],"bee_group":{"antennae":"X","wings":"2","pattern":"X","legs":"F"},"action":"harvest","summary":"good-harvest","bonus":1.300000000000001},{"rt":1216.800000011921,"stimulus":"\n                    <p><b>Action: <em>harvest</em></b></p>\n                    <p>This is the bee that you just saw.</p>\n                    <img src=\"bees-with-color/bee-B2DM.svg\" width=\"200\">\n                    <p><span class=\"greenText\"><b>Successful harvest!</b></span><br>Your pay has increased by $0.02. Your bonus pay is now $0.74.</p>\n            ","response":0,"trial_type":"html-button-response","trial_index":56,"time_elapsed":261321,"internal_node_id":"0.0-4.0-1.24","subject_id":"615cc4ecf52463a34a7fd34a","study_id":"60edd13110225f80f9f3709b","session_id":"6196c1f654326fec89cc3122","condition":"full-information","relevant_dimensions":["wings","legs"],"bee_group":{"antennae":"X","wings":"2","pattern":"X","legs":"F"},"bonus":1.300000000000001},{"rt":1626.5999999940395,"stimulus":"bees-with-color/bee-A2SM.svg","response":0,"trial_type":"image-button-response","trial_index":57,"time_elapsed":262951,"internal_node_id":"0.0-4.0-0.25","subject_id":"615cc4ecf52463a34a7fd34a","study_id":"60edd13110225f80f9f3709b","session_id":"6196c1f654326fec89cc3122","condition":"full-information","relevant_dimensions":["wings","legs"],"bee_group":{"antennae":"X","wings":"2","pattern":"X","legs":"F"},"action":"harvest","summary":"good-harvest","bonus":1.300000000000001},{"rt":1268,"stimulus":"\n                    <p><b>Action: <em>harvest</em></b></p>\n                    <p>This is the bee that you just saw.</p>\n                    <img src=\"bees-with-color/bee-A2SM.svg\" width=\"200\">\n                    <p><span class=\"greenText\"><b>Successful harvest!</b></span><br>Your pay has increased by $0.02. Your bonus pay is now $0.76.</p>\n            ","response":0,"trial_type":"html-button-response","trial_index":58,"time_elapsed":264222,"internal_node_id":"0.0-4.0-1.25","subject_id":"615cc4ecf52463a34a7fd34a","study_id":"60edd13110225f80f9f3709b","session_id":"6196c1f654326fec89cc3122","condition":"full-information","relevant_dimensions":["wings","legs"],"bee_group":{"antennae":"X","wings":"2","pattern":"X","legs":"F"},"bonus":1.300000000000001},{"rt":2647.699999988079,"stimulus":"bees-with-color/bee-B1SM.svg","response":1,"trial_type":"image-button-response","trial_index":59,"time_elapsed":266872,"internal_node_id":"0.0-4.0-0.26","subject_id":"615cc4ecf52463a34a7fd34a","study_id":"60edd13110225f80f9f3709b","session_id":"6196c1f654326fec89cc3122","condition":"full-information","relevant_dimensions":["wings","legs"],"bee_group":{"antennae":"X","wings":"2","pattern":"X","legs":"F"},"action":"avoid","summary":"bad-avoid","bonus":1.300000000000001},{"rt":2704.9000000059605,"stimulus":"\n                    <p><b>Action: <em>avoid</em></b></p>\n                    <p>This is the bee that you just saw.</p>\n                    <img src=\"bees-with-color/bee-B1SM.svg\" width=\"200\">\n                    <p><span class=\"redText\">Bad choice,</span> the bee was friendly.<br>Your bonus pay is unchanged, and remains at $0.76.</p>\n            ","response":0,"trial_type":"html-button-response","trial_index":60,"time_elapsed":269580,"internal_node_id":"0.0-4.0-1.26","subject_id":"615cc4ecf52463a34a7fd34a","study_id":"60edd13110225f80f9f3709b","session_id":"6196c1f654326fec89cc3122","condition":"full-information","relevant_dimensions":["wings","legs"],"bee_group":{"antennae":"X","wings":"2","pattern":"X","legs":"F"},"bonus":1.300000000000001},{"rt":1509,"stimulus":"bees-with-color/bee-A1DF.svg","response":0,"trial_type":"image-button-response","trial_index":61,"time_elapsed":271091,"internal_node_id":"0.0-4.0-0.27","subject_id":"615cc4ecf52463a34a7fd34a","study_id":"60edd13110225f80f9f3709b","session_id":"6196c1f654326fec89cc3122","condition":"full-information","relevant_dimensions":["wings","legs"],"bee_group":{"antennae":"X","wings":"2","pattern":"X","legs":"F"},"action":"harvest","summary":"good-harvest","bonus":1.300000000000001},{"rt":1123,"stimulus":"\n                    <p><b>Action: <em>harvest</em></b></p>\n                    <p>This is the bee that you just saw.</p>\n                    <img src=\"bees-with-color/bee-A1DF.svg\" width=\"200\">\n                    <p><span class=\"greenText\"><b>Successful harvest!</b></span><br>Your pay has increased by $0.02. Your bonus pay is now $0.78.</p>\n            ","response":0,"trial_type":"html-button-response","trial_index":62,"time_elapsed":272216,"internal_node_id":"0.0-4.0-1.27","subject_id":"615cc4ecf52463a34a7fd34a","study_id":"60edd13110225f80f9f3709b","session_id":"6196c1f654326fec89cc3122","condition":"full-information","relevant_dimensions":["wings","legs"],"bee_group":{"antennae":"X","wings":"2","pattern":"X","legs":"F"},"bonus":1.300000000000001},{"rt":1604.699999988079,"stimulus":"bees-with-color/bee-B1DF.svg","response":0,"trial_type":"image-button-response","trial_index":63,"time_elapsed":273823,"internal_node_id":"0.0-4.0-0.28","subject_id":"615cc4ecf52463a34a7fd34a","study_id":"60edd13110225f80f9f3709b","session_id":"6196c1f654326fec89cc3122","condition":"full-information","relevant_dimensions":["wings","legs"],"bee_group":{"antennae":"X","wings":"2","pattern":"X","legs":"F"},"action":"harvest","summary":"good-harvest","bonus":1.300000000000001},{"rt":1155.800000011921,"stimulus":"\n                    <p><b>Action: <em>harvest</em></b></p>\n                    <p>This is the bee that you just saw.</p>\n                    <img src=\"bees-with-color/bee-B1DF.svg\" width=\"200\">\n                    <p><span class=\"greenText\"><b>Successful harvest!</b></span><br>Your pay has increased by $0.02. Your bonus pay is now $0.80.</p>\n            ","response":0,"trial_type":"html-button-response","trial_index":64,"time_elapsed":274981,"internal_node_id":"0.0-4.0-1.28","subject_id":"615cc4ecf52463a34a7fd34a","study_id":"60edd13110225f80f9f3709b","session_id":"6196c1f654326fec89cc3122","condition":"full-information","relevant_dimensions":["wings","legs"],"bee_group":{"antennae":"X","wings":"2","pattern":"X","legs":"F"},"bonus":1.300000000000001},{"rt":2238,"stimulus":"bees-with-color/bee-A2SF.svg","response":0,"trial_type":"image-button-response","trial_index":65,"time_elapsed":277220,"internal_node_id":"0.0-4.0-0.29","subject_id":"615cc4ecf52463a34a7fd34a","study_id":"60edd13110225f80f9f3709b","session_id":"6196c1f654326fec89cc3122","condition":"full-information","relevant_dimensions":["wings","legs"],"bee_group":{"antennae":"X","wings":"2","pattern":"X","legs":"F"},"action":"harvest","summary":"bad-harvest","bonus":1.300000000000001},{"rt":1328.4000000059605,"stimulus":"\n                    <p><b>Action: <em>harvest</em></b></p>\n                    <p>This is the bee that you just saw.</p>\n                    <img src=\"bees-with-color/bee-A2SF.svg\" width=\"200\">\n                    <p><span class=\"redText\">Bad choice, the bee was angry.</span><br><b>You have been stung!</b><br>Your pay has been decreased by $0.10. Your bonus pay is now $0.70.</p>\n            ","response":0,"trial_type":"html-button-response","trial_index":66,"time_elapsed":278551,"internal_node_id":"0.0-4.0-1.29","subject_id":"615cc4ecf52463a34a7fd34a","study_id":"60edd13110225f80f9f3709b","session_id":"6196c1f654326fec89cc3122","condition":"full-information","relevant_dimensions":["wings","legs"],"bee_group":{"antennae":"X","wings":"2","pattern":"X","legs":"F"},"bonus":1.300000000000001},{"rt":2698.399999976158,"stimulus":"bees-with-color/bee-A1DM.svg","response":0,"trial_type":"image-button-response","trial_index":67,"time_elapsed":281251,"internal_node_id":"0.0-4.0-0.30","subject_id":"615cc4ecf52463a34a7fd34a","study_id":"60edd13110225f80f9f3709b","session_id":"6196c1f654326fec89cc3122","condition":"full-information","relevant_dimensions":["wings","legs"],"bee_group":{"antennae":"X","wings":"2","pattern":"X","legs":"F"},"action":"harvest","summary":"good-harvest","bonus":1.300000000000001},{"rt":1226.5,"stimulus":"\n                    <p><b>Action: <em>harvest</em></b></p>\n                    <p>This is the bee that you just saw.</p>\n                    <img src=\"bees-with-color/bee-A1DM.svg\" width=\"200\">\n                    <p><span class=\"greenText\"><b>Successful harvest!</b></span><br>Your pay has increased by $0.02. Your bonus pay is now $0.72.</p>\n            ","response":0,"trial_type":"html-button-response","trial_index":68,"time_elapsed":282480,"internal_node_id":"0.0-4.0-1.30","subject_id":"615cc4ecf52463a34a7fd34a","study_id":"60edd13110225f80f9f3709b","session_id":"6196c1f654326fec89cc3122","condition":"full-information","relevant_dimensions":["wings","legs"],"bee_group":{"antennae":"X","wings":"2","pattern":"X","legs":"F"},"bonus":1.300000000000001},{"rt":2868.0999999940395,"stimulus":"bees-with-color/bee-A2DF.svg","response":0,"trial_type":"image-button-response","trial_index":69,"time_elapsed":285351,"internal_node_id":"0.0-4.0-0.31","subject_id":"615cc4ecf52463a34a7fd34a","study_id":"60edd13110225f80f9f3709b","session_id":"6196c1f654326fec89cc3122","condition":"full-information","relevant_dimensions":["wings","legs"],"bee_group":{"antennae":"X","wings":"2","pattern":"X","legs":"F"},"action":"harvest","summary":"bad-harvest","bonus":1.300000000000001},{"rt":1299,"stimulus":"\n                    <p><b>Action: <em>harvest</em></b></p>\n                    <p>This is the bee that you just saw.</p>\n                    <img src=\"bees-with-color/bee-A2DF.svg\" width=\"200\">\n                    <p><span class=\"redText\">Bad choice, the bee was angry.</span><br><b>You have been stung!</b><br>Your pay has been decreased by $0.10. Your bonus pay is now $0.62.</p>\n            ","response":0,"trial_type":"html-button-response","trial_index":70,"time_elapsed":286653,"internal_node_id":"0.0-4.0-1.31","subject_id":"615cc4ecf52463a34a7fd34a","study_id":"60edd13110225f80f9f3709b","session_id":"6196c1f654326fec89cc3122","condition":"full-information","relevant_dimensions":["wings","legs"],"bee_group":{"antennae":"X","wings":"2","pattern":"X","legs":"F"},"bonus":1.300000000000001},{"rt":2591.699999988079,"stimulus":"bees-with-color/bee-B2SM.svg","response":0,"trial_type":"image-button-response","trial_index":71,"time_elapsed":289247,"internal_node_id":"0.0-4.0-0.32","subject_id":"615cc4ecf52463a34a7fd34a","study_id":"60edd13110225f80f9f3709b","session_id":"6196c1f654326fec89cc3122","condition":"full-information","relevant_dimensions":["wings","legs"],"bee_group":{"antennae":"X","wings":"2","pattern":"X","legs":"F"},"action":"harvest","summary":"good-harvest","bonus":1.300000000000001},{"rt":1263.3999999761581,"stimulus":"\n                    <p><b>Action: <em>harvest</em></b></p>\n                    <p>This is the bee that you just saw.</p>\n                    <img src=\"bees-with-color/bee-B2SM.svg\" width=\"200\">\n                    <p><span class=\"greenText\"><b>Successful harvest!</b></span><br>Your pay has increased by $0.02. Your bonus pay is now $0.64.</p>\n            ","response":0,"trial_type":"html-button-response","trial_index":72,"time_elapsed":290512,"internal_node_id":"0.0-4.0-1.32","subject_id":"615cc4ecf52463a34a7fd34a","study_id":"60edd13110225f80f9f3709b","session_id":"6196c1f654326fec89cc3122","condition":"full-information","relevant_dimensions":["wings","legs"],"bee_group":{"antennae":"X","wings":"2","pattern":"X","legs":"F"},"bonus":1.300000000000001},{"rt":1496.4000000059605,"stimulus":"bees-with-color/bee-B1DM.svg","response":1,"trial_type":"image-button-response","trial_index":73,"time_elapsed":292011,"internal_node_id":"0.0-4.0-0.33","subject_id":"615cc4ecf52463a34a7fd34a","study_id":"60edd13110225f80f9f3709b","session_id":"6196c1f654326fec89cc3122","condition":"full-information","relevant_dimensions":["wings","legs"],"bee_group":{"antennae":"X","wings":"2","pattern":"X","legs":"F"},"action":"avoid","summary":"bad-avoid","bonus":1.300000000000001},{"rt":1294.9000000059605,"stimulus":"\n                    <p><b>Action: <em>avoid</em></b></p>\n                    <p>This is the bee that you just saw.</p>\n                    <img src=\"bees-with-color/bee-B1DM.svg\" width=\"200\">\n                    <p><span class=\"redText\">Bad choice,</span> the bee was friendly.<br>Your bonus pay is unchanged, and remains at $0.64.</p>\n            ","response":0,"trial_type":"html-button-response","trial_index":74,"time_elapsed":293308,"internal_node_id":"0.0-4.0-1.33","subject_id":"615cc4ecf52463a34a7fd34a","study_id":"60edd13110225f80f9f3709b","session_id":"6196c1f654326fec89cc3122","condition":"full-information","relevant_dimensions":["wings","legs"],"bee_group":{"antennae":"X","wings":"2","pattern":"X","legs":"F"},"bonus":1.300000000000001},{"rt":1771.5,"stimulus":"bees-with-color/bee-A1SF.svg","response":0,"trial_type":"image-button-response","trial_index":75,"time_elapsed":295081,"internal_node_id":"0.0-4.0-0.34","subject_id":"615cc4ecf52463a34a7fd34a","study_id":"60edd13110225f80f9f3709b","session_id":"6196c1f654326fec89cc3122","condition":"full-information","relevant_dimensions":["wings","legs"],"bee_group":{"antennae":"X","wings":"2","pattern":"X","legs":"F"},"action":"harvest","summary":"good-harvest","bonus":1.300000000000001},{"rt":1102.6000000238419,"stimulus":"\n                    <p><b>Action: <em>harvest</em></b></p>\n                    <p>This is the bee that you just saw.</p>\n                    <img src=\"bees-with-color/bee-A1SF.svg\" width=\"200\">\n                    <p><span class=\"greenText\"><b>Successful harvest!</b></span><br>Your pay has increased by $0.02. Your bonus pay is now $0.66.</p>\n            ","response":0,"trial_type":"html-button-response","trial_index":76,"time_elapsed":296186,"internal_node_id":"0.0-4.0-1.34","subject_id":"615cc4ecf52463a34a7fd34a","study_id":"60edd13110225f80f9f3709b","session_id":"6196c1f654326fec89cc3122","condition":"full-information","relevant_dimensions":["wings","legs"],"bee_group":{"antennae":"X","wings":"2","pattern":"X","legs":"F"},"bonus":1.300000000000001},{"rt":1826.699999988079,"stimulus":"bees-with-color/bee-A1DF.svg","response":0,"trial_type":"image-button-response","trial_index":77,"time_elapsed":298015,"internal_node_id":"0.0-4.0-0.35","subject_id":"615cc4ecf52463a34a7fd34a","study_id":"60edd13110225f80f9f3709b","session_id":"6196c1f654326fec89cc3122","condition":"full-information","relevant_dimensions":["wings","legs"],"bee_group":{"antennae":"X","wings":"2","pattern":"X","legs":"F"},"action":"harvest","summary":"good-harvest","bonus":1.300000000000001},{"rt":1281.800000011921,"stimulus":"\n                    <p><b>Action: <em>harvest</em></b></p>\n                    <p>This is the bee that you just saw.</p>\n                    <img src=\"bees-with-color/bee-A1DF.svg\" width=\"200\">\n                    <p><span class=\"greenText\"><b>Successful harvest!</b></span><br>Your pay has increased by $0.02. Your bonus pay is now $0.68.</p>\n            ","response":0,"trial_type":"html-button-response","trial_index":78,"time_elapsed":299298,"internal_node_id":"0.0-4.0-1.35","subject_id":"615cc4ecf52463a34a7fd34a","study_id":"60edd13110225f80f9f3709b","session_id":"6196c1f654326fec89cc3122","condition":"full-information","relevant_dimensions":["wings","legs"],"bee_group":{"antennae":"X","wings":"2","pattern":"X","legs":"F"},"bonus":1.300000000000001},{"rt":3432.0999999940395,"stimulus":"bees-with-color/bee-B2SF.svg","response":1,"trial_type":"image-button-response","trial_index":79,"time_elapsed":302733,"internal_node_id":"0.0-4.0-0.36","subject_id":"615cc4ecf52463a34a7fd34a","study_id":"60edd13110225f80f9f3709b","session_id":"6196c1f654326fec89cc3122","condition":"full-information","relevant_dimensions":["wings","legs"],"bee_group":{"antennae":"X","wings":"2","pattern":"X","legs":"F"},"action":"avoid","summary":"good-avoid","bonus":1.300000000000001},{"rt":1221.699999988079,"stimulus":"\n                    <p><b>Action: <em>avoid</em></b></p>\n                    <p>This is the bee that you just saw.</p>\n                    <img src=\"bees-with-color/bee-B2SF.svg\" width=\"200\">\n                    <p><span class=\"greenText\">Good choice!</span>  This bee would have stung you.<br>Your bonus pay is unchanged, and remains at $0.68.</p>\n            ","response":0,"trial_type":"html-button-response","trial_index":80,"time_elapsed":303956,"internal_node_id":"0.0-4.0-1.36","subject_id":"615cc4ecf52463a34a7fd34a","study_id":"60edd13110225f80f9f3709b","session_id":"6196c1f654326fec89cc3122","condition":"full-information","relevant_dimensions":["wings","legs"],"bee_group":{"antennae":"X","wings":"2","pattern":"X","legs":"F"},"bonus":1.300000000000001},{"rt":1942.5,"stimulus":"bees-with-color/bee-A2SF.svg","response":1,"trial_type":"image-button-response","trial_index":81,"time_elapsed":305901,"internal_node_id":"0.0-4.0-0.37","subject_id":"615cc4ecf52463a34a7fd34a","study_id":"60edd13110225f80f9f3709b","session_id":"6196c1f654326fec89cc3122","condition":"full-information","relevant_dimensions":["wings","legs"],"bee_group":{"antennae":"X","wings":"2","pattern":"X","legs":"F"},"action":"avoid","summary":"good-avoid","bonus":1.300000000000001},{"rt":1148.2000000178814,"stimulus":"\n                    <p><b>Action: <em>avoid</em></b></p>\n                    <p>This is the bee that you just saw.</p>\n                    <img src=\"bees-with-color/bee-A2SF.svg\" width=\"200\">\n                    <p><span class=\"greenText\">Good choice!</span>  This bee would have stung you.<br>Your bonus pay is unchanged, and remains at $0.68.</p>\n            ","response":0,"trial_type":"html-button-response","trial_index":82,"time_elapsed":307052,"internal_node_id":"0.0-4.0-1.37","subject_id":"615cc4ecf52463a34a7fd34a","study_id":"60edd13110225f80f9f3709b","session_id":"6196c1f654326fec89cc3122","condition":"full-information","relevant_dimensions":["wings","legs"],"bee_group":{"antennae":"X","wings":"2","pattern":"X","legs":"F"},"bonus":1.300000000000001},{"rt":1453.0999999940395,"stimulus":"bees-with-color/bee-A2DM.svg","response":0,"trial_type":"image-button-response","trial_index":83,"time_elapsed":308507,"internal_node_id":"0.0-4.0-0.38","subject_id":"615cc4ecf52463a34a7fd34a","study_id":"60edd13110225f80f9f3709b","session_id":"6196c1f654326fec89cc3122","condition":"full-information","relevant_dimensions":["wings","legs"],"bee_group":{"antennae":"X","wings":"2","pattern":"X","legs":"F"},"action":"harvest","summary":"good-harvest","bonus":1.300000000000001},{"rt":1001.7000000178814,"stimulus":"\n                    <p><b>Action: <em>harvest</em></b></p>\n                    <p>This is the bee that you just saw.</p>\n                    <img src=\"bees-with-color/bee-A2DM.svg\" width=\"200\">\n                    <p><span class=\"greenText\"><b>Successful harvest!</b></span><br>Your pay has increased by $0.02. Your bonus pay is now $0.70.</p>\n            ","response":0,"trial_type":"html-button-response","trial_index":84,"time_elapsed":309511,"internal_node_id":"0.0-4.0-1.38","subject_id":"615cc4ecf52463a34a7fd34a","study_id":"60edd13110225f80f9f3709b","session_id":"6196c1f654326fec89cc3122","condition":"full-information","relevant_dimensions":["wings","legs"],"bee_group":{"antennae":"X","wings":"2","pattern":"X","legs":"F"},"bonus":1.300000000000001},{"rt":2247.2000000178814,"stimulus":"bees-with-color/bee-A1DM.svg","response":0,"trial_type":"image-button-response","trial_index":85,"time_elapsed":311761,"internal_node_id":"0.0-4.0-0.39","subject_id":"615cc4ecf52463a34a7fd34a","study_id":"60edd13110225f80f9f3709b","session_id":"6196c1f654326fec89cc3122","condition":"full-information","relevant_dimensions":["wings","legs"],"bee_group":{"antennae":"X","wings":"2","pattern":"X","legs":"F"},"action":"harvest","summary":"good-harvest","bonus":1.300000000000001},{"rt":1199.9000000059605,"stimulus":"\n                    <p><b>Action: <em>harvest</em></b></p>\n                    <p>This is the bee that you just saw.</p>\n                    <img src=\"bees-with-color/bee-A1DM.svg\" width=\"200\">\n                    <p><span class=\"greenText\"><b>Successful harvest!</b></span><br>Your pay has increased by $0.02. Your bonus pay is now $0.72.</p>\n            ","response":0,"trial_type":"html-button-response","trial_index":86,"time_elapsed":312963,"internal_node_id":"0.0-4.0-1.39","subject_id":"615cc4ecf52463a34a7fd34a","study_id":"60edd13110225f80f9f3709b","session_id":"6196c1f654326fec89cc3122","condition":"full-information","relevant_dimensions":["wings","legs"],"bee_group":{"antennae":"X","wings":"2","pattern":"X","legs":"F"},"bonus":1.300000000000001},{"rt":1696.2000000178814,"stimulus":"bees-with-color/bee-B1SF.svg","response":0,"trial_type":"image-button-response","trial_index":87,"time_elapsed":314661,"internal_node_id":"0.0-4.0-0.40","subject_id":"615cc4ecf52463a34a7fd34a","study_id":"60edd13110225f80f9f3709b","session_id":"6196c1f654326fec89cc3122","condition":"full-information","relevant_dimensions":["wings","legs"],"bee_group":{"antennae":"X","wings":"2","pattern":"X","legs":"F"},"action":"harvest","summary":"good-harvest","bonus":1.300000000000001},{"rt":1335.1000000238419,"stimulus":"\n                    <p><b>Action: <em>harvest</em></b></p>\n                    <p>This is the bee that you just saw.</p>\n                    <img src=\"bees-with-color/bee-B1SF.svg\" width=\"200\">\n                    <p><span class=\"greenText\"><b>Successful harvest!</b></span><br>Your pay has increased by $0.02. Your bonus pay is now $0.74.</p>\n            ","response":0,"trial_type":"html-button-response","trial_index":88,"time_elapsed":315999,"internal_node_id":"0.0-4.0-1.40","subject_id":"615cc4ecf52463a34a7fd34a","study_id":"60edd13110225f80f9f3709b","session_id":"6196c1f654326fec89cc3122","condition":"full-information","relevant_dimensions":["wings","legs"],"bee_group":{"antennae":"X","wings":"2","pattern":"X","legs":"F"},"bonus":1.300000000000001},{"rt":1897.2999999821186,"stimulus":"bees-with-color/bee-B2DM.svg","response":0,"trial_type":"image-button-response","trial_index":89,"time_elapsed":317899,"internal_node_id":"0.0-4.0-0.41","subject_id":"615cc4ecf52463a34a7fd34a","study_id":"60edd13110225f80f9f3709b","session_id":"6196c1f654326fec89cc3122","condition":"full-information","relevant_dimensions":["wings","legs"],"bee_group":{"antennae":"X","wings":"2","pattern":"X","legs":"F"},"action":"harvest","summary":"good-harvest","bonus":1.300000000000001},{"rt":1258.699999988079,"stimulus":"\n                    <p><b>Action: <em>harvest</em></b></p>\n                    <p>This is the bee that you just saw.</p>\n                    <img src=\"bees-with-color/bee-B2DM.svg\" width=\"200\">\n                    <p><span class=\"greenText\"><b>Successful harvest!</b></span><br>Your pay has increased by $0.02. Your bonus pay is now $0.76.</p>\n            ","response":0,"trial_type":"html-button-response","trial_index":90,"time_elapsed":319160,"internal_node_id":"0.0-4.0-1.41","subject_id":"615cc4ecf52463a34a7fd34a","study_id":"60edd13110225f80f9f3709b","session_id":"6196c1f654326fec89cc3122","condition":"full-information","relevant_dimensions":["wings","legs"],"bee_group":{"antennae":"X","wings":"2","pattern":"X","legs":"F"},"bonus":1.300000000000001},{"rt":1824.7999999821186,"stimulus":"bees-with-color/bee-B1DF.svg","response":0,"trial_type":"image-button-response","trial_index":91,"time_elapsed":320987,"internal_node_id":"0.0-4.0-0.42","subject_id":"615cc4ecf52463a34a7fd34a","study_id":"60edd13110225f80f9f3709b","session_id":"6196c1f654326fec89cc3122","condition":"full-information","relevant_dimensions":["wings","legs"],"bee_group":{"antennae":"X","wings":"2","pattern":"X","legs":"F"},"action":"harvest","summary":"good-harvest","bonus":1.300000000000001},{"rt":1118.5999999940395,"stimulus":"\n                    <p><b>Action: <em>harvest</em></b></p>\n                    <p>This is the bee that you just saw.</p>\n                    <img src=\"bees-with-color/bee-B1DF.svg\" width=\"200\">\n                    <p><span class=\"greenText\"><b>Successful harvest!</b></span><br>Your pay has increased by $0.02. Your bonus pay is now $0.78.</p>\n            ","response":0,"trial_type":"html-button-response","trial_index":92,"time_elapsed":322108,"internal_node_id":"0.0-4.0-1.42","subject_id":"615cc4ecf52463a34a7fd34a","study_id":"60edd13110225f80f9f3709b","session_id":"6196c1f654326fec89cc3122","condition":"full-information","relevant_dimensions":["wings","legs"],"bee_group":{"antennae":"X","wings":"2","pattern":"X","legs":"F"},"bonus":1.300000000000001},{"rt":3888.2000000178814,"stimulus":"bees-with-color/bee-A2DF.svg","response":1,"trial_type":"image-button-response","trial_index":93,"time_elapsed":325999,"internal_node_id":"0.0-4.0-0.43","subject_id":"615cc4ecf52463a34a7fd34a","study_id":"60edd13110225f80f9f3709b","session_id":"6196c1f654326fec89cc3122","condition":"full-information","relevant_dimensions":["wings","legs"],"bee_group":{"antennae":"X","wings":"2","pattern":"X","legs":"F"},"action":"avoid","summary":"good-avoid","bonus":1.300000000000001},{"rt":1310.4000000059605,"stimulus":"\n                    <p><b>Action: <em>avoid</em></b></p>\n                    <p>This is the bee that you just saw.</p>\n                    <img src=\"bees-with-color/bee-A2DF.svg\" width=\"200\">\n                    <p><span class=\"greenText\">Good choice!</span>  This bee would have stung you.<br>Your bonus pay is unchanged, and remains at $0.78.</p>\n            ","response":0,"trial_type":"html-button-response","trial_index":94,"time_elapsed":327312,"internal_node_id":"0.0-4.0-1.43","subject_id":"615cc4ecf52463a34a7fd34a","study_id":"60edd13110225f80f9f3709b","session_id":"6196c1f654326fec89cc3122","condition":"full-information","relevant_dimensions":["wings","legs"],"bee_group":{"antennae":"X","wings":"2","pattern":"X","legs":"F"},"bonus":1.300000000000001},{"rt":2726.2999999821186,"stimulus":"bees-with-color/bee-A1SM.svg","response":1,"trial_type":"image-button-response","trial_index":95,"time_elapsed":330041,"internal_node_id":"0.0-4.0-0.44","subject_id":"615cc4ecf52463a34a7fd34a","study_id":"60edd13110225f80f9f3709b","session_id":"6196c1f654326fec89cc3122","condition":"full-information","relevant_dimensions":["wings","legs"],"bee_group":{"antennae":"X","wings":"2","pattern":"X","legs":"F"},"action":"avoid","summary":"bad-avoid","bonus":1.300000000000001},{"rt":1220.0999999940395,"stimulus":"\n                    <p><b>Action: <em>avoid</em></b></p>\n                    <p>This is the bee that you just saw.</p>\n                    <img src=\"bees-with-color/bee-A1SM.svg\" width=\"200\">\n                    <p><span class=\"redText\">Bad choice,</span> the bee was friendly.<br>Your bonus pay is unchanged, and remains at $0.78.</p>\n            ","response":0,"trial_type":"html-button-response","trial_index":96,"time_elapsed":331263,"internal_node_id":"0.0-4.0-1.44","subject_id":"615cc4ecf52463a34a7fd34a","study_id":"60edd13110225f80f9f3709b","session_id":"6196c1f654326fec89cc3122","condition":"full-information","relevant_dimensions":["wings","legs"],"bee_group":{"antennae":"X","wings":"2","pattern":"X","legs":"F"},"bonus":1.300000000000001},{"rt":4276.0999999940395,"stimulus":"bees-with-color/bee-B2DF.svg","response":1,"trial_type":"image-button-response","trial_index":97,"time_elapsed":335541,"internal_node_id":"0.0-4.0-0.45","subject_id":"615cc4ecf52463a34a7fd34a","study_id":"60edd13110225f80f9f3709b","session_id":"6196c1f654326fec89cc3122","condition":"full-information","relevant_dimensions":["wings","legs"],"bee_group":{"antennae":"X","wings":"2","pattern":"X","legs":"F"},"action":"avoid","summary":"good-avoid","bonus":1.300000000000001},{"rt":1257.7000000178814,"stimulus":"\n                    <p><b>Action: <em>avoid</em></b></p>\n                    <p>This is the bee that you just saw.</p>\n                    <img src=\"bees-with-color/bee-B2DF.svg\" width=\"200\">\n                    <p><span class=\"greenText\">Good choice!</span>  This bee would have stung you.<br>Your bonus pay is unchanged, and remains at $0.78.</p>\n            ","response":0,"trial_type":"html-button-response","trial_index":98,"time_elapsed":336801,"internal_node_id":"0.0-4.0-1.45","subject_id":"615cc4ecf52463a34a7fd34a","study_id":"60edd13110225f80f9f3709b","session_id":"6196c1f654326fec89cc3122","condition":"full-information","relevant_dimensions":["wings","legs"],"bee_group":{"antennae":"X","wings":"2","pattern":"X","legs":"F"},"bonus":1.300000000000001},{"rt":1967.5,"stimulus":"bees-with-color/bee-B1SM.svg","response":1,"trial_type":"image-button-response","trial_index":99,"time_elapsed":338771,"internal_node_id":"0.0-4.0-0.46","subject_id":"615cc4ecf52463a34a7fd34a","study_id":"60edd13110225f80f9f3709b","session_id":"6196c1f654326fec89cc3122","condition":"full-information","relevant_dimensions":["wings","legs"],"bee_group":{"antennae":"X","wings":"2","pattern":"X","legs":"F"},"action":"avoid","summary":"bad-avoid","bonus":1.300000000000001},{"rt":1158.800000011921,"stimulus":"\n                    <p><b>Action: <em>avoid</em></b></p>\n                    <p>This is the bee that you just saw.</p>\n                    <img src=\"bees-with-color/bee-B1SM.svg\" width=\"200\">\n                    <p><span class=\"redText\">Bad choice,</span> the bee was friendly.<br>Your bonus pay is unchanged, and remains at $0.78.</p>\n            ","response":0,"trial_type":"html-button-response","trial_index":100,"time_elapsed":339932,"internal_node_id":"0.0-4.0-1.46","subject_id":"615cc4ecf52463a34a7fd34a","study_id":"60edd13110225f80f9f3709b","session_id":"6196c1f654326fec89cc3122","condition":"full-information","relevant_dimensions":["wings","legs"],"bee_group":{"antennae":"X","wings":"2","pattern":"X","legs":"F"},"bonus":1.300000000000001},{"rt":2016.7999999821186,"stimulus":"bees-with-color/bee-A2SM.svg","response":0,"trial_type":"image-button-response","trial_index":101,"time_elapsed":341951,"internal_node_id":"0.0-4.0-0.47","subject_id":"615cc4ecf52463a34a7fd34a","study_id":"60edd13110225f80f9f3709b","session_id":"6196c1f654326fec89cc3122","condition":"full-information","relevant_dimensions":["wings","legs"],"bee_group":{"antennae":"X","wings":"2","pattern":"X","legs":"F"},"action":"harvest","summary":"good-harvest","bonus":1.300000000000001},{"rt":1528.0999999940395,"stimulus":"\n                    <p><b>Action: <em>harvest</em></b></p>\n                    <p>This is the bee that you just saw.</p>\n                    <img src=\"bees-with-color/bee-A2SM.svg\" width=\"200\">\n                    <p><span class=\"greenText\"><b>Successful harvest!</b></span><br>Your pay has increased by $0.02. Your bonus pay is now $0.80.</p>\n            ","response":0,"trial_type":"html-button-response","trial_index":102,"time_elapsed":343482,"internal_node_id":"0.0-4.0-1.47","subject_id":"615cc4ecf52463a34a7fd34a","study_id":"60edd13110225f80f9f3709b","session_id":"6196c1f654326fec89cc3122","condition":"full-information","relevant_dimensions":["wings","legs"],"bee_group":{"antennae":"X","wings":"2","pattern":"X","legs":"F"},"bonus":1.300000000000001},{"rt":1468.4000000059605,"stimulus":"bees-with-color/bee-B1SF.svg","response":0,"trial_type":"image-button-response","trial_index":103,"time_elapsed":344952,"internal_node_id":"0.0-4.0-0.48","subject_id":"615cc4ecf52463a34a7fd34a","study_id":"60edd13110225f80f9f3709b","session_id":"6196c1f654326fec89cc3122","condition":"full-information","relevant_dimensions":["wings","legs"],"bee_group":{"antennae":"X","wings":"2","pattern":"X","legs":"F"},"action":"harvest","summary":"good-harvest","bonus":1.300000000000001},{"rt":1027.5,"stimulus":"\n                    <p><b>Action: <em>harvest</em></b></p>\n                    <p>This is the bee that you just saw.</p>\n                    <img src=\"bees-with-color/bee-B1SF.svg\" width=\"200\">\n                    <p><span class=\"greenText\"><b>Successful harvest!</b></span><br>Your pay has increased by $0.02. Your bonus pay is now $0.82.</p>\n            ","response":0,"trial_type":"html-button-response","trial_index":104,"time_elapsed":345982,"internal_node_id":"0.0-4.0-1.48","subject_id":"615cc4ecf52463a34a7fd34a","study_id":"60edd13110225f80f9f3709b","session_id":"6196c1f654326fec89cc3122","condition":"full-information","relevant_dimensions":["wings","legs"],"bee_group":{"antennae":"X","wings":"2","pattern":"X","legs":"F"},"bonus":1.300000000000001},{"rt":2167.2000000178814,"stimulus":"bees-with-color/bee-B1SM.svg","response":1,"trial_type":"image-button-response","trial_index":105,"time_elapsed":348152,"internal_node_id":"0.0-4.0-0.49","subject_id":"615cc4ecf52463a34a7fd34a","study_id":"60edd13110225f80f9f3709b","session_id":"6196c1f654326fec89cc3122","condition":"full-information","relevant_dimensions":["wings","legs"],"bee_group":{"antennae":"X","wings":"2","pattern":"X","legs":"F"},"action":"avoid","summary":"bad-avoid","bonus":1.300000000000001},{"rt":1497.199999988079,"stimulus":"\n                    <p><b>Action: <em>avoid</em></b></p>\n                    <p>This is the bee that you just saw.</p>\n                    <img src=\"bees-with-color/bee-B1SM.svg\" width=\"200\">\n                    <p><span class=\"redText\">Bad choice,</span> the bee was friendly.<br>Your bonus pay is unchanged, and remains at $0.82.</p>\n            ","response":0,"trial_type":"html-button-response","trial_index":106,"time_elapsed":349651,"internal_node_id":"0.0-4.0-1.49","subject_id":"615cc4ecf52463a34a7fd34a","study_id":"60edd13110225f80f9f3709b","session_id":"6196c1f654326fec89cc3122","condition":"full-information","relevant_dimensions":["wings","legs"],"bee_group":{"antennae":"X","wings":"2","pattern":"X","legs":"F"},"bonus":1.300000000000001},{"rt":1428.2000000178814,"stimulus":"bees-with-color/bee-B2DM.svg","response":0,"trial_type":"image-button-response","trial_index":107,"time_elapsed":351082,"internal_node_id":"0.0-4.0-0.50","subject_id":"615cc4ecf52463a34a7fd34a","study_id":"60edd13110225f80f9f3709b","session_id":"6196c1f654326fec89cc3122","condition":"full-information","relevant_dimensions":["wings","legs"],"bee_group":{"antennae":"X","wings":"2","pattern":"X","legs":"F"},"action":"harvest","summary":"good-harvest","bonus":1.300000000000001},{"rt":1085.800000011921,"stimulus":"\n                    <p><b>Action: <em>harvest</em></b></p>\n                    <p>This is the bee that you just saw.</p>\n                    <img src=\"bees-with-color/bee-B2DM.svg\" width=\"200\">\n                    <p><span class=\"greenText\"><b>Successful harvest!</b></span><br>Your pay has increased by $0.02. Your bonus pay is now $0.84.</p>\n            ","response":0,"trial_type":"html-button-response","trial_index":108,"time_elapsed":352170,"internal_node_id":"0.0-4.0-1.50","subject_id":"615cc4ecf52463a34a7fd34a","study_id":"60edd13110225f80f9f3709b","session_id":"6196c1f654326fec89cc3122","condition":"full-information","relevant_dimensions":["wings","legs"],"bee_group":{"antennae":"X","wings":"2","pattern":"X","legs":"F"},"bonus":1.300000000000001},{"rt":1597.5,"stimulus":"bees-with-color/bee-A1DF.svg","response":0,"trial_type":"image-button-response","trial_index":109,"time_elapsed":353769,"internal_node_id":"0.0-4.0-0.51","subject_id":"615cc4ecf52463a34a7fd34a","study_id":"60edd13110225f80f9f3709b","session_id":"6196c1f654326fec89cc3122","condition":"full-information","relevant_dimensions":["wings","legs"],"bee_group":{"antennae":"X","wings":"2","pattern":"X","legs":"F"},"action":"harvest","summary":"good-harvest","bonus":1.300000000000001},{"rt":1089.8999999761581,"stimulus":"\n                    <p><b>Action: <em>harvest</em></b></p>\n                    <p>This is the bee that you just saw.</p>\n                    <img src=\"bees-with-color/bee-A1DF.svg\" width=\"200\">\n                    <p><span class=\"greenText\"><b>Successful harvest!</b></span><br>Your pay has increased by $0.02. Your bonus pay is now $0.86.</p>\n            ","response":0,"trial_type":"html-button-response","trial_index":110,"time_elapsed":354862,"internal_node_id":"0.0-4.0-1.51","subject_id":"615cc4ecf52463a34a7fd34a","study_id":"60edd13110225f80f9f3709b","session_id":"6196c1f654326fec89cc3122","condition":"full-information","relevant_dimensions":["wings","legs"],"bee_group":{"antennae":"X","wings":"2","pattern":"X","legs":"F"},"bonus":1.300000000000001},{"rt":2207.0999999940395,"stimulus":"bees-with-color/bee-B2DF.svg","response":1,"trial_type":"image-button-response","trial_index":111,"time_elapsed":357071,"internal_node_id":"0.0-4.0-0.52","subject_id":"615cc4ecf52463a34a7fd34a","study_id":"60edd13110225f80f9f3709b","session_id":"6196c1f654326fec89cc3122","condition":"full-information","relevant_dimensions":["wings","legs"],"bee_group":{"antennae":"X","wings":"2","pattern":"X","legs":"F"},"action":"avoid","summary":"good-avoid","bonus":1.300000000000001},{"rt":1156.0999999940395,"stimulus":"\n                    <p><b>Action: <em>avoid</em></b></p>\n                    <p>This is the bee that you just saw.</p>\n                    <img src=\"bees-with-color/bee-B2DF.svg\" width=\"200\">\n                    <p><span class=\"greenText\">Good choice!</span>  This bee would have stung you.<br>Your bonus pay is unchanged, and remains at $0.86.</p>\n            ","response":0,"trial_type":"html-button-response","trial_index":112,"time_elapsed":358230,"internal_node_id":"0.0-4.0-1.52","subject_id":"615cc4ecf52463a34a7fd34a","study_id":"60edd13110225f80f9f3709b","session_id":"6196c1f654326fec89cc3122","condition":"full-information","relevant_dimensions":["wings","legs"],"bee_group":{"antennae":"X","wings":"2","pattern":"X","legs":"F"},"bonus":1.300000000000001},{"rt":2038.800000011921,"stimulus":"bees-with-color/bee-A2DF.svg","response":1,"trial_type":"image-button-response","trial_index":113,"time_elapsed":360271,"internal_node_id":"0.0-4.0-0.53","subject_id":"615cc4ecf52463a34a7fd34a","study_id":"60edd13110225f80f9f3709b","session_id":"6196c1f654326fec89cc3122","condition":"full-information","relevant_dimensions":["wings","legs"],"bee_group":{"antennae":"X","wings":"2","pattern":"X","legs":"F"},"action":"avoid","summary":"good-avoid","bonus":1.300000000000001},{"rt":1028.199999988079,"stimulus":"\n                    <p><b>Action: <em>avoid</em></b></p>\n                    <p>This is the bee that you just saw.</p>\n                    <img src=\"bees-with-color/bee-A2DF.svg\" width=\"200\">\n                    <p><span class=\"greenText\">Good choice!</span>  This bee would have stung you.<br>Your bonus pay is unchanged, and remains at $0.86.</p>\n            ","response":0,"trial_type":"html-button-response","trial_index":114,"time_elapsed":361301,"internal_node_id":"0.0-4.0-1.53","subject_id":"615cc4ecf52463a34a7fd34a","study_id":"60edd13110225f80f9f3709b","session_id":"6196c1f654326fec89cc3122","condition":"full-information","relevant_dimensions":["wings","legs"],"bee_group":{"antennae":"X","wings":"2","pattern":"X","legs":"F"},"bonus":1.300000000000001},{"rt":1445.2000000178814,"stimulus":"bees-with-color/bee-A2DM.svg","response":0,"trial_type":"image-button-response","trial_index":115,"time_elapsed":362749,"internal_node_id":"0.0-4.0-0.54","subject_id":"615cc4ecf52463a34a7fd34a","study_id":"60edd13110225f80f9f3709b","session_id":"6196c1f654326fec89cc3122","condition":"full-information","relevant_dimensions":["wings","legs"],"bee_group":{"antennae":"X","wings":"2","pattern":"X","legs":"F"},"action":"harvest","summary":"good-harvest","bonus":1.300000000000001},{"rt":1110.4000000059605,"stimulus":"\n                    <p><b>Action: <em>harvest</em></b></p>\n                    <p>This is the bee that you just saw.</p>\n                    <img src=\"bees-with-color/bee-A2DM.svg\" width=\"200\">\n                    <p><span class=\"greenText\"><b>Successful harvest!</b></span><br>Your pay has increased by $0.02. Your bonus pay is now $0.88.</p>\n            ","response":0,"trial_type":"html-button-response","trial_index":116,"time_elapsed":363862,"internal_node_id":"0.0-4.0-1.54","subject_id":"615cc4ecf52463a34a7fd34a","study_id":"60edd13110225f80f9f3709b","session_id":"6196c1f654326fec89cc3122","condition":"full-information","relevant_dimensions":["wings","legs"],"bee_group":{"antennae":"X","wings":"2","pattern":"X","legs":"F"},"bonus":1.300000000000001},{"rt":1457.5,"stimulus":"bees-with-color/bee-B2SM.svg","response":0,"trial_type":"image-button-response","trial_index":117,"time_elapsed":365322,"internal_node_id":"0.0-4.0-0.55","subject_id":"615cc4ecf52463a34a7fd34a","study_id":"60edd13110225f80f9f3709b","session_id":"6196c1f654326fec89cc3122","condition":"full-information","relevant_dimensions":["wings","legs"],"bee_group":{"antennae":"X","wings":"2","pattern":"X","legs":"F"},"action":"harvest","summary":"good-harvest","bonus":1.300000000000001},{"rt":1086.0999999940395,"stimulus":"\n                    <p><b>Action: <em>harvest</em></b></p>\n                    <p>This is the bee that you just saw.</p>\n                    <img src=\"bees-with-color/bee-B2SM.svg\" width=\"200\">\n                    <p><span class=\"greenText\"><b>Successful harvest!</b></span><br>Your pay has increased by $0.02. Your bonus pay is now $0.90.</p>\n            ","response":0,"trial_type":"html-button-response","trial_index":118,"time_elapsed":366410,"internal_node_id":"0.0-4.0-1.55","subject_id":"615cc4ecf52463a34a7fd34a","study_id":"60edd13110225f80f9f3709b","session_id":"6196c1f654326fec89cc3122","condition":"full-information","relevant_dimensions":["wings","legs"],"bee_group":{"antennae":"X","wings":"2","pattern":"X","legs":"F"},"bonus":1.300000000000001},{"rt":1349,"stimulus":"bees-with-color/bee-A2SM.svg","response":0,"trial_type":"image-button-response","trial_index":119,"time_elapsed":367761,"internal_node_id":"0.0-4.0-0.56","subject_id":"615cc4ecf52463a34a7fd34a","study_id":"60edd13110225f80f9f3709b","session_id":"6196c1f654326fec89cc3122","condition":"full-information","relevant_dimensions":["wings","legs"],"bee_group":{"antennae":"X","wings":"2","pattern":"X","legs":"F"},"action":"harvest","summary":"good-harvest","bonus":1.300000000000001},{"rt":1286,"stimulus":"\n                    <p><b>Action: <em>harvest</em></b></p>\n                    <p>This is the bee that you just saw.</p>\n                    <img src=\"bees-with-color/bee-A2SM.svg\" width=\"200\">\n                    <p><span class=\"greenText\"><b>Successful harvest!</b></span><br>Your pay has increased by $0.02. Your bonus pay is now $0.92.</p>\n            ","response":0,"trial_type":"html-button-response","trial_index":120,"time_elapsed":369050,"internal_node_id":"0.0-4.0-1.56","subject_id":"615cc4ecf52463a34a7fd34a","study_id":"60edd13110225f80f9f3709b","session_id":"6196c1f654326fec89cc3122","condition":"full-information","relevant_dimensions":["wings","legs"],"bee_group":{"antennae":"X","wings":"2","pattern":"X","legs":"F"},"bonus":1.300000000000001},{"rt":1809.699999988079,"stimulus":"bees-with-color/bee-B1DF.svg","response":0,"trial_type":"image-button-response","trial_index":121,"time_elapsed":370863,"internal_node_id":"0.0-4.0-0.57","subject_id":"615cc4ecf52463a34a7fd34a","study_id":"60edd13110225f80f9f3709b","session_id":"6196c1f654326fec89cc3122","condition":"full-information","relevant_dimensions":["wings","legs"],"bee_group":{"antennae":"X","wings":"2","pattern":"X","legs":"F"},"action":"harvest","summary":"good-harvest","bonus":1.300000000000001},{"rt":1412.9000000059605,"stimulus":"\n                    <p><b>Action: <em>harvest</em></b></p>\n                    <p>This is the bee that you just saw.</p>\n                    <img src=\"bees-with-color/bee-B1DF.svg\" width=\"200\">\n                    <p><span class=\"greenText\"><b>Successful harvest!</b></span><br>Your pay has increased by $0.02. Your bonus pay is now $0.94.</p>\n            ","response":0,"trial_type":"html-button-response","trial_index":122,"time_elapsed":372278,"internal_node_id":"0.0-4.0-1.57","subject_id":"615cc4ecf52463a34a7fd34a","study_id":"60edd13110225f80f9f3709b","session_id":"6196c1f654326fec89cc3122","condition":"full-information","relevant_dimensions":["wings","legs"],"bee_group":{"antennae":"X","wings":"2","pattern":"X","legs":"F"},"bonus":1.300000000000001},{"rt":1921.0999999940395,"stimulus":"bees-with-color/bee-B2SF.svg","response":1,"trial_type":"image-button-response","trial_index":123,"time_elapsed":374202,"internal_node_id":"0.0-4.0-0.58","subject_id":"615cc4ecf52463a34a7fd34a","study_id":"60edd13110225f80f9f3709b","session_id":"6196c1f654326fec89cc3122","condition":"full-information","relevant_dimensions":["wings","legs"],"bee_group":{"antennae":"X","wings":"2","pattern":"X","legs":"F"},"action":"avoid","summary":"good-avoid","bonus":1.300000000000001},{"rt":1167.7000000178814,"stimulus":"\n                    <p><b>Action: <em>avoid</em></b></p>\n                    <p>This is the bee that you just saw.</p>\n                    <img src=\"bees-with-color/bee-B2SF.svg\" width=\"200\">\n                    <p><span class=\"greenText\">Good choice!</span>  This bee would have stung you.<br>Your bonus pay is unchanged, and remains at $0.94.</p>\n            ","response":0,"trial_type":"html-button-response","trial_index":124,"time_elapsed":375372,"internal_node_id":"0.0-4.0-1.58","subject_id":"615cc4ecf52463a34a7fd34a","study_id":"60edd13110225f80f9f3709b","session_id":"6196c1f654326fec89cc3122","condition":"full-information","relevant_dimensions":["wings","legs"],"bee_group":{"antennae":"X","wings":"2","pattern":"X","legs":"F"},"bonus":1.300000000000001},{"rt":2060.699999988079,"stimulus":"bees-with-color/bee-B1DM.svg","response":1,"trial_type":"image-button-response","trial_index":125,"time_elapsed":377434,"internal_node_id":"0.0-4.0-0.59","subject_id":"615cc4ecf52463a34a7fd34a","study_id":"60edd13110225f80f9f3709b","session_id":"6196c1f654326fec89cc3122","condition":"full-information","relevant_dimensions":["wings","legs"],"bee_group":{"antennae":"X","wings":"2","pattern":"X","legs":"F"},"action":"avoid","summary":"bad-avoid","bonus":1.300000000000001},{"rt":1312.0999999940395,"stimulus":"\n                    <p><b>Action: <em>avoid</em></b></p>\n                    <p>This is the bee that you just saw.</p>\n                    <img src=\"bees-with-color/bee-B1DM.svg\" width=\"200\">\n                    <p><span class=\"redText\">Bad choice,</span> the bee was friendly.<br>Your bonus pay is unchanged, and remains at $0.94.</p>\n            ","response":0,"trial_type":"html-button-response","trial_index":126,"time_elapsed":378749,"internal_node_id":"0.0-4.0-1.59","subject_id":"615cc4ecf52463a34a7fd34a","study_id":"60edd13110225f80f9f3709b","session_id":"6196c1f654326fec89cc3122","condition":"full-information","relevant_dimensions":["wings","legs"],"bee_group":{"antennae":"X","wings":"2","pattern":"X","legs":"F"},"bonus":1.300000000000001},{"rt":1929.5,"stimulus":"bees-with-color/bee-A1SM.svg","response":1,"trial_type":"image-button-response","trial_index":127,"time_elapsed":380681,"internal_node_id":"0.0-4.0-0.60","subject_id":"615cc4ecf52463a34a7fd34a","study_id":"60edd13110225f80f9f3709b","session_id":"6196c1f654326fec89cc3122","condition":"full-information","relevant_dimensions":["wings","legs"],"bee_group":{"antennae":"X","wings":"2","pattern":"X","legs":"F"},"action":"avoid","summary":"bad-avoid","bonus":1.300000000000001},{"rt":1177.9000000059605,"stimulus":"\n                    <p><b>Action: <em>avoid</em></b></p>\n                    <p>This is the bee that you just saw.</p>\n                    <img src=\"bees-with-color/bee-A1SM.svg\" width=\"200\">\n                    <p><span class=\"redText\">Bad choice,</span> the bee was friendly.<br>Your bonus pay is unchanged, and remains at $0.94.</p>\n            ","response":0,"trial_type":"html-button-response","trial_index":128,"time_elapsed":381861,"internal_node_id":"0.0-4.0-1.60","subject_id":"615cc4ecf52463a34a7fd34a","study_id":"60edd13110225f80f9f3709b","session_id":"6196c1f654326fec89cc3122","condition":"full-information","relevant_dimensions":["wings","legs"],"bee_group":{"antennae":"X","wings":"2","pattern":"X","legs":"F"},"bonus":1.300000000000001},{"rt":2094.5,"stimulus":"bees-with-color/bee-A2SF.svg","response":1,"trial_type":"image-button-response","trial_index":129,"time_elapsed":383958,"internal_node_id":"0.0-4.0-0.61","subject_id":"615cc4ecf52463a34a7fd34a","study_id":"60edd13110225f80f9f3709b","session_id":"6196c1f654326fec89cc3122","condition":"full-information","relevant_dimensions":["wings","legs"],"bee_group":{"antennae":"X","wings":"2","pattern":"X","legs":"F"},"action":"avoid","summary":"good-avoid","bonus":1.300000000000001},{"rt":1122,"stimulus":"\n                    <p><b>Action: <em>avoid</em></b></p>\n                    <p>This is the bee that you just saw.</p>\n                    <img src=\"bees-with-color/bee-A2SF.svg\" width=\"200\">\n                    <p><span class=\"greenText\">Good choice!</span>  This bee would have stung you.<br>Your bonus pay is unchanged, and remains at $0.94.</p>\n            ","response":0,"trial_type":"html-button-response","trial_index":130,"time_elapsed":385082,"internal_node_id":"0.0-4.0-1.61","subject_id":"615cc4ecf52463a34a7fd34a","study_id":"60edd13110225f80f9f3709b","session_id":"6196c1f654326fec89cc3122","condition":"full-information","relevant_dimensions":["wings","legs"],"bee_group":{"antennae":"X","wings":"2","pattern":"X","legs":"F"},"bonus":1.300000000000001},{"rt":1946.5999999940395,"stimulus":"bees-with-color/bee-A1SF.svg","response":0,"trial_type":"image-button-response","trial_index":131,"time_elapsed":387031,"internal_node_id":"0.0-4.0-0.62","subject_id":"615cc4ecf52463a34a7fd34a","study_id":"60edd13110225f80f9f3709b","session_id":"6196c1f654326fec89cc3122","condition":"full-information","relevant_dimensions":["wings","legs"],"bee_group":{"antennae":"X","wings":"2","pattern":"X","legs":"F"},"action":"harvest","summary":"good-harvest","bonus":1.300000000000001},{"rt":1115.4000000059605,"stimulus":"\n                    <p><b>Action: <em>harvest</em></b></p>\n                    <p>This is the bee that you just saw.</p>\n                    <img src=\"bees-with-color/bee-A1SF.svg\" width=\"200\">\n                    <p><span class=\"greenText\"><b>Successful harvest!</b></span><br>Your pay has increased by $0.02. Your bonus pay is now $0.96.</p>\n            ","response":0,"trial_type":"html-button-response","trial_index":132,"time_elapsed":388148,"internal_node_id":"0.0-4.0-1.62","subject_id":"615cc4ecf52463a34a7fd34a","study_id":"60edd13110225f80f9f3709b","session_id":"6196c1f654326fec89cc3122","condition":"full-information","relevant_dimensions":["wings","legs"],"bee_group":{"antennae":"X","wings":"2","pattern":"X","legs":"F"},"bonus":1.300000000000001},{"rt":2610.2000000178814,"stimulus":"bees-with-color/bee-A1DM.svg","response":1,"trial_type":"image-button-response","trial_index":133,"time_elapsed":390760,"internal_node_id":"0.0-4.0-0.63","subject_id":"615cc4ecf52463a34a7fd34a","study_id":"60edd13110225f80f9f3709b","session_id":"6196c1f654326fec89cc3122","condition":"full-information","relevant_dimensions":["wings","legs"],"bee_group":{"antennae":"X","wings":"2","pattern":"X","legs":"F"},"action":"avoid","summary":"bad-avoid","bonus":1.300000000000001},{"rt":1274.2999999821186,"stimulus":"\n                    <p><b>Action: <em>avoid</em></b></p>\n                    <p>This is the bee that you just saw.</p>\n                    <img src=\"bees-with-color/bee-A1DM.svg\" width=\"200\">\n                    <p><span class=\"redText\">Bad choice,</span> the bee was friendly.<br>Your bonus pay is unchanged, and remains at $0.96.</p>\n            ","response":0,"trial_type":"html-button-response","trial_index":134,"time_elapsed":392036,"internal_node_id":"0.0-4.0-1.63","subject_id":"615cc4ecf52463a34a7fd34a","study_id":"60edd13110225f80f9f3709b","session_id":"6196c1f654326fec89cc3122","condition":"full-information","relevant_dimensions":["wings","legs"],"bee_group":{"antennae":"X","wings":"2","pattern":"X","legs":"F"},"bonus":1.300000000000001},{"rt":6983.399999976158,"stimulus":"You have completed the first part of this experiment.<br><br>You will now begin a shorter second part, in which you will receive no feedback.<br>The same rules regarding bonus pay apply.<br><br>Press any key to begin.","response":"j","trial_type":"html-keyboard-response","trial_index":135,"time_elapsed":399022,"internal_node_id":"0.0-5.0","subject_id":"615cc4ecf52463a34a7fd34a","study_id":"60edd13110225f80f9f3709b","session_id":"6196c1f654326fec89cc3122","condition":"full-information","relevant_dimensions":["wings","legs"],"bee_group":{"antennae":"X","wings":"2","pattern":"X","legs":"F"},"bonus":1.300000000000001},{"rt":3173.7999999821186,"stimulus":"bees-with-color/bee-A1SM.svg","response":1,"trial_type":"image-button-response","trial_index":136,"time_elapsed":402204,"internal_node_id":"0.0-6.0-0.0","subject_id":"615cc4ecf52463a34a7fd34a","study_id":"60edd13110225f80f9f3709b","session_id":"6196c1f654326fec89cc3122","condition":"full-information","relevant_dimensions":["wings","legs"],"bee_group":{"antennae":"X","wings":"2","pattern":"X","legs":"F"},"bonus":1.300000000000001},{"rt":2434.5,"stimulus":"bees-with-color/bee-B2SF.svg","response":1,"trial_type":"image-button-response","trial_index":137,"time_elapsed":404641,"internal_node_id":"0.0-6.0-0.1","subject_id":"615cc4ecf52463a34a7fd34a","study_id":"60edd13110225f80f9f3709b","session_id":"6196c1f654326fec89cc3122","condition":"full-information","relevant_dimensions":["wings","legs"],"bee_group":{"antennae":"X","wings":"2","pattern":"X","legs":"F"},"bonus":1.300000000000001},{"rt":1616.9000000059605,"stimulus":"bees-with-color/bee-A1SF.svg","response":0,"trial_type":"image-button-response","trial_index":138,"time_elapsed":406261,"internal_node_id":"0.0-6.0-0.2","subject_id":"615cc4ecf52463a34a7fd34a","study_id":"60edd13110225f80f9f3709b","session_id":"6196c1f654326fec89cc3122","condition":"full-information","relevant_dimensions":["wings","legs"],"bee_group":{"antennae":"X","wings":"2","pattern":"X","legs":"F"},"bonus":1.300000000000001},{"rt":1581.9000000059605,"stimulus":"bees-with-color/bee-B1DF.svg","response":0,"trial_type":"image-button-response","trial_index":139,"time_elapsed":407846,"internal_node_id":"0.0-6.0-0.3","subject_id":"615cc4ecf52463a34a7fd34a","study_id":"60edd13110225f80f9f3709b","session_id":"6196c1f654326fec89cc3122","condition":"full-information","relevant_dimensions":["wings","legs"],"bee_group":{"antennae":"X","wings":"2","pattern":"X","legs":"F"},"bonus":1.300000000000001},{"rt":1158.9000000059605,"stimulus":"bees-with-color/bee-B1SF.svg","response":0,"trial_type":"image-button-response","trial_index":140,"time_elapsed":409007,"internal_node_id":"0.0-6.0-0.4","subject_id":"615cc4ecf52463a34a7fd34a","study_id":"60edd13110225f80f9f3709b","session_id":"6196c1f654326fec89cc3122","condition":"full-information","relevant_dimensions":["wings","legs"],"bee_group":{"antennae":"X","wings":"2","pattern":"X","legs":"F"},"bonus":1.300000000000001},{"rt":4651.0999999940395,"stimulus":"bees-with-color/bee-A2SM.svg","response":0,"trial_type":"image-button-response","trial_index":141,"time_elapsed":413661,"internal_node_id":"0.0-6.0-0.5","subject_id":"615cc4ecf52463a34a7fd34a","study_id":"60edd13110225f80f9f3709b","session_id":"6196c1f654326fec89cc3122","condition":"full-information","relevant_dimensions":["wings","legs"],"bee_group":{"antennae":"X","wings":"2","pattern":"X","legs":"F"},"bonus":1.300000000000001},{"rt":3182.0999999940395,"stimulus":"bees-with-color/bee-B1SM.svg","response":1,"trial_type":"image-button-response","trial_index":142,"time_elapsed":416846,"internal_node_id":"0.0-6.0-0.6","subject_id":"615cc4ecf52463a34a7fd34a","study_id":"60edd13110225f80f9f3709b","session_id":"6196c1f654326fec89cc3122","condition":"full-information","relevant_dimensions":["wings","legs"],"bee_group":{"antennae":"X","wings":"2","pattern":"X","legs":"F"},"bonus":1.300000000000001},{"rt":2050.5,"stimulus":"bees-with-color/bee-A2SF.svg","response":1,"trial_type":"image-button-response","trial_index":143,"time_elapsed":418900,"internal_node_id":"0.0-6.0-0.7","subject_id":"615cc4ecf52463a34a7fd34a","study_id":"60edd13110225f80f9f3709b","session_id":"6196c1f654326fec89cc3122","condition":"full-information","relevant_dimensions":["wings","legs"],"bee_group":{"antennae":"X","wings":"2","pattern":"X","legs":"F"},"bonus":1.300000000000001},{"rt":1727.4000000059605,"stimulus":"bees-with-color/bee-A2DM.svg","response":0,"trial_type":"image-button-response","trial_index":144,"time_elapsed":420631,"internal_node_id":"0.0-6.0-0.8","subject_id":"615cc4ecf52463a34a7fd34a","study_id":"60edd13110225f80f9f3709b","session_id":"6196c1f654326fec89cc3122","condition":"full-information","relevant_dimensions":["wings","legs"],"bee_group":{"antennae":"X","wings":"2","pattern":"X","legs":"F"},"bonus":1.300000000000001},{"rt":1647.0999999940395,"stimulus":"bees-with-color/bee-A2DF.svg","response":1,"trial_type":"image-button-response","trial_index":145,"time_elapsed":422281,"internal_node_id":"0.0-6.0-0.9","subject_id":"615cc4ecf52463a34a7fd34a","study_id":"60edd13110225f80f9f3709b","session_id":"6196c1f654326fec89cc3122","condition":"full-information","relevant_dimensions":["wings","legs"],"bee_group":{"antennae":"X","wings":"2","pattern":"X","legs":"F"},"bonus":1.300000000000001},{"rt":1606.7999999821186,"stimulus":"bees-with-color/bee-A1DF.svg","response":0,"trial_type":"image-button-response","trial_index":146,"time_elapsed":423890,"internal_node_id":"0.0-6.0-0.10","subject_id":"615cc4ecf52463a34a7fd34a","study_id":"60edd13110225f80f9f3709b","session_id":"6196c1f654326fec89cc3122","condition":"full-information","relevant_dimensions":["wings","legs"],"bee_group":{"antennae":"X","wings":"2","pattern":"X","legs":"F"},"bonus":1.300000000000001},{"rt":2308.899999976158,"stimulus":"bees-with-color/bee-B1DM.svg","response":1,"trial_type":"image-button-response","trial_index":147,"time_elapsed":426202,"internal_node_id":"0.0-6.0-0.11","subject_id":"615cc4ecf52463a34a7fd34a","study_id":"60edd13110225f80f9f3709b","session_id":"6196c1f654326fec89cc3122","condition":"full-information","relevant_dimensions":["wings","legs"],"bee_group":{"antennae":"X","wings":"2","pattern":"X","legs":"F"},"bonus":1.300000000000001},{"rt":2180.7000000178814,"stimulus":"bees-with-color/bee-A1DM.svg","response":0,"trial_type":"image-button-response","trial_index":148,"time_elapsed":428386,"internal_node_id":"0.0-6.0-0.12","subject_id":"615cc4ecf52463a34a7fd34a","study_id":"60edd13110225f80f9f3709b","session_id":"6196c1f654326fec89cc3122","condition":"full-information","relevant_dimensions":["wings","legs"],"bee_group":{"antennae":"X","wings":"2","pattern":"X","legs":"F"},"bonus":1.300000000000001},{"rt":2139.5,"stimulus":"bees-with-color/bee-B2DF.svg","response":1,"trial_type":"image-button-response","trial_index":149,"time_elapsed":430529,"internal_node_id":"0.0-6.0-0.13","subject_id":"615cc4ecf52463a34a7fd34a","study_id":"60edd13110225f80f9f3709b","session_id":"6196c1f654326fec89cc3122","condition":"full-information","relevant_dimensions":["wings","legs"],"bee_group":{"antennae":"X","wings":"2","pattern":"X","legs":"F"},"bonus":1.300000000000001},{"rt":1176.5,"stimulus":"bees-with-color/bee-B2DM.svg","response":0,"trial_type":"image-button-response","trial_index":150,"time_elapsed":431708,"internal_node_id":"0.0-6.0-0.14","subject_id":"615cc4ecf52463a34a7fd34a","study_id":"60edd13110225f80f9f3709b","session_id":"6196c1f654326fec89cc3122","condition":"full-information","relevant_dimensions":["wings","legs"],"bee_group":{"antennae":"X","wings":"2","pattern":"X","legs":"F"},"bonus":1.300000000000001},{"rt":3321.7000000178814,"stimulus":"bees-with-color/bee-B2SM.svg","response":0,"trial_type":"image-button-response","trial_index":151,"time_elapsed":435032,"internal_node_id":"0.0-6.0-0.15","subject_id":"615cc4ecf52463a34a7fd34a","study_id":"60edd13110225f80f9f3709b","session_id":"6196c1f654326fec89cc3122","condition":"full-information","relevant_dimensions":["wings","legs"],"bee_group":{"antennae":"X","wings":"2","pattern":"X","legs":"F"},"bonus":1.300000000000001},{"rt":1551.800000011921,"stimulus":"bees-with-color/bee-B1DF.svg","response":0,"trial_type":"image-button-response","trial_index":152,"time_elapsed":436587,"internal_node_id":"0.0-6.0-0.16","subject_id":"615cc4ecf52463a34a7fd34a","study_id":"60edd13110225f80f9f3709b","session_id":"6196c1f654326fec89cc3122","condition":"full-information","relevant_dimensions":["wings","legs"],"bee_group":{"antennae":"X","wings":"2","pattern":"X","legs":"F"},"bonus":1.300000000000001},{"rt":1558.5999999940395,"stimulus":"bees-with-color/bee-A2DM.svg","response":0,"trial_type":"image-button-response","trial_index":153,"time_elapsed":438147,"internal_node_id":"0.0-6.0-0.17","subject_id":"615cc4ecf52463a34a7fd34a","study_id":"60edd13110225f80f9f3709b","session_id":"6196c1f654326fec89cc3122","condition":"full-information","relevant_dimensions":["wings","legs"],"bee_group":{"antennae":"X","wings":"2","pattern":"X","legs":"F"},"bonus":1.300000000000001},{"rt":2402.5,"stimulus":"bees-with-color/bee-A2DF.svg","response":1,"trial_type":"image-button-response","trial_index":154,"time_elapsed":440552,"internal_node_id":"0.0-6.0-0.18","subject_id":"615cc4ecf52463a34a7fd34a","study_id":"60edd13110225f80f9f3709b","session_id":"6196c1f654326fec89cc3122","condition":"full-information","relevant_dimensions":["wings","legs"],"bee_group":{"antennae":"X","wings":"2","pattern":"X","legs":"F"},"bonus":1.300000000000001},{"rt":2084.5,"stimulus":"bees-with-color/bee-B2DM.svg","response":0,"trial_type":"image-button-response","trial_index":155,"time_elapsed":442638,"internal_node_id":"0.0-6.0-0.19","subject_id":"615cc4ecf52463a34a7fd34a","study_id":"60edd13110225f80f9f3709b","session_id":"6196c1f654326fec89cc3122","condition":"full-information","relevant_dimensions":["wings","legs"],"bee_group":{"antennae":"X","wings":"2","pattern":"X","legs":"F"},"bonus":1.300000000000001},{"rt":1907.199999988079,"stimulus":"bees-with-color/bee-B1DM.svg","response":1,"trial_type":"image-button-response","trial_index":156,"time_elapsed":444548,"internal_node_id":"0.0-6.0-0.20","subject_id":"615cc4ecf52463a34a7fd34a","study_id":"60edd13110225f80f9f3709b","session_id":"6196c1f654326fec89cc3122","condition":"full-information","relevant_dimensions":["wings","legs"],"bee_group":{"antennae":"X","wings":"2","pattern":"X","legs":"F"},"bonus":1.300000000000001},{"rt":1948.5,"stimulus":"bees-with-color/bee-B1SF.svg","response":0,"trial_type":"image-button-response","trial_index":157,"time_elapsed":446499,"internal_node_id":"0.0-6.0-0.21","subject_id":"615cc4ecf52463a34a7fd34a","study_id":"60edd13110225f80f9f3709b","session_id":"6196c1f654326fec89cc3122","condition":"full-information","relevant_dimensions":["wings","legs"],"bee_group":{"antennae":"X","wings":"2","pattern":"X","legs":"F"},"bonus":1.300000000000001},{"rt":1518.5999999940395,"stimulus":"bees-with-color/bee-A2SF.svg","response":1,"trial_type":"image-button-response","trial_index":158,"time_elapsed":448020,"internal_node_id":"0.0-6.0-0.22","subject_id":"615cc4ecf52463a34a7fd34a","study_id":"60edd13110225f80f9f3709b","session_id":"6196c1f654326fec89cc3122","condition":"full-information","relevant_dimensions":["wings","legs"],"bee_group":{"antennae":"X","wings":"2","pattern":"X","legs":"F"},"bonus":1.300000000000001},{"rt":1817.7000000178814,"stimulus":"