[{"success":true,"trial_type":"fullscreen","trial_index":0,"time_elapsed":49784,"internal_node_id":"0.0-0.0","subject_id":"60fed3d892fa85f71f759543","study_id":"6197b3f67c2b5cd3b6d9596a","session_id":"619be58fc4ca94938202462d","condition":"full-information","relevant_dimensions":["antennae","legs"],"bee_group":{"antennae":"A","wings":"X","pattern":"X","legs":"M"},"bonus":0.02},{"success":true,"timeout":false,"failed_images":[],"failed_audio":[],"failed_video":[],"trial_type":"preload","trial_index":1,"time_elapsed":50953,"internal_node_id":"0.0-1.0","subject_id":"60fed3d892fa85f71f759543","study_id":"6197b3f67c2b5cd3b6d9596a","session_id":"619be58fc4ca94938202462d","condition":"full-information","relevant_dimensions":["antennae","legs"],"bee_group":{"antennae":"A","wings":"X","pattern":"X","legs":"M"},"bonus":0.02},{"rt":3695.0999999996275,"stimulus":"Welcome! Press any key to begin.","response":"enter","trial_type":"html-keyboard-response","trial_index":2,"time_elapsed":54648,"internal_node_id":"0.0-2.0","subject_id":"60fed3d892fa85f71f759543","study_id":"6197b3f67c2b5cd3b6d9596a","session_id":"619be58fc4ca94938202462d","condition":"full-information","relevant_dimensions":["antennae","legs"],"bee_group":{"antennae":"A","wings":"X","pattern":"X","legs":"M"},"bonus":0.02},{"view_history":[{"page_index":0,"viewing_time":4324.89999999851},{"page_index":1,"viewing_time":11799.800000000745},{"page_index":2,"viewing_time":17736},{"page_index":3,"viewing_time":14120.099999999627},{"page_index":4,"viewing_time":5512},{"page_index":5,"viewing_time":22447.900000000373},{"page_index":6,"viewing_time":24728},{"page_index":7,"viewing_time":5863.9000000003725},{"page_index":8,"viewing_time":11936.099999999627},{"page_index":9,"viewing_time":4592.0999999996275},{"page_index":8,"viewing_time":447.80000000074506},{"page_index":7,"viewing_time":2984.0999999996275},{"page_index":8,"viewing_time":3640},{"page_index":9,"viewing_time":3968.199999999255},{"page_index":10,"viewing_time":4391.700000001118},{"page_index":11,"viewing_time":10544},{"page_index":12,"viewing_time":26608.099999999627},{"page_index":13,"viewing_time":2199.9000000003725},{"page_index":14,"viewing_time":4528.0999999996275}],"rt":182372.8999999985,"trial_type":"instructions","trial_index":3,"time_elapsed":237022,"internal_node_id":"0.0-3.0-0.0","subject_id":"60fed3d892fa85f71f759543","study_id":"6197b3f67c2b5cd3b6d9596a","session_id":"619be58fc4ca94938202462d","condition":"full-information","relevant_dimensions":["antennae","legs"],"bee_group":{"antennae":"A","wings":"X","pattern":"X","legs":"M"},"bonus":0.02},{"rt":10325.89999999851,"response":{"Q0":["Two or six legs","Stripes or spots on body","Single or double wings","Antennae or no antennae"]},"question_order":[0],"trial_type":"survey-multi-select","trial_index":4,"time_elapsed":247350,"internal_node_id":"0.0-3.0-1.0","subject_id":"60fed3d892fa85f71f759543","study_id":"6197b3f67c2b5cd3b6d9596a","session_id":"619be58fc4ca94938202462d","condition":"full-information","relevant_dimensions":["antennae","legs"],"bee_group":{"antennae":"A","wings":"X","pattern":"X","legs":"M"},"correct":true,"bonus":0.02},{"rt":29804.799999998882,"response":{"Q1":"No.","Q2":"Based on the four features of the bee.","Q3":"You learn if it was friendly or dangerous, but do not alter your bonus."},"question_order":[0,1,2],"trial_type":"survey-multi-choice","trial_index":5,"time_elapsed":277158,"internal_node_id":"0.0-3.0-2.0","subject_id":"60fed3d892fa85f71f759543","study_id":"6197b3f67c2b5cd3b6d9596a","session_id":"619be58fc4ca94938202462d","condition":"full-information","relevant_dimensions":["antennae","legs"],"bee_group":{"antennae":"A","wings":"X","pattern":"X","legs":"M"},"correct":true,"bonus":0.02},{"rt":5029.199999999255,"stimulus":"<p>Congrats, you got everything right<br>When you're ready, click the button below to continue to the experiment.</p>","response":0,"trial_type":"html-button-response","trial_index":6,"time_elapsed":282190,"internal_node_id":"0.0-3.0-3.0","subject_id":"60fed3d892fa85f71f759543","study_id":"6197b3f67c2b5cd3b6d9596a","session_id":"619be58fc4ca94938202462d","condition":"full-information","relevant_dimensions":["antennae","legs"],"bee_group":{"antennae":"A","wings":"X","pattern":"X","legs":"M"},"bonus":0.02},{"rt":12598.300000000745,"stimulus":"bees-with-color/bee-A1DF.svg","response":1,"trial_type":"image-button-response","trial_index":7,"time_elapsed":294789,"internal_node_id":"0.0-4.0-0.0","subject_id":"60fed3d892fa85f71f759543","study_id":"6197b3f67c2b5cd3b6d9596a","session_id":"619be58fc4ca94938202462d","condition":"full-information","relevant_dimensions":["antennae","legs"],"bee_group":{"antennae":"A","wings":"X","pattern":"X","legs":"M"},"action":"avoid","summary":"bad-avoid","bonus":0.02},{"rt":19214.200000001118,"stimulus":"\n                    <p><b>Action: <em>avoid</em></b></p>\n                    <p>This is the bee that you just saw.</p>\n                    <img src=\"bees-with-color/bee-A1DF.svg\" width=\"200\">\n                    <p><span class=\"redText\">Bad choice,</span> the bee was friendly.<br>Your bonus pay is unchanged, and remains at $0.54.</p>\n            ","response":0,"trial_type":"html-button-response","trial_index":8,"time_elapsed":314005,"internal_node_id":"0.0-4.0-1.0","subject_id":"60fed3d892fa85f71f759543","study_id":"6197b3f67c2b5cd3b6d9596a","session_id":"619be58fc4ca94938202462d","condition":"full-information","relevant_dimensions":["antennae","legs"],"bee_group":{"antennae":"A","wings":"X","pattern":"X","legs":"M"},"bonus":0.02},{"rt":4462.4000000003725,"stimulus":"bees-with-color/bee-A1SF.svg","response":1,"trial_type":"image-button-response","trial_index":9,"time_elapsed":318469,"internal_node_id":"0.0-4.0-0.1","subject_id":"60fed3d892fa85f71f759543","study_id":"6197b3f67c2b5cd3b6d9596a","session_id":"619be58fc4ca94938202462d","condition":"full-information","relevant_dimensions":["antennae","legs"],"bee_group":{"antennae":"A","wings":"X","pattern":"X","legs":"M"},"action":"avoid","summary":"bad-avoid","bonus":0.02},{"rt":5902.9000000003725,"stimulus":"\n                    <p><b>Action: <em>avoid</em></b></p>\n                    <p>This is the bee that you just saw.</p>\n                    <img src=\"bees-with-color/bee-A1SF.svg\" width=\"200\">\n                    <p><span class=\"redText\">Bad choice,</span> the bee was friendly.<br>Your bonus pay is unchanged, and remains at $0.54.</p>\n            ","response":0,"trial_type":"html-button-response","trial_index":10,"time_elapsed":324373,"internal_node_id":"0.0-4.0-1.1","subject_id":"60fed3d892fa85f71f759543","study_id":"6197b3f67c2b5cd3b6d9596a","session_id":"619be58fc4ca94938202462d","condition":"full-information","relevant_dimensions":["antennae","legs"],"bee_group":{"antennae":"A","wings":"X","pattern":"X","legs":"M"},"bonus":0.02},{"rt":4414.700000001118,"stimulus":"bees-with-color/bee-B1SM.svg","response":1,"trial_type":"image-button-response","trial_index":11,"time_elapsed":328789,"internal_node_id":"0.0-4.0-0.2","subject_id":"60fed3d892fa85f71f759543","study_id":"6197b3f67c2b5cd3b6d9596a","session_id":"619be58fc4ca94938202462d","condition":"full-information","relevant_dimensions":["antennae","legs"],"bee_group":{"antennae":"A","wings":"X","pattern":"X","legs":"M"},"action":"avoid","summary":"bad-avoid","bonus":0.02},{"rt":5255,"stimulus":"\n                    <p><b>Action: <em>avoid</em></b></p>\n                    <p>This is the bee that you just saw.</p>\n                    <img src=\"bees-with-color/bee-B1SM.svg\" width=\"200\">\n                    <p><span class=\"redText\">Bad choice,</span> the bee was friendly.<br>Your bonus pay is unchanged, and remains at $0.54.</p>\n            ","response":0,"trial_type":"html-button-response","trial_index":12,"time_elapsed":334045,"internal_node_id":"0.0-4.0-1.2","subject_id":"60fed3d892fa85f71f759543","study_id":"6197b3f67c2b5cd3b6d9596a","session_id":"619be58fc4ca94938202462d","condition":"full-information","relevant_dimensions":["antennae","legs"],"bee_group":{"antennae":"A","wings":"X","pattern":"X","legs":"M"},"bonus":0.02},{"rt":5983,"stimulus":"bees-with-color/bee-B1DM.svg","response":1,"trial_type":"image-button-response","trial_index":13,"time_elapsed":340029,"internal_node_id":"0.0-4.0-0.3","subject_id":"60fed3d892fa85f71f759543","study_id":"6197b3f67c2b5cd3b6d9596a","session_id":"619be58fc4ca94938202462d","condition":"full-information","relevant_dimensions":["antennae","legs"],"bee_group":{"antennae":"A","wings":"X","pattern":"X","legs":"M"},"action":"avoid","summary":"bad-avoid","bonus":0.02},{"rt":4279.200000001118,"stimulus":"\n                    <p><b>Action: <em>avoid</em></b></p>\n                    <p>This is the bee that you just saw.</p>\n                    <img src=\"bees-with-color/bee-B1DM.svg\" width=\"200\">\n                    <p><span class=\"redText\">Bad choice,</span> the bee was friendly.<br>Your bonus pay is unchanged, and remains at $0.54.</p>\n            ","response":0,"trial_type":"html-button-response","trial_index":14,"time_elapsed":344309,"internal_node_id":"0.0-4.0-1.3","subject_id":"60fed3d892fa85f71f759543","study_id":"6197b3f67c2b5cd3b6d9596a","session_id":"619be58fc4ca94938202462d","condition":"full-information","relevant_dimensions":["antennae","legs"],"bee_group":{"antennae":"A","wings":"X","pattern":"X","legs":"M"},"bonus":0.02},{"rt":10070.900000000373,"stimulus":"bees-with-color/bee-B1DF.svg","response":1,"trial_type":"image-button-response","trial_index":15,"time_elapsed":354382,"internal_node_id":"0.0-4.0-0.4","subject_id":"60fed3d892fa85f71f759543","study_id":"6197b3f67c2b5cd3b6d9596a","session_id":"619be58fc4ca94938202462d","condition":"full-information","relevant_dimensions":["antennae","legs"],"bee_group":{"antennae":"A","wings":"X","pattern":"X","legs":"M"},"action":"avoid","summary":"bad-avoid","bonus":0.02},{"rt":1639.0999999996275,"stimulus":"\n                    <p><b>Action: <em>avoid</em></b></p>\n                    <p>This is the bee that you just saw.</p>\n                    <img src=\"bees-with-color/bee-B1DF.svg\" width=\"200\">\n                    <p><span class=\"redText\">Bad choice,</span> the bee was friendly.<br>Your bonus pay is unchanged, and remains at $0.54.</p>\n            ","response":0,"trial_type":"html-button-response","trial_index":16,"time_elapsed":356022,"internal_node_id":"0.0-4.0-1.4","subject_id":"60fed3d892fa85f71f759543","study_id":"6197b3f67c2b5cd3b6d9596a","session_id":"619be58fc4ca94938202462d","condition":"full-information","relevant_dimensions":["antennae","legs"],"bee_group":{"antennae":"A","wings":"X","pattern":"X","legs":"M"},"bonus":0.02},{"rt":1398.9000000003725,"stimulus":"bees-with-color/bee-A2SF.svg","response":1,"trial_type":"image-button-response","trial_index":17,"time_elapsed":357422,"internal_node_id":"0.0-4.0-0.5","subject_id":"60fed3d892fa85f71f759543","study_id":"6197b3f67c2b5cd3b6d9596a","session_id":"619be58fc4ca94938202462d","condition":"full-information","relevant_dimensions":["antennae","legs"],"bee_group":{"antennae":"A","wings":"X","pattern":"X","legs":"M"},"action":"avoid","summary":"bad-avoid","bonus":0.02},{"rt":3015.0999999996275,"stimulus":"\n                    <p><b>Action: <em>avoid</em></b></p>\n                    <p>This is the bee that you just saw.</p>\n                    <img src=\"bees-with-color/bee-A2SF.svg\" width=\"200\">\n                    <p><span class=\"redText\">Bad choice,</span> the bee was friendly.<br>Your bonus pay is unchanged, and remains at $0.54.</p>\n            ","response":0,"trial_type":"html-button-response","trial_index":18,"time_elapsed":360438,"internal_node_id":"0.0-4.0-1.5","subject_id":"60fed3d892fa85f71f759543","study_id":"6197b3f67c2b5cd3b6d9596a","session_id":"619be58fc4ca94938202462d","condition":"full-information","relevant_dimensions":["antennae","legs"],"bee_group":{"antennae":"A","wings":"X","pattern":"X","legs":"M"},"bonus":0.02},{"rt":1974.7000000011176,"stimulus":"bees-with-color/bee-A1SM.svg","response":0,"trial_type":"image-button-response","trial_index":19,"time_elapsed":362414,"internal_node_id":"0.0-4.0-0.6","subject_id":"60fed3d892fa85f71f759543","study_id":"6197b3f67c2b5cd3b6d9596a","session_id":"619be58fc4ca94938202462d","condition":"full-information","relevant_dimensions":["antennae","legs"],"bee_group":{"antennae":"A","wings":"X","pattern":"X","legs":"M"},"action":"harvest","summary":"bad-harvest","bonus":0.02},{"rt":12063.200000001118,"stimulus":"\n                    <p><b>Action: <em>harvest</em></b></p>\n                    <p>This is the bee that you just saw.</p>\n                    <img src=\"bees-with-color/bee-A1SM.svg\" width=\"200\">\n                    <p><span class=\"redText\">Bad choice, the bee was angry.</span><br><b>You have been stung!</b><br>Your pay has been decreased by $0.10. Your bonus pay is now $0.44.</p>\n            ","response":0,"trial_type":"html-button-response","trial_index":20,"time_elapsed":374478,"internal_node_id":"0.0-4.0-1.6","subject_id":"60fed3d892fa85f71f759543","study_id":"6197b3f67c2b5cd3b6d9596a","session_id":"619be58fc4ca94938202462d","condition":"full-information","relevant_dimensions":["antennae","legs"],"bee_group":{"antennae":"A","wings":"X","pattern":"X","legs":"M"},"bonus":0.02},{"rt":3310.5,"stimulus":"bees-with-color/bee-A2DM.svg","response":1,"trial_type":"image-button-response","trial_index":21,"time_elapsed":377790,"internal_node_id":"0.0-4.0-0.7","subject_id":"60fed3d892fa85f71f759543","study_id":"6197b3f67c2b5cd3b6d9596a","session_id":"619be58fc4ca94938202462d","condition":"full-information","relevant_dimensions":["antennae","legs"],"bee_group":{"antennae":"A","wings":"X","pattern":"X","legs":"M"},"action":"avoid","summary":"good-avoid","bonus":0.02},{"rt":6591.10000000149,"stimulus":"\n                    <p><b>Action: <em>avoid</em></b></p>\n                    <p>This is the bee that you just saw.</p>\n                    <img src=\"bees-with-color/bee-A2DM.svg\" width=\"200\">\n                    <p><span class=\"greenText\">Good choice!</span>  This bee would have stung you.<br>Your bonus pay is unchanged, and remains at $0.44.</p>\n            ","response":0,"trial_type":"html-button-response","trial_index":22,"time_elapsed":384382,"internal_node_id":"0.0-4.0-1.7","subject_id":"60fed3d892fa85f71f759543","study_id":"6197b3f67c2b5cd3b6d9596a","session_id":"619be58fc4ca94938202462d","condition":"full-information","relevant_dimensions":["antennae","legs"],"bee_group":{"antennae":"A","wings":"X","pattern":"X","legs":"M"},"bonus":0.02},{"rt":3846.4000000003725,"stimulus":"bees-with-color/bee-B2SM.svg","response":1,"trial_type":"image-button-response","trial_index":23,"time_elapsed":388230,"internal_node_id":"0.0-4.0-0.8","subject_id":"60fed3d892fa85f71f759543","study_id":"6197b3f67c2b5cd3b6d9596a","session_id":"619be58fc4ca94938202462d","condition":"full-information","relevant_dimensions":["antennae","legs"],"bee_group":{"antennae":"A","wings":"X","pattern":"X","legs":"M"},"action":"avoid","summary":"bad-avoid","bonus":0.02},{"rt":6703.4000000003725,"stimulus":"\n                    <p><b>Action: <em>avoid</em></b></p>\n                    <p>This is the bee that you just saw.</p>\n                    <img src=\"bees-with-color/bee-B2SM.svg\" width=\"200\">\n                    <p><span class=\"redText\">Bad choice,</span> the bee was friendly.<br>Your bonus pay is unchanged, and remains at $0.44.</p>\n            ","response":0,"trial_type":"html-button-response","trial_index":24,"time_elapsed":394934,"internal_node_id":"0.0-4.0-1.8","subject_id":"60fed3d892fa85f71f759543","study_id":"6197b3f67c2b5cd3b6d9596a","session_id":"619be58fc4ca94938202462d","condition":"full-information","relevant_dimensions":["antennae","legs"],"bee_group":{"antennae":"A","wings":"X","pattern":"X","legs":"M"},"bonus":0.02},{"rt":2230.7000000011176,"stimulus":"bees-with-color/bee-B2SF.svg","response":0,"trial_type":"image-button-response","trial_index":25,"time_elapsed":397166,"internal_node_id":"0.0-4.0-0.9","subject_id":"60fed3d892fa85f71f759543","study_id":"6197b3f67c2b5cd3b6d9596a","session_id":"619be58fc4ca94938202462d","condition":"full-information","relevant_dimensions":["antennae","legs"],"bee_group":{"antennae":"A","wings":"X","pattern":"X","legs":"M"},"action":"harvest","summary":"good-harvest","bonus":0.02},{"rt":4526.9000000003725,"stimulus":"\n                    <p><b>Action: <em>harvest</em></b></p>\n                    <p>This is the bee that you just saw.</p>\n                    <img src=\"bees-with-color/bee-B2SF.svg\" width=\"200\">\n                    <p><span class=\"greenText\"><b>Successful harvest!</b></span><br>Your pay has increased by $0.02. Your bonus pay is now $0.46.</p>\n            ","response":0,"trial_type":"html-button-response","trial_index":26,"time_elapsed":401694,"internal_node_id":"0.0-4.0-1.9","subject_id":"60fed3d892fa85f71f759543","study_id":"6197b3f67c2b5cd3b6d9596a","session_id":"619be58fc4ca94938202462d","condition":"full-information","relevant_dimensions":["antennae","legs"],"bee_group":{"antennae":"A","wings":"X","pattern":"X","legs":"M"},"bonus":0.02},{"rt":3022.699999999255,"stimulus":"bees-with-color/bee-A2DF.svg","response":1,"trial_type":"image-button-response","trial_index":27,"time_elapsed":404718,"internal_node_id":"0.0-4.0-0.10","subject_id":"60fed3d892fa85f71f759543","study_id":"6197b3f67c2b5cd3b6d9596a","session_id":"619be58fc4ca94938202462d","condition":"full-information","relevant_dimensions":["antennae","legs"],"bee_group":{"antennae":"A","wings":"X","pattern":"X","legs":"M"},"action":"avoid","summary":"bad-avoid","bonus":0.02},{"rt":1023,"stimulus":"\n                    <p><b>Action: <em>avoid</em></b></p>\n                    <p>This is the bee that you just saw.</p>\n                    <img src=\"bees-with-color/bee-A2DF.svg\" width=\"200\">\n                    <p><span class=\"redText\">Bad choice,</span> the bee was friendly.<br>Your bonus pay is unchanged, and remains at $0.46.</p>\n            ","response":0,"trial_type":"html-button-response","trial_index":28,"time_elapsed":405742,"internal_node_id":"0.0-4.0-1.10","subject_id":"60fed3d892fa85f71f759543","study_id":"6197b3f67c2b5cd3b6d9596a","session_id":"619be58fc4ca94938202462d","condition":"full-information","relevant_dimensions":["antennae","legs"],"bee_group":{"antennae":"A","wings":"X","pattern":"X","legs":"M"},"bonus":0.02},{"rt":3559,"stimulus":"bees-with-color/bee-A2SM.svg","response":0,"trial_type":"image-button-response","trial_index":29,"time_elapsed":409302,"internal_node_id":"0.0-4.0-0.11","subject_id":"60fed3d892fa85f71f759543","study_id":"6197b3f67c2b5cd3b6d9596a","session_id":"619be58fc4ca94938202462d","condition":"full-information","relevant_dimensions":["antennae","legs"],"bee_group":{"antennae":"A","wings":"X","pattern":"X","legs":"M"},"action":"harvest","summary":"bad-harvest","bonus":0.02},{"rt":2431.0999999996275,"stimulus":"\n                    <p><b>Action: <em>harvest</em></b></p>\n                    <p>This is the bee that you just saw.</p>\n                    <img src=\"bees-with-color/bee-A2SM.svg\" width=\"200\">\n                    <p><span class=\"redText\">Bad choice, the bee was angry.</span><br><b>You have been stung!</b><br>Your pay has been decreased by $0.10. Your bonus pay is now $0.36.</p>\n            ","response":0,"trial_type":"html-button-response","trial_index":30,"time_elapsed":411734,"internal_node_id":"0.0-4.0-1.11","subject_id":"60fed3d892fa85f71f759543","study_id":"6197b3f67c2b5cd3b6d9596a","session_id":"619be58fc4ca94938202462d","condition":"full-information","relevant_dimensions":["antennae","legs"],"bee_group":{"antennae":"A","wings":"X","pattern":"X","legs":"M"},"bonus":0.02},{"rt":2574.699999999255,"stimulus":"bees-with-color/bee-B2DF.svg","response":1,"trial_type":"image-button-response","trial_index":31,"time_elapsed":414309,"internal_node_id":"0.0-4.0-0.12","subject_id":"60fed3d892fa85f71f759543","study_id":"6197b3f67c2b5cd3b6d9596a","session_id":"619be58fc4ca94938202462d","condition":"full-information","relevant_dimensions":["antennae","legs"],"bee_group":{"antennae":"A","wings":"X","pattern":"X","legs":"M"},"action":"avoid","summary":"bad-avoid","bonus":0.02},{"rt":3807,"stimulus":"\n                    <p><b>Action: <em>avoid</em></b></p>\n                    <p>This is the bee that you just saw.</p>\n                    <img src=\"bees-with-color/bee-B2DF.svg\" width=\"200\">\n                    <p><span class=\"redText\">Bad choice,</span> the bee was friendly.<br>Your bonus pay is unchanged, and remains at $0.36.</p>\n            ","response":0,"trial_type":"html-button-response","trial_index":32,"time_elapsed":418117,"internal_node_id":"0.0-4.0-1.12","subject_id":"60fed3d892fa85f71f759543","study_id":"6197b3f67c2b5cd3b6d9596a","session_id":"619be58fc4ca94938202462d","condition":"full-information","relevant_dimensions":["antennae","legs"],"bee_group":{"antennae":"A","wings":"X","pattern":"X","legs":"M"},"bonus":0.02},{"rt":2007,"stimulus":"bees-with-color/bee-B1SF.svg","response":0,"trial_type":"image-button-response","trial_index":33,"time_elapsed":420125,"internal_node_id":"0.0-4.0-0.13","subject_id":"60fed3d892fa85f71f759543","study_id":"6197b3f67c2b5cd3b6d9596a","session_id":"619be58fc4ca94938202462d","condition":"full-information","relevant_dimensions":["antennae","legs"],"bee_group":{"antennae":"A","wings":"X","pattern":"X","legs":"M"},"action":"harvest","summary":"good-harvest","bonus":0.02},{"rt":2175.2000000011176,"stimulus":"\n                    <p><b>Action: <em>harvest</em></b></p>\n                    <p>This is the bee that you just saw.</p>\n                    <img src=\"bees-with-color/bee-B1SF.svg\" width=\"200\">\n                    <p><span class=\"greenText\"><b>Successful harvest!</b></span><br>Your pay has increased by $0.02. Your bonus pay is now $0.38.</p>\n            ","response":0,"trial_type":"html-button-response","trial_index":34,"time_elapsed":422301,"internal_node_id":"0.0-4.0-1.13","subject_id":"60fed3d892fa85f71f759543","study_id":"6197b3f67c2b5cd3b6d9596a","session_id":"619be58fc4ca94938202462d","condition":"full-information","relevant_dimensions":["antennae","legs"],"bee_group":{"antennae":"A","wings":"X","pattern":"X","legs":"M"},"bonus":0.02},{"rt":2886.800000000745,"stimulus":"bees-with-color/bee-A1DM.svg","response":0,"trial_type":"image-button-response","trial_index":35,"time_elapsed":425189,"internal_node_id":"0.0-4.0-0.14","subject_id":"60fed3d892fa85f71f759543","study_id":"6197b3f67c2b5cd3b6d9596a","session_id":"619be58fc4ca94938202462d","condition":"full-information","relevant_dimensions":["antennae","legs"],"bee_group":{"antennae":"A","wings":"X","pattern":"X","legs":"M"},"action":"harvest","summary":"bad-harvest","bonus":0.02},{"rt":4647,"stimulus":"\n                    <p><b>Action: <em>harvest</em></b></p>\n                    <p>This is the bee that you just saw.</p>\n                    <img src=\"bees-with-color/bee-A1DM.svg\" width=\"200\">\n                    <p><span class=\"redText\">Bad choice, the bee was angry.</span><br><b>You have been stung!</b><br>Your pay has been decreased by $0.10. Your bonus pay is now $0.28.</p>\n            ","response":0,"trial_type":"html-button-response","trial_index":36,"time_elapsed":429837,"internal_node_id":"0.0-4.0-1.14","subject_id":"60fed3d892fa85f71f759543","study_id":"6197b3f67c2b5cd3b6d9596a","session_id":"619be58fc4ca94938202462d","condition":"full-information","relevant_dimensions":["antennae","legs"],"bee_group":{"antennae":"A","wings":"X","pattern":"X","legs":"M"},"bonus":0.02},{"rt":4238.699999999255,"stimulus":"bees-with-color/bee-B2DM.svg","response":0,"trial_type":"image-button-response","trial_index":37,"time_elapsed":434077,"internal_node_id":"0.0-4.0-0.15","subject_id":"60fed3d892fa85f71f759543","study_id":"6197b3f67c2b5cd3b6d9596a","session_id":"619be58fc4ca94938202462d","condition":"full-information","relevant_dimensions":["antennae","legs"],"bee_group":{"antennae":"A","wings":"X","pattern":"X","legs":"M"},"action":"harvest","summary":"good-harvest","bonus":0.02},{"rt":1190.8999999985099,"stimulus":"\n                    <p><b>Action: <em>harvest</em></b></p>\n                    <p>This is the bee that you just saw.</p>\n                    <img src=\"bees-with-color/bee-B2DM.svg\" width=\"200\">\n                    <p><span class=\"greenText\"><b>Successful harvest!</b></span><br>Your pay has increased by $0.02. Your bonus pay is now $0.30.</p>\n            ","response":0,"trial_type":"html-button-response","trial_index":38,"time_elapsed":435269,"internal_node_id":"0.0-4.0-1.15","subject_id":"60fed3d892fa85f71f759543","study_id":"6197b3f67c2b5cd3b6d9596a","session_id":"619be58fc4ca94938202462d","condition":"full-information","relevant_dimensions":["antennae","legs"],"bee_group":{"antennae":"A","wings":"X","pattern":"X","legs":"M"},"bonus":0.02},{"rt":2302.7999999988824,"stimulus":"bees-with-color/bee-A1DF.svg","response":0,"trial_type":"image-button-response","trial_index":39,"time_elapsed":437573,"internal_node_id":"0.0-4.0-0.16","subject_id":"60fed3d892fa85f71f759543","study_id":"6197b3f67c2b5cd3b6d9596a","session_id":"619be58fc4ca94938202462d","condition":"full-information","relevant_dimensions":["antennae","legs"],"bee_group":{"antennae":"A","wings":"X","pattern":"X","legs":"M"},"action":"harvest","summary":"good-harvest","bonus":0.02},{"rt":1287.199999999255,"stimulus":"\n                    <p><b>Action: <em>harvest</em></b></p>\n                    <p>This is the bee that you just saw.</p>\n                    <img src=\"bees-with-color/bee-A1DF.svg\" width=\"200\">\n                    <p><span class=\"greenText\"><b>Successful harvest!</b></span><br>Your pay has increased by $0.02. Your bonus pay is now $0.32.</p>\n            ","response":0,"trial_type":"html-button-response","trial_index":40,"time_elapsed":438862,"internal_node_id":"0.0-4.0-1.16","subject_id":"60fed3d892fa85f71f759543","study_id":"6197b3f67c2b5cd3b6d9596a","session_id":"619be58fc4ca94938202462d","condition":"full-information","relevant_dimensions":["antennae","legs"],"bee_group":{"antennae":"A","wings":"X","pattern":"X","legs":"M"},"bonus":0.02},{"rt":3014.9000000003725,"stimulus":"bees-with-color/bee-B1DM.svg","response":0,"trial_type":"image-button-response","trial_index":41,"time_elapsed":441877,"internal_node_id":"0.0-4.0-0.17","subject_id":"60fed3d892fa85f71f759543","study_id":"6197b3f67c2b5cd3b6d9596a","session_id":"619be58fc4ca94938202462d","condition":"full-information","relevant_dimensions":["antennae","legs"],"bee_group":{"antennae":"A","wings":"X","pattern":"X","legs":"M"},"action":"harvest","summary":"good-harvest","bonus":0.02},{"rt":1142.9000000003725,"stimulus":"\n                    <p><b>Action: <em>harvest</em></b></p>\n                    <p>This is the bee that you just saw.</p>\n                    <img src=\"bees-with-color/bee-B1DM.svg\" width=\"200\">\n                    <p><span class=\"greenText\"><b>Successful harvest!</b></span><br>Your pay has increased by $0.02. Your bonus pay is now $0.34.</p>\n            ","response":0,"trial_type":"html-button-response","trial_index":42,"time_elapsed":443021,"internal_node_id":"0.0-4.0-1.17","subject_id":"60fed3d892fa85f71f759543","study_id":"6197b3f67c2b5cd3b6d9596a","session_id":"619be58fc4ca94938202462d","condition":"full-information","relevant_dimensions":["antennae","legs"],"bee_group":{"antennae":"A","wings":"X","pattern":"X","legs":"M"},"bonus":0.02},{"rt":5151.10000000149,"stimulus":"bees-with-color/bee-B1SF.svg","response":0,"trial_type":"image-button-response","trial_index":43,"time_elapsed":448173,"internal_node_id":"0.0-4.0-0.18","subject_id":"60fed3d892fa85f71f759543","study_id":"6197b3f67c2b5cd3b6d9596a","session_id":"619be58fc4ca94938202462d","condition":"full-information","relevant_dimensions":["antennae","legs"],"bee_group":{"antennae":"A","wings":"X","pattern":"X","legs":"M"},"action":"harvest","summary":"good-harvest","bonus":0.02},{"rt":1031.0999999996275,"stimulus":"\n                    <p><b>Action: <em>harvest</em></b></p>\n                    <p>This is the bee that you just saw.</p>\n                    <img src=\"bees-with-color/bee-B1SF.svg\" width=\"200\">\n                    <p><span class=\"greenText\"><b>Successful harvest!</b></span><br>Your pay has increased by $0.02. Your bonus pay is now $0.36.</p>\n            ","response":0,"trial_type":"html-button-response","trial_index":44,"time_elapsed":449205,"internal_node_id":"0.0-4.0-1.18","subject_id":"60fed3d892fa85f71f759543","study_id":"6197b3f67c2b5cd3b6d9596a","session_id":"619be58fc4ca94938202462d","condition":"full-information","relevant_dimensions":["antennae","legs"],"bee_group":{"antennae":"A","wings":"X","pattern":"X","legs":"M"},"bonus":0.02},{"rt":4247.0999999996275,"stimulus":"bees-with-color/bee-B2DM.svg","response":1,"trial_type":"image-button-response","trial_index":45,"time_elapsed":453453,"internal_node_id":"0.0-4.0-0.19","subject_id":"60fed3d892fa85f71f759543","study_id":"6197b3f67c2b5cd3b6d9596a","session_id":"619be58fc4ca94938202462d","condition":"full-information","relevant_dimensions":["antennae","legs"],"bee_group":{"antennae":"A","wings":"X","pattern":"X","legs":"M"},"action":"avoid","summary":"bad-avoid","bonus":0.02},{"rt":975.4000000003725,"stimulus":"\n                    <p><b>Action: <em>avoid</em></b></p>\n                    <p>This is the bee that you just saw.</p>\n                    <img src=\"bees-with-color/bee-B2DM.svg\" width=\"200\">\n                    <p><span class=\"redText\">Bad choice,</span> the bee was friendly.<br>Your bonus pay is unchanged, and remains at $0.36.</p>\n            ","response":0,"trial_type":"html-button-response","trial_index":46,"time_elapsed":454429,"internal_node_id":"0.0-4.0-1.19","subject_id":"60fed3d892fa85f71f759543","study_id":"6197b3f67c2b5cd3b6d9596a","session_id":"619be58fc4ca94938202462d","condition":"full-information","relevant_dimensions":["antennae","legs"],"bee_group":{"antennae":"A","wings":"X","pattern":"X","legs":"M"},"bonus":0.02},{"rt":3991.0999999996275,"stimulus":"bees-with-color/bee-B1SM.svg","response":0,"trial_type":"image-button-response","trial_index":47,"time_elapsed":458421,"internal_node_id":"0.0-4.0-0.20","subject_id":"60fed3d892fa85f71f759543","study_id":"6197b3f67c2b5cd3b6d9596a","session_id":"619be58fc4ca94938202462d","condition":"full-information","relevant_dimensions":["antennae","legs"],"bee_group":{"antennae":"A","wings":"X","pattern":"X","legs":"M"},"action":"harvest","summary":"good-harvest","bonus":0.02},{"rt":1111.2000000011176,"stimulus":"\n                    <p><b>Action: <em>harvest</em></b></p>\n                    <p>This is the bee that you just saw.</p>\n                    <img src=\"bees-with-color/bee-B1SM.svg\" width=\"200\">\n                    <p><span class=\"greenText\"><b>Successful harvest!</b></span><br>Your pay has increased by $0.02. Your bonus pay is now $0.38.</p>\n            ","response":0,"trial_type":"html-button-response","trial_index":48,"time_elapsed":459533,"internal_node_id":"0.0-4.0-1.20","subject_id":"60fed3d892fa85f71f759543","study_id":"6197b3f67c2b5cd3b6d9596a","session_id":"619be58fc4ca94938202462d","condition":"full-information","relevant_dimensions":["antennae","legs"],"bee_group":{"antennae":"A","wings":"X","pattern":"X","legs":"M"},"bonus":0.02},{"rt":8639,"stimulus":"bees-with-color/bee-A1SM.svg","response":1,"trial_type":"image-button-response","trial_index":49,"time_elapsed":468173,"internal_node_id":"0.0-4.0-0.21","subject_id":"60fed3d892fa85f71f759543","study_id":"6197b3f67c2b5cd3b6d9596a","session_id":"619be58fc4ca94938202462d","condition":"full-information","relevant_dimensions":["antennae","legs"],"bee_group":{"antennae":"A","wings":"X","pattern":"X","legs":"M"},"action":"avoid","summary":"good-avoid","bonus":0.02},{"rt":2495,"stimulus":"\n                    <p><b>Action: <em>avoid</em></b></p>\n                    <p>This is the bee that you just saw.</p>\n                    <img src=\"bees-with-color/bee-A1SM.svg\" width=\"200\">\n                    <p><span class=\"greenText\">Good choice!</span>  This bee would have stung you.<br>Your bonus pay is unchanged, and remains at $0.38.</p>\n            ","response":0,"trial_type":"html-button-response","trial_index":50,"time_elapsed":470669,"internal_node_id":"0.0-4.0-1.21","subject_id":"60fed3d892fa85f71f759543","study_id":"6197b3f67c2b5cd3b6d9596a","session_id":"619be58fc4ca94938202462d","condition":"full-information","relevant_dimensions":["antennae","legs"],"bee_group":{"antennae":"A","wings":"X","pattern":"X","legs":"M"},"bonus":0.02},{"rt":3966.9000000003725,"stimulus":"bees-with-color/bee-B2DF.svg","response":0,"trial_type":"image-button-response","trial_index":51,"time_elapsed":474637,"internal_node_id":"0.0-4.0-0.22","subject_id":"60fed3d892fa85f71f759543","study_id":"6197b3f67c2b5cd3b6d9596a","session_id":"619be58fc4ca94938202462d","condition":"full-information","relevant_dimensions":["antennae","legs"],"bee_group":{"antennae":"A","wings":"X","pattern":"X","legs":"M"},"action":"harvest","summary":"good-harvest","bonus":0.02},{"rt":1215.4000000003725,"stimulus":"\n                    <p><b>Action: <em>harvest</em></b></p>\n                    <p>This is the bee that you just saw.</p>\n                    <img src=\"bees-with-color/bee-B2DF.svg\" width=\"200\">\n                    <p><span class=\"greenText\"><b>Successful harvest!</b></span><br>Your pay has increased by $0.02. Your bonus pay is now $0.40.</p>\n            ","response":0,"trial_type":"html-button-response","trial_index":52,"time_elapsed":475853,"internal_node_id":"0.0-4.0-1.22","subject_id":"60fed3d892fa85f71f759543","study_id":"6197b3f67c2b5cd3b6d9596a","session_id":"619be58fc4ca94938202462d","condition":"full-information","relevant_dimensions":["antennae","legs"],"bee_group":{"antennae":"A","wings":"X","pattern":"X","legs":"M"},"bonus":0.02},{"rt":7022.799999998882,"stimulus":"bees-with-color/bee-A2SM.svg","response":1,"trial_type":"image-button-response","trial_index":53,"time_elapsed":482877,"internal_node_id":"0.0-4.0-0.23","subject_id":"60fed3d892fa85f71f759543","study_id":"6197b3f67c2b5cd3b6d9596a","session_id":"619be58fc4ca94938202462d","condition":"full-information","relevant_dimensions":["antennae","legs"],"bee_group":{"antennae":"A","wings":"X","pattern":"X","legs":"M"},"action":"avoid","summary":"good-avoid","bonus":0.02},{"rt":1559.199999999255,"stimulus":"\n                    <p><b>Action: <em>avoid</em></b></p>\n                    <p>This is the bee that you just saw.</p>\n                    <img src=\"bees-with-color/bee-A2SM.svg\" width=\"200\">\n                    <p><span class=\"greenText\">Good choice!</span>  This bee would have stung you.<br>Your bonus pay is unchanged, and remains at $0.40.</p>\n            ","response":0,"trial_type":"html-button-response","trial_index":54,"time_elapsed":484437,"internal_node_id":"0.0-4.0-1.23","subject_id":"60fed3d892fa85f71f759543","study_id":"6197b3f67c2b5cd3b6d9596a","session_id":"619be58fc4ca94938202462d","condition":"full-information","relevant_dimensions":["antennae","legs"],"bee_group":{"antennae":"A","wings":"X","pattern":"X","legs":"M"},"bonus":0.02},{"rt":10863,"stimulus":"bees-with-color/bee-A2SF.svg","response":1,"trial_type":"image-button-response","trial_index":55,"time_elapsed":495301,"internal_node_id":"0.0-4.0-0.24","subject_id":"60fed3d892fa85f71f759543","study_id":"6197b3f67c2b5cd3b6d9596a","session_id":"619be58fc4ca94938202462d","condition":"full-information","relevant_dimensions":["antennae","legs"],"bee_group":{"antennae":"A","wings":"X","pattern":"X","legs":"M"},"action":"avoid","summary":"bad-avoid","bonus":0.02},{"rt":1495.2000000011176,"stimulus":"\n                    <p><b>Action: <em>avoid</em></b></p>\n                    <p>This is the bee that you just saw.</p>\n                    <img src=\"bees-with-color/bee-A2SF.svg\" width=\"200\">\n                    <p><span class=\"redText\">Bad choice,</span> the bee was friendly.<br>Your bonus pay is unchanged, and remains at $0.40.</p>\n            ","response":0,"trial_type":"html-button-response","trial_index":56,"time_elapsed":496797,"internal_node_id":"0.0-4.0-1.24","subject_id":"60fed3d892fa85f71f759543","study_id":"6197b3f67c2b5cd3b6d9596a","session_id":"619be58fc4ca94938202462d","condition":"full-information","relevant_dimensions":["antennae","legs"],"bee_group":{"antennae":"A","wings":"X","pattern":"X","legs":"M"},"bonus":0.02},{"rt":2359,"stimulus":"bees-with-color/bee-A1DM.svg","response":0,"trial_type":"image-button-response","trial_index":57,"time_elapsed":499157,"internal_node_id":"0.0-4.0-0.25","subject_id":"60fed3d892fa85f71f759543","study_id":"6197b3f67c2b5cd3b6d9596a","session_id":"619be58fc4ca94938202462d","condition":"full-information","relevant_dimensions":["antennae","legs"],"bee_group":{"antennae":"A","wings":"X","pattern":"X","legs":"M"},"action":"harvest","summary":"bad-harvest","bonus":0.02},{"rt":2207.10000000149,"stimulus":"\n                    <p><b>Action: <em>harvest</em></b></p>\n                    <p>This is the bee that you just saw.</p>\n                    <img src=\"bees-with-color/bee-A1DM.svg\" width=\"200\">\n                    <p><span class=\"redText\">Bad choice, the bee was angry.</span><br><b>You have been stung!</b><br>Your pay has been decreased by $0.10. Your bonus pay is now $0.30.</p>\n            ","response":0,"trial_type":"html-button-response","trial_index":58,"time_elapsed":501365,"internal_node_id":"0.0-4.0-1.25","subject_id":"60fed3d892fa85f71f759543","study_id":"6197b3f67c2b5cd3b6d9596a","session_id":"619be58fc4ca94938202462d","condition":"full-information","relevant_dimensions":["antennae","legs"],"bee_group":{"antennae":"A","wings":"X","pattern":"X","legs":"M"},"bonus":0.02},{"rt":3614.7999999988824,"stimulus":"bees-with-color/bee-B1DF.svg","response":0,"trial_type":"image-button-response","trial_index":59,"time_elapsed":504981,"internal_node_id":"0.0-4.0-0.26","subject_id":"60fed3d892fa85f71f759543","study_id":"6197b3f67c2b5cd3b6d9596a","session_id":"619be58fc4ca94938202462d","condition":"full-information","relevant_dimensions":["antennae","legs"],"bee_group":{"antennae":"A","wings":"X","pattern":"X","legs":"M"},"action":"harvest","summary":"good-harvest","bonus":0.02},{"rt":1103,"stimulus":"\n                    <p><b>Action: <em>harvest</em></b></p>\n                    <p>This is the bee that you just saw.</p>\n                    <img src=\"bees-with-color/bee-B1DF.svg\" width=\"200\">\n                    <p><span class=\"greenText\"><b>Successful harvest!</b></span><br>Your pay has increased by $0.02. Your bonus pay is now $0.32.</p>\n            ","response":0,"trial_type":"html-button-response","trial_index":60,"time_elapsed":506085,"internal_node_id":"0.0-4.0-1.26","subject_id":"60fed3d892fa85f71f759543","study_id":"6197b3f67c2b5cd3b6d9596a","session_id":"619be58fc4ca94938202462d","condition":"full-information","relevant_dimensions":["antennae","legs"],"bee_group":{"antennae":"A","wings":"X","pattern":"X","legs":"M"},"bonus":0.02},{"rt":6079,"stimulus":"bees-with-color/bee-A1SF.svg","response":0,"trial_type":"image-button-response","trial_index":61,"time_elapsed":512165,"internal_node_id":"0.0-4.0-0.27","subject_id":"60fed3d892fa85f71f759543","study_id":"6197b3f67c2b5cd3b6d9596a","session_id":"619be58fc4ca94938202462d","condition":"full-information","relevant_dimensions":["antennae","legs"],"bee_group":{"antennae":"A","wings":"X","pattern":"X","legs":"M"},"action":"harvest","summary":"good-harvest","bonus":0.02},{"rt":975.2000000011176,"stimulus":"\n                    <p><b>Action: <em>harvest</em></b></p>\n                    <p>This is the bee that you just saw.</p>\n                    <img src=\"bees-with-color/bee-A1SF.svg\" width=\"200\">\n                    <p><span class=\"greenText\"><b>Successful harvest!</b></span><br>Your pay has increased by $0.02. Your bonus pay is now $0.34.</p>\n            ","response":0,"trial_type":"html-button-response","trial_index":62,"time_elapsed":513141,"internal_node_id":"0.0-4.0-1.27","subject_id":"60fed3d892fa85f71f759543","study_id":"6197b3f67c2b5cd3b6d9596a","session_id":"619be58fc4ca94938202462d","condition":"full-information","relevant_dimensions":["antennae","legs"],"bee_group":{"antennae":"A","wings":"X","pattern":"X","legs":"M"},"bonus":0.02},{"rt":4063,"stimulus":"bees-with-color/bee-A2DF.svg","response":1,"trial_type":"image-button-response","trial_index":63,"time_elapsed":517205,"internal_node_id":"0.0-4.0-0.28","subject_id":"60fed3d892fa85f71f759543","study_id":"6197b3f67c2b5cd3b6d9596a","session_id":"619be58fc4ca94938202462d","condition":"full-information","relevant_dimensions":["antennae","legs"],"bee_group":{"antennae":"A","wings":"X","pattern":"X","legs":"M"},"action":"avoid","summary":"bad-avoid","bonus":0.02},{"rt":887,"stimulus":"\n                    <p><b>Action: <em>avoid</em></b></p>\n                    <p>This is the bee that you just saw.</p>\n                    <img src=\"bees-with-color/bee-A2DF.svg\" width=\"200\">\n                    <p><span class=\"redText\">Bad choice,</span> the bee was friendly.<br>Your bonus pay is unchanged, and remains at $0.34.</p>\n            ","response":0,"trial_type":"html-button-response","trial_index":64,"time_elapsed":518093,"internal_node_id":"0.0-4.0-1.28","subject_id":"60fed3d892fa85f71f759543","study_id":"6197b3f67c2b5cd3b6d9596a","session_id":"619be58fc4ca94938202462d","condition":"full-information","relevant_dimensions":["antennae","legs"],"bee_group":{"antennae":"A","wings":"X","pattern":"X","legs":"M"},"bonus":0.02},{"rt":11343.10000000149,"stimulus":"bees-with-color/bee-B2SF.svg","response":1,"trial_type":"image-button-response","trial_index":65,"time_elapsed":529437,"internal_node_id":"0.0-4.0-0.29","subject_id":"60fed3d892fa85f71f759543","study_id":"6197b3f67c2b5cd3b6d9596a","session_id":"619be58fc4ca94938202462d","condition":"full-information","relevant_dimensions":["antennae","legs"],"bee_group":{"antennae":"A","wings":"X","pattern":"X","legs":"M"},"action":"avoid","summary":"bad-avoid","bonus":0.02},{"rt":1639,"stimulus":"\n                    <p><b>Action: <em>avoid</em></b></p>\n                    <p>This is the bee that you just saw.</p>\n                    <img src=\"bees-with-color/bee-B2SF.svg\" width=\"200\">\n                    <p><span class=\"redText\">Bad choice,</span> the bee was friendly.<br>Your bonus pay is unchanged, and remains at $0.34.</p>\n            ","response":0,"trial_type":"html-button-response","trial_index":66,"time_elapsed":531077,"internal_node_id":"0.0-4.0-1.29","subject_id":"60fed3d892fa85f71f759543","study_id":"6197b3f67c2b5cd3b6d9596a","session_id":"619be58fc4ca94938202462d","condition":"full-information","relevant_dimensions":["antennae","legs"],"bee_group":{"antennae":"A","wings":"X","pattern":"X","legs":"M"},"bonus":0.02},{"rt":2990.7999999988824,"stimulus":"bees-with-color/bee-A2DM.svg","response":1,"trial_type":"image-button-response","trial_index":67,"time_elapsed":534069,"internal_node_id":"0.0-4.0-0.30","subject_id":"60fed3d892fa85f71f759543","study_id":"6197b3f67c2b5cd3b6d9596a","session_id":"619be58fc4ca94938202462d","condition":"full-information","relevant_dimensions":["antennae","legs"],"bee_group":{"antennae":"A","wings":"X","pattern":"X","legs":"M"},"action":"avoid","summary":"good-avoid","bonus":0.02},{"rt":1295,"stimulus":"\n                    <p><b>Action: <em>avoid</em></b></p>\n                    <p>This is the bee that you just saw.</p>\n                    <img src=\"bees-with-color/bee-A2DM.svg\" width=\"200\">\n                    <p><span class=\"greenText\">Good choice!</span>  This bee would have stung you.<br>Your bonus pay is unchanged, and remains at $0.34.</p>\n            ","response":0,"trial_type":"html-button-response","trial_index":68,"time_elapsed":535365,"internal_node_id":"0.0-4.0-1.30","subject_id":"60fed3d892fa85f71f759543","study_id":"6197b3f67c2b5cd3b6d9596a","session_id":"619be58fc4ca94938202462d","condition":"full-information","relevant_dimensions":["antennae","legs"],"bee_group":{"antennae":"A","wings":"X","pattern":"X","legs":"M"},"bonus":0.02},{"rt":1367,"stimulus":"bees-with-color/bee-B2SM.svg","response":0,"trial_type":"image-button-response","trial_index":69,"time_elapsed":536734,"internal_node_id":"0.0-4.0-0.31","subject_id":"60fed3d892fa85f71f759543","study_id":"6197b3f67c2b5cd3b6d9596a","session_id":"619be58fc4ca94938202462d","condition":"full-information","relevant_dimensions":["antennae","legs"],"bee_group":{"antennae":"A","wings":"X","pattern":"X","legs":"M"},"action":"harvest","summary":"good-harvest","bonus":0.02},{"rt":895.2000000011176,"stimulus":"\n                    <p><b>Action: <em>harvest</em></b></p>\n                    <p>This is the bee that you just saw.</p>\n                    <img src=\"bees-with-color/bee-B2SM.svg\" width=\"200\">\n                    <p><span class=\"greenText\"><b>Successful harvest!</b></span><br>Your pay has increased by $0.02. Your bonus pay is now $0.36.</p>\n            ","response":0,"trial_type":"html-button-response","trial_index":70,"time_elapsed":537630,"internal_node_id":"0.0-4.0-1.31","subject_id":"60fed3d892fa85f71f759543","study_id":"6197b3f67c2b5cd3b6d9596a","session_id":"619be58fc4ca94938202462d","condition":"full-information","relevant_dimensions":["antennae","legs"],"bee_group":{"antennae":"A","wings":"X","pattern":"X","legs":"M"},"bonus":0.02},{"rt":2007.0999999996275,"stimulus":"bees-with-color/bee-B1DM.svg","response":0,"trial_type":"image-button-response","trial_index":71,"time_elapsed":539637,"internal_node_id":"0.0-4.0-0.32","subject_id":"60fed3d892fa85f71f759543","study_id":"6197b3f67c2b5cd3b6d9596a","session_id":"619be58fc4ca94938202462d","condition":"full-information","relevant_dimensions":["antennae","legs"],"bee_group":{"antennae":"A","wings":"X","pattern":"X","legs":"M"},"action":"harvest","summary":"good-harvest","bonus":0.02},{"rt":1415,"stimulus":"\n                    <p><b>Action: <em>harvest</em></b></p>\n                    <p>This is the bee that you just saw.</p>\n                    <img src=\"bees-with-color/bee-B1DM.svg\" width=\"200\">\n                    <p><span class=\"greenText\"><b>Successful harvest!</b></span><br>Your pay has increased by $0.02. Your bonus pay is now $0.38.</p>\n            ","response":0,"trial_type":"html-button-response","trial_index":72,"time_elapsed":541053,"internal_node_id":"0.0-4.0-1.32","subject_id":"60fed3d892fa85f71f759543","study_id":"6197b3f67c2b5cd3b6d9596a","session_id":"619be58fc4ca94938202462d","condition":"full-information","relevant_dimensions":["antennae","legs"],"bee_group":{"antennae":"A","wings":"X","pattern":"X","legs":"M"},"bonus":0.02},{"rt":5151.0999999996275,"stimulus":"bees-with-color/bee-A1DF.svg","response":1,"trial_type":"image-button-response","trial_index":73,"time_elapsed":546205,"internal_node_id":"0.0-4.0-0.33","subject_id":"60fed3d892fa85f71f759543","study_id":"6197b3f67c2b5cd3b6d9596a","session_id":"619be58fc4ca94938202462d","condition":"full-information","relevant_dimensions":["antennae","legs"],"bee_group":{"antennae":"A","wings":"X","pattern":"X","legs":"M"},"action":"avoid","summary":"bad-avoid","bonus":0.02},{"rt":783,"stimulus":"\n                    <p><b>Action: <em>avoid</em></b></p>\n                    <p>This is the bee that you just saw.</p>\n                    <img src=\"bees-with-color/bee-A1DF.svg\" width=\"200\">\n                    <p><span class=\"redText\">Bad choice,</span> the bee was friendly.<br>Your bonus pay is unchanged, and remains at $0.38.</p>\n            ","response":0,"trial_type":"html-button-response","trial_index":74,"time_elapsed":546989,"internal_node_id":"0.0-4.0-1.33","subject_id":"60fed3d892fa85f71f759543","study_id":"6197b3f67c2b5cd3b6d9596a","session_id":"619be58fc4ca94938202462d","condition":"full-information","relevant_dimensions":["antennae","legs"],"bee_group":{"antennae":"A","wings":"X","pattern":"X","legs":"M"},"bonus":0.02},{"rt":17078.900000000373,"stimulus":"bees-with-color/bee-A2DF.svg","response":0,"trial_type":"image-button-response","trial_index":75,"time_elapsed":564069,"internal_node_id":"0.0-4.0-0.34","subject_id":"60fed3d892fa85f71f759543","study_id":"6197b3f67c2b5cd3b6d9596a","session_id":"619be58fc4ca94938202462d","condition":"full-information","relevant_dimensions":["antennae","legs"],"bee_group":{"antennae":"A","wings":"X","pattern":"X","legs":"M"},"action":"harvest","summary":"good-harvest","bonus":0.02},{"rt":1503,"stimulus":"\n                    <p><b>Action: <em>harvest</em></b></p>\n                    <p>This is the bee that you just saw.</p>\n                    <img src=\"bees-with-color/bee-A2DF.svg\" width=\"200\">\n                    <p><span class=\"greenText\"><b>Successful harvest!</b></span><br>Your pay has increased by $0.02. Your bonus pay is now $0.40.</p>\n            ","response":0,"trial_type":"html-button-response","trial_index":76,"time_elapsed":565573,"internal_node_id":"0.0-4.0-1.34","subject_id":"60fed3d892fa85f71f759543","study_id":"6197b3f67c2b5cd3b6d9596a","session_id":"619be58fc4ca94938202462d","condition":"full-information","relevant_dimensions":["antennae","legs"],"bee_group":{"antennae":"A","wings":"X","pattern":"X","legs":"M"},"bonus":0.02},{"rt":3806.699999999255,"stimulus":"bees-with-color/bee-A2DM.svg","response":1,"trial_type":"image-button-response","trial_index":77,"time_elapsed":569381,"internal_node_id":"0.0-4.0-0.35","subject_id":"60fed3d892fa85f71f759543","study_id":"6197b3f67c2b5cd3b6d9596a","session_id":"619be58fc4ca94938202462d","condition":"full-information","relevant_dimensions":["antennae","legs"],"bee_group":{"antennae":"A","wings":"X","pattern":"X","legs":"M"},"action":"avoid","summary":"good-avoid","bonus":0.02},{"rt":943.0999999996275,"stimulus":"\n                    <p><b>Action: <em>avoid</em></b></p>\n                    <p>This is the bee that you just saw.</p>\n                    <img src=\"bees-with-color/bee-A2DM.svg\" width=\"200\">\n                    <p><span class=\"greenText\">Good choice!</span>  This bee would have stung you.<br>Your bonus pay is unchanged, and remains at $0.40.</p>\n            ","response":0,"trial_type":"html-button-response","trial_index":78,"time_elapsed":570326,"internal_node_id":"0.0-4.0-1.35","subject_id":"60fed3d892fa85f71f759543","study_id":"6197b3f67c2b5cd3b6d9596a","session_id":"619be58fc4ca94938202462d","condition":"full-information","relevant_dimensions":["antennae","legs"],"bee_group":{"antennae":"A","wings":"X","pattern":"X","legs":"M"},"bonus":0.02},{"rt":2470.7999999988824,"stimulus":"bees-with-color/bee-B1SM.svg","response":0,"trial_type":"image-button-response","trial_index":79,"time_elapsed":572798,"internal_node_id":"0.0-4.0-0.36","subject_id":"60fed3d892fa85f71f759543","study_id":"6197b3f67c2b5cd3b6d9596a","session_id":"619be58fc4ca94938202462d","condition":"full-information","relevant_dimensions":["antennae","legs"],"bee_group":{"antennae":"A","wings":"X","pattern":"X","legs":"M"},"action":"harvest","summary":"good-harvest","bonus":0.02},{"rt":1031.1000000014901,"stimulus":"\n                    <p><b>Action: <em>harvest</em></b></p>\n                    <p>This is the bee that you just saw.</p>\n                    <img src=\"bees-with-color/bee-B1SM.svg\" width=\"200\">\n                    <p><span class=\"greenText\"><b>Successful harvest!</b></span><br>Your pay has increased by $0.02. Your bonus pay is now $0.42.</p>\n            ","response":0,"trial_type":"html-button-response","trial_index":80,"time_elapsed":573830,"internal_node_id":"0.0-4.0-1.36","subject_id":"60fed3d892fa85f71f759543","study_id":"6197b3f67c2b5cd3b6d9596a","session_id":"619be58fc4ca94938202462d","condition":"full-information","relevant_dimensions":["antennae","legs"],"bee_group":{"antennae":"A","wings":"X","pattern":"X","legs":"M"},"bonus":0.02},{"rt":2750.699999999255,"stimulus":"bees-with-color/bee-A2SF.svg","response":0,"trial_type":"image-button-response","trial_index":81,"time_elapsed":576581,"internal_node_id":"0.0-4.0-0.37","subject_id":"60fed3d892fa85f71f759543","study_id":"6197b3f67c2b5cd3b6d9596a","session_id":"619be58fc4ca94938202462d","condition":"full-information","relevant_dimensions":["antennae","legs"],"bee_group":{"antennae":"A","wings":"X","pattern":"X","legs":"M"},"action":"harvest","summary":"good-harvest","bonus":0.02},{"rt":959.0999999996275,"stimulus":"\n                    <p><b>Action: <em>harvest</em></b></p>\n                    <p>This is the bee that you just saw.</p>\n                    <img src=\"bees-with-color/bee-A2SF.svg\" width=\"200\">\n                    <p><span class=\"greenText\"><b>Successful harvest!</b></span><br>Your pay has increased by $0.02. Your bonus pay is now $0.44.</p>\n            ","response":0,"trial_type":"html-button-response","trial_index":82,"time_elapsed":577542,"internal_node_id":"0.0-4.0-1.37","subject_id":"60fed3d892fa85f71f759543","study_id":"6197b3f67c2b5cd3b6d9596a","session_id":"619be58fc4ca94938202462d","condition":"full-information","relevant_dimensions":["antennae","legs"],"bee_group":{"antennae":"A","wings":"X","pattern":"X","legs":"M"},"bonus":0.02},{"rt":5254.799999998882,"stimulus":"bees-with-color/bee-B2DF.svg","response":1,"trial_type":"image-button-response","trial_index":83,"time_elapsed":582797,"internal_node_id":"0.0-4.0-0.38","subject_id":"60fed3d892fa85f71f759543","study_id":"6197b3f67c2b5cd3b6d9596a","session_id":"619be58fc4ca94938202462d","condition":"full-information","relevant_dimensions":["antennae","legs"],"bee_group":{"antennae":"A","wings":"X","pattern":"X","legs":"M"},"action":"avoid","summary":"bad-avoid","bonus":0.02},{"rt":935.1999999992549,"stimulus":"\n                    <p><b>Action: <em>avoid</em></b></p>\n                    <p>This is the bee that you just saw.</p>\n                    <img src=\"bees-with-color/bee-B2DF.svg\" width=\"200\">\n                    <p><span class=\"redText\">Bad choice,</span> the bee was friendly.<br>Your bonus pay is unchanged, and remains at $0.44.</p>\n            ","response":0,"trial_type":"html-button-response","trial_index":84,"time_elapsed":583733,"internal_node_id":"0.0-4.0-1.38","subject_id":"60fed3d892fa85f71f759543","study_id":"6197b3f67c2b5cd3b6d9596a","session_id":"619be58fc4ca94938202462d","condition":"full-information","relevant_dimensions":["antennae","legs"],"bee_group":{"antennae":"A","wings":"X","pattern":"X","legs":"M"},"bonus":0.02},{"rt":1967.0999999996275,"stimulus":"bees-with-color/bee-A1SM.svg","response":0,"trial_type":"image-button-response","trial_index":85,"time_elapsed":585701,"internal_node_id":"0.0-4.0-0.39","subject_id":"60fed3d892fa85f71f759543","study_id":"6197b3f67c2b5cd3b6d9596a","session_id":"619be58fc4ca94938202462d","condition":"full-information","relevant_dimensions":["antennae","legs"],"bee_group":{"antennae":"A","wings":"X","pattern":"X","legs":"M"},"action":"harvest","summary":"bad-harvest","bonus":0.02},{"rt":1719.0999999996275,"stimulus":"\n                    <p><b>Action: <em>harvest</em></b></p>\n                    <p>This is the bee that you just saw.</p>\n                    <img src=\"bees-with-color/bee-A1SM.svg\" width=\"200\">\n                    <p><span class=\"redText\">Bad choice, the bee was angry.</span><br><b>You have been stung!</b><br>Your pay has been decreased by $0.10. Your bonus pay is now $0.34.</p>\n            ","response":0,"trial_type":"html-button-response","trial_index":86,"time_elapsed":587421,"internal_node_id":"0.0-4.0-1.39","subject_id":"60fed3d892fa85f71f759543","study_id":"6197b3f67c2b5cd3b6d9596a","session_id":"619be58fc4ca94938202462d","condition":"full-information","relevant_dimensions":["antennae","legs"],"bee_group":{"antennae":"A","wings":"X","pattern":"X","legs":"M"},"bonus":0.02},{"rt":2591.0999999996275,"stimulus":"bees-with-color/bee-A1DM.svg","response":0,"trial_type":"image-button-response","trial_index":87,"time_elapsed":590014,"internal_node_id":"0.0-4.0-0.40","subject_id":"60fed3d892fa85f71f759543","study_id":"6197b3f67c2b5cd3b6d9596a","session_id":"619be58fc4ca94938202462d","condition":"full-information","relevant_dimensions":["antennae","legs"],"bee_group":{"antennae":"A","wings":"X","pattern":"X","legs":"M"},"action":"harvest","summary":"bad-harvest","bonus":0.02},{"rt":1119.0999999996275,"stimulus":"\n                    <p><b>Action: <em>harvest</em></b></p>\n                    <p>This is the bee that you just saw.</p>\n                    <img src=\"bees-with-color/bee-A1DM.svg\" width=\"200\">\n                    <p><span class=\"redText\">Bad choice, the bee was angry.</span><br><b>You have been stung!</b><br>Your pay has been decreased by $0.10. Your bonus pay is now $0.24.</p>\n            ","response":0,"trial_type":"html-button-response","trial_index":88,"time_elapsed":591133,"internal_node_id":"0.0-4.0-1.40","subject_id":"60fed3d892fa85f71f759543","study_id":"6197b3f67c2b5cd3b6d9596a","session_id":"619be58fc4ca94938202462d","condition":"full-information","relevant_dimensions":["antennae","legs"],"bee_group":{"antennae":"A","wings":"X","pattern":"X","legs":"M"},"bonus":0.02},{"rt":3831.0999999996275,"stimulus":"bees-with-color/bee-B1DF.svg","response":0,"trial_type":"image-button-response","trial_index":89,"time_elapsed":594965,"internal_node_id":"0.0-4.0-0.41","subject_id":"60fed3d892fa85f71f759543","study_id":"6197b3f67c2b5cd3b6d9596a","session_id":"619be58fc4ca94938202462d","condition":"full-information","relevant_dimensions":["antennae","legs"],"bee_group":{"antennae":"A","wings":"X","pattern":"X","legs":"M"},"action":"harvest","summary":"good-harvest","bonus":0.02},{"rt":735.1999999992549,"stimulus":"\n                    <p><b>Action: <em>harvest</em></b></p>\n                    <p>This is the bee that you just saw.</p>\n                    <img src=\"bees-with-color/bee-B1DF.svg\" width=\"200\">\n                    <p><span class=\"greenText\"><b>Successful harvest!</b></span><br>Your pay has increased by $0.02. Your bonus pay is now $0.26.</p>\n            ","response":0,"trial_type":"html-button-response","trial_index":90,"time_elapsed":595701,"internal_node_id":"0.0-4.0-1.41","subject_id":"60fed3d892fa85f71f759543","study_id":"6197b3f67c2b5cd3b6d9596a","session_id":"619be58fc4ca94938202462d","condition":"full-information","relevant_dimensions":["antennae","legs"],"bee_group":{"antennae":"A","wings":"X","pattern":"X","legs":"M"},"bonus":0.02},{"rt":1359,"stimulus":"bees-with-color/bee-B2SF.svg","response":1,"trial_type":"image-button-response","trial_index":91,"time_elapsed":597061,"internal_node_id":"0.0-4.0-0.42","subject_id":"60fed3d892fa85f71f759543","study_id":"6197b3f67c2b5cd3b6d9596a","session_id":"619be58fc4ca94938202462d","condition":"full-information","relevant_dimensions":["antennae","legs"],"bee_group":{"antennae":"A","wings":"X","pattern":"X","legs":"M"},"action":"avoid","summary":"bad-avoid","bonus":0.02},{"rt":767.0999999996275,"stimulus":"\n                    <p><b>Action: <em>avoid</em></b></p>\n                    <p>This is the bee that you just saw.</p>\n                    <img src=\"bees-with-color/bee-B2SF.svg\" width=\"200\">\n                    <p><span class=\"redText\">Bad choice,</span> the bee was friendly.<br>Your bonus pay is unchanged, and remains at $0.26.</p>\n            ","response":0,"trial_type":"html-button-response","trial_index":92,"time_elapsed":597829,"internal_node_id":"0.0-4.0-1.42","subject_id":"60fed3d892fa85f71f759543","study_id":"6197b3f67c2b5cd3b6d9596a","session_id":"619be58fc4ca94938202462d","condition":"full-information","relevant_dimensions":["antennae","legs"],"bee_group":{"antennae":"A","wings":"X","pattern":"X","legs":"M"},"bonus":0.02},{"rt":1519.199999999255,"stimulus":"bees-with-color/bee-B1SF.svg","response":1,"trial_type":"image-button-response","trial_index":93,"time_elapsed":599349,"internal_node_id":"0.0-4.0-0.43","subject_id":"60fed3d892fa85f71f759543","study_id":"6197b3f67c2b5cd3b6d9596a","session_id":"619be58fc4ca94938202462d","condition":"full-information","relevant_dimensions":["antennae","legs"],"bee_group":{"antennae":"A","wings":"X","pattern":"X","legs":"M"},"action":"avoid","summary":"bad-avoid","bonus":0.02},{"rt":655.0999999996275,"stimulus":"\n                    <p><b>Action: <em>avoid</em></b></p>\n                    <p>This is the bee that you just saw.</p>\n                    <img src=\"bees-with-color/bee-B1SF.svg\" width=\"200\">\n                    <p><span class=\"redText\">Bad choice,</span> the bee was friendly.<br>Your bonus pay is unchanged, and remains at $0.26.</p>\n            ","response":0,"trial_type":"html-button-response","trial_index":94,"time_elapsed":600005,"internal_node_id":"0.0-4.0-1.43","subject_id":"60fed3d892fa85f71f759543","study_id":"6197b3f67c2b5cd3b6d9596a","session_id":"619be58fc4ca94938202462d","condition":"full-information","relevant_dimensions":["antennae","legs"],"bee_group":{"antennae":"A","wings":"X","pattern":"X","legs":"M"},"bonus":0.02},{"rt":2031.3999999985099,"stimulus":"bees-with-color/bee-B2DM.svg","response":1,"trial_type":"image-button-response","trial_index":95,"time_elapsed":602037,"internal_node_id":"0.0-4.0-0.44","subject_id":"60fed3d892fa85f71f759543","study_id":"6197b3f67c2b5cd3b6d9596a","session_id":"619be58fc4ca94938202462d","condition":"full-information","relevant_dimensions":["antennae","legs"],"bee_group":{"antennae":"A","wings":"X","pattern":"X","legs":"M"},"action":"avoid","summary":"bad-avoid","bonus":0.02},{"rt":694.9000000003725,"stimulus":"\n                    <p><b>Action: <em>avoid</em></b></p>\n                    <p>This is the bee that you just saw.</p>\n                    <img src=\"bees-with-color/bee-B2DM.svg\" width=\"200\">\n                    <p><span class=\"redText\">Bad choice,</span> the bee was friendly.<br>Your bonus pay is unchanged, and remains at $0.26.</p>\n            ","response":0,"trial_type":"html-button-response","trial_index":96,"time_elapsed":602733,"internal_node_id":"0.0-4.0-1.44","subject_id":"60fed3d892fa85f71f759543","study_id":"6197b3f67c2b5cd3b6d9596a","session_id":"619be58fc4ca94938202462d","condition":"full-information","relevant_dimensions":["antennae","legs"],"bee_group":{"antennae":"A","wings":"X","pattern":"X","legs":"M"},"bonus":0.02},{"rt":3735,"stimulus":"bees-with-color/bee-B2SM.svg","response":1,"trial_type":"image-button-response","trial_index":97,"time_elapsed":606469,"internal_node_id":"0.0-4.0-0.45","subject_id":"60fed3d892fa85f71f759543","study_id":"6197b3f67c2b5cd3b6d9596a","session_id":"619be58fc4ca94938202462d","condition":"full-information","relevant_dimensions":["antennae","legs"],"bee_group":{"antennae":"A","wings":"X","pattern":"X","legs":"M"},"action":"avoid","summary":"bad-avoid","bonus":0.02},{"rt":687,"stimulus":"\n                    <p><b>Action: <em>avoid</em></b></p>\n                    <p>This is the bee that you just saw.</p>\n                    <img src=\"bees-with-color/bee-B2SM.svg\" width=\"200\">\n                    <p><span class=\"redText\">Bad choice,</span> the bee was friendly.<br>Your bonus pay is unchanged, and remains at $0.26.</p>\n            ","response":0,"trial_type":"html-button-response","trial_index":98,"time_elapsed":607157,"internal_node_id":"0.0-4.0-1.45","subject_id":"60fed3d892fa85f71f759543","study_id":"6197b3f67c2b5cd3b6d9596a","session_id":"619be58fc4ca94938202462d","condition":"full-information","relevant_dimensions":["antennae","legs"],"bee_group":{"antennae":"A","wings":"X","pattern":"X","legs":"M"},"bonus":0.02},{"rt":1631,"stimulus":"bees-with-color/bee-A1SF.svg","response":0,"trial_type":"image-button-response","trial_index":99,"time_elapsed":608789,"internal_node_id":"0.0-4.0-0.46","subject_id":"60fed3d892fa85f71f759543","study_id":"6197b3f67c2b5cd3b6d9596a","session_id":"619be58fc4ca94938202462d","condition":"full-information","relevant_dimensions":["antennae","legs"],"bee_group":{"antennae":"A","wings":"X","pattern":"X","legs":"M"},"action":"harvest","summary":"good-harvest","bonus":0.02},{"rt":703.0999999996275,"stimulus":"\n                    <p><b>Action: <em>harvest</em></b></p>\n                    <p>This is the bee that you just saw.</p>\n                    <img src=\"bees-with-color/bee-A1SF.svg\" width=\"200\">\n                    <p><span class=\"greenText\"><b>Successful harvest!</b></span><br>Your pay has increased by $0.02. Your bonus pay is now $0.28.</p>\n            ","response":0,"trial_type":"html-button-response","trial_index":100,"time_elapsed":609493,"internal_node_id":"0.0-4.0-1.46","subject_id":"60fed3d892fa85f71f759543","study_id":"6197b3f67c2b5cd3b6d9596a","session_id":"619be58fc4ca94938202462d","condition":"full-information","relevant_dimensions":["antennae","legs"],"bee_group":{"antennae":"A","wings":"X","pattern":"X","legs":"M"},"bonus":0.02},{"rt":1255.2000000011176,"stimulus":"bees-with-color/bee-A2SM.svg","response":0,"trial_type":"image-button-response","trial_index":101,"time_elapsed":610749,"internal_node_id":"0.0-4.0-0.47","subject_id":"60fed3d892fa85f71f759543","study_id":"6197b3f67c2b5cd3b6d9596a","session_id":"619be58fc4ca94938202462d","condition":"full-information","relevant_dimensions":["antennae","legs"],"bee_group":{"antennae":"A","wings":"X","pattern":"X","legs":"M"},"action":"harvest","summary":"bad-harvest","bonus":0.02},{"rt":1070.7999999988824,"stimulus":"\n                    <p><b>Action: <em>harvest</em></b></p>\n                    <p>This is the bee that you just saw.</p>\n                    <img src=\"bees-with-color/bee-A2SM.svg\" width=\"200\">\n                    <p><span class=\"redText\">Bad choice, the bee was angry.</span><br><b>You have been stung!</b><br>Your pay has been decreased by $0.10. Your bonus pay is now $0.18.</p>\n            ","response":0,"trial_type":"html-button-response","trial_index":102,"time_elapsed":611821,"internal_node_id":"0.0-4.0-1.47","subject_id":"60fed3d892fa85f71f759543","study_id":"6197b3f67c2b5cd3b6d9596a","session_id":"619be58fc4ca94938202462d","condition":"full-information","relevant_dimensions":["antennae","legs"],"bee_group":{"antennae":"A","wings":"X","pattern":"X","legs":"M"},"bonus":0.02},{"rt":2215.2999999988824,"stimulus":"bees-with-color/bee-A1SM.svg","response":1,"trial_type":"image-button-response","trial_index":103,"time_elapsed":614037,"internal_node_id":"0.0-4.0-0.48","subject_id":"60fed3d892fa85f71f759543","study_id":"6197b3f67c2b5cd3b6d9596a","session_id":"619be58fc4ca94938202462d","condition":"full-information","relevant_dimensions":["antennae","legs"],"bee_group":{"antennae":"A","wings":"X","pattern":"X","legs":"M"},"action":"avoid","summary":"good-avoid","bonus":0.02},{"rt":1279,"stimulus":"\n                    <p><b>Action: <em>avoid</em></b></p>\n                    <p>This is the bee that you just saw.</p>\n                    <img src=\"bees-with-color/bee-A1SM.svg\" width=\"200\">\n                    <p><span class=\"greenText\">Good choice!</span>  This bee would have stung you.<br>Your bonus pay is unchanged, and remains at $0.18.</p>\n            ","response":0,"trial_type":"html-button-response","trial_index":104,"time_elapsed":615317,"internal_node_id":"0.0-4.0-1.48","subject_id":"60fed3d892fa85f71f759543","study_id":"6197b3f67c2b5cd3b6d9596a","session_id":"619be58fc4ca94938202462d","condition":"full-information","relevant_dimensions":["antennae","legs"],"bee_group":{"antennae":"A","wings":"X","pattern":"X","legs":"M"},"bonus":0.02},{"rt":1854.7999999988824,"stimulus":"bees-with-color/bee-B2SF.svg","response":0,"trial_type":"image-button-response","trial_index":105,"time_elapsed":617173,"internal_node_id":"0.0-4.0-0.49","subject_id":"60fed3d892fa85f71f759543","study_id":"6197b3f67c2b5cd3b6d9596a","session_id":"619be58fc4ca94938202462d","condition":"full-information","relevant_dimensions":["antennae","legs"],"bee_group":{"antennae":"A","wings":"X","pattern":"X","legs":"M"},"action":"harvest","summary":"good-harvest","bonus":0.02},{"rt":839.0999999996275,"stimulus":"\n                    <p><b>Action: <em>harvest</em></b></p>\n                    <p>This is the bee that you just saw.</p>\n                    <img src=\"bees-with-color/bee-B2SF.svg\" width=\"200\">\n                    <p><span class=\"greenText\"><b>Successful harvest!</b></span><br>Your pay has increased by $0.02. Your bonus pay is now $0.20.</p>\n            ","response":0,"trial_type":"html-button-response","trial_index":106,"time_elapsed":618013,"internal_node_id":"0.0-4.0-1.49","subject_id":"60fed3d892fa85f71f759543","study_id":"6197b3f67c2b5cd3b6d9596a","session_id":"619be58fc4ca94938202462d","condition":"full-information","relevant_dimensions":["antennae","legs"],"bee_group":{"antennae":"A","wings":"X","pattern":"X","legs":"M"},"bonus":0.02},{"rt":4815.0999999996275,"stimulus":"bees-with-color/bee-B1DM.svg","response":0,"trial_type":"image-button-response","trial_index":107,"time_elapsed":622829,"internal_node_id":"0.0-4.0-0.50","subject_id":"60fed3d892fa85f71f759543","study_id":"6197b3f67c2b5cd3b6d9596a","session_id":"619be58fc4ca94938202462d","condition":"full-information","relevant_dimensions":["antennae","legs"],"bee_group":{"antennae":"A","wings":"X","pattern":"X","legs":"M"},"action":"harvest","summary":"good-harvest","bonus":0.02},{"rt":927,"stimulus":"\n                    <p><b>Action: <em>harvest</em></b></p>\n                    <p>This is the bee that you just saw.</p>\n                    <img src=\"bees-with-color/bee-B1DM.svg\" width=\"200\">\n                    <p><span class=\"greenText\"><b>Successful harvest!</b></span><br>Your pay has increased by $0.02. Your bonus pay is now $0.22.</p>\n            ","response":0,"trial_type":"html-button-response","trial_index":108,"time_elapsed":623757,"internal_node_id":"0.0-4.0-1.50","subject_id":"60fed3d892fa85f71f759543","study_id":"6197b3f67c2b5cd3b6d9596a","session_id":"619be58fc4ca94938202462d","condition":"full-information","relevant_dimensions":["antennae","legs"],"bee_group":{"antennae":"A","wings":"X","pattern":"X","legs":"M"},"bonus":0.02},{"rt":3118.7999999988824,"stimulus":"bees-with-color/bee-B1SM.svg","response":1,"trial_type":"image-button-response","trial_index":109,"time_elapsed":626877,"internal_node_id":"0.0-4.0-0.51","subject_id":"60fed3d892fa85f71f759543","study_id":"6197b3f67c2b5cd3b6d9596a","session_id":"619be58fc4ca94938202462d","condition":"full-information","relevant_dimensions":["antennae","legs"],"bee_group":{"antennae":"A","wings":"X","pattern":"X","legs":"M"},"action":"avoid","summary":"bad-avoid","bonus":0.02},{"rt":1366.9000000003725,"stimulus":"\n                    <p><b>Action: <em>avoid</em></b></p>\n                    <p>This is the bee that you just saw.</p>\n                    <img src=\"bees-with-color/bee-B1SM.svg\" width=\"200\">\n                    <p><span class=\"redText\">Bad choice,</span> the bee was friendly.<br>Your bonus pay is unchanged, and remains at $0.22.</p>\n            ","response":0,"trial_type":"html-button-response","trial_index":110,"time_elapsed":628245,"internal_node_id":"0.0-4.0-1.51","subject_id":"60fed3d892fa85f71f759543","study_id":"6197b3f67c2b5cd3b6d9596a","session_id":"619be58fc4ca94938202462d","condition":"full-information","relevant_dimensions":["antennae","legs"],"bee_group":{"antennae":"A","wings":"X","pattern":"X","legs":"M"},"bonus":0.02},{"rt":2150.800000000745,"stimulus":"bees-with-color/bee-A1SF.svg","response":0,"trial_type":"image-button-response","trial_index":111,"time_elapsed":630397,"internal_node_id":"0.0-4.0-0.52","subject_id":"60fed3d892fa85f71f759543","study_id":"6197b3f67c2b5cd3b6d9596a","session_id":"619be58fc4ca94938202462d","condition":"full-information","relevant_dimensions":["antennae","legs"],"bee_group":{"antennae":"A","wings":"X","pattern":"X","legs":"M"},"action":"harvest","summary":"good-harvest","bonus":0.02},{"rt":1127.0999999996275,"stimulus":"\n                    <p><b>Action: <em>harvest</em></b></p>\n                    <p>This is the bee that you just saw.</p>\n                    <img src=\"bees-with-color/bee-A1SF.svg\" width=\"200\">\n                    <p><span class=\"greenText\"><b>Successful harvest!</b></span><br>Your pay has increased by $0.02. Your bonus pay is now $0.24.</p>\n            ","response":0,"trial_type":"html-button-response","trial_index":112,"time_elapsed":631525,"internal_node_id":"0.0-4.0-1.52","subject_id":"60fed3d892fa85f71f759543","study_id":"6197b3f67c2b5cd3b6d9596a","session_id":"619be58fc4ca94938202462d","condition":"full-information","relevant_dimensions":["antennae","legs"],"bee_group":{"antennae":"A","wings":"X","pattern":"X","legs":"M"},"bonus":0.02},{"rt":3494.5999999996275,"stimulus":"bees-with-color/bee-A2SM.svg","response":1,"trial_type":"image-button-response","trial_index":113,"time_elapsed":635021,"internal_node_id":"0.0-4.0-0.53","subject_id":"60fed3d892fa85f71f759543","study_id":"6197b3f67c2b5cd3b6d9596a","session_id":"619be58fc4ca94938202462d","condition":"full-information","relevant_dimensions":["antennae","legs"],"bee_group":{"antennae":"A","wings":"X","pattern":"X","legs":"M"},"action":"avoid","summary":"good-avoid","bonus":0.02},{"rt":2239,"stimulus":"\n                    <p><b>Action: <em>avoid</em></b></p>\n                    <p>This is the bee that you just saw.</p>\n                    <img src=\"bees-with-color/bee-A2SM.svg\" width=\"200\">\n                    <p><span class=\"greenText\">Good choice!</span>  This bee would have stung you.<br>Your bonus pay is unchanged, and remains at $0.24.</p>\n            ","response":0,"trial_type":"html-button-response","trial_index":114,"time_elapsed":637261,"internal_node_id":"0.0-4.0-1.53","subject_id":"60fed3d892fa85f71f759543","study_id":"6197b3f67c2b5cd3b6d9596a","session_id":"619be58fc4ca94938202462d","condition":"full-information","relevant_dimensions":["antennae","legs"],"bee_group":{"antennae":"A","wings":"X","pattern":"X","legs":"M"},"bonus":0.02},{"rt":13030.799999998882,"stimulus":"bees-with-color/bee-B2DM.svg","response":0,"trial_type":"image-button-response","trial_index":115,"time_elapsed":650293,"internal_node_id":"0.0-4.0-0.54","subject_id":"60fed3d892fa85f71f759543","study_id":"6197b3f67c2b5cd3b6d9596a","session_id":"619be58fc4ca94938202462d","condition":"full-information","relevant_dimensions":["antennae","legs"],"bee_group":{"antennae":"A","wings":"X","pattern":"X","legs":"M"},"action":"harvest","summary":"good-harvest","bonus":0.02},{"rt":990.9000000003725,"stimulus":"\n                    <p><b>Action: <em>harvest</em></b></p>\n                    <p>This is the bee that you just saw.</p>\n                    <img src=\"bees-with-color/bee-B2DM.svg\" width=\"200\">\n                    <p><span class=\"greenText\"><b>Successful harvest!</b></span><br>Your pay has increased by $0.02. Your bonus pay is now $0.26.</p>\n            ","response":0,"trial_type":"html-button-response","trial_index":116,"time_elapsed":651285,"internal_node_id":"0.0-4.0-1.54","subject_id":"60fed3d892fa85f71f759543","study_id":"6197b3f67c2b5cd3b6d9596a","session_id":"619be58fc4ca94938202462d","condition":"full-information","relevant_dimensions":["antennae","legs"],"bee_group":{"antennae":"A","wings":"X","pattern":"X","legs":"M"},"bonus":0.02},{"rt":4583,"stimulus":"bees-with-color/bee-A2SF.svg","response":0,"trial_type":"image-button-response","trial_index":117,"time_elapsed":655869,"internal_node_id":"0.0-4.0-0.55","subject_id":"60fed3d892fa85f71f759543","study_id":"6197b3f67c2b5cd3b6d9596a","session_id":"619be58fc4ca94938202462d","condition":"full-information","relevant_dimensions":["antennae","legs"],"bee_group":{"antennae":"A","wings":"X","pattern":"X","legs":"M"},"action":"harvest","summary":"good-harvest","bonus":0.02},{"rt":1671.2999999988824,"stimulus":"\n                    <p><b>Action: <em>harvest</em></b></p>\n                    <p>This is the bee that you just saw.</p>\n                    <img src=\"bees-with-color/bee-A2SF.svg\" width=\"200\">\n                    <p><span class=\"greenText\"><b>Successful harvest!</b></span><br>Your pay has increased by $0.02. Your bonus pay is now $0.28.</p>\n            ","response":0,"trial_type":"html-button-response","trial_index":118,"time_elapsed":657541,"internal_node_id":"0.0-4.0-1.55","subject_id":"60fed3d892fa85f71f759543","study_id":"6197b3f67c2b5cd3b6d9596a","session_id":"619be58fc4ca94938202462d","condition":"full-information","relevant_dimensions":["antennae","legs"],"bee_group":{"antennae":"A","wings":"X","pattern":"X","legs":"M"},"bonus":0.02},{"rt":2351.0999999996275,"stimulus":"bees-with-color/bee-A2DM.svg","response":0,"trial_type":"image-button-response","trial_index":119,"time_elapsed":659893,"internal_node_id":"0.0-4.0-0.56","subject_id":"60fed3d892fa85f71f759543","study_id":"6197b3f67c2b5cd3b6d9596a","session_id":"619be58fc4ca94938202462d","condition":"full-information","relevant_dimensions":["antennae","legs"],"bee_group":{"antennae":"A","wings":"X","pattern":"X","legs":"M"},"action":"harvest","summary":"bad-harvest","bonus":0.02},{"rt":1327,"stimulus":"\n                    <p><b>Action: <em>harvest</em></b></p>\n                    <p>This is the bee that you just saw.</p>\n                    <img src=\"bees-with-color/bee-A2DM.svg\" width=\"200\">\n                    <p><span class=\"redText\">Bad choice, the bee was angry.</span><br><b>You have been stung!</b><br>Your pay has been decreased by $0.10. Your bonus pay is now $0.18.</p>\n            ","response":0,"trial_type":"html-button-response","trial_index":120,"time_elapsed":661221,"internal_node_id":"0.0-4.0-1.56","subject_id":"60fed3d892fa85f71f759543","study_id":"6197b3f67c2b5cd3b6d9596a","session_id":"619be58fc4ca94938202462d","condition":"full-information","relevant_dimensions":["antennae","legs"],"bee_group":{"antennae":"A","wings":"X","pattern":"X","legs":"M"},"bonus":0.02},{"rt":2495.300000000745,"stimulus":"bees-with-color/bee-A2DF.svg","response":1,"trial_type":"image-button-response","trial_index":121,"time_elapsed":663717,"internal_node_id":"0.0-4.0-0.57","subject_id":"60fed3d892fa85f71f759543","study_id":"6197b3f67c2b5cd3b6d9596a","session_id":"619be58fc4ca94938202462d","condition":"full-information","relevant_dimensions":["antennae","legs"],"bee_group":{"antennae":"A","wings":"X","pattern":"X","legs":"M"},"action":"avoid","summary":"bad-avoid","bonus":0.02},{"rt":1951.0999999996275,"stimulus":"\n                    <p><b>Action: <em>avoid</em></b></p>\n                    <p>This is the bee that you just saw.</p>\n                    <img src=\"bees-with-color/bee-A2DF.svg\" width=\"200\">\n                    <p><span class=\"redText\">Bad choice,</span> the bee was friendly.<br>Your bonus pay is unchanged, and remains at $0.18.</p>\n            ","response":0,"trial_type":"html-button-response","trial_index":122,"time_elapsed":665669,"internal_node_id":"0.0-4.0-1.57","subject_id":"60fed3d892fa85f71f759543","study_id":"6197b3f67c2b5cd3b6d9596a","session_id":"619be58fc4ca94938202462d","condition":"full-information","relevant_dimensions":["antennae","legs"],"bee_group":{"antennae":"A","wings":"X","pattern":"X","legs":"M"},"bonus":0.02},{"rt":1631,"stimulus":"bees-with-color/bee-A1DM.svg","response":0,"trial_type":"image-button-response","trial_index":123,"time_elapsed":667301,"internal_node_id":"0.0-4.0-0.58","subject_id":"60fed3d892fa85f71f759543","study_id":"6197b3f67c2b5cd3b6d9596a","session_id":"619be58fc4ca94938202462d","condition":"full-information","relevant_dimensions":["antennae","legs"],"bee_group":{"antennae":"A","wings":"X","pattern":"X","legs":"M"},"action":"harvest","summary":"bad-harvest","bonus":0.02},{"rt":1806.9000000003725,"stimulus":"\n                    <p><b>Action: <em>harvest</em></b></p>\n                    <p>This is the bee that you just saw.</p>\n                    <img src=\"bees-with-color/bee-A1DM.svg\" width=\"200\">\n                    <p><span class=\"redText\">Bad choice, the bee was angry.</span><br><b>You have been stung!</b><br>Your pay has been decreased by $0.10. Your bonus pay is now $0.08.</p>\n            ","response":0,"trial_type":"html-button-response","trial_index":124,"time_elapsed":669109,"internal_node_id":"0.0-4.0-1.58","subject_id":"60fed3d892fa85f71f759543","study_id":"6197b3f67c2b5cd3b6d9596a","session_id":"619be58fc4ca94938202462d","condition":"full-information","relevant_dimensions":["antennae","legs"],"bee_group":{"antennae":"A","wings":"X","pattern":"X","legs":"M"},"bonus":0.02},{"rt":3031.199999999255,"stimulus":"bees-with-color/bee-A1DF.svg","response":0,"trial_type":"image-button-response","trial_index":125,"time_elapsed":672141,"internal_node_id":"0.0-4.0-0.59","subject_id":"60fed3d892fa85f71f759543","study_id":"6197b3f67c2b5cd3b6d9596a","session_id":"619be58fc4ca94938202462d","condition":"full-information","relevant_dimensions":["antennae","legs"],"bee_group":{"antennae":"A","wings":"X","pattern":"X","legs":"M"},"action":"harvest","summary":"good-harvest","bonus":0.02},{"rt":1015.1999999992549,"stimulus":"\n                    <p><b>Action: <em>harvest</em></b></p>\n                    <p>This is the bee that you just saw.</p>\n                    <img src=\"bees-with-color/bee-A1DF.svg\" width=\"200\">\n                    <p><span class=\"greenText\"><b>Successful harvest!</b></span><br>Your pay has increased by $0.02. Your bonus pay is now $0.10.</p>\n            ","response":0,"trial_type":"html-button-response","trial_index":126,"time_elapsed":673157,"internal_node_id":"0.0-4.0-1.59","subject_id":"60fed3d892fa85f71f759543","study_id":"6197b3f67c2b5cd3b6d9596a","session_id":"619be58fc4ca94938202462d","condition":"full-information","relevant_dimensions":["antennae","legs"],"bee_group":{"antennae":"A","wings":"X","pattern":"X","legs":"M"},"bonus":0.02},{"rt":1990.9000000003725,"stimulus":"bees-with-color/bee-B1DF.svg","response":1,"trial_type":"image-button-response","trial_index":127,"time_elapsed":675149,"internal_node_id":"0.0-4.0-0.60","subject_id":"60fed3d892fa85f71f759543","study_id":"6197b3f67c2b5cd3b6d9596a","session_id":"619be58fc4ca94938202462d","condition":"full-information","relevant_dimensions":["antennae","legs"],"bee_group":{"antennae":"A","wings":"X","pattern":"X","legs":"M"},"action":"avoid","summary":"bad-avoid","bonus":0.02},{"rt":783.0999999996275,"stimulus":"\n                    <p><b>Action: <em>avoid</em></b></p>\n                    <p>This is the bee that you just saw.</p>\n                    <img src=\"bees-with-color/bee-B1DF.svg\" width=\"200\">\n                    <p><span class=\"redText\">Bad choice,</span> the bee was friendly.<br>Your bonus pay is unchanged, and remains at $0.10.</p>\n            ","response":0,"trial_type":"html-button-response","trial_index":128,"time_elapsed":675933,"internal_node_id":"0.0-4.0-1.60","subject_id":"60fed3d892fa85f71f759543","study_id":"6197b3f67c2b5cd3b6d9596a","session_id":"619be58fc4ca94938202462d","condition":"full-information","relevant_dimensions":["antennae","legs"],"bee_group":{"antennae":"A","wings":"X","pattern":"X","legs":"M"},"bonus":0.02},{"rt":2607.199999999255,"stimulus":"bees-with-color/bee-B2DF.svg","response":1,"trial_type":"image-button-response","trial_index":129,"time_elapsed":678541,"internal_node_id":"0.0-4.0-0.61","subject_id":"60fed3d892fa85f71f759543","study_id":"6197b3f67c2b5cd3b6d9596a","session_id":"619be58fc4ca94938202462d","condition":"full-information","relevant_dimensions":["antennae","legs"],"bee_group":{"antennae":"A","wings":"X","pattern":"X","legs":"M"},"action":"avoid","summary":"bad-avoid","bonus":0.02},{"rt":1534.9000000003725,"stimulus":"\n                    <p><b>Action: <em>avoid</em></b></p>\n                    <p>This is the bee that you just saw.</p>\n                    <img src=\"bees-with-color/bee-B2DF.svg\" width=\"200\">\n                    <p><span class=\"redText\">Bad choice,</span> the bee was friendly.<br>Your bonus pay is unchanged, and remains at $0.10.</p>\n            ","response":0,"trial_type":"html-button-response","trial_index":130,"time_elapsed":680077,"internal_node_id":"0.0-4.0-1.61","subject_id":"60fed3d892fa85f71f759543","study_id":"6197b3f67c2b5cd3b6d9596a","session_id":"619be58fc4ca94938202462d","condition":"full-information","relevant_dimensions":["antennae","legs"],"bee_group":{"antennae":"A","wings":"X","pattern":"X","legs":"M"},"bonus":0.02},{"rt":2254.9000000003725,"stimulus":"bees-with-color/bee-B1SF.svg","response":0,"trial_type":"image-button-response","trial_index":131,"time_elapsed":682333,"internal_node_id":"0.0-4.0-0.62","subject_id":"60fed3d892fa85f71f759543","study_id":"6197b3f67c2b5cd3b6d9596a","session_id":"619be58fc4ca94938202462d","condition":"full-information","relevant_dimensions":["antennae","legs"],"bee_group":{"antennae":"A","wings":"X","pattern":"X","legs":"M"},"action":"harvest","summary":"good-harvest","bonus":0.02},{"rt":919,"stimulus":"\n                    <p><b>Action: <em>harvest</em></b></p>\n                    <p>This is the bee that you just saw.</p>\n                    <img src=\"bees-with-color/bee-B1SF.svg\" width=\"200\">\n                    <p><span class=\"greenText\"><b>Successful harvest!</b></span><br>Your pay has increased by $0.02. Your bonus pay is now $0.12.</p>\n            ","response":0,"trial_type":"html-button-response","trial_index":132,"time_elapsed":683253,"internal_node_id":"0.0-4.0-1.62","subject_id":"60fed3d892fa85f71f759543","study_id":"6197b3f67c2b5cd3b6d9596a","session_id":"619be58fc4ca94938202462d","condition":"full-information","relevant_dimensions":["antennae","legs"],"bee_group":{"antennae":"A","wings":"X","pattern":"X","legs":"M"},"bonus":0.02},{"rt":2047.2999999988824,"stimulus":"bees-with-color/bee-B2SM.svg","response":1,"trial_type":"image-button-response","trial_index":133,"time_elapsed":685301,"internal_node_id":"0.0-4.0-0.63","subject_id":"60fed3d892fa85f71f759543","study_id":"6197b3f67c2b5cd3b6d9596a","session_id":"619be58fc4ca94938202462d","condition":"full-information","relevant_dimensions":["antennae","legs"],"bee_group":{"antennae":"A","wings":"X","pattern":"X","legs":"M"},"action":"avoid","summary":"bad-avoid","bonus":0.02},{"rt":1583,"stimulus":"\n                    <p><b>Action: <em>avoid</em></b></p>\n                    <p>This is the bee that you just saw.</p>\n                    <img src=\"bees-with-color/bee-B2SM.svg\" width=\"200\">\n                    <p><span class=\"redText\">Bad choice,</span> the bee was friendly.<br>Your bonus pay is unchanged, and remains at $0.12.</p>\n            ","response":0,"trial_type":"html-button-response","trial_index":134,"time_elapsed":686885,"internal_node_id":"0.0-4.0-1.63","subject_id":"60fed3d892fa85f71f759543","study_id":"6197b3f67c2b5cd3b6d9596a","session_id":"619be58fc4ca94938202462d","condition":"full-information","relevant_dimensions":["antennae","legs"],"bee_group":{"antennae":"A","wings":"X","pattern":"X","legs":"M"},"bonus":0.02},{"rt":12184.5,"stimulus":"You have completed the first part of this experiment.<br><br>You will now begin a shorter second part, in which you will receive no feedback.<br>The same rules regarding bonus pay apply.<br><br>Press any key to begin.","response":" ","trial_type":"html-keyboard-response","trial_index":135,"time_elapsed":699071,"internal_node_id":"0.0-5.0","subject_id":"60fed3d892fa85f71f759543","study_id":"6197b3f67c2b5cd3b6d9596a","session_id":"619be58fc4ca94938202462d","condition":"full-information","relevant_dimensions":["antennae","legs"],"bee_group":{"antennae":"A","wings":"X","pattern":"X","legs":"M"},"bonus":0.02},{"rt":4897.199999999255,"stimulus":"bees-with-color/bee-A1SM.svg","response":0,"trial_type":"image-button-response","trial_index":136,"time_elapsed":703973,"internal_node_id":"0.0-6.0-0.0","subject_id":"60fed3d892fa85f71f759543","study_id":"6197b3f67c2b5cd3b6d9596a","session_id":"619be58fc4ca94938202462d","condition":"full-information","relevant_dimensions":["antennae","legs"],"bee_group":{"antennae":"A","wings":"X","pattern":"X","legs":"M"},"bonus":0.02},{"rt":7950.300000000745,"stimulus":"bees-with-color/bee-B2SM.svg","response":1,"trial_type":"image-button-response","trial_index":137,"time_elapsed":711925,"internal_node_id":"0.0-6.0-0.1","subject_id":"60fed3d892fa85f71f759543","study_id":"6197b3f67c2b5cd3b6d9596a","session_id":"619be58fc4ca94938202462d","condition":"full-information","relevant_dimensions":["antennae","legs"],"bee_group":{"antennae":"A","wings":"X","pattern":"X","legs":"M"},"bonus":0.02},{"rt":1422.2999999988824,"stimulus":"bees-with-color/bee-B1DF.svg","response":0,"trial_type":"image-button-response","trial_index":138,"time_elapsed":713349,"internal_node_id":"0.0-6.0-0.2","subject_id":"60fed3d892fa85f71f759543","study_id":"6197b3f67c2b5cd3b6d9596a","session_id":"619be58fc4ca94938202462d","condition":"full-information","relevant_dimensions":["antennae","legs"],"bee_group":{"antennae":"A","wings":"X","pattern":"X","legs":"M"},"bonus":0.02},{"rt":2390.2000000011176,"stimulus":"bees-with-color/bee-B1DM.svg","response":0,"trial_type":"image-button-response","trial_index":139,"time_elapsed":715741,"internal_node_id":"0.0-6.0-0.3","subject_id":"60fed3d892fa85f71f759543","study_id":"6197b3f67c2b5cd3b6d9596a","session_id":"619be58fc4ca94938202462d","condition":"full-information","relevant_dimensions":["antennae","legs"],"bee_group":{"antennae":"A","wings":"X","pattern":"X","legs":"M"},"bonus":0.02},{"rt":6999.199999999255,"stimulus":"bees-with-color/bee-B2SF.svg","response":1,"trial_type":"image-button-response","trial_index":140,"time_elapsed":722741,"internal_node_id":"0.0-6.0-0.4","subject_id":"60fed3d892fa85f71f759543","study_id":"6197b3f67c2b5cd3b6d9596a","session_id":"619be58fc4ca94938202462d","condition":"full-information","relevant_dimensions":["antennae","legs"],"bee_group":{"antennae":"A","wings":"X","pattern":"X","legs":"M"},"bonus":0.02},{"rt":1030,"stimulus":"bees-with-color/bee-A1DM.svg","response":0,"trial_type":"image-button-response","trial_index":141,"time_elapsed":723773,"internal_node_id":"0.0-6.0-0.5","subject_id":"60fed3d892fa85f71f759543","study_id":"6197b3f67c2b5cd3b6d9596a","session_id":"619be58fc4ca94938202462d","condition":"full-information","relevant_dimensions":["antennae","legs"],"bee_group":{"antennae":"A","wings":"X","pattern":"X","legs":"M"},"bonus":0.02},{"rt":8758.5,"stimulus":"bees-with-color/bee-A2SF.svg","response":1,"trial_type":"image-button-response","trial_index":142,"time_elapsed":732533,"internal_node_id":"0.0-6.0-0.6","subject_id":"60fed3d892fa85f71f759543","study_id":"6197b3f67c2b5cd3b6d9596a","session_id":"619be58fc4ca94938202462d","condition":"full-information","relevant_dimensions":["antennae","legs"],"bee_group":{"antennae":"A","wings":"X","pattern":"X","legs":"M"},"bonus":0.02},{"rt":3638.300000000745,"stimulus":"bees-with-color/bee-A2DF.svg","response":1,"trial_type":"image-button-response","trial_index":143,"time_elapsed":736173,"internal_node_id":"0.0-6.0-0.7","subject_id":"60fed3d892fa85f71f759543","study_id":"6197b3f67c2b5cd3b6d9596a","session_id":"619be58fc4ca94938202462d","condition":"full-information","relevant_dimensions":["antennae","legs"],"bee_group":{"antennae":"A","wings":"X","pattern":"X","legs":"M"},"bonus":0.02},{"rt":6590.299999998882,"stimulus":"bees-with-color/bee-A1DF.svg","response":0,"trial_type":"image-button-response","trial_index":144,"time_elapsed":742765,"internal_node_id":"0.0-6.0-0.8","subject_id":"60fed3d892fa85f71f759543","study_id":"6197b3f67c2b5cd3b6d9596a","session_id":"619be58fc4ca94938202462d","condition":"full-information","relevant_dimensions":["antennae","legs"],"bee_group":{"antennae":"A","wings":"X","pattern":"X","legs":"M"},"bonus":0.02},{"rt":2790.5999999996275,"stimulus":"bees-with-color/bee-A2SM.svg","response":1,"trial_type":"image-button-response","trial_index":145,"time_elapsed":745557,"internal_node_id":"0.0-6.0-0.9","subject_id":"60fed3d892fa85f71f759543","study_id":"6197b3f67c2b5cd3b6d9596a","session_id":"619be58fc4ca94938202462d","condition":"full-information","relevant_dimensions":["antennae","legs"],"bee_group":{"antennae":"A","wings":"X","pattern":"X","legs":"M"},"bonus":0.02},{"rt":1374.699999999255,"stimulus":"bees-with-color/bee-A2DM.svg","response":0,"trial_type":"image-button-response","trial_index":146,"time_elapsed":746933,"internal_node_id":"0.0-6.0-0.10","subject_id":"60fed3d892fa85f71f759543","study_id":"6197b3f67c2b5cd3b6d9596a","session_id":"619be58fc4ca94938202462d","condition":"full-information","relevant_dimensions":["antennae","legs"],"bee_group":{"antennae":"A","wings":"X","pattern":"X","legs":"M"},"bonus":0.02},{"rt":2926.7000000011176,"stimulus":"bees-with-color/bee-B1SF.svg","response":0,"trial_type":"image-button-response","trial_index":147,"time_elapsed":749861,"internal_node_id":"0.0-6.0-0.11","subject_id":"60fed3d892fa85f71f759543","study_id":"6197b3f67c2b5cd3b6d9596a","session_id":"619be58fc4ca94938202462d","condition":"full-information","relevant_dimensions":["antennae","legs"],"bee_group":{"antennae":"A","wings":"X","pattern":"X","legs":"M"},"bonus":0.02},{"rt":1558.699999999255,"stimulus":"bees-with-color/bee-B2DM.svg","response":1,"trial_type":"image-button-response","trial_index":148,"time_elapsed":751421,"internal_node_id":"0.0-6.0-0.12","subject_id":"60fed3d892fa85f71f759543","study_id":"6197b3f67c2b5cd3b6d9596a","session_id":"619be58fc4ca94938202462d","condition":"full-information","relevant_dimensions":["antennae","legs"],"bee_group":{"antennae":"A","wings":"X","pattern":"X","legs":"M"},"bonus":0.02},{"rt":3878.9000000003725,"stimulus":"bees-with-color/bee-B1SM.svg","response":1,"trial_type":"image-button-response","trial_index":149,"time_elapsed":755301,"internal_node_id":"0.0-6.0-0.13","subject_id":"60fed3d892fa85f71f759543","study_id":"6197b3f67c2b5cd3b6d9596a","session_id":"619be58fc4ca94938202462d","condition":"full-information","relevant_dimensions":["antennae","legs"],"bee_group":{"antennae":"A","wings":"X","pattern":"X","legs":"M"},"bonus":0.02},{"rt":1174.4000000003725,"stimulus":"bees-with-color/bee-A1SF.svg","response":0,"trial_type":"image-button-response","trial_index":150,"time_elapsed":756477,"internal_node_id":"0.0-6.0-0.14","subject_id":"60fed3d892fa85f71f759543","study_id":"6197b3f67c2b5cd3b6d9596a","session_id":"619be58fc4ca94938202462d","condition":"full-information","relevant_dimensions":["antennae","legs"],"bee_group":{"antennae":"A","wings":"X","pattern":"X","legs":"M"},"bonus":0.02},{"rt":1366.9000000003725,"stimulus":"bees-with-color/bee-B2DF.svg","response":1,"trial_type":"image-button-response","trial_index":151,"time_elapsed":757845,"internal_node_id":"0.0-6.0-0.15","subject_id":"60fed3d892fa85f71f759543","study_id":"6197b3f67c2b5cd3b6d9596a","session_id":"619be58fc4ca94938202462d","condition":"full-information","relevant_dimensions":["antennae","legs"],"bee_group":{"antennae":"A","wings":"X","pattern":"X","legs":"M"},"bonus":0.02},{"rt":1943.0999999996275,"stimulus":"bees-with-color/bee-A2DM.svg","response":0,"trial_type":"image-button-response","trial_index":152,"time_elapsed":759789,"internal_node_id":"0.0-6.0-0.16","subject_id":"60fed3d892fa85f71f759543","study_id":"6197b3f67c2b5cd3b6d9596a","session_id":"619be58fc4ca94938202462d","condition":"full-information","relevant_dimensions":["antennae","legs"],"bee_group":{"antennae":"A","wings":"X","pattern":"X","legs":"M"},"bonus":0.02},{"rt":3110.9000000003725,"stimulus":"bees-with-color/bee-B1SF.svg","response":1,"trial_type":"image-button-response","trial_index":153,"time_elapsed":762901,"internal_node_id":"0.0-6.0-0.17","subject_id":"60fed3d892fa85f71f759543","study_id":"6197b3f67c2b5cd3b6d9596a","session_id":"619be58fc4ca94938202462d","condition":"full-information","relevant_dimensions":["antennae","legs"],"bee_group":{"antennae":"A","wings":"X","pattern":"X","legs":"M"},"bonus":0.02},{"rt":3583.0999999996275,"stimulus":"bees-with-color/bee-A1DM.svg","response":0,"trial_type":"image-button-response","trial_index":154,"time_elapsed":766485,"internal_node_id":"0.0-6.0-0.18","subject_id":"60fed3d892fa85f71f759543","study_id":"6197b3f67c2b5cd3b6d9596a","session_id":"619be58fc4ca94938202462d","condition":"full-information","relevant_dimensions":["antennae","legs"],"bee_group":{"antennae":"A","wings":"X","pattern":"X","legs":"M"},"bonus":0.02},{"rt":2814.9000000003725,"stimulus":"bees-with-color/bee-B2DF.svg","response":1,"trial_type":"image-button-response","trial_index":155,"time_elapsed":769301,"internal_node_id":"0.0-6.0-0.19","subject_id":"60fed3d892fa85f71f759543","study_id":"6197b3f67c2b5cd3b6d9596a","session_id":"619be58fc4ca94938202462d","condition":"full-information","relevant_dimensions":["antennae","legs"],"bee_group":{"antennae":"A","wings":"X","pattern":"X","legs":"M"},"bonus":0.02},{"rt":3006.800000000745,"stimulus":"bees-with-color/bee-B2DM.svg","response":0,"trial_type":"image-button-response","trial_index":156,"time_elapsed":772309,"internal_node_id":"0.0-6.0-0.20","subject_id":"60fed3d892fa85f71f759543","study_id":"6197b3f67c2b5cd3b6d9596a","session_id":"619be58fc4ca94938202462d","condition":"full-information","relevant_dimensions":["antennae","legs"],"bee_group":{"antennae":"A","wings":"X","pattern":"X","legs":"M"},"bonus":0.02},{"rt":1535.4000000003725,"stimulus":"bees-with-color/bee-B2SM.svg","response":1,"trial_type":"image-button-response","trial_index":157,"time_elapsed":773845,"internal_node_id":"0.0-6.0-0.21","subject_id":"60fed3d892fa85f71f759543","study_id":"6197b3f67c2b5cd3b6d9596a","session_id":"619be58fc4ca94938202462d","condition":"full-information","relevant_dimensions":["antennae","legs"],"bee_group":{"antennae":"A","wings":"X","pattern":"X","legs":"M"},"bonus":0.02},{"rt":4325.699999999255,"stimulus":"bees-with-color/bee-A2SF.svg","response":0,"trial_type":"image-button-response","trial_index":158,"time_elapsed":778173,"internal_node_id":"0.0-6.0-0.22","subject_id":"60fed3d892fa85f71f759543","study_id":"6197b3f67c2b5cd3b6d9596a","session_id":"619be58fc4ca94938202462d","condition":"full-information","relevant_dimensions":["antennae","legs"],"bee_group":{"antennae":"A","wings":"X","pattern":"X","legs":"M"},"bonus":0.02},{"rt":8598.699999999255,"stimulus":"bees-with-color/bee-B1SM.svg","response":1,"trial_type":"image-button-response","trial_index":159,"time_elapsed":786773,"internal_node_id":"0.0-6.0-0.23","subject_id":"60fed3d892fa85f71f759543","study_id":"6197b3f67c2b5cd3b6d9596a","session_id":"619be58fc4ca94938202462d","condition":"full-information","relevant_dimensions":["antennae","legs"],"bee_group":{"antennae":"A","wings":"X","pattern":"X","legs":"M"},"bonus":0.02},{"rt":3454.5999999996275,"stimulus":"bees-with-color/bee-A1SF.svg","response":0,"trial_type":"image-button-response","trial_index":160,"time_elapsed":790229,"internal_node_id":"0.0-6.0-0.24","subject_id":"60fed3d892fa85f71f759543","study_id":"6197b3f67c2b5cd3b6d9596a","session_id":"619be58fc4ca94938202462d","condition":"full-information","relevant_dimensions":["antennae","legs"],"bee_group":{"antennae":"A","wings":"X","pattern":"X","legs":"M"},"bonus":0.02},{"rt":5646.800000000745,"stimulus":"bees-with-color/bee-A2SM.svg","response":1,"trial_type":"image-button-response","trial_index":161,"time_elapsed":795877,"internal_node_id":"0.0-6.0-0.25","subject_id":"60fed3d892fa85f71f759543","study_id":"6197b3f67c2b5cd3b6d9596a","session_id":"619be58fc4ca94938202462d","condition":"full-information","relevant_dimensions":["antennae","legs"],"bee_group":{"antennae":"A","wings":"X","pattern":"X","legs":"M"},"bonus":0.02},{"rt":1006.5999999996275,"stimulus":"bees-with-color/bee-