[{"success":true,"trial_type":"fullscreen","trial_index":0,"time_elapsed":9514,"internal_node_id":"0.0-0.0","subject_id":"6169d9b7be52699b6e27e47a","study_id":"6197b3f67c2b5cd3b6d9596a","session_id":"6197b9e8b7e7e7c7857ac36b","condition":"contingent","relevant_dimensions":["wings","legs"],"bee_group":{"antennae":"X","wings":"1","pattern":"X","legs":"M"},"bonus":0.48000000000000087},{"success":true,"timeout":false,"failed_images":[],"failed_audio":[],"failed_video":[],"trial_type":"preload","trial_index":1,"time_elapsed":13677,"internal_node_id":"0.0-1.0","subject_id":"6169d9b7be52699b6e27e47a","study_id":"6197b3f67c2b5cd3b6d9596a","session_id":"6197b9e8b7e7e7c7857ac36b","condition":"contingent","relevant_dimensions":["wings","legs"],"bee_group":{"antennae":"X","wings":"1","pattern":"X","legs":"M"},"bonus":0.48000000000000087},{"rt":3633.699999999255,"stimulus":"Welcome! Press any key to begin.","response":" ","trial_type":"html-keyboard-response","trial_index":2,"time_elapsed":17311,"internal_node_id":"0.0-2.0","subject_id":"6169d9b7be52699b6e27e47a","study_id":"6197b3f67c2b5cd3b6d9596a","session_id":"6197b9e8b7e7e7c7857ac36b","condition":"contingent","relevant_dimensions":["wings","legs"],"bee_group":{"antennae":"X","wings":"1","pattern":"X","legs":"M"},"bonus":0.48000000000000087},{"view_history":[{"page_index":0,"viewing_time":15074.599999999627},{"page_index":1,"viewing_time":22023.700000001118},{"page_index":2,"viewing_time":2670},{"page_index":3,"viewing_time":7466},{"page_index":4,"viewing_time":12209.799999998882},{"page_index":5,"viewing_time":7337.9000000003725},{"page_index":6,"viewing_time":8056},{"page_index":7,"viewing_time":11633.800000000745},{"page_index":8,"viewing_time":3774},{"page_index":9,"viewing_time":2726},{"page_index":10,"viewing_time":2026},{"page_index":11,"viewing_time":9347.699999999255},{"page_index":12,"viewing_time":4808.0999999996275},{"page_index":13,"viewing_time":1692},{"page_index":14,"viewing_time":3576}],"rt":114421.90000000037,"trial_type":"instructions","trial_index":3,"time_elapsed":131733,"internal_node_id":"0.0-3.0-0.0","subject_id":"6169d9b7be52699b6e27e47a","study_id":"6197b3f67c2b5cd3b6d9596a","session_id":"6197b9e8b7e7e7c7857ac36b","condition":"contingent","relevant_dimensions":["wings","legs"],"bee_group":{"antennae":"X","wings":"1","pattern":"X","legs":"M"},"bonus":0.48000000000000087},{"rt":13901.099999999627,"response":{"Q0":["Two or six legs","Stripes or spots on body","Single or double wings","Antennae or no antennae"]},"question_order":[0],"trial_type":"survey-multi-select","trial_index":4,"time_elapsed":145638,"internal_node_id":"0.0-3.0-1.0","subject_id":"6169d9b7be52699b6e27e47a","study_id":"6197b3f67c2b5cd3b6d9596a","session_id":"6197b9e8b7e7e7c7857ac36b","condition":"contingent","relevant_dimensions":["wings","legs"],"bee_group":{"antennae":"X","wings":"1","pattern":"X","legs":"M"},"correct":true,"bonus":0.48000000000000087},{"rt":47801.40000000037,"response":{"Q1":"No.","Q2":"Based on the four features of the bee.","Q3":"You do not learn if it was friendly or dangerous, and do not alter your bonus."},"question_order":[0,1,2],"trial_type":"survey-multi-choice","trial_index":5,"time_elapsed":193441,"internal_node_id":"0.0-3.0-2.0","subject_id":"6169d9b7be52699b6e27e47a","study_id":"6197b3f67c2b5cd3b6d9596a","session_id":"6197b9e8b7e7e7c7857ac36b","condition":"contingent","relevant_dimensions":["wings","legs"],"bee_group":{"antennae":"X","wings":"1","pattern":"X","legs":"M"},"correct":true,"bonus":0.48000000000000087},{"rt":1874.300000000745,"stimulus":"<p>Congrats, you got everything right<br>When you're ready, click the button below to continue to the experiment.</p>","response":0,"trial_type":"html-button-response","trial_index":6,"time_elapsed":195317,"internal_node_id":"0.0-3.0-3.0","subject_id":"6169d9b7be52699b6e27e47a","study_id":"6197b3f67c2b5cd3b6d9596a","session_id":"6197b9e8b7e7e7c7857ac36b","condition":"contingent","relevant_dimensions":["wings","legs"],"bee_group":{"antennae":"X","wings":"1","pattern":"X","legs":"M"},"bonus":0.48000000000000087},{"rt":6056.800000000745,"stimulus":"bees-with-color/bee-A2DM.svg","response":0,"trial_type":"image-button-response","trial_index":7,"time_elapsed":201377,"internal_node_id":"0.0-4.0-0.0","subject_id":"6169d9b7be52699b6e27e47a","study_id":"6197b3f67c2b5cd3b6d9596a","session_id":"6197b9e8b7e7e7c7857ac36b","condition":"contingent","relevant_dimensions":["wings","legs"],"bee_group":{"antennae":"X","wings":"1","pattern":"X","legs":"M"},"action":"harvest","summary":"good-harvest","bonus":0.48000000000000087},{"rt":14430.89999999851,"stimulus":"\n                    <p><b>Action: <em>harvest</em></b></p>\n                    <p>This is the bee that you just saw.</p>\n                    <img src=\"bees-with-color/bee-A2DM.svg\" width=\"200\">\n                    <p><span class=\"greenText\"><b>Successful harvest!</b></span><br>Your pay has increased by $0.02. Your bonus pay is now $0.56.</p>\n            ","response":0,"trial_type":"html-button-response","trial_index":8,"time_elapsed":215811,"internal_node_id":"0.0-4.0-1.0","subject_id":"6169d9b7be52699b6e27e47a","study_id":"6197b3f67c2b5cd3b6d9596a","session_id":"6197b9e8b7e7e7c7857ac36b","condition":"contingent","relevant_dimensions":["wings","legs"],"bee_group":{"antennae":"X","wings":"1","pattern":"X","legs":"M"},"bonus":0.48000000000000087},{"rt":2744.0999999996275,"stimulus":"bees-with-color/bee-A2DF.svg","response":0,"trial_type":"image-button-response","trial_index":9,"time_elapsed":218557,"internal_node_id":"0.0-4.0-0.1","subject_id":"6169d9b7be52699b6e27e47a","study_id":"6197b3f67c2b5cd3b6d9596a","session_id":"6197b9e8b7e7e7c7857ac36b","condition":"contingent","relevant_dimensions":["wings","legs"],"bee_group":{"antennae":"X","wings":"1","pattern":"X","legs":"M"},"action":"harvest","summary":"good-harvest","bonus":0.48000000000000087},{"rt":8550.199999999255,"stimulus":"\n                    <p><b>Action: <em>harvest</em></b></p>\n                    <p>This is the bee that you just saw.</p>\n                    <img src=\"bees-with-color/bee-A2DF.svg\" width=\"200\">\n                    <p><span class=\"greenText\"><b>Successful harvest!</b></span><br>Your pay has increased by $0.02. Your bonus pay is now $0.58.</p>\n            ","response":0,"trial_type":"html-button-response","trial_index":10,"time_elapsed":227109,"internal_node_id":"0.0-4.0-1.1","subject_id":"6169d9b7be52699b6e27e47a","study_id":"6197b3f67c2b5cd3b6d9596a","session_id":"6197b9e8b7e7e7c7857ac36b","condition":"contingent","relevant_dimensions":["wings","legs"],"bee_group":{"antennae":"X","wings":"1","pattern":"X","legs":"M"},"bonus":0.48000000000000087},{"rt":2322.0999999996275,"stimulus":"bees-with-color/bee-B1DM.svg","response":1,"trial_type":"image-button-response","trial_index":11,"time_elapsed":229433,"internal_node_id":"0.0-4.0-0.2","subject_id":"6169d9b7be52699b6e27e47a","study_id":"6197b3f67c2b5cd3b6d9596a","session_id":"6197b9e8b7e7e7c7857ac36b","condition":"contingent","relevant_dimensions":["wings","legs"],"bee_group":{"antennae":"X","wings":"1","pattern":"X","legs":"M"},"action":"avoid","summary":"good-avoid","bonus":0.48000000000000087},{"rt":4402.700000001118,"stimulus":"\n                    <p><b>Action: <em>avoid</em></b></p>\n                    <p>This is the bee that you just saw.</p>\n                    <img src=\"bees-with-color/bee-B1DM.svg\" width=\"200\">\n                    <p><br>Your bonus pay is unchanged, and remains at $0.58.</p>\n            ","response":0,"trial_type":"html-button-response","trial_index":12,"time_elapsed":233837,"internal_node_id":"0.0-4.0-1.2","subject_id":"6169d9b7be52699b6e27e47a","study_id":"6197b3f67c2b5cd3b6d9596a","session_id":"6197b9e8b7e7e7c7857ac36b","condition":"contingent","relevant_dimensions":["wings","legs"],"bee_group":{"antennae":"X","wings":"1","pattern":"X","legs":"M"},"bonus":0.48000000000000087},{"rt":1376.699999999255,"stimulus":"bees-with-color/bee-A2SM.svg","response":0,"trial_type":"image-button-response","trial_index":13,"time_elapsed":235215,"internal_node_id":"0.0-4.0-0.3","subject_id":"6169d9b7be52699b6e27e47a","study_id":"6197b3f67c2b5cd3b6d9596a","session_id":"6197b9e8b7e7e7c7857ac36b","condition":"contingent","relevant_dimensions":["wings","legs"],"bee_group":{"antennae":"X","wings":"1","pattern":"X","legs":"M"},"action":"harvest","summary":"good-harvest","bonus":0.48000000000000087},{"rt":2300.800000000745,"stimulus":"\n                    <p><b>Action: <em>harvest</em></b></p>\n                    <p>This is the bee that you just saw.</p>\n                    <img src=\"bees-with-color/bee-A2SM.svg\" width=\"200\">\n                    <p><span class=\"greenText\"><b>Successful harvest!</b></span><br>Your pay has increased by $0.02. Your bonus pay is now $0.60.</p>\n            ","response":0,"trial_type":"html-button-response","trial_index":14,"time_elapsed":237517,"internal_node_id":"0.0-4.0-1.3","subject_id":"6169d9b7be52699b6e27e47a","study_id":"6197b3f67c2b5cd3b6d9596a","session_id":"6197b9e8b7e7e7c7857ac36b","condition":"contingent","relevant_dimensions":["wings","legs"],"bee_group":{"antennae":"X","wings":"1","pattern":"X","legs":"M"},"bonus":0.48000000000000087},{"rt":2228.5,"stimulus":"bees-with-color/bee-A1SF.svg","response":1,"trial_type":"image-button-response","trial_index":15,"time_elapsed":239747,"internal_node_id":"0.0-4.0-0.4","subject_id":"6169d9b7be52699b6e27e47a","study_id":"6197b3f67c2b5cd3b6d9596a","session_id":"6197b9e8b7e7e7c7857ac36b","condition":"contingent","relevant_dimensions":["wings","legs"],"bee_group":{"antennae":"X","wings":"1","pattern":"X","legs":"M"},"action":"avoid","summary":"bad-avoid","bonus":0.48000000000000087},{"rt":2076.9000000003725,"stimulus":"\n                    <p><b>Action: <em>avoid</em></b></p>\n                    <p>This is the bee that you just saw.</p>\n                    <img src=\"bees-with-color/bee-A1SF.svg\" width=\"200\">\n                    <p><br>Your bonus pay is unchanged, and remains at $0.60.</p>\n            ","response":0,"trial_type":"html-button-response","trial_index":16,"time_elapsed":241825,"internal_node_id":"0.0-4.0-1.4","subject_id":"6169d9b7be52699b6e27e47a","study_id":"6197b3f67c2b5cd3b6d9596a","session_id":"6197b9e8b7e7e7c7857ac36b","condition":"contingent","relevant_dimensions":["wings","legs"],"bee_group":{"antennae":"X","wings":"1","pattern":"X","legs":"M"},"bonus":0.48000000000000087},{"rt":4056.5,"stimulus":"bees-with-color/bee-B1SM.svg","response":0,"trial_type":"image-button-response","trial_index":17,"time_elapsed":245882,"internal_node_id":"0.0-4.0-0.5","subject_id":"6169d9b7be52699b6e27e47a","study_id":"6197b3f67c2b5cd3b6d9596a","session_id":"6197b9e8b7e7e7c7857ac36b","condition":"contingent","relevant_dimensions":["wings","legs"],"bee_group":{"antennae":"X","wings":"1","pattern":"X","legs":"M"},"action":"harvest","summary":"bad-harvest","bonus":0.48000000000000087},{"rt":4830.9000000003725,"stimulus":"\n                    <p><b>Action: <em>harvest</em></b></p>\n                    <p>This is the bee that you just saw.</p>\n                    <img src=\"bees-with-color/bee-B1SM.svg\" width=\"200\">\n                    <p><span class=\"redText\">Bad choice, the bee was angry.</span><br><b>You have been stung!</b><br>Your pay has been decreased by $0.10. Your bonus pay is now $0.50.</p>\n            ","response":0,"trial_type":"html-button-response","trial_index":18,"time_elapsed":250714,"internal_node_id":"0.0-4.0-1.5","subject_id":"6169d9b7be52699b6e27e47a","study_id":"6197b3f67c2b5cd3b6d9596a","session_id":"6197b9e8b7e7e7c7857ac36b","condition":"contingent","relevant_dimensions":["wings","legs"],"bee_group":{"antennae":"X","wings":"1","pattern":"X","legs":"M"},"bonus":0.48000000000000087},{"rt":2068,"stimulus":"bees-with-color/bee-B2DM.svg","response":0,"trial_type":"image-button-response","trial_index":19,"time_elapsed":252784,"internal_node_id":"0.0-4.0-0.6","subject_id":"6169d9b7be52699b6e27e47a","study_id":"6197b3f67c2b5cd3b6d9596a","session_id":"6197b9e8b7e7e7c7857ac36b","condition":"contingent","relevant_dimensions":["wings","legs"],"bee_group":{"antennae":"X","wings":"1","pattern":"X","legs":"M"},"action":"harvest","summary":"good-harvest","bonus":0.48000000000000087},{"rt":1362.800000000745,"stimulus":"\n                    <p><b>Action: <em>harvest</em></b></p>\n                    <p>This is the bee that you just saw.</p>\n                    <img src=\"bees-with-color/bee-B2DM.svg\" width=\"200\">\n                    <p><span class=\"greenText\"><b>Successful harvest!</b></span><br>Your pay has increased by $0.02. Your bonus pay is now $0.52.</p>\n            ","response":0,"trial_type":"html-button-response","trial_index":20,"time_elapsed":254148,"internal_node_id":"0.0-4.0-1.6","subject_id":"6169d9b7be52699b6e27e47a","study_id":"6197b3f67c2b5cd3b6d9596a","session_id":"6197b9e8b7e7e7c7857ac36b","condition":"contingent","relevant_dimensions":["wings","legs"],"bee_group":{"antennae":"X","wings":"1","pattern":"X","legs":"M"},"bonus":0.48000000000000087},{"rt":4069,"stimulus":"bees-with-color/bee-B2SF.svg","response":1,"trial_type":"image-button-response","trial_index":21,"time_elapsed":258218,"internal_node_id":"0.0-4.0-0.7","subject_id":"6169d9b7be52699b6e27e47a","study_id":"6197b3f67c2b5cd3b6d9596a","session_id":"6197b9e8b7e7e7c7857ac36b","condition":"contingent","relevant_dimensions":["wings","legs"],"bee_group":{"antennae":"X","wings":"1","pattern":"X","legs":"M"},"action":"avoid","summary":"bad-avoid","bonus":0.48000000000000087},{"rt":1402.9000000003725,"stimulus":"\n                    <p><b>Action: <em>avoid</em></b></p>\n                    <p>This is the bee that you just saw.</p>\n                    <img src=\"bees-with-color/bee-B2SF.svg\" width=\"200\">\n                    <p><br>Your bonus pay is unchanged, and remains at $0.52.</p>\n            ","response":0,"trial_type":"html-button-response","trial_index":22,"time_elapsed":259622,"internal_node_id":"0.0-4.0-1.7","subject_id":"6169d9b7be52699b6e27e47a","study_id":"6197b3f67c2b5cd3b6d9596a","session_id":"6197b9e8b7e7e7c7857ac36b","condition":"contingent","relevant_dimensions":["wings","legs"],"bee_group":{"antennae":"X","wings":"1","pattern":"X","legs":"M"},"bonus":0.48000000000000087},{"rt":2540.199999999255,"stimulus":"bees-with-color/bee-A1DF.svg","response":1,"trial_type":"image-button-response","trial_index":23,"time_elapsed":262164,"internal_node_id":"0.0-4.0-0.8","subject_id":"6169d9b7be52699b6e27e47a","study_id":"6197b3f67c2b5cd3b6d9596a","session_id":"6197b9e8b7e7e7c7857ac36b","condition":"contingent","relevant_dimensions":["wings","legs"],"bee_group":{"antennae":"X","wings":"1","pattern":"X","legs":"M"},"action":"avoid","summary":"bad-avoid","bonus":0.48000000000000087},{"rt":917,"stimulus":"\n                    <p><b>Action: <em>avoid</em></b></p>\n                    <p>This is the bee that you just saw.</p>\n                    <img src=\"bees-with-color/bee-A1DF.svg\" width=\"200\">\n                    <p><br>Your bonus pay is unchanged, and remains at $0.52.</p>\n            ","response":0,"trial_type":"html-button-response","trial_index":24,"time_elapsed":263082,"internal_node_id":"0.0-4.0-1.8","subject_id":"6169d9b7be52699b6e27e47a","study_id":"6197b3f67c2b5cd3b6d9596a","session_id":"6197b9e8b7e7e7c7857ac36b","condition":"contingent","relevant_dimensions":["wings","legs"],"bee_group":{"antennae":"X","wings":"1","pattern":"X","legs":"M"},"bonus":0.48000000000000087},{"rt":2048.800000000745,"stimulus":"bees-with-color/bee-B1SF.svg","response":1,"trial_type":"image-button-response","trial_index":25,"time_elapsed":265132,"internal_node_id":"0.0-4.0-0.9","subject_id":"6169d9b7be52699b6e27e47a","study_id":"6197b3f67c2b5cd3b6d9596a","session_id":"6197b9e8b7e7e7c7857ac36b","condition":"contingent","relevant_dimensions":["wings","legs"],"bee_group":{"antennae":"X","wings":"1","pattern":"X","legs":"M"},"action":"avoid","summary":"bad-avoid","bonus":0.48000000000000087},{"rt":648.6999999992549,"stimulus":"\n                    <p><b>Action: <em>avoid</em></b></p>\n                    <p>This is the bee that you just saw.</p>\n                    <img src=\"bees-with-color/bee-B1SF.svg\" width=\"200\">\n                    <p><br>Your bonus pay is unchanged, and remains at $0.52.</p>\n            ","response":0,"trial_type":"html-button-response","trial_index":26,"time_elapsed":265782,"internal_node_id":"0.0-4.0-1.9","subject_id":"6169d9b7be52699b6e27e47a","study_id":"6197b3f67c2b5cd3b6d9596a","session_id":"6197b9e8b7e7e7c7857ac36b","condition":"contingent","relevant_dimensions":["wings","legs"],"bee_group":{"antennae":"X","wings":"1","pattern":"X","legs":"M"},"bonus":0.48000000000000087},{"rt":3242.9000000003725,"stimulus":"bees-with-color/bee-A2SF.svg","response":0,"trial_type":"image-button-response","trial_index":27,"time_elapsed":269026,"internal_node_id":"0.0-4.0-0.10","subject_id":"6169d9b7be52699b6e27e47a","study_id":"6197b3f67c2b5cd3b6d9596a","session_id":"6197b9e8b7e7e7c7857ac36b","condition":"contingent","relevant_dimensions":["wings","legs"],"bee_group":{"antennae":"X","wings":"1","pattern":"X","legs":"M"},"action":"harvest","summary":"good-harvest","bonus":0.48000000000000087},{"rt":8738.799999998882,"stimulus":"\n                    <p><b>Action: <em>harvest</em></b></p>\n                    <p>This is the bee that you just saw.</p>\n                    <img src=\"bees-with-color/bee-A2SF.svg\" width=\"200\">\n                    <p><span class=\"greenText\"><b>Successful harvest!</b></span><br>Your pay has increased by $0.02. Your bonus pay is now $0.54.</p>\n            ","response":0,"trial_type":"html-button-response","trial_index":28,"time_elapsed":277766,"internal_node_id":"0.0-4.0-1.10","subject_id":"6169d9b7be52699b6e27e47a","study_id":"6197b3f67c2b5cd3b6d9596a","session_id":"6197b9e8b7e7e7c7857ac36b","condition":"contingent","relevant_dimensions":["wings","legs"],"bee_group":{"antennae":"X","wings":"1","pattern":"X","legs":"M"},"bonus":0.48000000000000087},{"rt":2518.5,"stimulus":"bees-with-color/bee-B2DF.svg","response":0,"trial_type":"image-button-response","trial_index":29,"time_elapsed":280286,"internal_node_id":"0.0-4.0-0.11","subject_id":"6169d9b7be52699b6e27e47a","study_id":"6197b3f67c2b5cd3b6d9596a","session_id":"6197b9e8b7e7e7c7857ac36b","condition":"contingent","relevant_dimensions":["wings","legs"],"bee_group":{"antennae":"X","wings":"1","pattern":"X","legs":"M"},"action":"harvest","summary":"good-harvest","bonus":0.48000000000000087},{"rt":762.8000000007451,"stimulus":"\n                    <p><b>Action: <em>harvest</em></b></p>\n                    <p>This is the bee that you just saw.</p>\n                    <img src=\"bees-with-color/bee-B2DF.svg\" width=\"200\">\n                    <p><span class=\"greenText\"><b>Successful harvest!</b></span><br>Your pay has increased by $0.02. Your bonus pay is now $0.56.</p>\n            ","response":0,"trial_type":"html-button-response","trial_index":30,"time_elapsed":281050,"internal_node_id":"0.0-4.0-1.11","subject_id":"6169d9b7be52699b6e27e47a","study_id":"6197b3f67c2b5cd3b6d9596a","session_id":"6197b9e8b7e7e7c7857ac36b","condition":"contingent","relevant_dimensions":["wings","legs"],"bee_group":{"antennae":"X","wings":"1","pattern":"X","legs":"M"},"bonus":0.48000000000000087},{"rt":1939,"stimulus":"bees-with-color/bee-B2SM.svg","response":0,"trial_type":"image-button-response","trial_index":31,"time_elapsed":282990,"internal_node_id":"0.0-4.0-0.12","subject_id":"6169d9b7be52699b6e27e47a","study_id":"6197b3f67c2b5cd3b6d9596a","session_id":"6197b9e8b7e7e7c7857ac36b","condition":"contingent","relevant_dimensions":["wings","legs"],"bee_group":{"antennae":"X","wings":"1","pattern":"X","legs":"M"},"action":"harvest","summary":"good-harvest","bonus":0.48000000000000087},{"rt":898.9000000003725,"stimulus":"\n                    <p><b>Action: <em>harvest</em></b></p>\n                    <p>This is the bee that you just saw.</p>\n                    <img src=\"bees-with-color/bee-B2SM.svg\" width=\"200\">\n                    <p><span class=\"greenText\"><b>Successful harvest!</b></span><br>Your pay has increased by $0.02. Your bonus pay is now $0.58.</p>\n            ","response":0,"trial_type":"html-button-response","trial_index":32,"time_elapsed":283890,"internal_node_id":"0.0-4.0-1.12","subject_id":"6169d9b7be52699b6e27e47a","study_id":"6197b3f67c2b5cd3b6d9596a","session_id":"6197b9e8b7e7e7c7857ac36b","condition":"contingent","relevant_dimensions":["wings","legs"],"bee_group":{"antennae":"X","wings":"1","pattern":"X","legs":"M"},"bonus":0.48000000000000087},{"rt":2560.699999999255,"stimulus":"bees-with-color/bee-A1SM.svg","response":0,"trial_type":"image-button-response","trial_index":33,"time_elapsed":286452,"internal_node_id":"0.0-4.0-0.13","subject_id":"6169d9b7be52699b6e27e47a","study_id":"6197b3f67c2b5cd3b6d9596a","session_id":"6197b9e8b7e7e7c7857ac36b","condition":"contingent","relevant_dimensions":["wings","legs"],"bee_group":{"antennae":"X","wings":"1","pattern":"X","legs":"M"},"action":"harvest","summary":"bad-harvest","bonus":0.48000000000000087},{"rt":1010.9000000003725,"stimulus":"\n                    <p><b>Action: <em>harvest</em></b></p>\n                    <p>This is the bee that you just saw.</p>\n                    <img src=\"bees-with-color/bee-A1SM.svg\" width=\"200\">\n                    <p><span class=\"redText\">Bad choice, the bee was angry.</span><br><b>You have been stung!</b><br>Your pay has been decreased by $0.10. Your bonus pay is now $0.48.</p>\n            ","response":0,"trial_type":"html-button-response","trial_index":34,"time_elapsed":287464,"internal_node_id":"0.0-4.0-1.13","subject_id":"6169d9b7be52699b6e27e47a","study_id":"6197b3f67c2b5cd3b6d9596a","session_id":"6197b9e8b7e7e7c7857ac36b","condition":"contingent","relevant_dimensions":["wings","legs"],"bee_group":{"antennae":"X","wings":"1","pattern":"X","legs":"M"},"bonus":0.48000000000000087},{"rt":879.1999999992549,"stimulus":"bees-with-color/bee-B1DF.svg","response":1,"trial_type":"image-button-response","trial_index":35,"time_elapsed":288344,"internal_node_id":"0.0-4.0-0.14","subject_id":"6169d9b7be52699b6e27e47a","study_id":"6197b3f67c2b5cd3b6d9596a","session_id":"6197b9e8b7e7e7c7857ac36b","condition":"contingent","relevant_dimensions":["wings","legs"],"bee_group":{"antennae":"X","wings":"1","pattern":"X","legs":"M"},"action":"avoid","summary":"bad-avoid","bonus":0.48000000000000087},{"rt":1212.7000000011176,"stimulus":"\n                    <p><b>Action: <em>avoid</em></b></p>\n                    <p>This is the bee that you just saw.</p>\n                    <img src=\"bees-with-color/bee-B1DF.svg\" width=\"200\">\n                    <p><br>Your bonus pay is unchanged, and remains at $0.48.</p>\n            ","response":0,"trial_type":"html-button-response","trial_index":36,"time_elapsed":289558,"internal_node_id":"0.0-4.0-1.14","subject_id":"6169d9b7be52699b6e27e47a","study_id":"6197b3f67c2b5cd3b6d9596a","session_id":"6197b9e8b7e7e7c7857ac36b","condition":"contingent","relevant_dimensions":["wings","legs"],"bee_group":{"antennae":"X","wings":"1","pattern":"X","legs":"M"},"bonus":0.48000000000000087},{"rt":2188.699999999255,"stimulus":"bees-with-color/bee-A1DM.svg","response":1,"trial_type":"image-button-response","trial_index":37,"time_elapsed":291748,"internal_node_id":"0.0-4.0-0.15","subject_id":"6169d9b7be52699b6e27e47a","study_id":"6197b3f67c2b5cd3b6d9596a","session_id":"6197b9e8b7e7e7c7857ac36b","condition":"contingent","relevant_dimensions":["wings","legs"],"bee_group":{"antennae":"X","wings":"1","pattern":"X","legs":"M"},"action":"avoid","summary":"good-avoid","bonus":0.48000000000000087},{"rt":1093,"stimulus":"\n                    <p><b>Action: <em>avoid</em></b></p>\n                    <p>This is the bee that you just saw.</p>\n                    <img src=\"bees-with-color/bee-A1DM.svg\" width=\"200\">\n                    <p><br>Your bonus pay is unchanged, and remains at $0.48.</p>\n            ","response":0,"trial_type":"html-button-response","trial_index":38,"time_elapsed":292842,"internal_node_id":"0.0-4.0-1.15","subject_id":"6169d9b7be52699b6e27e47a","study_id":"6197b3f67c2b5cd3b6d9596a","session_id":"6197b9e8b7e7e7c7857ac36b","condition":"contingent","relevant_dimensions":["wings","legs"],"bee_group":{"antennae":"X","wings":"1","pattern":"X","legs":"M"},"bonus":0.48000000000000087},{"rt":1760.6000000014901,"stimulus":"bees-with-color/bee-A1DF.svg","response":1,"trial_type":"image-button-response","trial_index":39,"time_elapsed":294604,"internal_node_id":"0.0-4.0-0.16","subject_id":"6169d9b7be52699b6e27e47a","study_id":"6197b3f67c2b5cd3b6d9596a","session_id":"6197b9e8b7e7e7c7857ac36b","condition":"contingent","relevant_dimensions":["wings","legs"],"bee_group":{"antennae":"X","wings":"1","pattern":"X","legs":"M"},"action":"avoid","summary":"bad-avoid","bonus":0.48000000000000087},{"rt":676.8000000007451,"stimulus":"\n                    <p><b>Action: <em>avoid</em></b></p>\n                    <p>This is the bee that you just saw.</p>\n                    <img src=\"bees-with-color/bee-A1DF.svg\" width=\"200\">\n                    <p><br>Your bonus pay is unchanged, and remains at $0.48.</p>\n            ","response":0,"trial_type":"html-button-response","trial_index":40,"time_elapsed":295282,"internal_node_id":"0.0-4.0-1.16","subject_id":"6169d9b7be52699b6e27e47a","study_id":"6197b3f67c2b5cd3b6d9596a","session_id":"6197b9e8b7e7e7c7857ac36b","condition":"contingent","relevant_dimensions":["wings","legs"],"bee_group":{"antennae":"X","wings":"1","pattern":"X","legs":"M"},"bonus":0.48000000000000087},{"rt":947,"stimulus":"bees-with-color/bee-A1DM.svg","response":1,"trial_type":"image-button-response","trial_index":41,"time_elapsed":296230,"internal_node_id":"0.0-4.0-0.17","subject_id":"6169d9b7be52699b6e27e47a","study_id":"6197b3f67c2b5cd3b6d9596a","session_id":"6197b9e8b7e7e7c7857ac36b","condition":"contingent","relevant_dimensions":["wings","legs"],"bee_group":{"antennae":"X","wings":"1","pattern":"X","legs":"M"},"action":"avoid","summary":"good-avoid","bonus":0.48000000000000087},{"rt":570.7000000011176,"stimulus":"\n                    <p><b>Action: <em>avoid</em></b></p>\n                    <p>This is the bee that you just saw.</p>\n                    <img src=\"bees-with-color/bee-A1DM.svg\" width=\"200\">\n                    <p><br>Your bonus pay is unchanged, and remains at $0.48.</p>\n            ","response":0,"trial_type":"html-button-response","trial_index":42,"time_elapsed":296802,"internal_node_id":"0.0-4.0-1.17","subject_id":"6169d9b7be52699b6e27e47a","study_id":"6197b3f67c2b5cd3b6d9596a","session_id":"6197b9e8b7e7e7c7857ac36b","condition":"contingent","relevant_dimensions":["wings","legs"],"bee_group":{"antennae":"X","wings":"1","pattern":"X","legs":"M"},"bonus":0.48000000000000087},{"rt":1117,"stimulus":"bees-with-color/bee-B1SF.svg","response":1,"trial_type":"image-button-response","trial_index":43,"time_elapsed":297920,"internal_node_id":"0.0-4.0-0.18","subject_id":"6169d9b7be52699b6e27e47a","study_id":"6197b3f67c2b5cd3b6d9596a","session_id":"6197b9e8b7e7e7c7857ac36b","condition":"contingent","relevant_dimensions":["wings","legs"],"bee_group":{"antennae":"X","wings":"1","pattern":"X","legs":"M"},"action":"avoid","summary":"bad-avoid","bonus":0.48000000000000087},{"rt":616.9000000003725,"stimulus":"\n                    <p><b>Action: <em>avoid</em></b></p>\n                    <p>This is the bee that you just saw.</p>\n                    <img src=\"bees-with-color/bee-B1SF.svg\" width=\"200\">\n                    <p><br>Your bonus pay is unchanged, and remains at $0.48.</p>\n            ","response":0,"trial_type":"html-button-response","trial_index":44,"time_elapsed":298538,"internal_node_id":"0.0-4.0-1.18","subject_id":"6169d9b7be52699b6e27e47a","study_id":"6197b3f67c2b5cd3b6d9596a","session_id":"6197b9e8b7e7e7c7857ac36b","condition":"contingent","relevant_dimensions":["wings","legs"],"bee_group":{"antennae":"X","wings":"1","pattern":"X","legs":"M"},"bonus":0.48000000000000087},{"rt":2380.9000000003725,"stimulus":"bees-with-color/bee-B1DM.svg","response":0,"trial_type":"image-button-response","trial_index":45,"time_elapsed":300920,"internal_node_id":"0.0-4.0-0.19","subject_id":"6169d9b7be52699b6e27e47a","study_id":"6197b3f67c2b5cd3b6d9596a","session_id":"6197b9e8b7e7e7c7857ac36b","condition":"contingent","relevant_dimensions":["wings","legs"],"bee_group":{"antennae":"X","wings":"1","pattern":"X","legs":"M"},"action":"harvest","summary":"bad-harvest","bonus":0.48000000000000087},{"rt":986.8000000007451,"stimulus":"\n                    <p><b>Action: <em>harvest</em></b></p>\n                    <p>This is the bee that you just saw.</p>\n                    <img src=\"bees-with-color/bee-B1DM.svg\" width=\"200\">\n                    <p><span class=\"redText\">Bad choice, the bee was angry.</span><br><b>You have been stung!</b><br>Your pay has been decreased by $0.10. Your bonus pay is now $0.38.</p>\n            ","response":0,"trial_type":"html-button-response","trial_index":46,"time_elapsed":301908,"internal_node_id":"0.0-4.0-1.19","subject_id":"6169d9b7be52699b6e27e47a","study_id":"6197b3f67c2b5cd3b6d9596a","session_id":"6197b9e8b7e7e7c7857ac36b","condition":"contingent","relevant_dimensions":["wings","legs"],"bee_group":{"antennae":"X","wings":"1","pattern":"X","legs":"M"},"bonus":0.48000000000000087},{"rt":1606.3999999985099,"stimulus":"bees-with-color/bee-A2SF.svg","response":0,"trial_type":"image-button-response","trial_index":47,"time_elapsed":303516,"internal_node_id":"0.0-4.0-0.20","subject_id":"6169d9b7be52699b6e27e47a","study_id":"6197b3f67c2b5cd3b6d9596a","session_id":"6197b9e8b7e7e7c7857ac36b","condition":"contingent","relevant_dimensions":["wings","legs"],"bee_group":{"antennae":"X","wings":"1","pattern":"X","legs":"M"},"action":"harvest","summary":"good-harvest","bonus":0.48000000000000087},{"rt":858.8999999985099,"stimulus":"\n                    <p><b>Action: <em>harvest</em></b></p>\n                    <p>This is the bee that you just saw.</p>\n                    <img src=\"bees-with-color/bee-A2SF.svg\" width=\"200\">\n                    <p><span class=\"greenText\"><b>Successful harvest!</b></span><br>Your pay has increased by $0.02. Your bonus pay is now $0.40.</p>\n            ","response":0,"trial_type":"html-button-response","trial_index":48,"time_elapsed":304376,"internal_node_id":"0.0-4.0-1.20","subject_id":"6169d9b7be52699b6e27e47a","study_id":"6197b3f67c2b5cd3b6d9596a","session_id":"6197b9e8b7e7e7c7857ac36b","condition":"contingent","relevant_dimensions":["wings","legs"],"bee_group":{"antennae":"X","wings":"1","pattern":"X","legs":"M"},"bonus":0.48000000000000087},{"rt":1324.8999999985099,"stimulus":"bees-with-color/bee-B1DF.svg","response":1,"trial_type":"image-button-response","trial_index":49,"time_elapsed":305702,"internal_node_id":"0.0-4.0-0.21","subject_id":"6169d9b7be52699b6e27e47a","study_id":"6197b3f67c2b5cd3b6d9596a","session_id":"6197b9e8b7e7e7c7857ac36b","condition":"contingent","relevant_dimensions":["wings","legs"],"bee_group":{"antennae":"X","wings":"1","pattern":"X","legs":"M"},"action":"avoid","summary":"bad-avoid","bonus":0.48000000000000087},{"rt":874.9000000003725,"stimulus":"\n                    <p><b>Action: <em>avoid</em></b></p>\n                    <p>This is the bee that you just saw.</p>\n                    <img src=\"bees-with-color/bee-B1DF.svg\" width=\"200\">\n                    <p><br>Your bonus pay is unchanged, and remains at $0.40.</p>\n            ","response":0,"trial_type":"html-button-response","trial_index":50,"time_elapsed":306578,"internal_node_id":"0.0-4.0-1.21","subject_id":"6169d9b7be52699b6e27e47a","study_id":"6197b3f67c2b5cd3b6d9596a","session_id":"6197b9e8b7e7e7c7857ac36b","condition":"contingent","relevant_dimensions":["wings","legs"],"bee_group":{"antennae":"X","wings":"1","pattern":"X","legs":"M"},"bonus":0.48000000000000087},{"rt":1739,"stimulus":"bees-with-color/bee-A2SM.svg","response":0,"trial_type":"image-button-response","trial_index":51,"time_elapsed":308318,"internal_node_id":"0.0-4.0-0.22","subject_id":"6169d9b7be52699b6e27e47a","study_id":"6197b3f67c2b5cd3b6d9596a","session_id":"6197b9e8b7e7e7c7857ac36b","condition":"contingent","relevant_dimensions":["wings","legs"],"bee_group":{"antennae":"X","wings":"1","pattern":"X","legs":"M"},"action":"harvest","summary":"good-harvest","bonus":0.48000000000000087},{"rt":772.7999999988824,"stimulus":"\n                    <p><b>Action: <em>harvest</em></b></p>\n                    <p>This is the bee that you just saw.</p>\n                    <img src=\"bees-with-color/bee-A2SM.svg\" width=\"200\">\n                    <p><span class=\"greenText\"><b>Successful harvest!</b></span><br>Your pay has increased by $0.02. Your bonus pay is now $0.42.</p>\n            ","response":0,"trial_type":"html-button-response","trial_index":52,"time_elapsed":309092,"internal_node_id":"0.0-4.0-1.22","subject_id":"6169d9b7be52699b6e27e47a","study_id":"6197b3f67c2b5cd3b6d9596a","session_id":"6197b9e8b7e7e7c7857ac36b","condition":"contingent","relevant_dimensions":["wings","legs"],"bee_group":{"antennae":"X","wings":"1","pattern":"X","legs":"M"},"bonus":0.48000000000000087},{"rt":3020.9000000003725,"stimulus":"bees-with-color/bee-B2DF.svg","response":0,"trial_type":"image-button-response","trial_index":53,"time_elapsed":312114,"internal_node_id":"0.0-4.0-0.23","subject_id":"6169d9b7be52699b6e27e47a","study_id":"6197b3f67c2b5cd3b6d9596a","session_id":"6197b9e8b7e7e7c7857ac36b","condition":"contingent","relevant_dimensions":["wings","legs"],"bee_group":{"antennae":"X","wings":"1","pattern":"X","legs":"M"},"action":"harvest","summary":"good-harvest","bonus":0.48000000000000087},{"rt":1268.8999999985099,"stimulus":"\n                    <p><b>Action: <em>harvest</em></b></p>\n                    <p>This is the bee that you just saw.</p>\n                    <img src=\"bees-with-color/bee-B2DF.svg\" width=\"200\">\n                    <p><span class=\"greenText\"><b>Successful harvest!</b></span><br>Your pay has increased by $0.02. Your bonus pay is now $0.44.</p>\n            ","response":0,"trial_type":"html-button-response","trial_index":54,"time_elapsed":313384,"internal_node_id":"0.0-4.0-1.23","subject_id":"6169d9b7be52699b6e27e47a","study_id":"6197b3f67c2b5cd3b6d9596a","session_id":"6197b9e8b7e7e7c7857ac36b","condition":"contingent","relevant_dimensions":["wings","legs"],"bee_group":{"antennae":"X","wings":"1","pattern":"X","legs":"M"},"bonus":0.48000000000000087},{"rt":2144.5,"stimulus":"bees-with-color/bee-B1SM.svg","response":1,"trial_type":"image-button-response","trial_index":55,"time_elapsed":315530,"internal_node_id":"0.0-4.0-0.24","subject_id":"6169d9b7be52699b6e27e47a","study_id":"6197b3f67c2b5cd3b6d9596a","session_id":"6197b9e8b7e7e7c7857ac36b","condition":"contingent","relevant_dimensions":["wings","legs"],"bee_group":{"antennae":"X","wings":"1","pattern":"X","legs":"M"},"action":"avoid","summary":"good-avoid","bonus":0.48000000000000087},{"rt":1116.8999999985099,"stimulus":"\n                    <p><b>Action: <em>avoid</em></b></p>\n                    <p>This is the bee that you just saw.</p>\n                    <img src=\"bees-with-color/bee-B1SM.svg\" width=\"200\">\n                    <p><br>Your bonus pay is unchanged, and remains at $0.44.</p>\n            ","response":0,"trial_type":"html-button-response","trial_index":56,"time_elapsed":316648,"internal_node_id":"0.0-4.0-1.24","subject_id":"6169d9b7be52699b6e27e47a","study_id":"6197b3f67c2b5cd3b6d9596a","session_id":"6197b9e8b7e7e7c7857ac36b","condition":"contingent","relevant_dimensions":["wings","legs"],"bee_group":{"antennae":"X","wings":"1","pattern":"X","legs":"M"},"bonus":0.48000000000000087},{"rt":1418.699999999255,"stimulus":"bees-with-color/bee-A2DF.svg","response":0,"trial_type":"image-button-response","trial_index":57,"time_elapsed":318068,"internal_node_id":"0.0-4.0-0.25","subject_id":"6169d9b7be52699b6e27e47a","study_id":"6197b3f67c2b5cd3b6d9596a","session_id":"6197b9e8b7e7e7c7857ac36b","condition":"contingent","relevant_dimensions":["wings","legs"],"bee_group":{"antennae":"X","wings":"1","pattern":"X","legs":"M"},"action":"harvest","summary":"good-harvest","bonus":0.48000000000000087},{"rt":1690.699999999255,"stimulus":"\n                    <p><b>Action: <em>harvest</em></b></p>\n                    <p>This is the bee that you just saw.</p>\n                    <img src=\"bees-with-color/bee-A2DF.svg\" width=\"200\">\n                    <p><span class=\"greenText\"><b>Successful harvest!</b></span><br>Your pay has increased by $0.02. Your bonus pay is now $0.46.</p>\n            ","response":0,"trial_type":"html-button-response","trial_index":58,"time_elapsed":319760,"internal_node_id":"0.0-4.0-1.25","subject_id":"6169d9b7be52699b6e27e47a","study_id":"6197b3f67c2b5cd3b6d9596a","session_id":"6197b9e8b7e7e7c7857ac36b","condition":"contingent","relevant_dimensions":["wings","legs"],"bee_group":{"antennae":"X","wings":"1","pattern":"X","legs":"M"},"bonus":0.48000000000000087},{"rt":3188.800000000745,"stimulus":"bees-with-color/bee-A1SM.svg","response":0,"trial_type":"image-button-response","trial_index":59,"time_elapsed":322950,"internal_node_id":"0.0-4.0-0.26","subject_id":"6169d9b7be52699b6e27e47a","study_id":"6197b3f67c2b5cd3b6d9596a","session_id":"6197b9e8b7e7e7c7857ac36b","condition":"contingent","relevant_dimensions":["wings","legs"],"bee_group":{"antennae":"X","wings":"1","pattern":"X","legs":"M"},"action":"harvest","summary":"bad-harvest","bonus":0.48000000000000087},{"rt":768.4000000003725,"stimulus":"\n                    <p><b>Action: <em>harvest</em></b></p>\n                    <p>This is the bee that you just saw.</p>\n                    <img src=\"bees-with-color/bee-A1SM.svg\" width=\"200\">\n                    <p><span class=\"redText\">Bad choice, the bee was angry.</span><br><b>You have been stung!</b><br>Your pay has been decreased by $0.10. Your bonus pay is now $0.36.</p>\n            ","response":0,"trial_type":"html-button-response","trial_index":60,"time_elapsed":323719,"internal_node_id":"0.0-4.0-1.26","subject_id":"6169d9b7be52699b6e27e47a","study_id":"6197b3f67c2b5cd3b6d9596a","session_id":"6197b9e8b7e7e7c7857ac36b","condition":"contingent","relevant_dimensions":["wings","legs"],"bee_group":{"antennae":"X","wings":"1","pattern":"X","legs":"M"},"bonus":0.48000000000000087},{"rt":690.7999999988824,"stimulus":"bees-with-color/bee-A1SF.svg","response":1,"trial_type":"image-button-response","trial_index":61,"time_elapsed":324412,"internal_node_id":"0.0-4.0-0.27","subject_id":"6169d9b7be52699b6e27e47a","study_id":"6197b3f67c2b5cd3b6d9596a","session_id":"6197b9e8b7e7e7c7857ac36b","condition":"contingent","relevant_dimensions":["wings","legs"],"bee_group":{"antennae":"X","wings":"1","pattern":"X","legs":"M"},"action":"avoid","summary":"bad-avoid","bonus":0.48000000000000087},{"rt":768.6999999992549,"stimulus":"\n                    <p><b>Action: <em>avoid</em></b></p>\n                    <p>This is the bee that you just saw.</p>\n                    <img src=\"bees-with-color/bee-A1SF.svg\" width=\"200\">\n                    <p><br>Your bonus pay is unchanged, and remains at $0.36.</p>\n            ","response":0,"trial_type":"html-button-response","trial_index":62,"time_elapsed":325182,"internal_node_id":"0.0-4.0-1.27","subject_id":"6169d9b7be52699b6e27e47a","study_id":"6197b3f67c2b5cd3b6d9596a","session_id":"6197b9e8b7e7e7c7857ac36b","condition":"contingent","relevant_dimensions":["wings","legs"],"bee_group":{"antennae":"X","wings":"1","pattern":"X","legs":"M"},"bonus":0.48000000000000087},{"rt":4010.7999999988824,"stimulus":"bees-with-color/bee-B2DM.svg","response":0,"trial_type":"image-button-response","trial_index":63,"time_elapsed":329194,"internal_node_id":"0.0-4.0-0.28","subject_id":"6169d9b7be52699b6e27e47a","study_id":"6197b3f67c2b5cd3b6d9596a","session_id":"6197b9e8b7e7e7c7857ac36b","condition":"contingent","relevant_dimensions":["wings","legs"],"bee_group":{"antennae":"X","wings":"1","pattern":"X","legs":"M"},"action":"harvest","summary":"good-harvest","bonus":0.48000000000000087},{"rt":702.5999999996275,"stimulus":"\n                    <p><b>Action: <em>harvest</em></b></p>\n                    <p>This is the bee that you just saw.</p>\n                    <img src=\"bees-with-color/bee-B2DM.svg\" width=\"200\">\n                    <p><span class=\"greenText\"><b>Successful harvest!</b></span><br>Your pay has increased by $0.02. Your bonus pay is now $0.38.</p>\n            ","response":0,"trial_type":"html-button-response","trial_index":64,"time_elapsed":329898,"internal_node_id":"0.0-4.0-1.28","subject_id":"6169d9b7be52699b6e27e47a","study_id":"6197b3f67c2b5cd3b6d9596a","session_id":"6197b9e8b7e7e7c7857ac36b","condition":"contingent","relevant_dimensions":["wings","legs"],"bee_group":{"antennae":"X","wings":"1","pattern":"X","legs":"M"},"bonus":0.48000000000000087},{"rt":1528.5,"stimulus":"bees-with-color/bee-B2SF.svg","response":0,"trial_type":"image-button-response","trial_index":65,"time_elapsed":331428,"internal_node_id":"0.0-4.0-0.29","subject_id":"6169d9b7be52699b6e27e47a","study_id":"6197b3f67c2b5cd3b6d9596a","session_id":"6197b9e8b7e7e7c7857ac36b","condition":"contingent","relevant_dimensions":["wings","legs"],"bee_group":{"antennae":"X","wings":"1","pattern":"X","legs":"M"},"action":"harvest","summary":"good-harvest","bonus":0.48000000000000087},{"rt":788.6999999992549,"stimulus":"\n                    <p><b>Action: <em>harvest</em></b></p>\n                    <p>This is the bee that you just saw.</p>\n                    <img src=\"bees-with-color/bee-B2SF.svg\" width=\"200\">\n                    <p><span class=\"greenText\"><b>Successful harvest!</b></span><br>Your pay has increased by $0.02. Your bonus pay is now $0.40.</p>\n            ","response":0,"trial_type":"html-button-response","trial_index":66,"time_elapsed":332218,"internal_node_id":"0.0-4.0-1.29","subject_id":"6169d9b7be52699b6e27e47a","study_id":"6197b3f67c2b5cd3b6d9596a","session_id":"6197b9e8b7e7e7c7857ac36b","condition":"contingent","relevant_dimensions":["wings","legs"],"bee_group":{"antennae":"X","wings":"1","pattern":"X","legs":"M"},"bonus":0.48000000000000087},{"rt":1912.800000000745,"stimulus":"bees-with-color/bee-B2SM.svg","response":1,"trial_type":"image-button-response","trial_index":67,"time_elapsed":334132,"internal_node_id":"0.0-4.0-0.30","subject_id":"6169d9b7be52699b6e27e47a","study_id":"6197b3f67c2b5cd3b6d9596a","session_id":"6197b9e8b7e7e7c7857ac36b","condition":"contingent","relevant_dimensions":["wings","legs"],"bee_group":{"antennae":"X","wings":"1","pattern":"X","legs":"M"},"action":"avoid","summary":"bad-avoid","bonus":0.48000000000000087},{"rt":1254.699999999255,"stimulus":"\n                    <p><b>Action: <em>avoid</em></b></p>\n                    <p>This is the bee that you just saw.</p>\n                    <img src=\"bees-with-color/bee-B2SM.svg\" width=\"200\">\n                    <p><br>Your bonus pay is unchanged, and remains at $0.40.</p>\n            ","response":0,"trial_type":"html-button-response","trial_index":68,"time_elapsed":335388,"internal_node_id":"0.0-4.0-1.30","subject_id":"6169d9b7be52699b6e27e47a","study_id":"6197b3f67c2b5cd3b6d9596a","session_id":"6197b9e8b7e7e7c7857ac36b","condition":"contingent","relevant_dimensions":["wings","legs"],"bee_group":{"antennae":"X","wings":"1","pattern":"X","legs":"M"},"bonus":0.48000000000000087},{"rt":2128.800000000745,"stimulus":"bees-with-color/bee-A2DM.svg","response":1,"trial_type":"image-button-response","trial_index":69,"time_elapsed":337518,"internal_node_id":"0.0-4.0-0.31","subject_id":"6169d9b7be52699b6e27e47a","study_id":"6197b3f67c2b5cd3b6d9596a","session_id":"6197b9e8b7e7e7c7857ac36b","condition":"contingent","relevant_dimensions":["wings","legs"],"bee_group":{"antennae":"X","wings":"1","pattern":"X","legs":"M"},"action":"avoid","summary":"bad-avoid","bonus":0.48000000000000087},{"rt":780.5999999996275,"stimulus":"\n                    <p><b>Action: <em>avoid</em></b></p>\n                    <p>This is the bee that you just saw.</p>\n                    <img src=\"bees-with-color/bee-A2DM.svg\" width=\"200\">\n                    <p><br>Your bonus pay is unchanged, and remains at $0.40.</p>\n            ","response":0,"trial_type":"html-button-response","trial_index":70,"time_elapsed":338300,"internal_node_id":"0.0-4.0-1.31","subject_id":"6169d9b7be52699b6e27e47a","study_id":"6197b3f67c2b5cd3b6d9596a","session_id":"6197b9e8b7e7e7c7857ac36b","condition":"contingent","relevant_dimensions":["wings","legs"],"bee_group":{"antennae":"X","wings":"1","pattern":"X","legs":"M"},"bonus":0.48000000000000087},{"rt":2418.5,"stimulus":"bees-with-color/bee-A2SM.svg","response":0,"trial_type":"image-button-response","trial_index":71,"time_elapsed":340720,"internal_node_id":"0.0-4.0-0.32","subject_id":"6169d9b7be52699b6e27e47a","study_id":"6197b3f67c2b5cd3b6d9596a","session_id":"6197b9e8b7e7e7c7857ac36b","condition":"contingent","relevant_dimensions":["wings","legs"],"bee_group":{"antennae":"X","wings":"1","pattern":"X","legs":"M"},"action":"harvest","summary":"good-harvest","bonus":0.48000000000000087},{"rt":662.5,"stimulus":"\n                    <p><b>Action: <em>harvest</em></b></p>\n                    <p>This is the bee that you just saw.</p>\n                    <img src=\"bees-with-color/bee-A2SM.svg\" width=\"200\">\n                    <p><span class=\"greenText\"><b>Successful harvest!</b></span><br>Your pay has increased by $0.02. Your bonus pay is now $0.42.</p>\n            ","response":0,"trial_type":"html-button-response","trial_index":72,"time_elapsed":341384,"internal_node_id":"0.0-4.0-1.32","subject_id":"6169d9b7be52699b6e27e47a","study_id":"6197b3f67c2b5cd3b6d9596a","session_id":"6197b9e8b7e7e7c7857ac36b","condition":"contingent","relevant_dimensions":["wings","legs"],"bee_group":{"antennae":"X","wings":"1","pattern":"X","legs":"M"},"bonus":0.48000000000000087},{"rt":2348.9000000003725,"stimulus":"bees-with-color/bee-A2DM.svg","response":0,"trial_type":"image-button-response","trial_index":73,"time_elapsed":343734,"internal_node_id":"0.0-4.0-0.33","subject_id":"6169d9b7be52699b6e27e47a","study_id":"6197b3f67c2b5cd3b6d9596a","session_id":"6197b9e8b7e7e7c7857ac36b","condition":"contingent","relevant_dimensions":["wings","legs"],"bee_group":{"antennae":"X","wings":"1","pattern":"X","legs":"M"},"action":"harvest","summary":"good-harvest","bonus":0.48000000000000087},{"rt":694.4000000003725,"stimulus":"\n                    <p><b>Action: <em>harvest</em></b></p>\n                    <p>This is the bee that you just saw.</p>\n                    <img src=\"bees-with-color/bee-A2DM.svg\" width=\"200\">\n                    <p><span class=\"greenText\"><b>Successful harvest!</b></span><br>Your pay has increased by $0.02. Your bonus pay is now $0.44.</p>\n            ","response":0,"trial_type":"html-button-response","trial_index":74,"time_elapsed":344429,"internal_node_id":"0.0-4.0-1.33","subject_id":"6169d9b7be52699b6e27e47a","study_id":"6197b3f67c2b5cd3b6d9596a","session_id":"6197b9e8b7e7e7c7857ac36b","condition":"contingent","relevant_dimensions":["wings","legs"],"bee_group":{"antennae":"X","wings":"1","pattern":"X","legs":"M"},"bonus":0.48000000000000087},{"rt":842.5999999996275,"stimulus":"bees-with-color/bee-B1DM.svg","response":1,"trial_type":"image-button-response","trial_index":75,"time_elapsed":345274,"internal_node_id":"0.0-4.0-0.34","subject_id":"6169d9b7be52699b6e27e47a","study_id":"6197b3f67c2b5cd3b6d9596a","session_id":"6197b9e8b7e7e7c7857ac36b","condition":"contingent","relevant_dimensions":["wings","legs"],"bee_group":{"antennae":"X","wings":"1","pattern":"X","legs":"M"},"action":"avoid","summary":"good-avoid","bonus":0.48000000000000087},{"rt":832.5,"stimulus":"\n                    <p><b>Action: <em>avoid</em></b></p>\n                    <p>This is the bee that you just saw.</p>\n                    <img src=\"bees-with-color/bee-B1DM.svg\" width=\"200\">\n                    <p><br>Your bonus pay is unchanged, and remains at $0.44.</p>\n            ","response":0,"trial_type":"html-button-response","trial_index":76,"time_elapsed":346107,"internal_node_id":"0.0-4.0-1.34","subject_id":"6169d9b7be52699b6e27e47a","study_id":"6197b3f67c2b5cd3b6d9596a","session_id":"6197b9e8b7e7e7c7857ac36b","condition":"contingent","relevant_dimensions":["wings","legs"],"bee_group":{"antennae":"X","wings":"1","pattern":"X","legs":"M"},"bonus":0.48000000000000087},{"rt":920.7000000011176,"stimulus":"bees-with-color/bee-A1DF.svg","response":1,"trial_type":"image-button-response","trial_index":77,"time_elapsed":347030,"internal_node_id":"0.0-4.0-0.35","subject_id":"6169d9b7be52699b6e27e47a","study_id":"6197b3f67c2b5cd3b6d9596a","session_id":"6197b9e8b7e7e7c7857ac36b","condition":"contingent","relevant_dimensions":["wings","legs"],"bee_group":{"antennae":"X","wings":"1","pattern":"X","legs":"M"},"action":"avoid","summary":"bad-avoid","bonus":0.48000000000000087},{"rt":612.5,"stimulus":"\n                    <p><b>Action: <em>avoid</em></b></p>\n                    <p>This is the bee that you just saw.</p>\n                    <img src=\"bees-with-color/bee-A1DF.svg\" width=\"200\">\n                    <p><br>Your bonus pay is unchanged, and remains at $0.44.</p>\n            ","response":0,"trial_type":"html-button-response","trial_index":78,"time_elapsed":347643,"internal_node_id":"0.0-4.0-1.35","subject_id":"6169d9b7be52699b6e27e47a","study_id":"6197b3f67c2b5cd3b6d9596a","session_id":"6197b9e8b7e7e7c7857ac36b","condition":"contingent","relevant_dimensions":["wings","legs"],"bee_group":{"antennae":"X","wings":"1","pattern":"X","legs":"M"},"bonus":0.48000000000000087},{"rt":748.8000000007451,"stimulus":"bees-with-color/bee-A1DM.svg","response":1,"trial_type":"image-button-response","trial_index":79,"time_elapsed":348394,"internal_node_id":"0.0-4.0-0.36","subject_id":"6169d9b7be52699b6e27e47a","study_id":"6197b3f67c2b5cd3b6d9596a","session_id":"6197b9e8b7e7e7c7857ac36b","condition":"contingent","relevant_dimensions":["wings","legs"],"bee_group":{"antennae":"X","wings":"1","pattern":"X","legs":"M"},"action":"avoid","summary":"good-avoid","bonus":0.48000000000000087},{"rt":556.5999999996275,"stimulus":"\n                    <p><b>Action: <em>avoid</em></b></p>\n                    <p>This is the bee that you just saw.</p>\n                    <img src=\"bees-with-color/bee-A1DM.svg\" width=\"200\">\n                    <p><br>Your bonus pay is unchanged, and remains at $0.44.</p>\n            ","response":0,"trial_type":"html-button-response","trial_index":80,"time_elapsed":348952,"internal_node_id":"0.0-4.0-1.36","subject_id":"6169d9b7be52699b6e27e47a","study_id":"6197b3f67c2b5cd3b6d9596a","session_id":"6197b9e8b7e7e7c7857ac36b","condition":"contingent","relevant_dimensions":["wings","legs"],"bee_group":{"antennae":"X","wings":"1","pattern":"X","legs":"M"},"bonus":0.48000000000000087},{"rt":27044.400000000373,"stimulus":"bees-with-color/bee-A2SF.svg","response":0,"trial_type":"image-button-response","trial_index":81,"time_elapsed":375998,"internal_node_id":"0.0-4.0-0.37","subject_id":"6169d9b7be52699b6e27e47a","study_id":"6197b3f67c2b5cd3b6d9596a","session_id":"6197b9e8b7e7e7c7857ac36b","condition":"contingent","relevant_dimensions":["wings","legs"],"bee_group":{"antennae":"X","wings":"1","pattern":"X","legs":"M"},"action":"harvest","summary":"good-harvest","bonus":0.48000000000000087},{"rt":2932.0999999996275,"stimulus":"\n                    <p><b>Action: <em>harvest</em></b></p>\n                    <p>This is the bee that you just saw.</p>\n                    <img src=\"bees-with-color/bee-A2SF.svg\" width=\"200\">\n                    <p><span class=\"greenText\"><b>Successful harvest!</b></span><br>Your pay has increased by $0.02. Your bonus pay is now $0.46.</p>\n            ","response":0,"trial_type":"html-button-response","trial_index":82,"time_elapsed":378931,"internal_node_id":"0.0-4.0-1.37","subject_id":"6169d9b7be52699b6e27e47a","study_id":"6197b3f67c2b5cd3b6d9596a","session_id":"6197b9e8b7e7e7c7857ac36b","condition":"contingent","relevant_dimensions":["wings","legs"],"bee_group":{"antennae":"X","wings":"1","pattern":"X","legs":"M"},"bonus":0.48000000000000087},{"rt":938.3000000007451,"stimulus":"bees-with-color/bee-B2DF.svg","response":1,"trial_type":"image-button-response","trial_index":83,"time_elapsed":379871,"internal_node_id":"0.0-4.0-0.38","subject_id":"6169d9b7be52699b6e27e47a","study_id":"6197b3f67c2b5cd3b6d9596a","session_id":"6197b9e8b7e7e7c7857ac36b","condition":"contingent","relevant_dimensions":["wings","legs"],"bee_group":{"antennae":"X","wings":"1","pattern":"X","legs":"M"},"action":"avoid","summary":"bad-avoid","bonus":0.48000000000000087},{"rt":1357.4000000003725,"stimulus":"\n                    <p><b>Action: <em>avoid</em></b></p>\n                    <p>This is the bee that you just saw.</p>\n                    <img src=\"bees-with-color/bee-B2DF.svg\" width=\"200\">\n                    <p><br>Your bonus pay is unchanged, and remains at $0.46.</p>\n            ","response":0,"trial_type":"html-button-response","trial_index":84,"time_elapsed":381230,"internal_node_id":"0.0-4.0-1.38","subject_id":"6169d9b7be52699b6e27e47a","study_id":"6197b3f67c2b5cd3b6d9596a","session_id":"6197b9e8b7e7e7c7857ac36b","condition":"contingent","relevant_dimensions":["wings","legs"],"bee_group":{"antennae":"X","wings":"1","pattern":"X","legs":"M"},"bonus":0.48000000000000087},{"rt":1297.0999999996275,"stimulus":"bees-with-color/bee-B2SM.svg","response":1,"trial_type":"image-button-response","trial_index":85,"time_elapsed":382529,"internal_node_id":"0.0-4.0-0.39","subject_id":"6169d9b7be52699b6e27e47a","study_id":"6197b3f67c2b5cd3b6d9596a","session_id":"6197b9e8b7e7e7c7857ac36b","condition":"contingent","relevant_dimensions":["wings","legs"],"bee_group":{"antennae":"X","wings":"1","pattern":"X","legs":"M"},"action":"avoid","summary":"bad-avoid","bonus":0.48000000000000087},{"rt":596.5,"stimulus":"\n                    <p><b>Action: <em>avoid</em></b></p>\n                    <p>This is the bee that you just saw.</p>\n                    <img src=\"bees-with-color/bee-B2SM.svg\" width=\"200\">\n                    <p><br>Your bonus pay is unchanged, and remains at $0.46.</p>\n            ","response":0,"trial_type":"html-button-response","trial_index":86,"time_elapsed":383127,"internal_node_id":"0.0-4.0-1.39","subject_id":"6169d9b7be52699b6e27e47a","study_id":"6197b3f67c2b5cd3b6d9596a","session_id":"6197b9e8b7e7e7c7857ac36b","condition":"contingent","relevant_dimensions":["wings","legs"],"bee_group":{"antennae":"X","wings":"1","pattern":"X","legs":"M"},"bonus":0.48000000000000087},{"rt":1323.199999999255,"stimulus":"bees-with-color/bee-B1DF.svg","response":1,"trial_type":"image-button-response","trial_index":87,"time_elapsed":384451,"internal_node_id":"0.0-4.0-0.40","subject_id":"6169d9b7be52699b6e27e47a","study_id":"6197b3f67c2b5cd3b6d9596a","session_id":"6197b9e8b7e7e7c7857ac36b","condition":"contingent","relevant_dimensions":["wings","legs"],"bee_group":{"antennae":"X","wings":"1","pattern":"X","legs":"M"},"action":"avoid","summary":"bad-avoid","bonus":0.48000000000000087},{"rt":668.9000000003725,"stimulus":"\n                    <p><b>Action: <em>avoid</em></b></p>\n                    <p>This is the bee that you just saw.</p>\n                    <img src=\"bees-with-color/bee-B1DF.svg\" width=\"200\">\n                    <p><br>Your bonus pay is unchanged, and remains at $0.46.</p>\n            ","response":0,"trial_type":"html-button-response","trial_index":88,"time_elapsed":385121,"internal_node_id":"0.0-4.0-1.40","subject_id":"6169d9b7be52699b6e27e47a","study_id":"6197b3f67c2b5cd3b6d9596a","session_id":"6197b9e8b7e7e7c7857ac36b","condition":"contingent","relevant_dimensions":["wings","legs"],"bee_group":{"antennae":"X","wings":"1","pattern":"X","legs":"M"},"bonus":0.48000000000000087},{"rt":786.9000000003725,"stimulus":"bees-with-color/bee-B2DM.svg","response":0,"trial_type":"image-button-response","trial_index":89,"time_elapsed":385909,"internal_node_id":"0.0-4.0-0.41","subject_id":"6169d9b7be52699b6e27e47a","study_id":"6197b3f67c2b5cd3b6d9596a","session_id":"6197b9e8b7e7e7c7857ac36b","condition":"contingent","relevant_dimensions":["wings","legs"],"bee_group":{"antennae":"X","wings":"1","pattern":"X","legs":"M"},"action":"harvest","summary":"good-harvest","bonus":0.48000000000000087},{"rt":910.7000000011176,"stimulus":"\n                    <p><b>Action: <em>harvest</em></b></p>\n                    <p>This is the bee that you just saw.</p>\n                    <img src=\"bees-with-color/bee-B2DM.svg\" width=\"200\">\n                    <p><span class=\"greenText\"><b>Successful harvest!</b></span><br>Your pay has increased by $0.02. Your bonus pay is now $0.48.</p>\n            ","response":0,"trial_type":"html-button-response","trial_index":90,"time_elapsed":386821,"internal_node_id":"0.0-4.0-1.41","subject_id":"6169d9b7be52699b6e27e47a","study_id":"6197b3f67c2b5cd3b6d9596a","session_id":"6197b9e8b7e7e7c7857ac36b","condition":"contingent","relevant_dimensions":["wings","legs"],"bee_group":{"antennae":"X","wings":"1","pattern":"X","legs":"M"},"bonus":0.48000000000000087},{"rt":6266.9000000003725,"stimulus":"bees-with-color/bee-B1SF.svg","response":1,"trial_type":"image-button-response","trial_index":91,"time_elapsed":393089,"internal_node_id":"0.0-4.0-0.42","subject_id":"6169d9b7be52699b6e27e47a","study_id":"6197b3f67c2b5cd3b6d9596a","session_id":"6197b9e8b7e7e7c7857ac36b","condition":"contingent","relevant_dimensions":["wings","legs"],"bee_group":{"antennae":"X","wings":"1","pattern":"X","legs":"M"},"action":"avoid","summary":"bad-avoid","bonus":0.48000000000000087},{"rt":2678.7000000011176,"stimulus":"\n                    <p><b>Action: <em>avoid</em></b></p>\n                    <p>This is the bee that you just saw.</p>\n                    <img src=\"bees-with-color/bee-B1SF.svg\" width=\"200\">\n                    <p><br>Your bonus pay is unchanged, and remains at $0.48.</p>\n            ","response":0,"trial_type":"html-button-response","trial_index":92,"time_elapsed":395769,"internal_node_id":"0.0-4.0-1.42","subject_id":"6169d9b7be52699b6e27e47a","study_id":"6197b3f67c2b5cd3b6d9596a","session_id":"6197b9e8b7e7e7c7857ac36b","condition":"contingent","relevant_dimensions":["wings","legs"],"bee_group":{"antennae":"X","wings":"1","pattern":"X","legs":"M"},"bonus":0.48000000000000087},{"rt":1380.5,"stimulus":"bees-with-color/bee-A1SM.svg","response":1,"trial_type":"image-button-response","trial_index":93,"time_elapsed":397151,"internal_node_id":"0.0-4.0-0.43","subject_id":"6169d9b7be52699b6e27e47a","study_id":"6197b3f67c2b5cd3b6d9596a","session_id":"6197b9e8b7e7e7c7857ac36b","condition":"contingent","relevant_dimensions":["wings","legs"],"bee_group":{"antennae":"X","wings":"1","pattern":"X","legs":"M"},"action":"avoid","summary":"good-avoid","bonus":0.48000000000000087},{"rt":804.8000000007451,"stimulus":"\n                    <p><b>Action: <em>avoid</em></b></p>\n                    <p>This is the bee that you just saw.</p>\n                    <img src=\"bees-with-color/bee-A1SM.svg\" width=\"200\">\n                    <p><br>Your bonus pay is unchanged, and remains at $0.48.</p>\n            ","response":0,"trial_type":"html-button-response","trial_index":94,"time_elapsed":397957,"internal_node_id":"0.0-4.0-1.43","subject_id":"6169d9b7be52699b6e27e47a","study_id":"6197b3f67c2b5cd3b6d9596a","session_id":"6197b9e8b7e7e7c7857ac36b","condition":"contingent","relevant_dimensions":["wings","legs"],"bee_group":{"antennae":"X","wings":"1","pattern":"X","legs":"M"},"bonus":0.48000000000000087},{"rt":875,"stimulus":"bees-with-color/bee-B1SM.svg","response":1,"trial_type":"image-button-response","trial_index":95,"time_elapsed":398833,"internal_node_id":"0.0-4.0-0.44","subject_id":"6169d9b7be52699b6e27e47a","study_id":"6197b3f67c2b5cd3b6d9596a","session_id":"6197b9e8b7e7e7c7857ac36b","condition":"contingent","relevant_dimensions":["wings","legs"],"bee_group":{"antennae":"X","wings":"1","pattern":"X","legs":"M"},"action":"avoid","summary":"good-avoid","bonus":0.48000000000000087},{"rt":526.7000000011176,"stimulus":"\n                    <p><b>Action: <em>avoid</em></b></p>\n                    <p>This is the bee that you just saw.</p>\n                    <img src=\"bees-with-color/bee-B1SM.svg\" width=\"200\">\n                    <p><br>Your bonus pay is unchanged, and remains at $0.48.</p>\n            ","response":0,"trial_type":"html-button-response","trial_index":96,"time_elapsed":399361,"internal_node_id":"0.0-4.0-1.44","subject_id":"6169d9b7be52699b6e27e47a","study_id":"6197b3f67c2b5cd3b6d9596a","session_id":"6197b9e8b7e7e7c7857ac36b","condition":"contingent","relevant_dimensions":["wings","legs"],"bee_group":{"antennae":"X","wings":"1","pattern":"X","legs":"M"},"bonus":0.48000000000000087},{"rt":817.0999999996275,"stimulus":"bees-with-color/bee-B2SF.svg","response":0,"trial_type":"image-button-response","trial_index":97,"time_elapsed":400179,"internal_node_id":"0.0-4.0-0.45","subject_id":"6169d9b7be52699b6e27e47a","study_id":"6197b3f67c2b5cd3b6d9596a","session_id":"6197b9e8b7e7e7c7857ac36b","condition":"contingent","relevant_dimensions":["wings","legs"],"bee_group":{"antennae":"X","wings":"1","pattern":"X","legs":"M"},"action":"harvest","summary":"good-harvest","bonus":0.48000000000000087},{"rt":802.8000000007451,"stimulus":"\n                    <p><b>Action: <em>harvest</em></b></p>\n                    <p>This is the bee that you just saw.</p>\n                    <img src=\"bees-with-color/bee-B2SF.svg\" width=\"200\">\n                    <p><span class=\"greenText\"><b>Successful harvest!</b></span><br>Your pay has increased by $0.02. Your bonus pay is now $0.50.</p>\n            ","response":0,"trial_type":"html-button-response","trial_index":98,"time_elapsed":400983,"internal_node_id":"0.0-4.0-1.45","subject_id":"6169d9b7be52699b6e27e47a","study_id":"6197b3f67c2b5cd3b6d9596a","session_id":"6197b9e8b7e7e7c7857ac36b","condition":"contingent","relevant_dimensions":["wings","legs"],"bee_group":{"antennae":"X","wings":"1","pattern":"X","legs":"M"},"bonus":0.48000000000000087},{"rt":1825,"stimulus":"bees-with-color/bee-A2DF.svg","response":0,"trial_type":"image-button-response","trial_index":99,"time_elapsed":402809,"internal_node_id":"0.0-4.0-0.46","subject_id":"6169d9b7be52699b6e27e47a","study_id":"6197b3f67c2b5cd3b6d9596a","session_id":"6197b9e8b7e7e7c7857ac36b","condition":"contingent","relevant_dimensions":["wings","legs"],"bee_group":{"antennae":"X","wings":"1","pattern":"X","legs":"M"},"action":"harvest","summary":"good-harvest","bonus":0.48000000000000087},{"rt":1006.5999999996275,"stimulus":"\n                    <p><b>Action: <em>harvest</em></b></p>\n                    <p>This is the bee that you just saw.</p>\n                    <img src=\"bees-with-color/bee-A2DF.svg\" width=\"200\">\n                    <p><span class=\"greenText\"><b>Successful harvest!</b></span><br>Your pay has increased by $0.02. Your bonus pay is now $0.52.</p>\n            ","response":0,"trial_type":"html-button-response","trial_index":100,"time_elapsed":403817,"internal_node_id":"0.0-4.0-1.46","subject_id":"6169d9b7be52699b6e27e47a","study_id":"6197b3f67c2b5cd3b6d9596a","session_id":"6197b9e8b7e7e7c7857ac36b","condition":"contingent","relevant_dimensions":["wings","legs"],"bee_group":{"antennae":"X","wings":"1","pattern":"X","legs":"M"},"bonus":0.48000000000000087},{"rt":1026.7000000011176,"stimulus":"bees-with-color/bee-A1SF.svg","response":1,"trial_type":"image-button-response","trial_index":101,"time_elapsed":404845,"internal_node_id":"0.0-4.0-0.47","subject_id":"6169d9b7be52699b6e27e47a","study_id":"6197b3f67c2b5cd3b6d9596a","session_id":"6197b9e8b7e7e7c7857ac36b","condition":"contingent","relevant_dimensions":["wings","legs"],"bee_group":{"antennae":"X","wings":"1","pattern":"X","legs":"M"},"action":"avoid","summary":"bad-avoid","bonus":0.48000000000000087},{"rt":962.8000000007451,"stimulus":"\n                    <p><b>Action: <em>avoid</em></b></p>\n                    <p>This is the bee that you just saw.</p>\n                    <img src=\"bees-with-color/bee-A1SF.svg\" width=\"200\">\n                    <p><br>Your bonus pay is unchanged, and remains at $0.52.</p>\n            ","response":0,"trial_type":"html-button-response","trial_index":102,"time_elapsed":405809,"internal_node_id":"0.0-4.0-1.47","subject_id":"6169d9b7be52699b6e27e47a","study_id":"6197b3f67c2b5cd3b6d9596a","session_id":"6197b9e8b7e7e7c7857ac36b","condition":"contingent","relevant_dimensions":["wings","legs"],"bee_group":{"antennae":"X","wings":"1","pattern":"X","legs":"M"},"bonus":0.48000000000000087},{"rt":1022.9000000003725,"stimulus":"bees-with-color/bee-A2SM.svg","response":0,"trial_type":"image-button-response","trial_index":103,"time_elapsed":406833,"internal_node_id":"0.0-4.0-0.48","subject_id":"6169d9b7be52699b6e27e47a","study_id":"6197b3f67c2b5cd3b6d9596a","session_id":"6197b9e8b7e7e7c7857ac36b","condition":"contingent","relevant_dimensions":["wings","legs"],"bee_group":{"antennae":"X","wings":"1","pattern":"X","legs":"M"},"action":"harvest","summary":"good-harvest","bonus":0.48000000000000087},{"rt":664.5999999996275,"stimulus":"\n                    <p><b>Action: <em>harvest</em></b></p>\n                    <p>This is the bee that you just saw.</p>\n                    <img src=\"bees-with-color/bee-A2SM.svg\" width=\"200\">\n                    <p><span class=\"greenText\"><b>Successful harvest!</b></span><br>Your pay has increased by $0.02. Your bonus pay is now $0.54.</p>\n            ","response":0,"trial_type":"html-button-response","trial_index":104,"time_elapsed":407499,"internal_node_id":"0.0-4.0-1.48","subject_id":"6169d9b7be52699b6e27e47a","study_id":"6197b3f67c2b5cd3b6d9596a","session_id":"6197b9e8b7e7e7c7857ac36b","condition":"contingent","relevant_dimensions":["wings","legs"],"bee_group":{"antennae":"X","wings":"1","pattern":"X","legs":"M"},"bonus":0.48000000000000087},{"rt":644.7999999988824,"stimulus":"bees-with-color/bee-A2DM.svg","response":1,"trial_type":"image-button-response","trial_index":105,"time_elapsed":408145,"internal_node_id":"0.0-4.0-0.49","subject_id":"6169d9b7be52699b6e27e47a","study_id":"6197b3f67c2b5cd3b6d9596a","session_id":"6197b9e8b7e7e7c7857ac36b","condition":"contingent","relevant_dimensions":["wings","legs"],"bee_group":{"antennae":"X","wings":"1","pattern":"X","legs":"M"},"action":"avoid","summary":"bad-avoid","bonus":0.48000000000000087},{"rt":1768.699999999255,"stimulus":"\n                    <p><b>Action: <em>avoid</em></b></p>\n                    <p>This is the bee that you just saw.</p>\n                    <img src=\"bees-with-color/bee-A2DM.svg\" width=\"200\">\n                    <p><br>Your bonus pay is unchanged, and remains at $0.54.</p>\n            ","response":0,"trial_type":"html-button-response","trial_index":106,"time_elapsed":409915,"internal_node_id":"0.0-4.0-1.49","subject_id":"6169d9b7be52699b6e27e47a","study_id":"6197b3f67c2b5cd3b6d9596a","session_id":"6197b9e8b7e7e7c7857ac36b","condition":"contingent","relevant_dimensions":["wings","legs"],"bee_group":{"antennae":"X","wings":"1","pattern":"X","legs":"M"},"bonus":0.48000000000000087},{"rt":2492.5,"stimulus":"bees-with-color/bee-A1SM.svg","response":1,"trial_type":"image-button-response","trial_index":107,"time_elapsed":412409,"internal_node_id":"0.0-4.0-0.50","subject_id":"6169d9b7be52699b6e27e47a","study_id":"6197b3f67c2b5cd3b6d9596a","session_id":"6197b9e8b7e7e7c7857ac36b","condition":"contingent","relevant_dimensions":["wings","legs"],"bee_group":{"antennae":"X","wings":"1","pattern":"X","legs":"M"},"action":"avoid","summary":"good-avoid","bonus":0.48000000000000087},{"rt":1138.5999999996275,"stimulus":"\n                    <p><b>Action: <em>avoid</em></b></p>\n                    <p>This is the bee that you just saw.</p>\n                    <img src=\"bees-with-color/bee-A1SM.svg\" width=\"200\">\n                    <p><br>Your bonus pay is unchanged, and remains at $0.54.</p>\n            ","response":0,"trial_type":"html-button-response","trial_index":108,"time_elapsed":413549,"internal_node_id":"0.0-4.0-1.50","subject_id":"6169d9b7be52699b6e27e47a","study_id":"6197b3f67c2b5cd3b6d9596a","session_id":"6197b9e8b7e7e7c7857ac36b","condition":"contingent","relevant_dimensions":["wings","legs"],"bee_group":{"antennae":"X","wings":"1","pattern":"X","legs":"M"},"bonus":0.48000000000000087},{"rt":948.8999999985099,"stimulus":"bees-with-color/bee-B2SF.svg","response":0,"trial_type":"image-button-response","trial_index":109,"time_elapsed":414499,"internal_node_id":"0.0-4.0-0.51","subject_id":"6169d9b7be52699b6e27e47a","study_id":"6197b3f67c2b5cd3b6d9596a","session_id":"6197b9e8b7e7e7c7857ac36b","condition":"contingent","relevant_dimensions":["wings","legs"],"bee_group":{"antennae":"X","wings":"1","pattern":"X","legs":"M"},"action":"harvest","summary":"good-harvest","bonus":0.48000000000000087},{"rt":636.5999999996275,"stimulus":"\n                    <p><b>Action: <em>harvest</em></b></p>\n                    <p>This is the bee that you just saw.</p>\n                    <img src=\"bees-with-color/bee-B2SF.svg\" width=\"200\">\n                    <p><span class=\"greenText\"><b>Successful harvest!</b></span><br>Your pay has increased by $0.02. Your bonus pay is now $0.56.</p>\n            ","response":0,"trial_type":"html-button-response","trial_index":110,"time_elapsed":415137,"internal_node_id":"0.0-4.0-1.51","subject_id":"6169d9b7be52699b6e27e47a","study_id":"6197b3f67c2b5cd3b6d9596a","session_id":"6197b9e8b7e7e7c7857ac36b","condition":"contingent","relevant_dimensions":["wings","legs"],"bee_group":{"antennae":"X","wings":"1","pattern":"X","legs":"M"},"bonus":0.48000000000000087},{"rt":736.5,"stimulus":"bees-with-color/bee-B2DF.svg","response":1,"trial_type":"image-button-response","trial_index":111,"time_elapsed":415875,"internal_node_id":"0.0-4.0-0.52","subject_id":"6169d9b7be52699b6e27e47a","study_id":"6197b3f67c2b5cd3b6d9596a","session_id":"6197b9e8b7e7e7c7857ac36b","condition":"contingent","relevant_dimensions":["wings","legs"],"bee_group":{"antennae":"X","wings":"1","pattern":"X","legs":"M"},"action":"avoid","summary":"bad-avoid","bonus":0.48000000000000087},{"rt":874.6999999992549,"stimulus":"\n                    <p><b>Action: <em>avoid</em></b></p>\n                    <p>This is the bee that you just saw.</p>\n                    <img src=\"bees-with-color/bee-B2DF.svg\" width=\"200\">\n                    <p><br>Your bonus pay is unchanged, and remains at $0.56.</p>\n            ","response":0,"trial_type":"html-button-response","trial_index":112,"time_elapsed":416751,"internal_node_id":"0.0-4.0-1.52","subject_id":"6169d9b7be52699b6e27e47a","study_id":"6197b3f67c2b5cd3b6d9596a","session_id":"6197b9e8b7e7e7c7857ac36b","condition":"contingent","relevant_dimensions":["wings","legs"],"bee_group":{"antennae":"X","wings":"1","pattern":"X","legs":"M"},"bonus":0.48000000000000087},{"rt":928.7999999988824,"stimulus":"bees-with-color/bee-B1SM.svg","response":1,"trial_type":"image-button-response","trial_index":113,"time_elapsed":417681,"internal_node_id":"0.0-4.0-0.53","subject_id":"6169d9b7be52699b6e27e47a","study_id":"6197b3f67c2b5cd3b6d9596a","session_id":"6197b9e8b7e7e7c7857ac36b","condition":"contingent","relevant_dimensions":["wings","legs"],"bee_group":{"antennae":"X","wings":"1","pattern":"X","legs":"M"},"action":"avoid","summary":"good-avoid","bonus":0.48000000000000087},{"rt":562.6999999992549,"stimulus":"\n                    <p><b>Action: <em>avoid</em></b></p>\n                    <p>This is the bee that you just saw.</p>\n                    <img src=\"bees-with-color/bee-B1SM.svg\" width=\"200\">\n                    <p><br>Your bonus pay is unchanged, and remains at $0.56.</p>\n            ","response":0,"trial_type":"html-button-response","trial_index":114,"time_elapsed":418245,"internal_node_id":"0.0-4.0-1.53","subject_id":"6169d9b7be52699b6e27e47a","study_id":"6197b3f67c2b5cd3b6d9596a","session_id":"6197b9e8b7e7e7c7857ac36b","condition":"contingent","relevant_dimensions":["wings","legs"],"bee_group":{"antennae":"X","wings":"1","pattern":"X","legs":"M"},"bonus":0.48000000000000087},{"rt":958.6999999992549,"stimulus":"bees-with-color/bee-B2SM.svg","response":0,"trial_type":"image-button-response","trial_index":115,"time_elapsed":419205,"internal_node_id":"0.0-4.0-0.54","subject_id":"6169d9b7be52699b6e27e47a","study_id":"6197b3f67c2b5cd3b6d9596a","session_id":"6197b9e8b7e7e7c7857ac36b","condition":"contingent","relevant_dimensions":["wings","legs"],"bee_group":{"antennae":"X","wings":"1","pattern":"X","legs":"M"},"action":"harvest","summary":"good-harvest","bonus":0.48000000000000087},{"rt":1770.699999999255,"stimulus":"\n                    <p><b>Action: <em>harvest</em></b></p>\n                    <p>This is the bee that you just saw.</p>\n                    <img src=\"bees-with-color/bee-B2SM.svg\" width=\"200\">\n                    <p><span class=\"greenText\"><b>Successful harvest!</b></span><br>Your pay has increased by $0.02. Your bonus pay is now $0.58.</p>\n            ","response":0,"trial_type":"html-button-response","trial_index":116,"time_elapsed":420977,"internal_node_id":"0.0-4.0-1.54","subject_id":"6169d9b7be52699b6e27e47a","study_id":"6197b3f67c2b5cd3b6d9596a","session_id":"6197b9e8b7e7e7c7857ac36b","condition":"contingent","relevant_dimensions":["wings","legs"],"bee_group":{"antennae":"X","wings":"1","pattern":"X","legs":"M"},"bonus":0.48000000000000087},{"rt":792.7999999988824,"stimulus":"bees-with-color/bee-A1SF.svg","response":1,"trial_type":"image-button-response","trial_index":117,"time_elapsed":421771,"internal_node_id":"0.0-4.0-0.55","subject_id":"6169d9b7be52699b6e27e47a","study_id":"6197b3f67c2b5cd3b6d9596a","session_id":"6197b9e8b7e7e7c7857ac36b","condition":"contingent","relevant_dimensions":["wings","legs"],"bee_group":{"antennae":"X","wings":"1","pattern":"X","legs":"M"},"action":"avoid","summary":"bad-avoid","bonus":0.48000000000000087},{"rt":1328.5999999996275,"stimulus":"\n                    <p><b>Action: <em>avoid</em></b></p>\n                    <p>This is the bee that you just saw.</p>\n                    <img src=\"bees-with-color/bee-A1SF.svg\" width=\"200\">\n                    <p><br>Your bonus pay is unchanged, and remains at $0.58.</p>\n            ","response":0,"trial_type":"html-button-response","trial_index":118,"time_elapsed":423101,"internal_node_id":"0.0-4.0-1.55","subject_id":"6169d9b7be52699b6e27e47a","study_id":"6197b3f67c2b5cd3b6d9596a","session_id":"6197b9e8b7e7e7c7857ac36b","condition":"contingent","relevant_dimensions":["wings","legs"],"bee_group":{"antennae":"X","wings":"1","pattern":"X","legs":"M"},"bonus":0.48000000000000087},{"rt":862.7999999988824,"stimulus":"bees-with-color/bee-B1DF.svg","response":1,"trial_type":"image-button-response","trial_index":119,"time_elapsed":423965,"internal_node_id":"0.0-4.0-0.56","subject_id":"6169d9b7be52699b6e27e47a","study_id":"6197b3f67c2b5cd3b6d9596a","session_id":"6197b9e8b7e7e7c7857ac36b","condition":"contingent","relevant_dimensions":["wings","legs"],"bee_group":{"antennae":"X","wings":"1","pattern":"X","legs":"M"},"action":"avoid","summary":"bad-avoid","bonus":0.48000000000000087},{"rt":538.5,"stimulus":"\n                    <p><b>Action: <em>avoid</em></b></p>\n                    <p>This is the bee that you just saw.</p>\n                    <img src=\"bees-with-color/bee-B1DF.svg\" width=\"200\">\n                    <p><br>Your bonus pay is unchanged, and remains at $0.58.</p>\n            ","response":0,"trial_type":"html-button-response","trial_index":120,"time_elapsed":424505,"internal_node_id":"0.0-4.0-1.56","subject_id":"6169d9b7be52699b6e27e47a","study_id":"6197b3f67c2b5cd3b6d9596a","session_id":"6197b9e8b7e7e7c7857ac36b","condition":"contingent","relevant_dimensions":["wings","legs"],"bee_group":{"antennae":"X","wings":"1","pattern":"X","legs":"M"},"bonus":0.48000000000000087},{"rt":826.9000000003725,"stimulus":"bees-with-color/bee-A2SF.svg","response":0,"trial_type":"image-button-response","trial_index":121,"time_elapsed":425333,"internal_node_id":"0.0-4.0-0.57","subject_id":"6169d9b7be52699b6e27e47a","study_id":"6197b3f67c2b5cd3b6d9596a","session_id":"6197b9e8b7e7e7c7857ac36b","condition":"contingent","relevant_dimensions":["wings","legs"],"bee_group":{"antennae":"X","wings":"1","pattern":"X","legs":"M"},"action":"harvest","summary":"good-harvest","bonus":0.48000000000000087},{"rt":680.5999999996275,"stimulus":"\n                    <p><b>Action: <em>harvest</em></b></p>\n                    <p>This is the bee that you just saw.</p>\n                    <img src=\"bees-with-color/bee-A2SF.svg\" width=\"200\">\n                    <p><span class=\"greenText\"><b>Successful harvest!</b></span><br>Your pay has increased by $0.02. Your bonus pay is now $0.60.</p>\n            ","response":0,"trial_type":"html-button-response","trial_index":122,"time_elapsed":426015,"internal_node_id":"0.0-4.0-1.57","subject_id":"6169d9b7be52699b6e27e47a","study_id":"6197b3f67c2b5cd3b6d9596a","session_id":"6197b9e8b7e7e7c7857ac36b","condition":"contingent","relevant_dimensions":["wings","legs"],"bee_group":{"antennae":"X","wings":"1","pattern":"X","legs":"M"},"bonus":0.48000000000000087},{"rt":1010.6000000014901,"stimulus":"bees-with-color/bee-A2DF.svg","response":0,"trial_type":"image-button-response","trial_index":123,"time_elapsed":427026,"internal_node_id":"0.0-4.0-0.58","subject_id":"6169d9b7be52699b6e27e47a","study_id":"6197b3f67c2b5cd3b6d9596a","session_id":"6197b9e8b7e7e7c7857ac36b","condition":"contingent","relevant_dimensions":["wings","legs"],"bee_group":{"antennae":"X","wings":"1","pattern":"X","legs":"M"},"action":"harvest","summary":"good-harvest","bonus":0.48000000000000087},{"rt":546.6999999992549,"stimulus":"\n                    <p><b>Action: <em>harvest</em></b></p>\n                    <p>This is the bee that you just saw.</p>\n                    <img src=\"bees-with-color/bee-A2DF.svg\" width=\"200\">\n                    <p><span class=\"greenText\"><b>Successful harvest!</b></span><br>Your pay has increased by $0.02. Your bonus pay is now $0.62.</p>\n            ","response":0,"trial_type":"html-button-response","trial_index":124,"time_elapsed":427575,"internal_node_id":"0.0-4.0-1.58","subject_id":"6169d9b7be52699b6e27e47a","study_id":"6197b3f67c2b5cd3b6d9596a","session_id":"6197b9e8b7e7e7c7857ac36b","condition":"contingent","relevant_dimensions":["wings","legs"],"bee_group":{"antennae":"X","wings":"1","pattern":"X","legs":"M"},"bonus":0.48000000000000087},{"rt":1168.800000000745,"stimulus":"bees-with-color/bee-B2DM.svg","response":0,"trial_type":"image-button-response","trial_index":125,"time_elapsed":428745,"internal_node_id":"0.0-4.0-0.59","subject_id":"6169d9b7be52699b6e27e47a","study_id":"6197b3f67c2b5cd3b6d9596a","session_id":"6197b9e8b7e7e7c7857ac36b","condition":"contingent","relevant_dimensions":["wings","legs"],"bee_group":{"antennae":"X","wings":"1","pattern":"X","legs":"M"},"action":"harvest","summary":"good-harvest","bonus":0.48000000000000087},{"rt":696.5,"stimulus":"\n                    <p><b>Action: <em>harvest</em></b></p>\n                    <p>This is the bee that you just saw.</p>\n                    <img src=\"bees-with-color/bee-B2DM.svg\" width=\"200\">\n                    <p><span class=\"greenText\"><b>Successful harvest!</b></span><br>Your pay has increased by $0.02. Your bonus pay is now $0.64.</p>\n            ","response":0,"trial_type":"html-button-response","trial_index":126,"time_elapsed":429443,"internal_node_id":"0.0-4.0-1.59","subject_id":"6169d9b7be52699b6e27e47a","study_id":"6197b3f67c2b5cd3b6d9596a","session_id":"6197b9e8b7e7e7c7857ac36b","condition":"contingent","relevant_dimensions":["wings","legs"],"bee_group":{"antennae":"X","wings":"1","pattern":"X","legs":"M"},"bonus":0.48000000000000087},{"rt":888.5999999996275,"stimulus":"bees-with-color/bee-B1SF.svg","response":0,"trial_type":"image-button-response","trial_index":127,"time_elapsed":430333,"internal_node_id":"0.0-4.0-0.60","subject_id":"6169d9b7be52699b6e27e47a","study_id":"6197b3f67c2b5cd3b6d9596a","session_id":"6197b9e8b7e7e7c7857ac36b","condition":"contingent","relevant_dimensions":["wings","legs"],"bee_group":{"antennae":"X","wings":"1","pattern":"X","legs":"M"},"action":"harvest","summary":"good-harvest","bonus":0.48000000000000087},{"rt":796.5999999996275,"stimulus":"\n                    <p><b>Action: <em>harvest</em></b></p>\n                    <p>This is the bee that you just saw.</p>\n                    <img src=\"bees-with-color/bee-B1SF.svg\" width=\"200\">\n                    <p><span class=\"greenText\"><b>Successful harvest!</b></span><br>Your pay has increased by $0.02. Your bonus pay is now $0.66.</p>\n            ","response":0,"trial_type":"html-button-response","trial_index":128,"time_elapsed":431131,"internal_node_id":"0.0-4.0-1.60","subject_id":"6169d9b7be52699b6e27e47a","study_id":"6197b3f67c2b5cd3b6d9596a","session_id":"6197b9e8b7e7e7c7857ac36b","condition":"contingent","relevant_dimensions":["wings","legs"],"bee_group":{"antennae":"X","wings":"1","pattern":"X","legs":"M"},"bonus":0.48000000000000087},{"rt":1336.9000000003725,"stimulus":"bees-with-color/bee-A1DF.svg","response":0,"trial_type":"image-button-response","trial_index":129,"time_elapsed":432468,"internal_node_id":"0.0-4.0-0.61","subject_id":"6169d9b7be52699b6e27e47a","study_id":"6197b3f67c2b5cd3b6d9596a","session_id":"6197b9e8b7e7e7c7857ac36b","condition":"contingent","relevant_dimensions":["wings","legs"],"bee_group":{"antennae":"X","wings":"1","pattern":"X","legs":"M"},"action":"harvest","summary":"good-harvest","bonus":0.48000000000000087},{"rt":734.8000000007451,"stimulus":"\n                    <p><b>Action: <em>harvest</em></b></p>\n                    <p>This is the bee that you just saw.</p>\n                    <img src=\"bees-with-color/bee-A1DF.svg\" width=\"200\">\n                    <p><span class=\"greenText\"><b>Successful harvest!</b></span><br>Your pay has increased by $0.02. Your bonus pay is now $0.68.</p>\n            ","response":0,"trial_type":"html-button-response","trial_index":130,"time_elapsed":433204,"internal_node_id":"0.0-4.0-1.61","subject_id":"6169d9b7be52699b6e27e47a","study_id":"6197b3f67c2b5cd3b6d9596a","session_id":"6197b9e8b7e7e7c7857ac36b","condition":"contingent","relevant_dimensions":["wings","legs"],"bee_group":{"antennae":"X","wings":"1","pattern":"X","legs":"M"},"bonus":0.48000000000000087},{"rt":769.0999999996275,"stimulus":"bees-with-color/bee-B1DM.svg","response":0,"trial_type":"image-button-response","trial_index":131,"time_elapsed":433975,"internal_node_id":"0.0-4.0-0.62","subject_id":"6169d9b7be52699b6e27e47a","study_id":"6197b3f67c2b5cd3b6d9596a","session_id":"6197b9e8b7e7e7c7857ac36b","condition":"contingent","relevant_dimensions":["wings","legs"],"bee_group":{"antennae":"X","wings":"1","pattern":"X","legs":"M"},"action":"harvest","summary":"bad-harvest","bonus":0.48000000000000087},{"rt":776.8000000007451,"stimulus":"\n                    <p><b>Action: <em>harvest</em></b></p>\n                    <p>This is the bee that you just saw.</p>\n                    <img src=\"bees-with-color/bee-B1DM.svg\" width=\"200\">\n                    <p><span class=\"redText\">Bad choice, the bee was angry.</span><br><b>You have been stung!</b><br>Your pay has been decreased by $0.10. Your bonus pay is now $0.58.</p>\n            ","response":0,"trial_type":"html-button-response","trial_index":132,"time_elapsed":434752,"internal_node_id":"0.0-4.0-1.62","subject_id":"6169d9b7be52699b6e27e47a","study_id":"6197b3f67c2b5cd3b6d9596a","session_id":"6197b9e8b7e7e7c7857ac36b","condition":"contingent","relevant_dimensions":["wings","legs"],"bee_group":{"antennae":"X","wings":"1","pattern":"X","legs":"M"},"bonus":0.48000000000000087},{"rt":921,"stimulus":"bees-with-color/bee-A1DM.svg","response":1,"trial_type":"image-button-response","trial_index":133,"time_elapsed":435674,"internal_node_id":"0.0-4.0-0.63","subject_id":"6169d9b7be52699b6e27e47a","study_id":"6197b3f67c2b5cd3b6d9596a","session_id":"6197b9e8b7e7e7c7857ac36b","condition":"contingent","relevant_dimensions":["wings","legs"],"bee_group":{"antennae":"X","wings":"1","pattern":"X","legs":"M"},"action":"avoid","summary":"good-avoid","bonus":0.48000000000000087},{"rt":838.9000000003725,"stimulus":"\n                    <p><b>Action: <em>avoid</em></b></p>\n                    <p>This is the bee that you just saw.</p>\n                    <img src=\"bees-with-color/bee-A1DM.svg\" width=\"200\">\n                    <p><br>Your bonus pay is unchanged, and remains at $0.58.</p>\n            ","response":0,"trial_type":"html-button-response","trial_index":134,"time_elapsed":436514,"internal_node_id":"0.0-4.0-1.63","subject_id":"6169d9b7be52699b6e27e47a","study_id":"6197b3f67c2b5cd3b6d9596a","session_id":"6197b9e8b7e7e7c7857ac36b","condition":"contingent","relevant_dimensions":["wings","legs"],"bee_group":{"antennae":"X","wings":"1","pattern":"X","legs":"M"},"bonus":0.48000000000000087},{"rt":38296.59999999963,"stimulus":"You have completed the first part of this experiment.<br><br>You will now begin a shorter second part, in which you will receive no feedback.<br>The same rules regarding bonus pay apply.<br><br>Press any key to begin.","response":" ","trial_type":"html-keyboard-response","trial_index":135,"time_elapsed":474812,"internal_node_id":"0.0-5.0","subject_id":"6169d9b7be52699b6e27e47a","study_id":"6197b3f67c2b5cd3b6d9596a","session_id":"6197b9e8b7e7e7c7857ac36b","condition":"contingent","relevant_dimensions":["wings","legs"],"bee_group":{"antennae":"X","wings":"1","pattern":"X","legs":"M"},"bonus":0.48000000000000087},{"rt":18055.599999999627,"stimulus":"bees-with-color/bee-A1DF.svg","response":1,"trial_type":"image-button-response","trial_index":136,"time_elapsed":492876,"internal_node_id":"0.0-6.0-0.0","subject_id":"6169d9b7be52699b6e27e47a","study_id":"6197b3f67c2b5cd3b6d9596a","session_id":"6197b9e8b7e7e7c7857ac36b","condition":"contingent","relevant_dimensions":["wings","legs"],"bee_group":{"antennae":"X","wings":"1","pattern":"X","legs":"M"},"bonus":0.48000000000000087},{"rt":1569.6000000014901,"stimulus":"bees-with-color/bee-A2DF.svg","response":0,"trial_type":"image-button-response","trial_index":137,"time_elapsed":494447,"internal_node_id":"0.0-6.0-0.1","subject_id":"6169d9b7be52699b6e27e47a","study_id":"6197b3f67c2b5cd3b6d9596a","session_id":"6197b9e8b7e7e7c7857ac36b","condition":"contingent","relevant_dimensions":["wings","legs"],"bee_group":{"antennae":"X","wings":"1","pattern":"X","legs":"M"},"bonus":0.48000000000000087},{"rt":5326.200000001118,"stimulus":"bees-with-color/bee-A1SF.svg","response":1,"trial_type":"image-button-response","trial_index":138,"time_elapsed":499775,"internal_node_id":"0.0-6.0-0.2","subject_id":"6169d9b7be52699b6e27e47a","study_id":"6197b3f67c2b5cd3b6d9596a","session_id":"6197b9e8b7e7e7c7857ac36b","condition":"contingent","relevant_dimensions":["wings","legs"],"bee_group":{"antennae":"X","wings":"1","pattern":"X","legs":"M"},"bonus":0.48000000000000087},{"rt":2095.7999999988824,"stimulus":"bees-with-color/bee-A1SM.svg","response":0,"trial_type":"image-button-response","trial_index":139,"time_elapsed":501873,"internal_node_id":"0.0-6.0-0.3","subject_id":"6169d9b7be52699b6e27e47a","study_id":"6197b3f67c2b5cd3b6d9596a","session_id":"6197b9e8b7e7e7c7857ac36b","condition":"contingent","relevant_dimensions":["wings","legs"],"bee_group":{"antennae":"X","wings":"1","pattern":"X","legs":"M"},"bonus":0.48000000000000087},{"rt":13306.299999998882,"stimulus":"bees-with-color/bee-B1DM.svg","response":1,"trial_type":"image-button-response","trial_index":140,"time_elapsed":515181,"internal_node_id":"0.0-6.0-0.4","subject_id":"6169d9b7be52699b6e27e47a","study_id":"6197b3f67c2b5cd3b6d9596a","session_id":"6197b9e8b7e7e7c7857ac36b","condition":"contingent","relevant_dimensions":["wings","legs"],"bee_group":{"antennae":"X","wings":"1","pattern":"X","legs":"M"},"bonus":0.48000000000000087},{"rt":2935.699999999255,"stimulus":"bees-with-color/bee-A2DM.svg","response":0,"trial_type":"image-button-response","trial_index":141,"time_elapsed":518119,"internal_node_id":"0.0-6.0-0.5","subject_id":"6169d9b7be52699b6e27e47a","study_id":"6197b3f67c2b5cd3b6d9596a","session_id":"6197b9e8b7e7e7c7857ac36b","condition":"contingent","relevant_dimensions":["wings","legs"],"bee_group":{"antennae":"X","wings":"1","pattern":"X","legs":"M"},"bonus":0.48000000000000087},{"rt":6010,"stimulus":"bees-with-color/bee-B2SM.svg","response":0,"trial_type":"image-button-response","trial_index":142,"time_elapsed":524131,"internal_node_id":"0.0-6.0-0.6","subject_id":"6169d9b7be52699b6e27e47a","study_id":"6197b3f67c2b5cd3b6d9596a","session_id":"6197b9e8b7e7e7c7857ac36b","condition":"contingent","relevant_dimensions":["wings","legs"],"bee_group":{"antennae":"X","wings":"1","pattern":"X","legs":"M"},"bonus":0.48000000000000087},{"rt":2885.5999999996275,"stimulus":"bees-with-color/bee-A2SM.svg","response":0,"trial_type":"image-button-response","trial_index":143,"time_elapsed":527019,"internal_node_id":"0.0-6.0-0.7","subject_id":"6169d9b7be52699b6e27e47a","study_id":"6197b3f67c2b5cd3b6d9596a","session_id":"6197b9e8b7e7e7c7857ac36b","condition":"contingent","relevant_dimensions":["wings","legs"],"bee_group":{"antennae":"X","wings":"1","pattern":"X","legs":"M"},"bonus":0.48000000000000087},{"rt":1468,"stimulus":"bees-with-color/bee-B1DF.svg","response":1,"trial_type":"image-button-response","trial_index":144,"time_elapsed":528489,"internal_node_id":"0.0-6.0-0.8","subject_id":"6169d9b7be52699b6e27e47a","study_id":"6197b3f67c2b5cd3b6d9596a","session_id":"6197b9e8b7e7e7c7857ac36b","condition":"contingent","relevant_dimensions":["wings","legs"],"bee_group":{"antennae":"X","wings":"1","pattern":"X","legs":"M"},"bonus":0.48000000000000087},{"rt":1244,"stimulus":"bees-with-color/bee-A1DM.svg","response":1,"trial_type":"image-button-response","trial_index":145,"time_elapsed":529735,"internal_node_id":"0.0-6.0-0.9","subject_id":"6169d9b7be52699b6e27e47a","study_id":"6197b3f67c2b5cd3b6d9596a","session_id":"6197b9e8b7e7e7c7857ac36b","condition":"contingent","relevant_dimensions":["wings","legs"],"bee_group":{"antennae":"X","wings":"1","pattern":"X","legs":"M"},"bonus":0.48000000000000087},{"rt":5068.199999999255,"stimulus":"bees-with-color/bee-B1SM.svg","response":1,"trial_type":"image-button-response","trial_index":146,"time_elapsed":534805,"internal_node_id":"0.0-6.0-0.10","subject_id":"6169d9b7be52699b6e27e47a","study_id":"6197b3f67c2b5cd3b6d9596a","session_id":"6197b9e8b7e7e7c7857ac36b","condition":"contingent","relevant_dimensions":["wings","legs"],"bee_group":{"antennae":"X","wings":"1","pattern":"X","legs":"M"},"bonus":0.48000000000000087},{"rt":1977.9000000003725,"stimulus":"bees-with-color/bee-B1SF.svg","response":1,"trial_type":"image-button-response","trial_index":147,"time_elapsed":536785,"internal_node_id":"0.0-6.0-0.11","subject_id":"6169d9b7be52699b6e27e47a","study_id":"6197b3f67c2b5cd3b6d9596a","session_id":"6197b9e8b7e7e7c7857ac36b","condition":"contingent","relevant_dimensions":["wings","legs"],"bee_group":{"antennae":"X","wings":"1","pattern":"X","legs":"M"},"bonus":0.48000000000000087},{"rt":1628.199999999255,"stimulus":"bees-with-color/bee-A2SF.svg","response":0,"trial_type":"image-button-response","trial_index":148,"time_elapsed":538415,"internal_node_id":"0.0-6.0-0.12","subject_id":"6169d9b7be52699b6e27e47a","study_id":"6197b3f67c2b5cd3b6d9596a","session_id":"6197b9e8b7e7e7c7857ac36b","condition":"contingent","relevant_dimensions":["wings","legs"],"bee_group":{"antennae":"X","wings":"1","pattern":"X","legs":"M"},"bonus":0.48000000000000087},{"rt":1530.1000000014901,"stimulus":"bees-with-color/bee-B2DF.svg","response":1,"trial_type":"image-button-response","trial_index":149,"time_elapsed":539947,"internal_node_id":"0.0-6.0-0.13","subject_id":"6169d9b7be52699b6e27e47a","study_id":"6197b3f67c2b5cd3b6d9596a","session_id":"6197b9e8b7e7e7c7857ac36b","condition":"contingent","relevant_dimensions":["wings","legs"],"bee_group":{"antennae":"X","wings":"1","pattern":"X","legs":"M"},"bonus":0.48000000000000087},{"rt":1450.1000000014901,"stimulus":"bees-with-color/bee-B2DM.svg","response":1,"trial_type":"image-button-response","trial_index":150,"time_elapsed":541399,"internal_node_id":"0.0-6.0-0.14","subject_id":"6169d9b7be52699b6e27e47a","study_id":"6197b3f67c2b5cd3b6d9596a","session_id":"6197b9e8b7e7e7c7857ac36b","condition":"contingent","relevant_dimensions":["wings","legs"],"bee_group":{"antennae":"X","wings":"1","pattern":"X","legs":"M"},"bonus":0.48000000000000087},{"rt":1386.3999999985099,"stimulus":"bees-with-color/bee-B2SF.svg","response":1,"trial_type":"image-button-response","trial_index":151,"time_elapsed":542788,"internal_node_id":"0.0-6.0-0.15","subject_id":"6169d9b7be52699b6e27e47a","study_id":"6197b3f67c2b5cd3b6d9596a","session_id":"6197b9e8b7e7e7c7857ac36b","condition":"contingent","relevant_dimensions":["wings","legs"],"bee_group":{"antennae":"X","wings":"1","pattern":"X","legs":"M"},"bonus":0.48000000000000087},{"rt":4396,"stimulus":"bees-with-color/bee-A1SM.svg","response":0,"trial_type":"image-button-response","trial_index":152,"time_elapsed":547185,"internal_node_id":"0.0-6.0-0.16","subject_id":"6169d9b7be52699b6e27e47a","study_id":"6197b3f67c2b5cd3b6d9596a","session_id":"6197b9e8b7e7e7c7857ac36b","condition":"contingent","relevant_dimensions":["wings","legs"],"bee_group":{"antennae":"X","wings":"1","pattern":"X","legs":"M"},"bonus":0.48000000000000087},{"rt":2771.89999999851,"stimulus":"bees-with-color/bee-A1DM.svg","response":0,"trial_type":"image-button-response","trial_index":153,"time_elapsed":549959,"internal_node_id":"0.0-6.0-0.17","subject_id":"6169d9b7be52699b6e27e47a","study_id":"6197b3f67c2b5cd3b6d9596a","session_id":"6197b9e8b7e7e7c7857ac36b","condition":"contingent","relevant_dimensions":["wings","legs"],"bee_group":{"antennae":"X","wings":"1","pattern":"X","legs":"M"},"bonus":0.48000000000000087},{"rt":2954.2000000011176,"stimulus":"bees-with-color/bee-B2SF.svg","response":1,"trial_type":"image-button-response","trial_index":154,"time_elapsed":552915,"internal_node_id":"0.0-6.0-0.18","subject_id":"6169d9b7be52699b6e27e47a","study_id":"6197b3f67c2b5cd3b6d9596a","session_id":"6197b9e8b7e7e7c7857ac36b","condition":"contingent","relevant_dimensions":["wings","legs"],"bee_group":{"antennae":"X","wings":"1","pattern":"X","legs":"M"},"bonus":0.48000000000000087},{"rt":10294.099999999627,"stimulus":"bees-with-color/bee-A1SF.svg","response":0,"trial_type":"image-button-response","trial_index":155,"time_elapsed":563211,"internal_node_id":"0.0-6.0-0.19","subject_id":"6169d9b7be52699b6e27e47a","study_id":"6197b3f67c2b5cd3b6d9596a","session_id":"6197b9e8b7e7e7c7857ac36b","condition":"contingent","relevant_dimensions":["wings","legs"],"bee_group":{"antennae":"X","wings":"1","pattern":"X","legs":"M"},"bonus":0.48000000000000087},{"rt":2130.0999999996275,"stimulus":"bees-with-color/bee-A2DM.svg","response":0,"trial_type":"image-button-response","trial_index":156,"time_elapsed":565343,"internal_node_id":"0.0-6.0-0.20","subject_id":"6169d9b7be52699b6e27e47a","study_id":"6197b3f67c2b5cd3b6d9596a","session_id":"6197b9e8b7e7e7c7857ac36b","condition":"contingent","relevant_dimensions":["wings","legs"],"bee_group":{"antennae":"X","wings":"1","pattern":"X","legs":"M"},"bonus":0.48000000000000087},{"rt":1652.5,"stimulus":"bees-with-color/bee-B1SF.svg","response":1,"trial_type":"image-button-response","trial_index":157,"time_elapsed":566997,"internal_node_id":"0.0-6.0-0.21","subject_id":"6169d9b7be52699b6e27e47a","study_id":"6197b3f67c2b5cd3b6d9596a","session_id":"6197b9e8b7e7e7c7857ac36b","condition":"contingent","relevant_dimensions":["wings","legs"],"bee_group":{"antennae":"X","wings":"1","pattern":"X","legs":"M"},"bonus":0.48000000000000087},{"rt":1554.4000000003725,"stimulus":"bees-with-color/bee-A1DF.svg","response":1,"trial_type":"image-button-response","trial_index":158,"time_elapsed":568553,"internal_node_id":"0.0-6.0-0.22","subject_id":"6169d9b7be52699b6e27e47a","study_id":"6197b3f67c2b5cd3b6d9596a","session_id":"6197b9e8b7e7e7c7857ac36b","condition":"contingent","relevant_dimensions":["wings","legs"],"bee_group":{"antennae":"X","wings":"1","pattern":"X","legs":"M"},"bonus":0.48000000000000087},{"rt":1764.699999999255,"stimulus":"bees-with-color/bee-A2DF.svg","response":1,"trial_type":"image-button-response","trial_index":159,"time_elapsed":570319,"internal_node_id":"0.0-6.0-0.23","subject_id":"6169d9b7be52699b6e27e47a","study_id":"6197b3f67c2b5cd3b6d9596a","session_id":"6197b9e8b7e7e7c7857ac36b","condition":"contingent","relevant_dimensions":["wings","legs"],"bee_group":{"antennae":"X","wings":"1","pattern":"X","legs":"M"},"bonus":0.48000000000000087},{"rt":2360.5,"stimulus":"bees-with-color/bee-A2SM.svg","response":0,"trial_type":"image-button-response","trial_index":160,"time_elapsed":572681,"internal_node_id":"0.0-6.0-0.24","subject_id":"6169d9b7be52699b6e27e47a","study_id":"6197b3f67c2b5cd3b6d9596a","session_id":"6197b9e8b7e7e7c7857ac36b","condition":"contingent","relevant_dimensions":["wings","legs"],"bee_group":{"antennae":"X","wings":"1","pattern":"X","legs":"M"},"bonus":0.48000000000000087},{"rt":2430.5,"stimulus":"bees-with-color/bee-B1DM.svg","response":1,"trial_type":"image-button-response","trial_index":161,"time_elapsed":575113,"internal_node_id":"0.0-6.0-0.25","subject_id":"6169d9b7be52699b6e27e47a","study_id":"6197b3f67c2b5cd3b6d9596a","session_id":"6197b9e8b7e7e7c7857ac36b","condition":"contingent","relevant_dimensions":["wings","legs"],"bee_group":{"antennae":"X","wings":"1","pattern":"X","legs":"M"},"bonus":0.48000000000000087},{"rt":1830.5999999996275,"stimulus":"bees-with-color/bee-B2DF.svg","response":1,"trial_type":"image-button-response","trial_index":162,"time_elapsed":576945,"internal_node_id":"0.0-6.0-0.26","subject_id":"6169d9b7be52699b6e27e47a","study_id":"6197b3f67c2b5cd3b6d9596a","session_id":"6197b9e8b7e7e7c7857ac36b","condition":"contingent","relevant_dimensions":["wings","legs"],"bee_group":{"antennae":"X","wings":"1","pattern":"X","legs":"M"},"bonus":0.48000000000000087},{"rt":2090.5999999996275,"stimulus":"bees-with-color/bee-B1SM.svg","response":1,"trial_type":"image-button-response","trial_index":163,"time_elapsed":579037,"internal_node_id":"0.0-6.0-0.27","subject_id":"6169d9b7be52699b6e27e47a","study_id":"6197b3f67c2b5cd3b6d9596a","session_id":"6197b9e8b7e7e7c7857ac36b","condition":"contingent","relevant_dimensions":["wings","legs"],"bee_group":{"antennae":"X","wings":"1","pattern":"X","legs":"M"},"bonus":0.48000000000000087},{"rt":1562.300000000745,"stimulus":"bees-with-color/bee-B2SM.svg","response":1,"trial_type":"image-button-response","trial_index":164,"time_elapsed":580601,"internal_node_id":"0.0-6.0-0.28","subject_id":"6169d9b7be52699b6e27e47a","study_id":"6197b3f67c2b5cd3b6d9596a","session_id":"6197b9e8b7e7e7c7857ac36b","condition":"contingent","relevant_dimensions":["wings","legs"],"bee_group":{"antennae":"X","wings":"1","pattern":"X","legs":"M"},"bonus":0.48000000000000087},{"rt":1952.5,"stimulus":"bees-with-color/bee-B2DM.svg","response":0,"trial_type":"image-button-response","trial_index":165,"time_elapsed":582555,"internal_node_id":"0.0-6.0-0.