[{"success":true,"trial_type":"fullscreen","trial_index":0,"time_elapsed":4990,"internal_node_id":"0.0-0.0","subject_id":"5eb2d3b0d573b507df21626f","study_id":"6197b3f67c2b5cd3b6d9596a","session_id":"619be31e9bfd045c936a11ee","condition":"full-information","relevant_dimensions":["pattern","legs"],"bee_group":{"antennae":"X","wings":"X","pattern":"D","legs":"F"},"bonus":0.8200000000000013},{"success":true,"timeout":false,"failed_images":[],"failed_audio":[],"failed_video":[],"trial_type":"preload","trial_index":1,"time_elapsed":6921,"internal_node_id":"0.0-1.0","subject_id":"5eb2d3b0d573b507df21626f","study_id":"6197b3f67c2b5cd3b6d9596a","session_id":"619be31e9bfd045c936a11ee","condition":"full-information","relevant_dimensions":["pattern","legs"],"bee_group":{"antennae":"X","wings":"X","pattern":"D","legs":"F"},"bonus":0.8200000000000013},{"rt":1693.1999999999534,"stimulus":"Welcome! Press any key to begin.","response":" ","trial_type":"html-keyboard-response","trial_index":2,"time_elapsed":8616,"internal_node_id":"0.0-2.0","subject_id":"5eb2d3b0d573b507df21626f","study_id":"6197b3f67c2b5cd3b6d9596a","session_id":"619be31e9bfd045c936a11ee","condition":"full-information","relevant_dimensions":["pattern","legs"],"bee_group":{"antennae":"X","wings":"X","pattern":"D","legs":"F"},"bonus":0.8200000000000013},{"view_history":[{"page_index":0,"viewing_time":4924.299999999814},{"page_index":1,"viewing_time":12264.600000000093},{"page_index":2,"viewing_time":12137.800000000047},{"page_index":3,"viewing_time":13210.09999999986},{"page_index":4,"viewing_time":5366.700000000186},{"page_index":5,"viewing_time":5630.699999999953},{"page_index":6,"viewing_time":6494.199999999953},{"page_index":7,"viewing_time":8306.5},{"page_index":8,"viewing_time":8825.800000000047},{"page_index":9,"viewing_time":6851.59999999986},{"page_index":10,"viewing_time":3523.3000000000466},{"page_index":11,"viewing_time":8593.600000000093},{"page_index":12,"viewing_time":16936.699999999953},{"page_index":13,"viewing_time":1755.3000000000466},{"page_index":14,"viewing_time":2249.399999999907}],"rt":117071.5,"trial_type":"instructions","trial_index":3,"time_elapsed":125690,"internal_node_id":"0.0-3.0-0.0","subject_id":"5eb2d3b0d573b507df21626f","study_id":"6197b3f67c2b5cd3b6d9596a","session_id":"619be31e9bfd045c936a11ee","condition":"full-information","relevant_dimensions":["pattern","legs"],"bee_group":{"antennae":"X","wings":"X","pattern":"D","legs":"F"},"bonus":0.8200000000000013},{"rt":13376.100000000093,"response":{"Q0":["Two or six legs","Stripes or spots on body","Single or double wings","Antennae or no antennae"]},"question_order":[0],"trial_type":"survey-multi-select","trial_index":4,"time_elapsed":139077,"internal_node_id":"0.0-3.0-1.0","subject_id":"5eb2d3b0d573b507df21626f","study_id":"6197b3f67c2b5cd3b6d9596a","session_id":"619be31e9bfd045c936a11ee","condition":"full-information","relevant_dimensions":["pattern","legs"],"bee_group":{"antennae":"X","wings":"X","pattern":"D","legs":"F"},"correct":true,"bonus":0.8200000000000013},{"rt":37123.5,"response":{"Q1":"No.","Q2":"Based on the four features of the bee.","Q3":"You learn if it was friendly or dangerous, but do not alter your bonus."},"question_order":[0,1,2],"trial_type":"survey-multi-choice","trial_index":5,"time_elapsed":176205,"internal_node_id":"0.0-3.0-2.0","subject_id":"5eb2d3b0d573b507df21626f","study_id":"6197b3f67c2b5cd3b6d9596a","session_id":"619be31e9bfd045c936a11ee","condition":"full-information","relevant_dimensions":["pattern","legs"],"bee_group":{"antennae":"X","wings":"X","pattern":"D","legs":"F"},"correct":true,"bonus":0.8200000000000013},{"rt":3563.600000000093,"stimulus":"<p>Congrats, you got everything right<br>When you're ready, click the button below to continue to the experiment.</p>","response":0,"trial_type":"html-button-response","trial_index":6,"time_elapsed":179776,"internal_node_id":"0.0-3.0-3.0","subject_id":"5eb2d3b0d573b507df21626f","study_id":"6197b3f67c2b5cd3b6d9596a","session_id":"619be31e9bfd045c936a11ee","condition":"full-information","relevant_dimensions":["pattern","legs"],"bee_group":{"antennae":"X","wings":"X","pattern":"D","legs":"F"},"bonus":0.8200000000000013},{"rt":4106.300000000047,"stimulus":"bees-with-color/bee-A1DM.svg","response":0,"trial_type":"image-button-response","trial_index":7,"time_elapsed":183886,"internal_node_id":"0.0-4.0-0.0","subject_id":"5eb2d3b0d573b507df21626f","study_id":"6197b3f67c2b5cd3b6d9596a","session_id":"619be31e9bfd045c936a11ee","condition":"full-information","relevant_dimensions":["pattern","legs"],"bee_group":{"antennae":"X","wings":"X","pattern":"D","legs":"F"},"action":"harvest","summary":"good-harvest","bonus":0.8200000000000013},{"rt":9189.700000000186,"stimulus":"\n                    <p><b>Action: <em>harvest</em></b></p>\n                    <p>This is the bee that you just saw.</p>\n                    <img src=\"bees-with-color/bee-A1DM.svg\" width=\"200\">\n                    <p><span class=\"greenText\"><b>Successful harvest!</b></span><br>Your pay has increased by $0.02. Your bonus pay is now $0.56.</p>\n            ","response":0,"trial_type":"html-button-response","trial_index":8,"time_elapsed":193082,"internal_node_id":"0.0-4.0-1.0","subject_id":"5eb2d3b0d573b507df21626f","study_id":"6197b3f67c2b5cd3b6d9596a","session_id":"619be31e9bfd045c936a11ee","condition":"full-information","relevant_dimensions":["pattern","legs"],"bee_group":{"antennae":"X","wings":"X","pattern":"D","legs":"F"},"bonus":0.8200000000000013},{"rt":3449.3000000000466,"stimulus":"bees-with-color/bee-A1DF.svg","response":0,"trial_type":"image-button-response","trial_index":9,"time_elapsed":196535,"internal_node_id":"0.0-4.0-0.1","subject_id":"5eb2d3b0d573b507df21626f","study_id":"6197b3f67c2b5cd3b6d9596a","session_id":"619be31e9bfd045c936a11ee","condition":"full-information","relevant_dimensions":["pattern","legs"],"bee_group":{"antennae":"X","wings":"X","pattern":"D","legs":"F"},"action":"harvest","summary":"bad-harvest","bonus":0.8200000000000013},{"rt":12455.399999999907,"stimulus":"\n                    <p><b>Action: <em>harvest</em></b></p>\n                    <p>This is the bee that you just saw.</p>\n                    <img src=\"bees-with-color/bee-A1DF.svg\" width=\"200\">\n                    <p><span class=\"redText\">Bad choice, the bee was angry.</span><br><b>You have been stung!</b><br>Your pay has been decreased by $0.10. Your bonus pay is now $0.46.</p>\n            ","response":0,"trial_type":"html-button-response","trial_index":10,"time_elapsed":209006,"internal_node_id":"0.0-4.0-1.1","subject_id":"5eb2d3b0d573b507df21626f","study_id":"6197b3f67c2b5cd3b6d9596a","session_id":"619be31e9bfd045c936a11ee","condition":"full-information","relevant_dimensions":["pattern","legs"],"bee_group":{"antennae":"X","wings":"X","pattern":"D","legs":"F"},"bonus":0.8200000000000013},{"rt":3336.399999999907,"stimulus":"bees-with-color/bee-B2DF.svg","response":0,"trial_type":"image-button-response","trial_index":11,"time_elapsed":212346,"internal_node_id":"0.0-4.0-0.2","subject_id":"5eb2d3b0d573b507df21626f","study_id":"6197b3f67c2b5cd3b6d9596a","session_id":"619be31e9bfd045c936a11ee","condition":"full-information","relevant_dimensions":["pattern","legs"],"bee_group":{"antennae":"X","wings":"X","pattern":"D","legs":"F"},"action":"harvest","summary":"bad-harvest","bonus":0.8200000000000013},{"rt":4815.90000000014,"stimulus":"\n                    <p><b>Action: <em>harvest</em></b></p>\n                    <p>This is the bee that you just saw.</p>\n                    <img src=\"bees-with-color/bee-B2DF.svg\" width=\"200\">\n                    <p><span class=\"redText\">Bad choice, the bee was angry.</span><br><b>You have been stung!</b><br>Your pay has been decreased by $0.10. Your bonus pay is now $0.36.</p>\n            ","response":0,"trial_type":"html-button-response","trial_index":12,"time_elapsed":217165,"internal_node_id":"0.0-4.0-1.2","subject_id":"5eb2d3b0d573b507df21626f","study_id":"6197b3f67c2b5cd3b6d9596a","session_id":"619be31e9bfd045c936a11ee","condition":"full-information","relevant_dimensions":["pattern","legs"],"bee_group":{"antennae":"X","wings":"X","pattern":"D","legs":"F"},"bonus":0.8200000000000013},{"rt":3389,"stimulus":"bees-with-color/bee-A2SF.svg","response":0,"trial_type":"image-button-response","trial_index":13,"time_elapsed":220558,"internal_node_id":"0.0-4.0-0.3","subject_id":"5eb2d3b0d573b507df21626f","study_id":"6197b3f67c2b5cd3b6d9596a","session_id":"619be31e9bfd045c936a11ee","condition":"full-information","relevant_dimensions":["pattern","legs"],"bee_group":{"antennae":"X","wings":"X","pattern":"D","legs":"F"},"action":"harvest","summary":"good-harvest","bonus":0.8200000000000013},{"rt":22263.40000000014,"stimulus":"\n                    <p><b>Action: <em>harvest</em></b></p>\n                    <p>This is the bee that you just saw.</p>\n                    <img src=\"bees-with-color/bee-A2SF.svg\" width=\"200\">\n                    <p><span class=\"greenText\"><b>Successful harvest!</b></span><br>Your pay has increased by $0.02. Your bonus pay is now $0.38.</p>\n            ","response":0,"trial_type":"html-button-response","trial_index":14,"time_elapsed":242826,"internal_node_id":"0.0-4.0-1.3","subject_id":"5eb2d3b0d573b507df21626f","study_id":"6197b3f67c2b5cd3b6d9596a","session_id":"619be31e9bfd045c936a11ee","condition":"full-information","relevant_dimensions":["pattern","legs"],"bee_group":{"antennae":"X","wings":"X","pattern":"D","legs":"F"},"bonus":0.8200000000000013},{"rt":3762.8000000000466,"stimulus":"bees-with-color/bee-B1SM.svg","response":1,"trial_type":"image-button-response","trial_index":15,"time_elapsed":246594,"internal_node_id":"0.0-4.0-0.4","subject_id":"5eb2d3b0d573b507df21626f","study_id":"6197b3f67c2b5cd3b6d9596a","session_id":"619be31e9bfd045c936a11ee","condition":"full-information","relevant_dimensions":["pattern","legs"],"bee_group":{"antennae":"X","wings":"X","pattern":"D","legs":"F"},"action":"avoid","summary":"bad-avoid","bonus":0.8200000000000013},{"rt":9870.699999999953,"stimulus":"\n                    <p><b>Action: <em>avoid</em></b></p>\n                    <p>This is the bee that you just saw.</p>\n                    <img src=\"bees-with-color/bee-B1SM.svg\" width=\"200\">\n                    <p><span class=\"redText\">Bad choice,</span> the bee was friendly.<br>Your bonus pay is unchanged, and remains at $0.38.</p>\n            ","response":0,"trial_type":"html-button-response","trial_index":16,"time_elapsed":256467,"internal_node_id":"0.0-4.0-1.4","subject_id":"5eb2d3b0d573b507df21626f","study_id":"6197b3f67c2b5cd3b6d9596a","session_id":"619be31e9bfd045c936a11ee","condition":"full-information","relevant_dimensions":["pattern","legs"],"bee_group":{"antennae":"X","wings":"X","pattern":"D","legs":"F"},"bonus":0.8200000000000013},{"rt":2964.4000000001397,"stimulus":"bees-with-color/bee-B2DM.svg","response":1,"trial_type":"image-button-response","trial_index":17,"time_elapsed":259436,"internal_node_id":"0.0-4.0-0.5","subject_id":"5eb2d3b0d573b507df21626f","study_id":"6197b3f67c2b5cd3b6d9596a","session_id":"619be31e9bfd045c936a11ee","condition":"full-information","relevant_dimensions":["pattern","legs"],"bee_group":{"antennae":"X","wings":"X","pattern":"D","legs":"F"},"action":"avoid","summary":"bad-avoid","bonus":0.8200000000000013},{"rt":7304.899999999907,"stimulus":"\n                    <p><b>Action: <em>avoid</em></b></p>\n                    <p>This is the bee that you just saw.</p>\n                    <img src=\"bees-with-color/bee-B2DM.svg\" width=\"200\">\n                    <p><span class=\"redText\">Bad choice,</span> the bee was friendly.<br>Your bonus pay is unchanged, and remains at $0.38.</p>\n            ","response":0,"trial_type":"html-button-response","trial_index":18,"time_elapsed":266743,"internal_node_id":"0.0-4.0-1.5","subject_id":"5eb2d3b0d573b507df21626f","study_id":"6197b3f67c2b5cd3b6d9596a","session_id":"619be31e9bfd045c936a11ee","condition":"full-information","relevant_dimensions":["pattern","legs"],"bee_group":{"antennae":"X","wings":"X","pattern":"D","legs":"F"},"bonus":0.8200000000000013},{"rt":2631.2999999998137,"stimulus":"bees-with-color/bee-A2DM.svg","response":1,"trial_type":"image-button-response","trial_index":19,"time_elapsed":269379,"internal_node_id":"0.0-4.0-0.6","subject_id":"5eb2d3b0d573b507df21626f","study_id":"6197b3f67c2b5cd3b6d9596a","session_id":"619be31e9bfd045c936a11ee","condition":"full-information","relevant_dimensions":["pattern","legs"],"bee_group":{"antennae":"X","wings":"X","pattern":"D","legs":"F"},"action":"avoid","summary":"bad-avoid","bonus":0.8200000000000013},{"rt":7258.899999999907,"stimulus":"\n                    <p><b>Action: <em>avoid</em></b></p>\n                    <p>This is the bee that you just saw.</p>\n                    <img src=\"bees-with-color/bee-A2DM.svg\" width=\"200\">\n                    <p><span class=\"redText\">Bad choice,</span> the bee was friendly.<br>Your bonus pay is unchanged, and remains at $0.38.</p>\n            ","response":0,"trial_type":"html-button-response","trial_index":20,"time_elapsed":276640,"internal_node_id":"0.0-4.0-1.6","subject_id":"5eb2d3b0d573b507df21626f","study_id":"6197b3f67c2b5cd3b6d9596a","session_id":"619be31e9bfd045c936a11ee","condition":"full-information","relevant_dimensions":["pattern","legs"],"bee_group":{"antennae":"X","wings":"X","pattern":"D","legs":"F"},"bonus":0.8200000000000013},{"rt":2752.8000000000466,"stimulus":"bees-with-color/bee-A1SF.svg","response":0,"trial_type":"image-button-response","trial_index":21,"time_elapsed":279397,"internal_node_id":"0.0-4.0-0.7","subject_id":"5eb2d3b0d573b507df21626f","study_id":"6197b3f67c2b5cd3b6d9596a","session_id":"619be31e9bfd045c936a11ee","condition":"full-information","relevant_dimensions":["pattern","legs"],"bee_group":{"antennae":"X","wings":"X","pattern":"D","legs":"F"},"action":"harvest","summary":"good-harvest","bonus":0.8200000000000013},{"rt":8737.499999999767,"stimulus":"\n                    <p><b>Action: <em>harvest</em></b></p>\n                    <p>This is the bee that you just saw.</p>\n                    <img src=\"bees-with-color/bee-A1SF.svg\" width=\"200\">\n                    <p><span class=\"greenText\"><b>Successful harvest!</b></span><br>Your pay has increased by $0.02. Your bonus pay is now $0.40.</p>\n            ","response":0,"trial_type":"html-button-response","trial_index":22,"time_elapsed":288137,"internal_node_id":"0.0-4.0-1.7","subject_id":"5eb2d3b0d573b507df21626f","study_id":"6197b3f67c2b5cd3b6d9596a","session_id":"619be31e9bfd045c936a11ee","condition":"full-information","relevant_dimensions":["pattern","legs"],"bee_group":{"antennae":"X","wings":"X","pattern":"D","legs":"F"},"bonus":0.8200000000000013},{"rt":13442.399999999907,"stimulus":"bees-with-color/bee-B1DF.svg","response":1,"trial_type":"image-button-response","trial_index":23,"time_elapsed":301584,"internal_node_id":"0.0-4.0-0.8","subject_id":"5eb2d3b0d573b507df21626f","study_id":"6197b3f67c2b5cd3b6d9596a","session_id":"619be31e9bfd045c936a11ee","condition":"full-information","relevant_dimensions":["pattern","legs"],"bee_group":{"antennae":"X","wings":"X","pattern":"D","legs":"F"},"action":"avoid","summary":"good-avoid","bonus":0.8200000000000013},{"rt":12873.5,"stimulus":"\n                    <p><b>Action: <em>avoid</em></b></p>\n                    <p>This is the bee that you just saw.</p>\n                    <img src=\"bees-with-color/bee-B1DF.svg\" width=\"200\">\n                    <p><span class=\"greenText\">Good choice!</span>  This bee would have stung you.<br>Your bonus pay is unchanged, and remains at $0.40.</p>\n            ","response":0,"trial_type":"html-button-response","trial_index":24,"time_elapsed":314463,"internal_node_id":"0.0-4.0-1.8","subject_id":"5eb2d3b0d573b507df21626f","study_id":"6197b3f67c2b5cd3b6d9596a","session_id":"619be31e9bfd045c936a11ee","condition":"full-information","relevant_dimensions":["pattern","legs"],"bee_group":{"antennae":"X","wings":"X","pattern":"D","legs":"F"},"bonus":0.8200000000000013},{"rt":9421.200000000186,"stimulus":"bees-with-color/bee-B1SF.svg","response":1,"trial_type":"image-button-response","trial_index":25,"time_elapsed":323888,"internal_node_id":"0.0-4.0-0.9","subject_id":"5eb2d3b0d573b507df21626f","study_id":"6197b3f67c2b5cd3b6d9596a","session_id":"619be31e9bfd045c936a11ee","condition":"full-information","relevant_dimensions":["pattern","legs"],"bee_group":{"antennae":"X","wings":"X","pattern":"D","legs":"F"},"action":"avoid","summary":"bad-avoid","bonus":0.8200000000000013},{"rt":9061,"stimulus":"\n                    <p><b>Action: <em>avoid</em></b></p>\n                    <p>This is the bee that you just saw.</p>\n                    <img src=\"bees-with-color/bee-B1SF.svg\" width=\"200\">\n                    <p><span class=\"redText\">Bad choice,</span> the bee was friendly.<br>Your bonus pay is unchanged, and remains at $0.40.</p>\n            ","response":0,"trial_type":"html-button-response","trial_index":26,"time_elapsed":332952,"internal_node_id":"0.0-4.0-1.9","subject_id":"5eb2d3b0d573b507df21626f","study_id":"6197b3f67c2b5cd3b6d9596a","session_id":"619be31e9bfd045c936a11ee","condition":"full-information","relevant_dimensions":["pattern","legs"],"bee_group":{"antennae":"X","wings":"X","pattern":"D","legs":"F"},"bonus":0.8200000000000013},{"rt":9752.100000000093,"stimulus":"bees-with-color/bee-B2SM.svg","response":0,"trial_type":"image-button-response","trial_index":27,"time_elapsed":342708,"internal_node_id":"0.0-4.0-0.10","subject_id":"5eb2d3b0d573b507df21626f","study_id":"6197b3f67c2b5cd3b6d9596a","session_id":"619be31e9bfd045c936a11ee","condition":"full-information","relevant_dimensions":["pattern","legs"],"bee_group":{"antennae":"X","wings":"X","pattern":"D","legs":"F"},"action":"harvest","summary":"good-harvest","bonus":0.8200000000000013},{"rt":2682.899999999907,"stimulus":"\n                    <p><b>Action: <em>harvest</em></b></p>\n                    <p>This is the bee that you just saw.</p>\n                    <img src=\"bees-with-color/bee-B2SM.svg\" width=\"200\">\n                    <p><span class=\"greenText\"><b>Successful harvest!</b></span><br>Your pay has increased by $0.02. Your bonus pay is now $0.42.</p>\n            ","response":0,"trial_type":"html-button-response","trial_index":28,"time_elapsed":345394,"internal_node_id":"0.0-4.0-1.10","subject_id":"5eb2d3b0d573b507df21626f","study_id":"6197b3f67c2b5cd3b6d9596a","session_id":"619be31e9bfd045c936a11ee","condition":"full-information","relevant_dimensions":["pattern","legs"],"bee_group":{"antennae":"X","wings":"X","pattern":"D","legs":"F"},"bonus":0.8200000000000013},{"rt":6800.600000000093,"stimulus":"bees-with-color/bee-A1SM.svg","response":0,"trial_type":"image-button-response","trial_index":29,"time_elapsed":352198,"internal_node_id":"0.0-4.0-0.11","subject_id":"5eb2d3b0d573b507df21626f","study_id":"6197b3f67c2b5cd3b6d9596a","session_id":"619be31e9bfd045c936a11ee","condition":"full-information","relevant_dimensions":["pattern","legs"],"bee_group":{"antennae":"X","wings":"X","pattern":"D","legs":"F"},"action":"harvest","summary":"good-harvest","bonus":0.8200000000000013},{"rt":1930.6000000000931,"stimulus":"\n                    <p><b>Action: <em>harvest</em></b></p>\n                    <p>This is the bee that you just saw.</p>\n                    <img src=\"bees-with-color/bee-A1SM.svg\" width=\"200\">\n                    <p><span class=\"greenText\"><b>Successful harvest!</b></span><br>Your pay has increased by $0.02. Your bonus pay is now $0.44.</p>\n            ","response":0,"trial_type":"html-button-response","trial_index":30,"time_elapsed":354132,"internal_node_id":"0.0-4.0-1.11","subject_id":"5eb2d3b0d573b507df21626f","study_id":"6197b3f67c2b5cd3b6d9596a","session_id":"619be31e9bfd045c936a11ee","condition":"full-information","relevant_dimensions":["pattern","legs"],"bee_group":{"antennae":"X","wings":"X","pattern":"D","legs":"F"},"bonus":0.8200000000000013},{"rt":8372.299999999814,"stimulus":"bees-with-color/bee-B1DM.svg","response":0,"trial_type":"image-button-response","trial_index":31,"time_elapsed":362508,"internal_node_id":"0.0-4.0-0.12","subject_id":"5eb2d3b0d573b507df21626f","study_id":"6197b3f67c2b5cd3b6d9596a","session_id":"619be31e9bfd045c936a11ee","condition":"full-information","relevant_dimensions":["pattern","legs"],"bee_group":{"antennae":"X","wings":"X","pattern":"D","legs":"F"},"action":"harvest","summary":"good-harvest","bonus":0.8200000000000013},{"rt":8911.30000000028,"stimulus":"\n                    <p><b>Action: <em>harvest</em></b></p>\n                    <p>This is the bee that you just saw.</p>\n                    <img src=\"bees-with-color/bee-B1DM.svg\" width=\"200\">\n                    <p><span class=\"greenText\"><b>Successful harvest!</b></span><br>Your pay has increased by $0.02. Your bonus pay is now $0.46.</p>\n            ","response":0,"trial_type":"html-button-response","trial_index":32,"time_elapsed":371424,"internal_node_id":"0.0-4.0-1.12","subject_id":"5eb2d3b0d573b507df21626f","study_id":"6197b3f67c2b5cd3b6d9596a","session_id":"619be31e9bfd045c936a11ee","condition":"full-information","relevant_dimensions":["pattern","legs"],"bee_group":{"antennae":"X","wings":"X","pattern":"D","legs":"F"},"bonus":0.8200000000000013},{"rt":10158.100000000093,"stimulus":"bees-with-color/bee-A2SM.svg","response":0,"trial_type":"image-button-response","trial_index":33,"time_elapsed":381586,"internal_node_id":"0.0-4.0-0.13","subject_id":"5eb2d3b0d573b507df21626f","study_id":"6197b3f67c2b5cd3b6d9596a","session_id":"619be31e9bfd045c936a11ee","condition":"full-information","relevant_dimensions":["pattern","legs"],"bee_group":{"antennae":"X","wings":"X","pattern":"D","legs":"F"},"action":"harvest","summary":"good-harvest","bonus":0.8200000000000013},{"rt":1705.2999999998137,"stimulus":"\n                    <p><b>Action: <em>harvest</em></b></p>\n                    <p>This is the bee that you just saw.</p>\n                    <img src=\"bees-with-color/bee-A2SM.svg\" width=\"200\">\n                    <p><span class=\"greenText\"><b>Successful harvest!</b></span><br>Your pay has increased by $0.02. Your bonus pay is now $0.48.</p>\n            ","response":0,"trial_type":"html-button-response","trial_index":34,"time_elapsed":383294,"internal_node_id":"0.0-4.0-1.13","subject_id":"5eb2d3b0d573b507df21626f","study_id":"6197b3f67c2b5cd3b6d9596a","session_id":"619be31e9bfd045c936a11ee","condition":"full-information","relevant_dimensions":["pattern","legs"],"bee_group":{"antennae":"X","wings":"X","pattern":"D","legs":"F"},"bonus":0.8200000000000013},{"rt":7726.299999999814,"stimulus":"bees-with-color/bee-B2SF.svg","response":0,"trial_type":"image-button-response","trial_index":35,"time_elapsed":391025,"internal_node_id":"0.0-4.0-0.14","subject_id":"5eb2d3b0d573b507df21626f","study_id":"6197b3f67c2b5cd3b6d9596a","session_id":"619be31e9bfd045c936a11ee","condition":"full-information","relevant_dimensions":["pattern","legs"],"bee_group":{"antennae":"X","wings":"X","pattern":"D","legs":"F"},"action":"harvest","summary":"good-harvest","bonus":0.8200000000000013},{"rt":1667.1000000000931,"stimulus":"\n                    <p><b>Action: <em>harvest</em></b></p>\n                    <p>This is the bee that you just saw.</p>\n                    <img src=\"bees-with-color/bee-B2SF.svg\" width=\"200\">\n                    <p><span class=\"greenText\"><b>Successful harvest!</b></span><br>Your pay has increased by $0.02. Your bonus pay is now $0.50.</p>\n            ","response":0,"trial_type":"html-button-response","trial_index":36,"time_elapsed":392694,"internal_node_id":"0.0-4.0-1.14","subject_id":"5eb2d3b0d573b507df21626f","study_id":"6197b3f67c2b5cd3b6d9596a","session_id":"619be31e9bfd045c936a11ee","condition":"full-information","relevant_dimensions":["pattern","legs"],"bee_group":{"antennae":"X","wings":"X","pattern":"D","legs":"F"},"bonus":0.8200000000000013},{"rt":7348.700000000186,"stimulus":"bees-with-color/bee-A2DF.svg","response":0,"trial_type":"image-button-response","trial_index":37,"time_elapsed":400047,"internal_node_id":"0.0-4.0-0.15","subject_id":"5eb2d3b0d573b507df21626f","study_id":"6197b3f67c2b5cd3b6d9596a","session_id":"619be31e9bfd045c936a11ee","condition":"full-information","relevant_dimensions":["pattern","legs"],"bee_group":{"antennae":"X","wings":"X","pattern":"D","legs":"F"},"action":"harvest","summary":"bad-harvest","bonus":0.8200000000000013},{"rt":6688.100000000093,"stimulus":"\n                    <p><b>Action: <em>harvest</em></b></p>\n                    <p>This is the bee that you just saw.</p>\n                    <img src=\"bees-with-color/bee-A2DF.svg\" width=\"200\">\n                    <p><span class=\"redText\">Bad choice, the bee was angry.</span><br><b>You have been stung!</b><br>Your pay has been decreased by $0.10. Your bonus pay is now $0.40.</p>\n            ","response":0,"trial_type":"html-button-response","trial_index":38,"time_elapsed":406738,"internal_node_id":"0.0-4.0-1.15","subject_id":"5eb2d3b0d573b507df21626f","study_id":"6197b3f67c2b5cd3b6d9596a","session_id":"619be31e9bfd045c936a11ee","condition":"full-information","relevant_dimensions":["pattern","legs"],"bee_group":{"antennae":"X","wings":"X","pattern":"D","legs":"F"},"bonus":0.8200000000000013},{"rt":6594.0999999996275,"stimulus":"bees-with-color/bee-B1SM.svg","response":1,"trial_type":"image-button-response","trial_index":39,"time_elapsed":413336,"internal_node_id":"0.0-4.0-0.16","subject_id":"5eb2d3b0d573b507df21626f","study_id":"6197b3f67c2b5cd3b6d9596a","session_id":"619be31e9bfd045c936a11ee","condition":"full-information","relevant_dimensions":["pattern","legs"],"bee_group":{"antennae":"X","wings":"X","pattern":"D","legs":"F"},"action":"avoid","summary":"bad-avoid","bonus":0.8200000000000013},{"rt":1804.5,"stimulus":"\n                    <p><b>Action: <em>avoid</em></b></p>\n                    <p>This is the bee that you just saw.</p>\n                    <img src=\"bees-with-color/bee-B1SM.svg\" width=\"200\">\n                    <p><span class=\"redText\">Bad choice,</span> the bee was friendly.<br>Your bonus pay is unchanged, and remains at $0.40.</p>\n            ","response":0,"trial_type":"html-button-response","trial_index":40,"time_elapsed":415143,"internal_node_id":"0.0-4.0-1.16","subject_id":"5eb2d3b0d573b507df21626f","study_id":"6197b3f67c2b5cd3b6d9596a","session_id":"619be31e9bfd045c936a11ee","condition":"full-information","relevant_dimensions":["pattern","legs"],"bee_group":{"antennae":"X","wings":"X","pattern":"D","legs":"F"},"bonus":0.8200000000000013},{"rt":7672.799999999814,"stimulus":"bees-with-color/bee-B1SF.svg","response":0,"trial_type":"image-button-response","trial_index":41,"time_elapsed":422820,"internal_node_id":"0.0-4.0-0.17","subject_id":"5eb2d3b0d573b507df21626f","study_id":"6197b3f67c2b5cd3b6d9596a","session_id":"619be31e9bfd045c936a11ee","condition":"full-information","relevant_dimensions":["pattern","legs"],"bee_group":{"antennae":"X","wings":"X","pattern":"D","legs":"F"},"action":"harvest","summary":"good-harvest","bonus":0.8200000000000013},{"rt":1561.6999999997206,"stimulus":"\n                    <p><b>Action: <em>harvest</em></b></p>\n                    <p>This is the bee that you just saw.</p>\n                    <img src=\"bees-with-color/bee-B1SF.svg\" width=\"200\">\n                    <p><span class=\"greenText\"><b>Successful harvest!</b></span><br>Your pay has increased by $0.02. Your bonus pay is now $0.42.</p>\n            ","response":0,"trial_type":"html-button-response","trial_index":42,"time_elapsed":424384,"internal_node_id":"0.0-4.0-1.17","subject_id":"5eb2d3b0d573b507df21626f","study_id":"6197b3f67c2b5cd3b6d9596a","session_id":"619be31e9bfd045c936a11ee","condition":"full-information","relevant_dimensions":["pattern","legs"],"bee_group":{"antennae":"X","wings":"X","pattern":"D","legs":"F"},"bonus":0.8200000000000013},{"rt":5905.299999999814,"stimulus":"bees-with-color/bee-B2DF.svg","response":1,"trial_type":"image-button-response","trial_index":43,"time_elapsed":430294,"internal_node_id":"0.0-4.0-0.18","subject_id":"5eb2d3b0d573b507df21626f","study_id":"6197b3f67c2b5cd3b6d9596a","session_id":"619be31e9bfd045c936a11ee","condition":"full-information","relevant_dimensions":["pattern","legs"],"bee_group":{"antennae":"X","wings":"X","pattern":"D","legs":"F"},"action":"avoid","summary":"good-avoid","bonus":0.8200000000000013},{"rt":2324,"stimulus":"\n                    <p><b>Action: <em>avoid</em></b></p>\n                    <p>This is the bee that you just saw.</p>\n                    <img src=\"bees-with-color/bee-B2DF.svg\" width=\"200\">\n                    <p><span class=\"greenText\">Good choice!</span>  This bee would have stung you.<br>Your bonus pay is unchanged, and remains at $0.42.</p>\n            ","response":0,"trial_type":"html-button-response","trial_index":44,"time_elapsed":432621,"internal_node_id":"0.0-4.0-1.18","subject_id":"5eb2d3b0d573b507df21626f","study_id":"6197b3f67c2b5cd3b6d9596a","session_id":"619be31e9bfd045c936a11ee","condition":"full-information","relevant_dimensions":["pattern","legs"],"bee_group":{"antennae":"X","wings":"X","pattern":"D","legs":"F"},"bonus":0.8200000000000013},{"rt":6570,"stimulus":"bees-with-color/bee-A1SF.svg","response":0,"trial_type":"image-button-response","trial_index":45,"time_elapsed":439195,"internal_node_id":"0.0-4.0-0.19","subject_id":"5eb2d3b0d573b507df21626f","study_id":"6197b3f67c2b5cd3b6d9596a","session_id":"619be31e9bfd045c936a11ee","condition":"full-information","relevant_dimensions":["pattern","legs"],"bee_group":{"antennae":"X","wings":"X","pattern":"D","legs":"F"},"action":"harvest","summary":"good-harvest","bonus":0.8200000000000013},{"rt":1619.1000000000931,"stimulus":"\n                    <p><b>Action: <em>harvest</em></b></p>\n                    <p>This is the bee that you just saw.</p>\n                    <img src=\"bees-with-color/bee-A1SF.svg\" width=\"200\">\n                    <p><span class=\"greenText\"><b>Successful harvest!</b></span><br>Your pay has increased by $0.02. Your bonus pay is now $0.44.</p>\n            ","response":0,"trial_type":"html-button-response","trial_index":46,"time_elapsed":440816,"internal_node_id":"0.0-4.0-1.19","subject_id":"5eb2d3b0d573b507df21626f","study_id":"6197b3f67c2b5cd3b6d9596a","session_id":"619be31e9bfd045c936a11ee","condition":"full-information","relevant_dimensions":["pattern","legs"],"bee_group":{"antennae":"X","wings":"X","pattern":"D","legs":"F"},"bonus":0.8200000000000013},{"rt":7269.5,"stimulus":"bees-with-color/bee-A2SM.svg","response":0,"trial_type":"image-button-response","trial_index":47,"time_elapsed":448090,"internal_node_id":"0.0-4.0-0.20","subject_id":"5eb2d3b0d573b507df21626f","study_id":"6197b3f67c2b5cd3b6d9596a","session_id":"619be31e9bfd045c936a11ee","condition":"full-information","relevant_dimensions":["pattern","legs"],"bee_group":{"antennae":"X","wings":"X","pattern":"D","legs":"F"},"action":"harvest","summary":"good-harvest","bonus":0.8200000000000013},{"rt":1876.8000000002794,"stimulus":"\n                    <p><b>Action: <em>harvest</em></b></p>\n                    <p>This is the bee that you just saw.</p>\n                    <img src=\"bees-with-color/bee-A2SM.svg\" width=\"200\">\n                    <p><span class=\"greenText\"><b>Successful harvest!</b></span><br>Your pay has increased by $0.02. Your bonus pay is now $0.46.</p>\n            ","response":0,"trial_type":"html-button-response","trial_index":48,"time_elapsed":449969,"internal_node_id":"0.0-4.0-1.20","subject_id":"5eb2d3b0d573b507df21626f","study_id":"6197b3f67c2b5cd3b6d9596a","session_id":"619be31e9bfd045c936a11ee","condition":"full-information","relevant_dimensions":["pattern","legs"],"bee_group":{"antennae":"X","wings":"X","pattern":"D","legs":"F"},"bonus":0.8200000000000013},{"rt":8998,"stimulus":"bees-with-color/bee-A1DF.svg","response":1,"trial_type":"image-button-response","trial_index":49,"time_elapsed":458971,"internal_node_id":"0.0-4.0-0.21","subject_id":"5eb2d3b0d573b507df21626f","study_id":"6197b3f67c2b5cd3b6d9596a","session_id":"619be31e9bfd045c936a11ee","condition":"full-information","relevant_dimensions":["pattern","legs"],"bee_group":{"antennae":"X","wings":"X","pattern":"D","legs":"F"},"action":"avoid","summary":"good-avoid","bonus":0.8200000000000013},{"rt":2579.899999999907,"stimulus":"\n                    <p><b>Action: <em>avoid</em></b></p>\n                    <p>This is the bee that you just saw.</p>\n                    <img src=\"bees-with-color/bee-A1DF.svg\" width=\"200\">\n                    <p><span class=\"greenText\">Good choice!</span>  This bee would have stung you.<br>Your bonus pay is unchanged, and remains at $0.46.</p>\n            ","response":0,"trial_type":"html-button-response","trial_index":50,"time_elapsed":461554,"internal_node_id":"0.0-4.0-1.21","subject_id":"5eb2d3b0d573b507df21626f","study_id":"6197b3f67c2b5cd3b6d9596a","session_id":"619be31e9bfd045c936a11ee","condition":"full-information","relevant_dimensions":["pattern","legs"],"bee_group":{"antennae":"X","wings":"X","pattern":"D","legs":"F"},"bonus":0.8200000000000013},{"rt":5713.0999999996275,"stimulus":"bees-with-color/bee-A1DM.svg","response":0,"trial_type":"image-button-response","trial_index":51,"time_elapsed":467271,"internal_node_id":"0.0-4.0-0.22","subject_id":"5eb2d3b0d573b507df21626f","study_id":"6197b3f67c2b5cd3b6d9596a","session_id":"619be31e9bfd045c936a11ee","condition":"full-information","relevant_dimensions":["pattern","legs"],"bee_group":{"antennae":"X","wings":"X","pattern":"D","legs":"F"},"action":"harvest","summary":"good-harvest","bonus":0.8200000000000013},{"rt":1773.8999999999069,"stimulus":"\n                    <p><b>Action: <em>harvest</em></b></p>\n                    <p>This is the bee that you just saw.</p>\n                    <img src=\"bees-with-color/bee-A1DM.svg\" width=\"200\">\n                    <p><span class=\"greenText\"><b>Successful harvest!</b></span><br>Your pay has increased by $0.02. Your bonus pay is now $0.48.</p>\n            ","response":0,"trial_type":"html-button-response","trial_index":52,"time_elapsed":469048,"internal_node_id":"0.0-4.0-1.22","subject_id":"5eb2d3b0d573b507df21626f","study_id":"6197b3f67c2b5cd3b6d9596a","session_id":"619be31e9bfd045c936a11ee","condition":"full-information","relevant_dimensions":["pattern","legs"],"bee_group":{"antennae":"X","wings":"X","pattern":"D","legs":"F"},"bonus":0.8200000000000013},{"rt":10489.899999999907,"stimulus":"bees-with-color/bee-B2SM.svg","response":0,"trial_type":"image-button-response","trial_index":53,"time_elapsed":479541,"internal_node_id":"0.0-4.0-0.23","subject_id":"5eb2d3b0d573b507df21626f","study_id":"6197b3f67c2b5cd3b6d9596a","session_id":"619be31e9bfd045c936a11ee","condition":"full-information","relevant_dimensions":["pattern","legs"],"bee_group":{"antennae":"X","wings":"X","pattern":"D","legs":"F"},"action":"harvest","summary":"good-harvest","bonus":0.8200000000000013},{"rt":1772.7999999998137,"stimulus":"\n                    <p><b>Action: <em>harvest</em></b></p>\n                    <p>This is the bee that you just saw.</p>\n                    <img src=\"bees-with-color/bee-B2SM.svg\" width=\"200\">\n                    <p><span class=\"greenText\"><b>Successful harvest!</b></span><br>Your pay has increased by $0.02. Your bonus pay is now $0.50.</p>\n            ","response":0,"trial_type":"html-button-response","trial_index":54,"time_elapsed":481316,"internal_node_id":"0.0-4.0-1.23","subject_id":"5eb2d3b0d573b507df21626f","study_id":"6197b3f67c2b5cd3b6d9596a","session_id":"619be31e9bfd045c936a11ee","condition":"full-information","relevant_dimensions":["pattern","legs"],"bee_group":{"antennae":"X","wings":"X","pattern":"D","legs":"F"},"bonus":0.8200000000000013},{"rt":11279.30000000028,"stimulus":"bees-with-color/bee-A2DF.svg","response":1,"trial_type":"image-button-response","trial_index":55,"time_elapsed":492601,"internal_node_id":"0.0-4.0-0.24","subject_id":"5eb2d3b0d573b507df21626f","study_id":"6197b3f67c2b5cd3b6d9596a","session_id":"619be31e9bfd045c936a11ee","condition":"full-information","relevant_dimensions":["pattern","legs"],"bee_group":{"antennae":"X","wings":"X","pattern":"D","legs":"F"},"action":"avoid","summary":"good-avoid","bonus":0.8200000000000013},{"rt":2550,"stimulus":"\n                    <p><b>Action: <em>avoid</em></b></p>\n                    <p>This is the bee that you just saw.</p>\n                    <img src=\"bees-with-color/bee-A2DF.svg\" width=\"200\">\n                    <p><span class=\"greenText\">Good choice!</span>  This bee would have stung you.<br>Your bonus pay is unchanged, and remains at $0.50.</p>\n            ","response":0,"trial_type":"html-button-response","trial_index":56,"time_elapsed":495154,"internal_node_id":"0.0-4.0-1.24","subject_id":"5eb2d3b0d573b507df21626f","study_id":"6197b3f67c2b5cd3b6d9596a","session_id":"619be31e9bfd045c936a11ee","condition":"full-information","relevant_dimensions":["pattern","legs"],"bee_group":{"antennae":"X","wings":"X","pattern":"D","legs":"F"},"bonus":0.8200000000000013},{"rt":5287.600000000093,"stimulus":"bees-with-color/bee-A2DM.svg","response":0,"trial_type":"image-button-response","trial_index":57,"time_elapsed":500446,"internal_node_id":"0.0-4.0-0.25","subject_id":"5eb2d3b0d573b507df21626f","study_id":"6197b3f67c2b5cd3b6d9596a","session_id":"619be31e9bfd045c936a11ee","condition":"full-information","relevant_dimensions":["pattern","legs"],"bee_group":{"antennae":"X","wings":"X","pattern":"D","legs":"F"},"action":"harvest","summary":"good-harvest","bonus":0.8200000000000013},{"rt":2436.2999999998137,"stimulus":"\n                    <p><b>Action: <em>harvest</em></b></p>\n                    <p>This is the bee that you just saw.</p>\n                    <img src=\"bees-with-color/bee-A2DM.svg\" width=\"200\">\n                    <p><span class=\"greenText\"><b>Successful harvest!</b></span><br>Your pay has increased by $0.02. Your bonus pay is now $0.52.</p>\n            ","response":0,"trial_type":"html-button-response","trial_index":58,"time_elapsed":502885,"internal_node_id":"0.0-4.0-1.25","subject_id":"5eb2d3b0d573b507df21626f","study_id":"6197b3f67c2b5cd3b6d9596a","session_id":"619be31e9bfd045c936a11ee","condition":"full-information","relevant_dimensions":["pattern","legs"],"bee_group":{"antennae":"X","wings":"X","pattern":"D","legs":"F"},"bonus":0.8200000000000013},{"rt":17236.5,"stimulus":"bees-with-color/bee-B1DM.svg","response":0,"trial_type":"image-button-response","trial_index":59,"time_elapsed":520125,"internal_node_id":"0.0-4.0-0.26","subject_id":"5eb2d3b0d573b507df21626f","study_id":"6197b3f67c2b5cd3b6d9596a","session_id":"619be31e9bfd045c936a11ee","condition":"full-information","relevant_dimensions":["pattern","legs"],"bee_group":{"antennae":"X","wings":"X","pattern":"D","legs":"F"},"action":"harvest","summary":"good-harvest","bonus":0.8200000000000013},{"rt":1790.6000000000931,"stimulus":"\n                    <p><b>Action: <em>harvest</em></b></p>\n                    <p>This is the bee that you just saw.</p>\n                    <img src=\"bees-with-color/bee-B1DM.svg\" width=\"200\">\n                    <p><span class=\"greenText\"><b>Successful harvest!</b></span><br>Your pay has increased by $0.02. Your bonus pay is now $0.54.</p>\n            ","response":0,"trial_type":"html-button-response","trial_index":60,"time_elapsed":521919,"internal_node_id":"0.0-4.0-1.26","subject_id":"5eb2d3b0d573b507df21626f","study_id":"6197b3f67c2b5cd3b6d9596a","session_id":"619be31e9bfd045c936a11ee","condition":"full-information","relevant_dimensions":["pattern","legs"],"bee_group":{"antennae":"X","wings":"X","pattern":"D","legs":"F"},"bonus":0.8200000000000013},{"rt":7941.199999999721,"stimulus":"bees-with-color/bee-B2DM.svg","response":1,"trial_type":"image-button-response","trial_index":61,"time_elapsed":529864,"internal_node_id":"0.0-4.0-0.27","subject_id":"5eb2d3b0d573b507df21626f","study_id":"6197b3f67c2b5cd3b6d9596a","session_id":"619be31e9bfd045c936a11ee","condition":"full-information","relevant_dimensions":["pattern","legs"],"bee_group":{"antennae":"X","wings":"X","pattern":"D","legs":"F"},"action":"avoid","summary":"bad-avoid","bonus":0.8200000000000013},{"rt":2845.399999999907,"stimulus":"\n                    <p><b>Action: <em>avoid</em></b></p>\n                    <p>This is the bee that you just saw.</p>\n                    <img src=\"bees-with-color/bee-B2DM.svg\" width=\"200\">\n                    <p><span class=\"redText\">Bad choice,</span> the bee was friendly.<br>Your bonus pay is unchanged, and remains at $0.54.</p>\n            ","response":0,"trial_type":"html-button-response","trial_index":62,"time_elapsed":532712,"internal_node_id":"0.0-4.0-1.27","subject_id":"5eb2d3b0d573b507df21626f","study_id":"6197b3f67c2b5cd3b6d9596a","session_id":"619be31e9bfd045c936a11ee","condition":"full-information","relevant_dimensions":["pattern","legs"],"bee_group":{"antennae":"X","wings":"X","pattern":"D","legs":"F"},"bonus":0.8200000000000013},{"rt":10167.899999999907,"stimulus":"bees-with-color/bee-B2SF.svg","response":0,"trial_type":"image-button-response","trial_index":63,"time_elapsed":542884,"internal_node_id":"0.0-4.0-0.28","subject_id":"5eb2d3b0d573b507df21626f","study_id":"6197b3f67c2b5cd3b6d9596a","session_id":"619be31e9bfd045c936a11ee","condition":"full-information","relevant_dimensions":["pattern","legs"],"bee_group":{"antennae":"X","wings":"X","pattern":"D","legs":"F"},"action":"harvest","summary":"good-harvest","bonus":0.8200000000000013},{"rt":8717.700000000186,"stimulus":"\n                    <p><b>Action: <em>harvest</em></b></p>\n                    <p>This is the bee that you just saw.</p>\n                    <img src=\"bees-with-color/bee-B2SF.svg\" width=\"200\">\n                    <p><span class=\"greenText\"><b>Successful harvest!</b></span><br>Your pay has increased by $0.02. Your bonus pay is now $0.56.</p>\n            ","response":0,"trial_type":"html-button-response","trial_index":64,"time_elapsed":551607,"internal_node_id":"0.0-4.0-1.28","subject_id":"5eb2d3b0d573b507df21626f","study_id":"6197b3f67c2b5cd3b6d9596a","session_id":"619be31e9bfd045c936a11ee","condition":"full-information","relevant_dimensions":["pattern","legs"],"bee_group":{"antennae":"X","wings":"X","pattern":"D","legs":"F"},"bonus":0.8200000000000013},{"rt":10871.399999999907,"stimulus":"bees-with-color/bee-B1DF.svg","response":0,"trial_type":"image-button-response","trial_index":65,"time_elapsed":562482,"internal_node_id":"0.0-4.0-0.29","subject_id":"5eb2d3b0d573b507df21626f","study_id":"6197b3f67c2b5cd3b6d9596a","session_id":"619be31e9bfd045c936a11ee","condition":"full-information","relevant_dimensions":["pattern","legs"],"bee_group":{"antennae":"X","wings":"X","pattern":"D","legs":"F"},"action":"harvest","summary":"bad-harvest","bonus":0.8200000000000013},{"rt":2224.399999999907,"stimulus":"\n                    <p><b>Action: <em>harvest</em></b></p>\n                    <p>This is the bee that you just saw.</p>\n                    <img src=\"bees-with-color/bee-B1DF.svg\" width=\"200\">\n                    <p><span class=\"redText\">Bad choice, the bee was angry.</span><br><b>You have been stung!</b><br>Your pay has been decreased by $0.10. Your bonus pay is now $0.46.</p>\n            ","response":0,"trial_type":"html-button-response","trial_index":66,"time_elapsed":564710,"internal_node_id":"0.0-4.0-1.29","subject_id":"5eb2d3b0d573b507df21626f","study_id":"6197b3f67c2b5cd3b6d9596a","session_id":"619be31e9bfd045c936a11ee","condition":"full-information","relevant_dimensions":["pattern","legs"],"bee_group":{"antennae":"X","wings":"X","pattern":"D","legs":"F"},"bonus":0.8200000000000013},{"rt":9748.200000000186,"stimulus":"bees-with-color/bee-A2SF.svg","response":0,"trial_type":"image-button-response","trial_index":67,"time_elapsed":574462,"internal_node_id":"0.0-4.0-0.30","subject_id":"5eb2d3b0d573b507df21626f","study_id":"6197b3f67c2b5cd3b6d9596a","session_id":"619be31e9bfd045c936a11ee","condition":"full-information","relevant_dimensions":["pattern","legs"],"bee_group":{"antennae":"X","wings":"X","pattern":"D","legs":"F"},"action":"harvest","summary":"good-harvest","bonus":0.8200000000000013},{"rt":1693.6999999997206,"stimulus":"\n                    <p><b>Action: <em>harvest</em></b></p>\n                    <p>This is the bee that you just saw.</p>\n                    <img src=\"bees-with-color/bee-A2SF.svg\" width=\"200\">\n                    <p><span class=\"greenText\"><b>Successful harvest!</b></span><br>Your pay has increased by $0.02. Your bonus pay is now $0.48.</p>\n            ","response":0,"trial_type":"html-button-response","trial_index":68,"time_elapsed":576158,"internal_node_id":"0.0-4.0-1.30","subject_id":"5eb2d3b0d573b507df21626f","study_id":"6197b3f67c2b5cd3b6d9596a","session_id":"619be31e9bfd045c936a11ee","condition":"full-information","relevant_dimensions":["pattern","legs"],"bee_group":{"antennae":"X","wings":"X","pattern":"D","legs":"F"},"bonus":0.8200000000000013},{"rt":12067.799999999814,"stimulus":"bees-with-color/bee-A1SM.svg","response":0,"trial_type":"image-button-response","trial_index":69,"time_elapsed":588230,"internal_node_id":"0.0-4.0-0.31","subject_id":"5eb2d3b0d573b507df21626f","study_id":"6197b3f67c2b5cd3b6d9596a","session_id":"619be31e9bfd045c936a11ee","condition":"full-information","relevant_dimensions":["pattern","legs"],"bee_group":{"antennae":"X","wings":"X","pattern":"D","legs":"F"},"action":"harvest","summary":"good-harvest","bonus":0.8200000000000013},{"rt":1653.8999999999069,"stimulus":"\n                    <p><b>Action: <em>harvest</em></b></p>\n                    <p>This is the bee that you just saw.</p>\n                    <img src=\"bees-with-color/bee-A1SM.svg\" width=\"200\">\n                    <p><span class=\"greenText\"><b>Successful harvest!</b></span><br>Your pay has increased by $0.02. Your bonus pay is now $0.50.</p>\n            ","response":0,"trial_type":"html-button-response","trial_index":70,"time_elapsed":589887,"internal_node_id":"0.0-4.0-1.31","subject_id":"5eb2d3b0d573b507df21626f","study_id":"6197b3f67c2b5cd3b6d9596a","session_id":"619be31e9bfd045c936a11ee","condition":"full-information","relevant_dimensions":["pattern","legs"],"bee_group":{"antennae":"X","wings":"X","pattern":"D","legs":"F"},"bonus":0.8200000000000013},{"rt":6324.399999999907,"stimulus":"bees-with-color/bee-A2DM.svg","response":0,"trial_type":"image-button-response","trial_index":71,"time_elapsed":596216,"internal_node_id":"0.0-4.0-0.32","subject_id":"5eb2d3b0d573b507df21626f","study_id":"6197b3f67c2b5cd3b6d9596a","session_id":"619be31e9bfd045c936a11ee","condition":"full-information","relevant_dimensions":["pattern","legs"],"bee_group":{"antennae":"X","wings":"X","pattern":"D","legs":"F"},"action":"harvest","summary":"good-harvest","bonus":0.8200000000000013},{"rt":1273.5999999996275,"stimulus":"\n                    <p><b>Action: <em>harvest</em></b></p>\n                    <p>This is the bee that you just saw.</p>\n                    <img src=\"bees-with-color/bee-A2DM.svg\" width=\"200\">\n                    <p><span class=\"greenText\"><b>Successful harvest!</b></span><br>Your pay has increased by $0.02. Your bonus pay is now $0.52.</p>\n            ","response":0,"trial_type":"html-button-response","trial_index":72,"time_elapsed":597492,"internal_node_id":"0.0-4.0-1.32","subject_id":"5eb2d3b0d573b507df21626f","study_id":"6197b3f67c2b5cd3b6d9596a","session_id":"619be31e9bfd045c936a11ee","condition":"full-information","relevant_dimensions":["pattern","legs"],"bee_group":{"antennae":"X","wings":"X","pattern":"D","legs":"F"},"bonus":0.8200000000000013},{"rt":5322.700000000186,"stimulus":"bees-with-color/bee-A2SF.svg","response":0,"trial_type":"image-button-response","trial_index":73,"time_elapsed":602818,"internal_node_id":"0.0-4.0-0.33","subject_id":"5eb2d3b0d573b507df21626f","study_id":"6197b3f67c2b5cd3b6d9596a","session_id":"619be31e9bfd045c936a11ee","condition":"full-information","relevant_dimensions":["pattern","legs"],"bee_group":{"antennae":"X","wings":"X","pattern":"D","legs":"F"},"action":"harvest","summary":"good-harvest","bonus":0.8200000000000013},{"rt":1496.5,"stimulus":"\n                    <p><b>Action: <em>harvest</em></b></p>\n                    <p>This is the bee that you just saw.</p>\n                    <img src=\"bees-with-color/bee-A2SF.svg\" width=\"200\">\n                    <p><span class=\"greenText\"><b>Successful harvest!</b></span><br>Your pay has increased by $0.02. Your bonus pay is now $0.54.</p>\n            ","response":0,"trial_type":"html-button-response","trial_index":74,"time_elapsed":604318,"internal_node_id":"0.0-4.0-1.33","subject_id":"5eb2d3b0d573b507df21626f","study_id":"6197b3f67c2b5cd3b6d9596a","session_id":"619be31e9bfd045c936a11ee","condition":"full-information","relevant_dimensions":["pattern","legs"],"bee_group":{"antennae":"X","wings":"X","pattern":"D","legs":"F"},"bonus":0.8200000000000013},{"rt":13622.899999999907,"stimulus":"bees-with-color/bee-A1SM.svg","response":1,"trial_type":"image-button-response","trial_index":75,"time_elapsed":617946,"internal_node_id":"0.0-4.0-0.34","subject_id":"5eb2d3b0d573b507df21626f","study_id":"6197b3f67c2b5cd3b6d9596a","session_id":"619be31e9bfd045c936a11ee","condition":"full-information","relevant_dimensions":["pattern","legs"],"bee_group":{"antennae":"X","wings":"X","pattern":"D","legs":"F"},"action":"avoid","summary":"bad-avoid","bonus":0.8200000000000013},{"rt":10206.30000000028,"stimulus":"\n                    <p><b>Action: <em>avoid</em></b></p>\n                    <p>This is the bee that you just saw.</p>\n                    <img src=\"bees-with-color/bee-A1SM.svg\" width=\"200\">\n                    <p><span class=\"redText\">Bad choice,</span> the bee was friendly.<br>Your bonus pay is unchanged, and remains at $0.54.</p>\n            ","response":0,"trial_type":"html-button-response","trial_index":76,"time_elapsed":628155,"internal_node_id":"0.0-4.0-1.34","subject_id":"5eb2d3b0d573b507df21626f","study_id":"6197b3f67c2b5cd3b6d9596a","session_id":"619be31e9bfd045c936a11ee","condition":"full-information","relevant_dimensions":["pattern","legs"],"bee_group":{"antennae":"X","wings":"X","pattern":"D","legs":"F"},"bonus":0.8200000000000013},{"rt":23719.899999999907,"stimulus":"bees-with-color/bee-A2DF.svg","response":0,"trial_type":"image-button-response","trial_index":77,"time_elapsed":651879,"internal_node_id":"0.0-4.0-0.35","subject_id":"5eb2d3b0d573b507df21626f","study_id":"6197b3f67c2b5cd3b6d9596a","session_id":"619be31e9bfd045c936a11ee","condition":"full-information","relevant_dimensions":["pattern","legs"],"bee_group":{"antennae":"X","wings":"X","pattern":"D","legs":"F"},"action":"harvest","summary":"bad-harvest","bonus":0.8200000000000013},{"rt":2197.2000000001863,"stimulus":"\n                    <p><b>Action: <em>harvest</em></b></p>\n                    <p>This is the bee that you just saw.</p>\n                    <img src=\"bees-with-color/bee-A2DF.svg\" width=\"200\">\n                    <p><span class=\"redText\">Bad choice, the bee was angry.</span><br><b>You have been stung!</b><br>Your pay has been decreased by $0.10. Your bonus pay is now $0.44.</p>\n            ","response":0,"trial_type":"html-button-response","trial_index":78,"time_elapsed":654079,"internal_node_id":"0.0-4.0-1.35","subject_id":"5eb2d3b0d573b507df21626f","study_id":"6197b3f67c2b5cd3b6d9596a","session_id":"619be31e9bfd045c936a11ee","condition":"full-information","relevant_dimensions":["pattern","legs"],"bee_group":{"antennae":"X","wings":"X","pattern":"D","legs":"F"},"bonus":0.8200000000000013},{"rt":9570.700000000186,"stimulus":"bees-with-color/bee-B2SF.svg","response":0,"trial_type":"image-button-response","trial_index":79,"time_elapsed":663653,"internal_node_id":"0.0-4.0-0.36","subject_id":"5eb2d3b0d573b507df21626f","study_id":"6197b3f67c2b5cd3b6d9596a","session_id":"619be31e9bfd045c936a11ee","condition":"full-information","relevant_dimensions":["pattern","legs"],"bee_group":{"antennae":"X","wings":"X","pattern":"D","legs":"F"},"action":"harvest","summary":"good-harvest","bonus":0.8200000000000013},{"rt":2836.100000000093,"stimulus":"\n                    <p><b>Action: <em>harvest</em></b></p>\n                    <p>This is the bee that you just saw.</p>\n                    <img src=\"bees-with-color/bee-B2SF.svg\" width=\"200\">\n                    <p><span class=\"greenText\"><b>Successful harvest!</b></span><br>Your pay has increased by $0.02. Your bonus pay is now $0.46.</p>\n            ","response":0,"trial_type":"html-button-response","trial_index":80,"time_elapsed":666492,"internal_node_id":"0.0-4.0-1.36","subject_id":"5eb2d3b0d573b507df21626f","study_id":"6197b3f67c2b5cd3b6d9596a","session_id":"619be31e9bfd045c936a11ee","condition":"full-information","relevant_dimensions":["pattern","legs"],"bee_group":{"antennae":"X","wings":"X","pattern":"D","legs":"F"},"bonus":0.8200000000000013},{"rt":11287.299999999814,"stimulus":"bees-with-color/bee-A1DM.svg","response":0,"trial_type":"image-button-response","trial_index":81,"time_elapsed":677783,"internal_node_id":"0.0-4.0-0.37","subject_id":"5eb2d3b0d573b507df21626f","study_id":"6197b3f67c2b5cd3b6d9596a","session_id":"619be31e9bfd045c936a11ee","condition":"full-information","relevant_dimensions":["pattern","legs"],"bee_group":{"antennae":"X","wings":"X","pattern":"D","legs":"F"},"action":"harvest","summary":"good-harvest","bonus":0.8200000000000013},{"rt":1954.1999999997206,"stimulus":"\n                    <p><b>Action: <em>harvest</em></b></p>\n                    <p>This is the bee that you just saw.</p>\n                    <img src=\"bees-with-color/bee-A1DM.svg\" width=\"200\">\n                    <p><span class=\"greenText\"><b>Successful harvest!</b></span><br>Your pay has increased by $0.02. Your bonus pay is now $0.48.</p>\n            ","response":0,"trial_type":"html-button-response","trial_index":82,"time_elapsed":679740,"internal_node_id":"0.0-4.0-1.37","subject_id":"5eb2d3b0d573b507df21626f","study_id":"6197b3f67c2b5cd3b6d9596a","session_id":"619be31e9bfd045c936a11ee","condition":"full-information","relevant_dimensions":["pattern","legs"],"bee_group":{"antennae":"X","wings":"X","pattern":"D","legs":"F"},"bonus":0.8200000000000013},{"rt":5248.899999999907,"stimulus":"bees-with-color/bee-B2DM.svg","response":0,"trial_type":"image-button-response","trial_index":83,"time_elapsed":684992,"internal_node_id":"0.0-4.0-0.38","subject_id":"5eb2d3b0d573b507df21626f","study_id":"6197b3f67c2b5cd3b6d9596a","session_id":"619be31e9bfd045c936a11ee","condition":"full-information","relevant_dimensions":["pattern","legs"],"bee_group":{"antennae":"X","wings":"X","pattern":"D","legs":"F"},"action":"harvest","summary":"good-harvest","bonus":0.8200000000000013},{"rt":1340.4000000003725,"stimulus":"\n                    <p><b>Action: <em>harvest</em></b></p>\n                    <p>This is the bee that you just saw.</p>\n                    <img src=\"bees-with-color/bee-B2DM.svg\" width=\"200\">\n                    <p><span class=\"greenText\"><b>Successful harvest!</b></span><br>Your pay has increased by $0.02. Your bonus pay is now $0.50.</p>\n            ","response":0,"trial_type":"html-button-response","trial_index":84,"time_elapsed":686335,"internal_node_id":"0.0-4.0-1.38","subject_id":"5eb2d3b0d573b507df21626f","study_id":"6197b3f67c2b5cd3b6d9596a","session_id":"619be31e9bfd045c936a11ee","condition":"full-information","relevant_dimensions":["pattern","legs"],"bee_group":{"antennae":"X","wings":"X","pattern":"D","legs":"F"},"bonus":0.8200000000000013},{"rt":10449.399999999907,"stimulus":"bees-with-color/bee-A1DF.svg","response":1,"trial_type":"image-button-response","trial_index":85,"time_elapsed":696788,"internal_node_id":"0.0-4.0-0.39","subject_id":"5eb2d3b0d573b507df21626f","study_id":"6197b3f67c2b5cd3b6d9596a","session_id":"619be31e9bfd045c936a11ee","condition":"full-information","relevant_dimensions":["pattern","legs"],"bee_group":{"antennae":"X","wings":"X","pattern":"D","legs":"F"},"action":"avoid","summary":"good-avoid","bonus":0.8200000000000013},{"rt":14744.5,"stimulus":"\n                    <p><b>Action: <em>avoid</em></b></p>\n                    <p>This is the bee that you just saw.</p>\n                    <img src=\"bees-with-color/bee-A1DF.svg\" width=\"200\">\n                    <p><span class=\"greenText\">Good choice!</span>  This bee would have stung you.<br>Your bonus pay is unchanged, and remains at $0.50.</p>\n            ","response":0,"trial_type":"html-button-response","trial_index":86,"time_elapsed":711536,"internal_node_id":"0.0-4.0-1.39","subject_id":"5eb2d3b0d573b507df21626f","study_id":"6197b3f67c2b5cd3b6d9596a","session_id":"619be31e9bfd045c936a11ee","condition":"full-information","relevant_dimensions":["pattern","legs"],"bee_group":{"antennae":"X","wings":"X","pattern":"D","legs":"F"},"bonus":0.8200000000000013},{"rt":10731.5,"stimulus":"bees-with-color/bee-B2DF.svg","response":0,"trial_type":"image-button-response","trial_index":87,"time_elapsed":722271,"internal_node_id":"0.0-4.0-0.40","subject_id":"5eb2d3b0d573b507df21626f","study_id":"6197b3f67c2b5cd3b6d9596a","session_id":"619be31e9bfd045c936a11ee","condition":"full-information","relevant_dimensions":["pattern","legs"],"bee_group":{"antennae":"X","wings":"X","pattern":"D","legs":"F"},"action":"harvest","summary":"bad-harvest","bonus":0.8200000000000013},{"rt":6379.300000000279,"stimulus":"\n                    <p><b>Action: <em>harvest</em></b></p>\n                    <p>This is the bee that you just saw.</p>\n                    <img src=\"bees-with-color/bee-B2DF.svg\" width=\"200\">\n                    <p><span class=\"redText\">Bad choice, the bee was angry.</span><br><b>You have been stung!</b><br>Your pay has been decreased by $0.10. Your bonus pay is now $0.40.</p>\n            ","response":0,"trial_type":"html-button-response","trial_index":88,"time_elapsed":728653,"internal_node_id":"0.0-4.0-1.40","subject_id":"5eb2d3b0d573b507df21626f","study_id":"6197b3f67c2b5cd3b6d9596a","session_id":"619be31e9bfd045c936a11ee","condition":"full-information","relevant_dimensions":["pattern","legs"],"bee_group":{"antennae":"X","wings":"X","pattern":"D","legs":"F"},"bonus":0.8200000000000013},{"rt":14517.19999999972,"stimulus":"bees-with-color/bee-A1SF.svg","response":0,"trial_type":"image-button-response","trial_index":89,"time_elapsed":743175,"internal_node_id":"0.0-4.0-0.41","subject_id":"5eb2d3b0d573b507df21626f","study_id":"6197b3f67c2b5cd3b6d9596a","session_id":"619be31e9bfd045c936a11ee","condition":"full-information","relevant_dimensions":["pattern","legs"],"bee_group":{"antennae":"X","wings":"X","pattern":"D","legs":"F"},"action":"harvest","summary":"good-harvest","bonus":0.8200000000000013},{"rt":1466.3000000002794,"stimulus":"\n                    <p><b>Action: <em>harvest</em></b></p>\n                    <p>This is the bee that you just saw.</p>\n                    <img src=\"bees-with-color/bee-A1SF.svg\" width=\"200\">\n                    <p><span class=\"greenText\"><b>Successful harvest!</b></span><br>Your pay has increased by $0.02. Your bonus pay is now $0.42.</p>\n            ","response":0,"trial_type":"html-button-response","trial_index":90,"time_elapsed":744644,"internal_node_id":"0.0-4.0-1.41","subject_id":"5eb2d3b0d573b507df21626f","study_id":"6197b3f67c2b5cd3b6d9596a","session_id":"619be31e9bfd045c936a11ee","condition":"full-information","relevant_dimensions":["pattern","legs"],"bee_group":{"antennae":"X","wings":"X","pattern":"D","legs":"F"},"bonus":0.8200000000000013},{"rt":7262.699999999721,"stimulus":"bees-with-color/bee-B1SF.svg","response":0,"trial_type":"image-button-response","trial_index":91,"time_elapsed":751910,"internal_node_id":"0.0-4.0-0.42","subject_id":"5eb2d3b0d573b507df21626f","study_id":"6197b3f67c2b5cd3b6d9596a","session_id":"619be31e9bfd045c936a11ee","condition":"full-information","relevant_dimensions":["pattern","legs"],"bee_group":{"antennae":"X","wings":"X","pattern":"D","legs":"F"},"action":"harvest","summary":"good-harvest","bonus":0.8200000000000013},{"rt":1422.5,"stimulus":"\n                    <p><b>Action: <em>harvest</em></b></p>\n                    <p>This is the bee that you just saw.</p>\n                    <img src=\"bees-with-color/bee-B1SF.svg\" width=\"200\">\n                    <p><span class=\"greenText\"><b>Successful harvest!</b></span><br>Your pay has increased by $0.02. Your bonus pay is now $0.44.</p>\n            ","response":0,"trial_type":"html-button-response","trial_index":92,"time_elapsed":753336,"internal_node_id":"0.0-4.0-1.42","subject_id":"5eb2d3b0d573b507df21626f","study_id":"6197b3f67c2b5cd3b6d9596a","session_id":"619be31e9bfd045c936a11ee","condition":"full-information","relevant_dimensions":["pattern","legs"],"bee_group":{"antennae":"X","wings":"X","pattern":"D","legs":"F"},"bonus":0.8200000000000013},{"rt":24466,"stimulus":"bees-with-color/bee-B1SM.svg","response":1,"trial_type":"image-button-response","trial_index":93,"time_elapsed":777806,"internal_node_id":"0.0-4.0-0.43","subject_id":"5eb2d3b0d573b507df21626f","study_id":"6197b3f67c2b5cd3b6d9596a","session_id":"619be31e9bfd045c936a11ee","condition":"full-information","relevant_dimensions":["pattern","legs"],"bee_group":{"antennae":"X","wings":"X","pattern":"D","legs":"F"},"action":"avoid","summary":"bad-avoid","bonus":0.8200000000000013},{"rt":7913,"stimulus":"\n                    <p><b>Action: <em>avoid</em></b></p>\n                    <p>This is the bee that you just saw.</p>\n                    <img src=\"bees-with-color/bee-B1SM.svg\" width=\"200\">\n                    <p><span class=\"redText\">Bad choice,</span> the bee was friendly.<br>Your bonus pay is unchanged, and remains at $0.44.</p>\n            ","response":0,"trial_type":"html-button-response","trial_index":94,"time_elapsed":785721,"internal_node_id":"0.0-4.0-1.43","subject_id":"5eb2d3b0d573b507df21626f","study_id":"6197b3f67c2b5cd3b6d9596a","session_id":"619be31e9bfd045c936a11ee","condition":"full-information","relevant_dimensions":["pattern","legs"],"bee_group":{"antennae":"X","wings":"X","pattern":"D","legs":"F"},"bonus":0.8200000000000013},{"rt":9096,"stimulus":"bees-with-color/bee-B2SM.svg","response":0,"trial_type":"image-button-response","trial_index":95,"time_elapsed":794821,"internal_node_id":"0.0-4.0-0.44","subject_id":"5eb2d3b0d573b507df21626f","study_id":"6197b3f67c2b5cd3b6d9596a","session_id":"619be31e9bfd045c936a11ee","condition":"full-information","relevant_dimensions":["pattern","legs"],"bee_group":{"antennae":"X","wings":"X","pattern":"D","legs":"F"},"action":"harvest","summary":"good-harvest","bonus":0.8200000000000013},{"rt":1634.9000000003725,"stimulus":"\n                    <p><b>Action: <em>harvest</em></b></p>\n                    <p>This is the bee that you just saw.</p>\n                    <img src=\"bees-with-color/bee-B2SM.svg\" width=\"200\">\n                    <p><span class=\"greenText\"><b>Successful harvest!</b></span><br>Your pay has increased by $0.02. Your bonus pay is now $0.46.</p>\n            ","response":0,"trial_type":"html-button-response","trial_index":96,"time_elapsed":796459,"internal_node_id":"0.0-4.0-1.44","subject_id":"5eb2d3b0d573b507df21626f","study_id":"6197b3f67c2b5cd3b6d9596a","session_id":"619be31e9bfd045c936a11ee","condition":"full-information","relevant_dimensions":["pattern","legs"],"bee_group":{"antennae":"X","wings":"X","pattern":"D","legs":"F"},"bonus":0.8200000000000013},{"rt":14762.600000000093,"stimulus":"bees-with-color/bee-A2SM.svg","response":0,"trial_type":"image-button-response","trial_index":97,"time_elapsed":811228,"internal_node_id":"0.0-4.0-0.45","subject_id":"5eb2d3b0d573b507df21626f","study_id":"6197b3f67c2b5cd3b6d9596a","session_id":"619be31e9bfd045c936a11ee","condition":"full-information","relevant_dimensions":["pattern","legs"],"bee_group":{"antennae":"X","wings":"X","pattern":"D","legs":"F"},"action":"harvest","summary":"good-harvest","bonus":0.8200000000000013},{"rt":6280.299999999814,"stimulus":"\n                    <p><b>Action: <em>harvest</em></b></p>\n                    <p>This is the bee that you just saw.</p>\n                    <img src=\"bees-with-color/bee-A2SM.svg\" width=\"200\">\n                    <p><span class=\"greenText\"><b>Successful harvest!</b></span><br>Your pay has increased by $0.02. Your bonus pay is now $0.48.</p>\n            ","response":0,"trial_type":"html-button-response","trial_index":98,"time_elapsed":817510,"internal_node_id":"0.0-4.0-1.45","subject_id":"5eb2d3b0d573b507df21626f","study_id":"6197b3f67c2b5cd3b6d9596a","session_id":"619be31e9bfd045c936a11ee","condition":"full-information","relevant_dimensions":["pattern","legs"],"bee_group":{"antennae":"X","wings":"X","pattern":"D","legs":"F"},"bonus":0.8200000000000013},{"rt":21060.899999999907,"stimulus":"bees-with-color/bee-B1DF.svg","response":0,"trial_type":"image-button-response","trial_index":99,"time_elapsed":838576,"internal_node_id":"0.0-4.0-0.46","subject_id":"5eb2d3b0d573b507df21626f","study_id":"6197b3f67c2b5cd3b6d9596a","session_id":"619be31e9bfd045c936a11ee","condition":"full-information","relevant_dimensions":["pattern","legs"],"bee_group":{"antennae":"X","wings":"X","pattern":"D","legs":"F"},"action":"harvest","summary":"bad-harvest","bonus":0.8200000000000013},{"rt":6286.100000000093,"stimulus":"\n                    <p><b>Action: <em>harvest</em></b></p>\n                    <p>This is the bee that you just saw.</p>\n                    <img src=\"bees-with-color/bee-B1DF.svg\" width=\"200\">\n                    <p><span class=\"redText\">Bad choice, the bee was angry.</span><br><b>You have been stung!</b><br>Your pay has been decreased by $0.10. Your bonus pay is now $0.38.</p>\n            ","response":0,"trial_type":"html-button-response","trial_index":100,"time_elapsed":844864,"internal_node_id":"0.0-4.0-1.46","subject_id":"5eb2d3b0d573b507df21626f","study_id":"6197b3f67c2b5cd3b6d9596a","session_id":"619be31e9bfd045c936a11ee","condition":"full-information","relevant_dimensions":["pattern","legs"],"bee_group":{"antennae":"X","wings":"X","pattern":"D","legs":"F"},"bonus":0.8200000000000013},{"rt":14842.200000000186,"stimulus":"bees-with-color/bee-B1DM.svg","response":0,"trial_type":"image-button-response","trial_index":101,"time_elapsed":859710,"internal_node_id":"0.0-4.0-0.47","subject_id":"5eb2d3b0d573b507df21626f","study_id":"6197b3f67c2b5cd3b6d9596a","session_id":"619be31e9bfd045c936a11ee","condition":"full-information","relevant_dimensions":["pattern","legs"],"bee_group":{"antennae":"X","wings":"X","pattern":"D","legs":"F"},"action":"harvest","summary":"good-harvest","bonus":0.8200000000000013},{"rt":1076.6000000000931,"stimulus":"\n                    <p><b>Action: <em>harvest</em></b></p>\n                    <p>This is the bee that you just saw.</p>\n                    <img src=\"bees-with-color/bee-B1DM.svg\" width=\"200\">\n                    <p><span class=\"greenText\"><b>Successful harvest!</b></span><br>Your pay has increased by $0.02. Your bonus pay is now $0.40.</p>\n            ","response":0,"trial_type":"html-button-response","trial_index":102,"time_elapsed":860790,"internal_node_id":"0.0-4.0-1.47","subject_id":"5eb2d3b0d573b507df21626f","study_id":"6197b3f67c2b5cd3b6d9596a","session_id":"619be31e9bfd045c936a11ee","condition":"full-information","relevant_dimensions":["pattern","legs"],"bee_group":{"antennae":"X","wings":"X","pattern":"D","legs":"F"},"bonus":0.8200000000000013},{"rt":6695.299999999814,"stimulus":"bees-with-color/bee-B1DM.svg","response":0,"trial_type":"image-button-response","trial_index":103,"time_elapsed":867488,"internal_node_id":"0.0-4.0-0.48","subject_id":"5eb2d3b0d573b507df21626f","study_id":"6197b3f67c2b5cd3b6d9596a","session_id":"619be31e9bfd045c936a11ee","condition":"full-information","relevant_dimensions":["pattern","legs"],"bee_group":{"antennae":"X","wings":"X","pattern":"D","legs":"F"},"action":"harvest","summary":"good-harvest","bonus":0.8200000000000013},{"rt":1657.2999999998137,"stimulus":"\n                    <p><b>Action: <em>harvest</em></b></p>\n                    <p>This is the bee that you just saw.</p>\n                    <img src=\"bees-with-color/bee-B1DM.svg\" width=\"200\">\n                    <p><span class=\"greenText\"><b>Successful harvest!</b></span><br>Your pay has increased by $0.02. Your bonus pay is now $0.42.</p>\n            ","response":0,"trial_type":"html-button-response","trial_index":104,"time_elapsed":869148,"internal_node_id":"0.0-4.0-1.48","subject_id":"5eb2d3b0d573b507df21626f","study_id":"6197b3f67c2b5cd3b6d9596a","session_id":"619be31e9bfd045c936a11ee","condition":"full-information","relevant_dimensions":["pattern","legs"],"bee_group":{"antennae":"X","wings":"X","pattern":"D","legs":"F"},"bonus":0.8200000000000013},{"rt":13370.600000000093,"stimulus":"bees-with-color/bee-A2SM.svg","response":0,"trial_type":"image-button-response","trial_index":105,"time_elapsed":882525,"internal_node_id":"0.0-4.0-0.49","subject_id":"5eb2d3b0d573b507df21626f","study_id":"6197b3f67c2b5cd3b6d9596a","session_id":"619be31e9bfd045c936a11ee","condition":"full-information","relevant_dimensions":["pattern","legs"],"bee_group":{"antennae":"X","wings":"X","pattern":"D","legs":"F"},"action":"harvest","summary":"good-harvest","bonus":0.8200000000000013},{"rt":1378.8999999999069,"stimulus":"\n                    <p><b>Action: <em>harvest</em></b></p>\n                    <p>This is the bee that you just saw.</p>\n                    <img src=\"bees-with-color/bee-A2SM.svg\" width=\"200\">\n                    <p><span class=\"greenText\"><b>Successful harvest!</b></span><br>Your pay has increased by $0.02. Your bonus pay is now $0.44.</p>\n            ","response":0,"trial_type":"html-button-response","trial_index":106,"time_elapsed":883906,"internal_node_id":"0.0-4.0-1.49","subject_id":"5eb2d3b0d573b507df21626f","study_id":"6197b3f67c2b5cd3b6d9596a","session_id":"619be31e9bfd045c936a11ee","condition":"full-information","relevant_dimensions":["pattern","legs"],"bee_group":{"antennae":"X","wings":"X","pattern":"D","legs":"F"},"bonus":0.8200000000000013},{"rt":8217.799999999814,"stimulus":"bees-with-color/bee-B2DM.svg","response":1,"trial_type":"image-button-response","trial_index":107,"time_elapsed":892128,"internal_node_id":"0.0-4.0-0.50","subject_id":"5eb2d3b0d573b507df21626f","study_id":"6197b3f67c2b5cd3b6d9596a","session_id":"619be31e9bfd045c936a11ee","condition":"full-information","relevant_dimensions":["pattern","legs"],"bee_group":{"antennae":"X","wings":"X","pattern":"D","legs":"F"},"action":"avoid","summary":"bad-avoid","bonus":0.8200000000000013},{"rt":2945.8000000002794,"stimulus":"\n                    <p><b>Action: <em>avoid</em></b></p>\n                    <p>This is the bee that you just saw.</p>\n                    <img src=\"bees-with-color/bee-B2DM.svg\" width=\"200\">\n                    <p><span class=\"redText\">Bad choice,</span> the bee was friendly.<br>Your bonus pay is unchanged, and remains at $0.44.</p>\n            ","response":0,"trial_type":"html-button-response","trial_index":108,"time_elapsed":895076,"internal_node_id":"0.0-4.0-1.50","subject_id":"5eb2d3b0d573b507df21626f","study_id":"6197b3f67c2b5cd3b6d9596a","session_id":"619be31e9bfd045c936a11ee","condition":"full-information","relevant_dimensions":["pattern","legs"],"bee_group":{"antennae":"X","wings":"X","pattern":"D","legs":"F"},"bonus":0.8200000000000013},{"rt":23322.5,"stimulus":"bees-with-color/bee-A1DM.svg","response":1,"trial_type":"image-button-response","trial_index":109,"time_elapsed":918403,"internal_node_id":"0.0-4.0-0.51","subject_id":"5eb2d3b0d573b507df21626f","study_id":"6197b3f67c2b5cd3b6d9596a","session_id":"619be31e9bfd045c936a11ee","condition":"full-information","relevant_dimensions":["pattern","legs"],"bee_group":{"antennae":"X","wings":"X","pattern":"D","legs":"F"},"action":"avoid","summary":"bad-avoid","bonus":0.8200000000000013},{"rt":1963.1999999997206,"stimulus":"\n                    <p><b>Action: <em>avoid</em></b></p>\n                    <p>This is the bee that you just saw.</p>\n                    <img src=\"bees-with-color/bee-A1DM.svg\" width=\"200\">\n                    <p><span class=\"redText\">Bad choice,</span> the bee was friendly.<br>Your bonus pay is unchanged, and remains at $0.44.</p>\n            ","response":0,"trial_type":"html-button-response","trial_index":110,"time_elapsed":920368,"internal_node_id":"0.0-4.0-1.51","subject_id":"5eb2d3b0d573b507df21626f","study_id":"6197b3f67c2b5cd3b6d9596a","session_id":"619be31e9bfd045c936a11ee","condition":"full-information","relevant_dimensions":["pattern","legs"],"bee_group":{"antennae":"X","wings":"X","pattern":"D","legs":"F"},"bonus":0.8200000000000013},{"rt":16379.899999999907,"stimulus":"bees-with-color/bee-A2DM.svg","response":0,"trial_type":"image-button-response","trial_index":111,"time_elapsed":936752,"internal_node_id":"0.0-4.0-0.52","subject_id":"5eb2d3b0d573b507df21626f","study_id":"6197b3f67c2b5cd3b6d9596a","session_id":"619be31e9bfd045c936a11ee","condition":"full-information","relevant_dimensions":["pattern","legs"],"bee_group":{"antennae":"X","wings":"X","pattern":"D","legs":"F"},"action":"harvest","summary":"good-harvest","bonus":0.8200000000000013},{"rt":4998.399999999907,"stimulus":"\n                    <p><b>Action: <em>harvest</em></b></p>\n                    <p>This is the bee that you just saw.</p>\n                    <img src=\"bees-with-color/bee-A2DM.svg\" width=\"200\">\n                    <p><span class=\"greenText\"><b>Successful harvest!</b></span><br>Your pay has increased by $0.02. Your bonus pay is now $0.46.</p>\n            ","response":0,"trial_type":"html-button-response","trial_index":112,"time_elapsed":941756,"internal_node_id":"0.0-4.0-1.52","subject_id":"5eb2d3b0d573b507df21626f","study_id":"6197b3f67c2b5cd3b6d9596a","session_id":"619be31e9bfd045c936a11ee","condition":"full-information","relevant_dimensions":["pattern","legs"],"bee_group":{"antennae":"X","wings":"X","pattern":"D","legs":"F"},"bonus":0.8200000000000013},{"rt":6147.300000000279,"stimulus":"bees-with-color/bee-B1DF.svg","response":1,"trial_type":"image-button-response","trial_index":113,"time_elapsed":947906,"internal_node_id":"0.0-4.0-0.53","subject_id":"5eb2d3b0d573b507df21626f","study_id":"6197b3f67c2b5cd3b6d9596a","session_id":"619be31e9bfd045c936a11ee","condition":"full-information","relevant_dimensions":["pattern","legs"],"bee_group":{"antennae":"X","wings":"X","pattern":"D","legs":"F"},"action":"avoid","summary":"good-avoid","bonus":0.8200000000000013},{"rt":1711.7000000001863,"stimulus":"\n                    <p><b>Action: <em>avoid</em></b></p>\n                    <p>This is the bee that you just saw.</p>\n                    <img src=\"bees-with-color/bee-B1DF.svg\" width=\"200\">\n                    <p><span class=\"greenText\">Good choice!</span>  This bee would have stung you.<br>Your bonus pay is unchanged, and remains at $0.46.</p>\n            ","response":0,"trial_type":"html-button-response","trial_index":114,"time_elapsed":949620,"internal_node_id":"0.0-4.0-1.53","subject_id":"5eb2d3b0d573b507df21626f","study_id":"6197b3f67c2b5cd3b6d9596a","session_id":"619be31e9bfd045c936a11ee","condition":"full-information","relevant_dimensions":["pattern","legs"],"bee_group":{"antennae":"X","wings":"X","pattern":"D","legs":"F"},"bonus":0.8200000000000013},{"rt":17866.30000000028,"stimulus":"bees-with-color/bee-A1SM.svg","response":0,"trial_type":"image-button-response","trial_index":115,"time_elapsed":967491,"internal_node_id":"0.0-4.0-0.54","subject_id":"5eb2d3b0d573b507df21626f","study_id":"6197b3f67c2b5cd3b6d9596a","session_id":"619be31e9bfd045c936a11ee","condition":"full-information","relevant_dimensions":["pattern","legs"],"bee_group":{"antennae":"X","wings":"X","pattern":"D","legs":"F"},"action":"harvest","summary":"good-harvest","bonus":0.8200000000000013},{"rt":5425.899999999907,"stimulus":"\n                    <p><b>Action: <em>harvest</em></b></p>\n                    <p>This is the bee that you just saw.</p>\n                    <img src=\"bees-with-color/bee-A1SM.svg\" width=\"200\">\n                    <p><span class=\"greenText\"><b>Successful harvest!</b></span><br>Your pay has increased by $0.02. Your bonus pay is now $0.48.</p>\n            ","response":0,"trial_type":"html-button-response","trial_index":116,"time_elapsed":972919,"internal_node_id":"0.0-4.0-1.54","subject_id":"5eb2d3b0d573b507df21626f","study_id":"6197b3f67c2b5cd3b6d9596a","session_id":"619be31e9bfd045c936a11ee","condition":"full-information","relevant_dimensions":["pattern","legs"],"bee_group":{"antennae":"X","wings":"X","pattern":"D","legs":"F"},"bonus":0.8200000000000013},{"rt":21794.900000000373,"stimulus":"bees-with-color/bee-A2DF.svg","response":1,"trial_type":"image-button-response","trial_index":117,"time_elapsed":994718,"internal_node_id":"0.0-4.0-0.55","subject_id":"5eb2d3b0d573b507df21626f","study_id":"6197b3f67c2b5cd3b6d9596a","session_id":"619be31e9bfd045c936a11ee","condition":"full-information","relevant_dimensions":["pattern","legs"],"bee_group":{"antennae":"X","wings":"X","pattern":"D","legs":"F"},"action":"avoid","summary":"good-avoid","bonus":0.8200000000000013},{"rt":3368.7000000001863,"stimulus":"\n                    <p><b>Action: <em>avoid</em></b></p>\n                    <p>This is the bee that you just saw.</p>\n                    <img src=\"bees-with-color/bee-A2DF.svg\" width=\"200\">\n                    <p><span class=\"greenText\">Good choice!</span>  This bee would have stung you.<br>Your bonus pay is unchanged, and remains at $0.48.</p>\n            ","response":0,"trial_type":"html-button-response","trial_index":118,"time_elapsed":998089,"internal_node_id":"0.0-4.0-1.55","subject_id":"5eb2d3b0d573b507df21626f","study_id":"6197b3f67c2b5cd3b6d9596a","session_id":"619be31e9bfd045c936a11ee","condition":"full-information","relevant_dimensions":["pattern","legs"],"bee_group":{"antennae":"X","wings":"X","pattern":"D","legs":"F"},"bonus":0.8200000000000013},{"rt":9148.100000000093,"stimulus":"bees-with-color/bee-A1SF.svg","response":0,"trial_type":"image-button-response","trial_index":119,"time_elapsed":1007243,"internal_node_id":"0.0-4.0-0.56","subject_id":"5eb2d3b0d573b507df21626f","study_id":"6197b3f67c2b5cd3b6d9596a","session_id":"619be31e9bfd045c936a11ee","condition":"full-information","relevant_dimensions":["pattern","legs"],"bee_group":{"antennae":"X","wings":"X","pattern":"D","legs":"F"},"action":"harvest","summary":"good-harvest","bonus":0.8200000000000013},{"rt":1408.4000000003725,"stimulus":"\n                    <p><b>Action: <em>harvest</em></b></p>\n                    <p>This is the bee that you just saw.</p>\n                    <img src=\"bees-with-color/bee-A1SF.svg\" width=\"200\">\n                    <p><span class=\"greenText\"><b>Successful harvest!</b></span><br>Your pay has increased by $0.02. Your bonus pay is now $0.50.</p>\n            ","response":0,"trial_type":"html-button-response","trial_index":120,"time_elapsed":1008654,"internal_node_id":"0.0-4.0-1.56","subject_id":"5eb2d3b0d573b507df21626f","study_id":"6197b3f67c2b5cd3b6d9596a","session_id":"619be31e9bfd045c936a11ee","condition":"full-information","relevant_dimensions":["pattern","legs"],"bee_group":{"antennae":"X","wings":"X","pattern":"D","legs":"F"},"bonus":0.8200000000000013},{"rt":22146.100000000093,"stimulus":"bees-with-color/bee-A2SF.svg","response":0,"trial_type":"image-button-response","trial_index":121,"time_elapsed":1030804,"internal_node_id":"0.0-4.0-0.57","subject_id":"5eb2d3b0d573b507df21626f","study_id":"6197b3f67c2b5cd3b6d9596a","session_id":"619be31e9bfd045c936a11ee","condition":"full-information","relevant_dimensions":["pattern","legs"],"bee_group":{"antennae":"X","wings":"X","pattern":"D","legs":"F"},"action":"harvest","summary":"good-harvest","bonus":0.8200000000000013},{"rt":1774.5,"stimulus":"\n                    <p><b>Action: <em>harvest</em></b></p>\n                    <p>This is the bee that you just saw.</p>\n                    <img src=\"bees-with-color/bee-A2SF.svg\" width=\"200\">\n                    <p><span class=\"greenText\"><b>Successful harvest!</b></span><br>Your pay has increased by $0.02. Your bonus pay is now $0.52.</p>\n            ","response":0,"trial_type":"html-button-response","trial_index":122,"time_elapsed":1032581,"internal_node_id":"0.0-4.0-1.57","subject_id":"5eb2d3b0d573b507df21626f","study_id":"6197b3f67c2b5cd3b6d9596a","session_id":"619be31e9bfd045c936a11ee","condition":"full-information","relevant_dimensions":["pattern","legs"],"bee_group":{"antennae":"X","wings":"X","pattern":"D","legs":"F"},"bonus":0.8200000000000013},{"rt":10754,"stimulus":"bees-with-color/bee-B1SM.svg","response":0,"trial_type":"image-button-response","trial_index":123,"time_elapsed":1043339,"internal_node_id":"0.0-4.0-0.58","subject_id":"5eb2d3b0d573b507df21626f","study_id":"6197b3f67c2b5cd3b6d9596a","session_id":"619be31e9bfd045c936a11ee","condition":"full-information","relevant_dimensions":["pattern","legs"],"bee_group":{"antennae":"X","wings":"X","pattern":"D","legs":"F"},"action":"harvest","summary":"good-harvest","bonus":0.8200000000000013},{"rt":3159.600000000093,"stimulus":"\n                    <p><b>Action: <em>harvest</em></b></p>\n                    <p>This is the bee that you just saw.</p>\n                    <img src=\"bees-with-color/bee-B1SM.svg\" width=\"200\">\n                    <p><span class=\"greenText\"><b>Successful harvest!</b></span><br>Your pay has increased by $0.02. Your bonus pay is now $0.54.</p>\n            ","response":0,"trial_type":"html-button-response","trial_index":124,"time_elapsed":1046501,"internal_node_id":"0.0-4.0-1.58","subject_id":"5eb2d3b0d573b507df21626f","study_id":"6197b3f67c2b5cd3b6d9596a","session_id":"619be31e9bfd045c936a11ee","condition":"full-information","relevant_dimensions":["pattern","legs"],"bee_group":{"antennae":"X","wings":"X","pattern":"D","legs":"F"},"bonus":0.8200000000000013},{"rt":4862.199999999721,"stimulus":"bees-with-color/bee-A1DF.svg","response":1,"trial_type":"image-button-response","trial_index":125,"time_elapsed":1051367,"internal_node_id":"0.0-4.0-0.59","subject_id":"5eb2d3b0d573b507df21626f","study_id":"6197b3f67c2b5cd3b6d9596a","session_id":"619be31e9bfd045c936a11ee","condition":"full-information","relevant_dimensions":["pattern","legs"],"bee_group":{"antennae":"X","wings":"X","pattern":"D","legs":"F"},"action":"avoid","summary":"good-avoid","bonus":0.8200000000000013},{"rt":1348.5999999996275,"stimulus":"\n                    <p><b>Action: <em>avoid</em></b></p>\n                    <p>This is the bee that you just saw.</p>\n                    <img src=\"bees-with-color/bee-A1DF.svg\" width=\"200\">\n                    <p><span class=\"greenText\">Good choice!</span>  This bee would have stung you.<br>Your bonus pay is unchanged, and remains at $0.54.</p>\n            ","response":0,"trial_type":"html-button-response","trial_index":126,"time_elapsed":1052719,"internal_node_id":"0.0-4.0-1.59","subject_id":"5eb2d3b0d573b507df21626f","study_id":"6197b3f67c2b5cd3b6d9596a","session_id":"619be31e9bfd045c936a11ee","condition":"full-information","relevant_dimensions":["pattern","legs"],"bee_group":{"antennae":"X","wings":"X","pattern":"D","legs":"F"},"bonus":0.8200000000000013},{"rt":24838.200000000186,"stimulus":"bees-with-color/bee-B2SM.svg","response":1,"trial_type":"image-button-response","trial_index":127,"time_elapsed":1077563,"internal_node_id":"0.0-4.0-0.60","subject_id":"5eb2d3b0d573b507df21626f","study_id":"6197b3f67c2b5cd3b6d9596a","session_id":"619be31e9bfd045c936a11ee","condition":"full-information","relevant_dimensions":["pattern","legs"],"bee_group":{"antennae":"X","wings":"X","pattern":"D","legs":"F"},"action":"avoid","summary":"bad-avoid","bonus":0.8200000000000013},{"rt":2074.100000000093,"stimulus":"\n                    <p><b>Action: <em>avoid</em></b></p>\n                    <p>This is the bee that you just saw.</p>\n                    <img src=\"bees-with-color/bee-B2SM.svg\" width=\"200\">\n                    <p><span class=\"redText\">Bad choice,</span> the bee was friendly.<br>Your bonus pay is unchanged, and remains at $0.54.</p>\n            ","response":0,"trial_type":"html-button-response","trial_index":128,"time_elapsed":1079640,"internal_node_id":"0.0-4.0-1.60","subject_id":"5eb2d3b0d573b507df21626f","study_id":"6197b3f67c2b5cd3b6d9596a","session_id":"619be31e9bfd045c936a11ee","condition":"full-information","relevant_dimensions":["pattern","legs"],"bee_group":{"antennae":"X","wings":"X","pattern":"D","legs":"F"},"bonus":0.8200000000000013},{"rt":27404.700000000186,"stimulus":"bees-with-color/bee-B2SF.svg","response":0,"trial_type":"image-button-response","trial_index":129,"time_elapsed":1107048,"internal_node_id":"0.0-4.0-0.61","subject_id":"5eb2d3b0d573b507df21626f","study_id":"6197b3f67c2b5cd3b6d9596a","session_id":"619be31e9bfd045c936a11ee","condition":"full-information","relevant_dimensions":["pattern","legs"],"bee_group":{"antennae":"X","wings":"X","pattern":"D","legs":"F"},"action":"harvest","summary":"good-harvest","bonus":0.8200000000000013},{"rt":4091.2999999998137,"stimulus":"\n                    <p><b>Action: <em>harvest</em></b></p>\n                    <p>This is the bee that you just saw.</p>\n                    <img src=\"bees-with-color/bee-B2SF.svg\" width=\"200\">\n                    <p><span class=\"greenText\"><b>Successful harvest!</b></span><br>Your pay has increased by $0.02. Your bonus pay is now $0.56.</p>\n            ","response":0,"trial_type":"html-button-response","trial_index":130,"time_elapsed":1111143,"internal_node_id":"0.0-4.0-1.61","subject_id":"5eb2d3b0d573b507df21626f","study_id":"6197b3f67c2b5cd3b6d9596a","session_id":"619be31e9bfd045c936a11ee","condition":"full-information","relevant_dimensions":["pattern","legs"],"bee_group":{"antennae":"X","wings":"X","pattern":"D","legs":"F"},"bonus":0.8200000000000013},{"rt":12365.19999999972,"stimulus":"bees-with-color/bee-B1SF.svg","response":0,"trial_type":"image-button-response","trial_index":131,"time_elapsed":1123512,"internal_node_id":"0.0-4.0-0.62","subject_id":"5eb2d3b0d573b507df21626f","study_id":"6197b3f67c2b5cd3b6d9596a","session_id":"619be31e9bfd045c936a11ee","condition":"full-information","relevant_dimensions":["pattern","legs"],"bee_group":{"antennae":"X","wings":"X","pattern":"D","legs":"F"},"action":"harvest","summary":"good-harvest","bonus":0.8200000000000013},{"rt":1445.3999999999069,"stimulus":"\n                    <p><b>Action: <em>harvest</em></b></p>\n                    <p>This is the bee that you just saw.</p>\n                    <img src=\"bees-with-color/bee-B1SF.svg\" width=\"200\">\n                    <p><span class=\"greenText\"><b>Successful harvest!</b></span><br>Your pay has increased by $0.02. Your bonus pay is now $0.58.</p>\n            ","response":0,"trial_type":"html-button-response","trial_index":132,"time_elapsed":1124960,"internal_node_id":"0.0-4.0-1.62","subject_id":"5eb2d3b0d573b507df21626f","study_id":"6197b3f67c2b5cd3b6d9596a","session_id":"619be31e9bfd045c936a11ee","condition":"full-information","relevant_dimensions":["pattern","legs"],"bee_group":{"antennae":"X","wings":"X","pattern":"D","legs":"F"},"bonus":0.8200000000000013},{"rt":9596.600000000093,"stimulus":"bees-with-color/bee-B2DF.svg","response":1,"trial_type":"image-button-response","trial_index":133,"time_elapsed":1134560,"internal_node_id":"0.0-4.0-0.63","subject_id":"5eb2d3b0d573b507df21626f","study_id":"6197b3f67c2b5cd3b6d9596a","session_id":"619be31e9bfd045c936a11ee","condition":"full-information","relevant_dimensions":["pattern","legs"],"bee_group":{"antennae":"X","wings":"X","pattern":"D","legs":"F"},"action":"avoid","summary":"good-avoid","bonus":0.8200000000000013},{"rt":2632.7000000001863,"stimulus":"\n                    <p><b>Action: <em>avoid</em></b></p>\n                    <p>This is the bee that you just saw.</p>\n                    <img src=\"bees-with-color/bee-B2DF.svg\" width=\"200\">\n                    <p><span class=\"greenText\">Good choice!</span>  This bee would have stung you.<br>Your bonus pay is unchanged, and remains at $0.58.</p>\n            ","response":0,"trial_type":"html-button-response","trial_index":134,"time_elapsed":1137197,"internal_node_id":"0.0-4.0-1.63","subject_id":"5eb2d3b0d573b507df21626f","study_id":"6197b3f67c2b5cd3b6d9596a","session_id":"619be31e9bfd045c936a11ee","condition":"full-information","relevant_dimensions":["pattern","legs"],"bee_group":{"antennae":"X","wings":"X","pattern":"D","legs":"F"},"bonus":0.8200000000000013},{"rt":8665.30000000028,"stimulus":"You have completed the first part of this experiment.<br><br>You will now begin a shorter second part, in which you will receive no feedback.<br>The same rules regarding bonus pay apply.<br><br>Press any key to begin.","response":" ","trial_type":"html-keyboard-response","trial_index":135,"time_elapsed":1145867,"internal_node_id":"0.0-5.0","subject_id":"5eb2d3b0d573b507df21626f","study_id":"6197b3f67c2b5cd3b6d9596a","session_id":"619be31e9bfd045c936a11ee","condition":"full-information","relevant_dimensions":["pattern","legs"],"bee_group":{"antennae":"X","wings":"X","pattern":"D","legs":"F"},"bonus":0.8200000000000013},{"rt":14120.399999999907,"stimulus":"bees-with-color/bee-A2SM.svg","response":1,"trial_type":"image-button-response","trial_index":136,"time_elapsed":1160014,"internal_node_id":"0.0-6.0-0.0","subject_id":"5eb2d3b0d573b507df21626f","study_id":"6197b3f67c2b5cd3b6d9596a","session_id":"619be31e9bfd045c936a11ee","condition":"full-information","relevant_dimensions":["pattern","legs"],"bee_group":{"antennae":"X","wings":"X","pattern":"D","legs":"F"},"bonus":0.8200000000000013},{"rt":12178.399999999907,"stimulus":"bees-with-color/bee-B2DF.svg","response":1,"trial_type":"image-button-response","trial_index":137,"time_elapsed":1172198,"internal_node_id":"0.0-6.0-0.1","subject_id":"5eb2d3b0d573b507df21626f","study_id":"6197b3f67c2b5cd3b6d9596a","session_id":"619be31e9bfd045c936a11ee","condition":"full-information","relevant_dimensions":["pattern","legs"],"bee_group":{"antennae":"X","wings":"X","pattern":"D","legs":"F"},"bonus":0.8200000000000013},{"rt":20656.599999999627,"stimulus":"bees-with-color/bee-B2SF.svg","response":0,"trial_type":"image-button-response","trial_index":138,"time_elapsed":1192861,"internal_node_id":"0.0-6.0-0.2","subject_id":"5eb2d3b0d573b507df21626f","study_id":"6197b3f67c2b5cd3b6d9596a","session_id":"619be31e9bfd045c936a11ee","condition":"full-information","relevant_dimensions":["pattern","legs"],"bee_group":{"antennae":"X","wings":"X","pattern":"D","legs":"F"},"bonus":0.8200000000000013},{"rt":15405.399999999907,"stimulus":"bees-with-color/bee-B1DF.svg","response":1,"trial_type":"image-button-response","trial_index":139,"time_elapsed":1208273,"internal_node_id":"0.0-6.0-0.3","subject_id":"5eb2d3b0d573b507df21626f","study_id":"6197b3f67c2b5cd3b6d9596a","session_id":"619be31e9bfd045c936a11ee","condition":"full-information","relevant_dimensions":["pattern","legs"],"bee_group":{"antennae":"X","wings":"X","pattern":"D","legs":"F"},"bonus":0.8200000000000013},{"rt":7121.799999999814,"stimulus":"bees-with-color/bee-A1DM.svg","response":0,"trial_type":"image-button-response","trial_index":140,"time_elapsed":1215400,"internal_node_id":"0.0-6.0-0.4","subject_id":"5eb2d3b0d573b507df21626f","study_id":"6197b3f67c2b5cd3b6d9596a","session_id":"619be31e9bfd045c936a11ee","condition":"full-information","relevant_dimensions":["pattern","legs"],"bee_group":{"antennae":"X","wings":"X","pattern":"D","legs":"F"},"bonus":0.8200000000000013},{"rt":5052.800000000279,"stimulus":"bees-with-color/bee-A2DM.svg","response":0,"trial_type":"image-button-response","trial_index":141,"time_elapsed":1220459,"internal_node_id":"0.0-6.0-0.5","subject_id":"5eb2d3b0d573b507df21626f","study_id":"6197b3f67c2b5cd3b6d9596a","session_id":"619be31e9bfd045c936a11ee","condition":"full-information","relevant_dimensions":["pattern","legs"],"bee_group":{"antennae":"X","wings":"X","pattern":"D","legs":"F"},"bonus":0.8200000000000013},{"rt":18434.19999999972,"stimulus":"bees-with-color/bee-B2SM.svg","response":0,"trial_type":"image-button-response","trial_index":142,"time_elapsed":1238899,"internal_node_id":"0.0-6.0-0.6","subject_id":"5eb2d3b0d573b507df21626f","study_id":"6197b3f67c2b5cd3b6d9596a","session_id":"619be31e9bfd045c936a11ee","condition":"full-information","relevant_dimensions":["pattern","legs"],"bee_group":{"antennae":"X","wings":"X","pattern":"D","legs":"F"},"bonus":0.8200000000000013},{"rt":7088,"stimulus":"bees-with-color/bee-B1DM.svg","response":0,"trial_type":"image-button-response","trial_index":143,"time_elapsed":1245993,"internal_node_id":"0.0-6.0-0.7","subject_id":"5eb2d3b0d573b507df21626f","study_id":"6197b3f67c2b5cd3b6d9596a","session_id":"619be31e9bfd045c936a11ee","condition":"full-information","relevant_dimensions":["pattern","legs"],"bee_group":{"antennae":"X","wings":"X","pattern":"D","legs":"F"},"bonus":0.8200000000000013},{"rt":4798.9000000003725,"stimulus":"bees-with-color/bee-A1SM.svg","response":0,"trial_type":"image-button-response","trial_index":144,"time_elapsed":1250797,"internal_node_id":"0.0-6.0-0.8","subject_id":"5eb2d3b0d573b507df21626f","study_id":"6197b3f67c2b5cd3b6d9596a","session_id":"619be31e9bfd045c936a11ee","condition":"full-information","relevant_dimensions":["pattern","legs"],"bee_group":{"antennae":"X","wings":"X","pattern":"D","legs":"F"},"bonus":0.8200000000000013},{"rt":22967.599999999627,"stimulus":"bees-with-color/bee-A2DF.svg","response":1,"trial_type":"image-button-response","trial_index":145,"time_elapsed":1273772,"internal_node_id":"0.0-6.0-0.9","subject_id":"5eb2d3b0d573b507df21626f","study_id":"6197b3f67c2b5cd3b6d9596a","session_id":"619be31e9bfd045c936a11ee","condition":"full-information","relevant_dimensions":["pattern","legs"],"bee_group":{"antennae":"X","wings":"X","pattern":"D","legs":"F"},"bonus":0.8200000000000013},{"rt":21962.19999999972,"stimulus":"bees-with-color/bee-B1SF.svg","response":0,"trial_type":"image-button-response","trial_index":146,"time_elapsed":1295741,"internal_node_id":"0.0-6.0-0.10","subject_id":"5eb2d3b0d573b507df21626f","study_id":"6197b3f67c2b5cd3b6d9596a","session_id":"619be31e9bfd045c936a11ee","condition":"full-information","relevant_dimensions":["pattern","legs"],"bee_group":{"antennae":"X","wings":"X","pattern":"D","legs":"F"},"bonus":0.8200000000000013},{"rt":6120,"stimulus":"bees-with-color/bee-B2DM.svg","response":0,"trial_type":"image-button-response","trial_index":147,"time_elapsed":1301867,"internal_node_id":"0.0-6.0-0.11","subject_id":"5eb2d3b0d573b507df21626f","study_id":"6197b3f67c2b5cd3b6d9596a","session_id":"619be31e9bfd045c936a11ee","condition":"full-information","relevant_dimensions":["pattern","legs"],"bee_group":{"antennae":"X","wings":"X","pattern":"D","legs":"F"},"bonus":0.8200000000000013},{"rt":3463.600000000093,"stimulus":"bees-with-color/bee-B1SM.svg","response":0,"trial_type":"image-button-response","trial_index":148,"time_elapsed":1305336,"internal_node_id":"0.0-6.0-0.12","subject_id":"5eb2d3b0d573b507df21626f","study_id":"6197b3f67c2b5cd3b6d9596a","session_id":"619be31e9bfd045c936a11ee","condition":"full-information","relevant_dimensions":["pattern","legs"],"bee_group":{"antennae":"X","wings":"X","pattern":"D","legs":"F"},"bonus":0.8200000000000013},{"rt":4154.199999999721,"stimulus":"bees-with-color/bee-A2SF.svg","response":0,"trial_type":"image-button-response","trial_index":149,"time_elapsed":1309494,"internal_node_id":"0.0-6.0-0.13","subject_id":"5eb2d3b0d573b507df21626f","study_id":"6197b3f67c2b5cd3b6d9596a","session_id":"619be31e9bfd045c936a11ee","condition":"full-information","relevant_dimensions":["pattern","legs"],"bee_group":{"antennae":"X","wings":"X","pattern":"D","legs":"F"},"bonus":0.8200000000000013},{"rt":9694.600000000093,"stimulus":"bees-with-color/bee-A1DF.svg","response":1,"trial_type":"image-button-response","trial_index":150,"time_elapsed":1319195,"internal_node_id":"0.0-6.0-0.14","subject_id":"5eb2d3b0d573b507df21626f","study_id":"6197b3f67c2b5cd3b6d9596a","session_id":"619be31e9bfd045c936a11ee","condition":"full-information","relevant_dimensions":["pattern","legs"],"bee_group":{"antennae":"X","wings":"X","pattern":"D","legs":"F"},"bonus":0.8200000000000013},{"rt":10580.600000000093,"stimulus":"bees-with-color/bee-A1SF.svg","response":0,"trial_type":"image-button-response","trial_index":151,"time_elapsed":1329781,"internal_node_id":"0.0-6.0-0.15","subject_id":"5eb2d3b0d573b507df21626f","study_id":"6197b3f67c2b5cd3b6d9596a","session_id":"619be31e9bfd045c936a11ee","condition":"full-information","relevant_dimensions":["pattern","legs"],"bee_group":{"antennae":"X","wings":"X","pattern":"D","legs":"F"},"bonus":0.8200000000000013},{"rt":2151.2999999998137,"stimulus":"bees-with-color/bee-A1SF.svg","response":0,"trial_type":"image-button-response","trial_index":152,"time_elapsed":1331937,"internal_node_id":"0.0-6.0-0.16","subject_id":"5eb2d3b0d573b507df21626f","study_id":"6197b3f67c2b5cd3b6d9596a","session_id":"619be31e9bfd045c936a11ee","condition":"full-information","relevant_dimensions":["pattern","legs"],"bee_group":{"antennae":"X","wings":"X","pattern":"D","legs":"F"},"bonus":0.8200000000000013},{"rt":10489.80000000028,"stimulus":"bees-with-color/bee-B1SF.svg","response":0,"trial_type":"image-button-response","trial_index":153,"time_elapsed":1342430,"internal_node_id":"0.0-6.0-0.17","subject_id":"5eb2d3b0d573b507df21626f","study_id":"6197b3f67c2b5cd3b6d9596a","session_id":"619be31e9bfd045c936a11ee","condition":"full-information","relevant_dimensions":["pattern","legs"],"bee_group":{"antennae":"X","wings":"X","pattern":"D","legs":"F"},"bonus":0.8200000000000013},{"rt":10818.200000000186,"stimulus":"bees-with-color/bee-B2SM.svg","response":0,"trial_type":"image-button-response","trial_index":154,"time_elapsed":1353252,"internal_node_id":"0.0-6.0-0.18","subject_id":"5eb2d3b0d573b507df21626f","study_id":"6197b3f67c2b5cd3b6d9596a","session_id":"619be31e9bfd045c936a11ee","condition":"full-information","relevant_dimensions":["pattern","legs"],"bee_group":{"antennae":"X","wings":"X","pattern":"D","legs":"F"},"bonus":0.8200000000000013},{"rt":7118.300000000279,"stimulus":"bees-with-color/bee-B1DM.svg","response":0,"trial_type":"image-button-response","trial_index":155,"time_elapsed":1360375,"internal_node_id":"0.0-6.0-0.19","subject_id":"5eb2d3b0d573b507df21626f","study_id":"6197b3f67c2b5cd3b6d9596a","session_id":"619be31e9bfd045c936a11ee","condition":"full-information","relevant_dimensions":["pattern","legs"],"bee_group":{"antennae":"X","wings":"X","pattern":"D","legs":"F"},"bonus":0.8200000000000013},{"rt":15089.100000000093,"stimulus":"bees-with-color/bee-B2DM.svg","response":0,"trial_type":"image-button-response","trial_index":156,"time_elapsed":1375470,"internal_node_id":"0.0-6.0-0.20","subject_id":"5eb2d3b0d573b507df21626f","study_id":"6197b3f67c2b5cd3b6d9596a","session_id":"619be31e9bfd045c936a11ee","condition":"full-information","relevant_dimensions":["pattern","legs"],"bee_group":{"antennae":"X","wings":"X","pattern":"D","legs":"F"},"bonus":0.8200000000000013},{"rt":1760,"stimulus":"bees-with-color/bee-A1SM.svg","response":0,"trial_type":"image-button-response","trial_index":157,"time_elapsed":1377234,"internal