[{"success":true,"trial_type":"fullscreen","trial_index":0,"time_elapsed":7422,"internal_node_id":"0.0-0.0","subject_id":"60fd487a67bd78e529e91894","study_id":"6197b3f67c2b5cd3b6d9596a","session_id":"619be31dcfc4d781ad04b57c","condition":"contingent","relevant_dimensions":["antennae","legs"],"bee_group":{"antennae":"A","wings":"X","pattern":"X","legs":"M"},"bonus":0.6200000000000012},{"success":true,"timeout":false,"failed_images":[],"failed_audio":[],"failed_video":[],"trial_type":"preload","trial_index":1,"time_elapsed":9649,"internal_node_id":"0.0-1.0","subject_id":"60fd487a67bd78e529e91894","study_id":"6197b3f67c2b5cd3b6d9596a","session_id":"619be31dcfc4d781ad04b57c","condition":"contingent","relevant_dimensions":["antennae","legs"],"bee_group":{"antennae":"A","wings":"X","pattern":"X","legs":"M"},"bonus":0.6200000000000012},{"rt":14229.39999999851,"stimulus":"Welcome! Press any key to begin.","response":" ","trial_type":"html-keyboard-response","trial_index":2,"time_elapsed":23880,"internal_node_id":"0.0-2.0","subject_id":"60fd487a67bd78e529e91894","study_id":"6197b3f67c2b5cd3b6d9596a","session_id":"619be31dcfc4d781ad04b57c","condition":"contingent","relevant_dimensions":["antennae","legs"],"bee_group":{"antennae":"A","wings":"X","pattern":"X","legs":"M"},"bonus":0.6200000000000012},{"view_history":[{"page_index":0,"viewing_time":72575.80000000447},{"page_index":1,"viewing_time":13779.89999999851},{"page_index":2,"viewing_time":105409.89999999851},{"page_index":3,"viewing_time":14951.89999999851},{"page_index":4,"viewing_time":8624.10000000149},{"page_index":5,"viewing_time":9159.89999999851},{"page_index":6,"viewing_time":8078.10000000149},{"page_index":7,"viewing_time":4634.20000000298},{"page_index":8,"viewing_time":4909.89999999851},{"page_index":9,"viewing_time":3237.89999999851},{"page_index":10,"viewing_time":2500},{"page_index":11,"viewing_time":9242.5},{"page_index":12,"viewing_time":13011.60000000149},{"page_index":13,"viewing_time":2068},{"page_index":14,"viewing_time":2513.89999999851}],"rt":274697.80000000447,"trial_type":"instructions","trial_index":3,"time_elapsed":298578,"internal_node_id":"0.0-3.0-0.0","subject_id":"60fd487a67bd78e529e91894","study_id":"6197b3f67c2b5cd3b6d9596a","session_id":"619be31dcfc4d781ad04b57c","condition":"contingent","relevant_dimensions":["antennae","legs"],"bee_group":{"antennae":"A","wings":"X","pattern":"X","legs":"M"},"bonus":0.6200000000000012},{"rt":10222,"response":{"Q0":["Two or six legs","Stripes or spots on body","Single or double wings","Antennae or no antennae"]},"question_order":[0],"trial_type":"survey-multi-select","trial_index":4,"time_elapsed":308803,"internal_node_id":"0.0-3.0-1.0","subject_id":"60fd487a67bd78e529e91894","study_id":"6197b3f67c2b5cd3b6d9596a","session_id":"619be31dcfc4d781ad04b57c","condition":"contingent","relevant_dimensions":["antennae","legs"],"bee_group":{"antennae":"A","wings":"X","pattern":"X","legs":"M"},"correct":true,"bonus":0.6200000000000012},{"rt":22606.5,"response":{"Q1":"No.","Q2":"Based on the four features of the bee.","Q3":"You do not learn if it was friendly or dangerous, and do not alter your bonus."},"question_order":[0,1,2],"trial_type":"survey-multi-choice","trial_index":5,"time_elapsed":331413,"internal_node_id":"0.0-3.0-2.0","subject_id":"60fd487a67bd78e529e91894","study_id":"6197b3f67c2b5cd3b6d9596a","session_id":"619be31dcfc4d781ad04b57c","condition":"contingent","relevant_dimensions":["antennae","legs"],"bee_group":{"antennae":"A","wings":"X","pattern":"X","legs":"M"},"correct":true,"bonus":0.6200000000000012},{"rt":2326.89999999851,"stimulus":"<p>Congrats, you got everything right<br>When you're ready, click the button below to continue to the experiment.</p>","response":0,"trial_type":"html-button-response","trial_index":6,"time_elapsed":333742,"internal_node_id":"0.0-3.0-3.0","subject_id":"60fd487a67bd78e529e91894","study_id":"6197b3f67c2b5cd3b6d9596a","session_id":"619be31dcfc4d781ad04b57c","condition":"contingent","relevant_dimensions":["antennae","legs"],"bee_group":{"antennae":"A","wings":"X","pattern":"X","legs":"M"},"bonus":0.6200000000000012},{"rt":11366.29999999702,"stimulus":"bees-with-color/bee-A1SF.svg","response":0,"trial_type":"image-button-response","trial_index":7,"time_elapsed":345110,"internal_node_id":"0.0-4.0-0.0","subject_id":"60fd487a67bd78e529e91894","study_id":"6197b3f67c2b5cd3b6d9596a","session_id":"619be31dcfc4d781ad04b57c","condition":"contingent","relevant_dimensions":["antennae","legs"],"bee_group":{"antennae":"A","wings":"X","pattern":"X","legs":"M"},"action":"harvest","summary":"good-harvest","bonus":0.6200000000000012},{"rt":5200.29999999702,"stimulus":"\n                    <p><b>Action: <em>harvest</em></b></p>\n                    <p>This is the bee that you just saw.</p>\n                    <img src=\"bees-with-color/bee-A1SF.svg\" width=\"200\">\n                    <p><span class=\"greenText\"><b>Successful harvest!</b></span><br>Your pay has increased by $0.02. Your bonus pay is now $0.56.</p>\n            ","response":0,"trial_type":"html-button-response","trial_index":8,"time_elapsed":350312,"internal_node_id":"0.0-4.0-1.0","subject_id":"60fd487a67bd78e529e91894","study_id":"6197b3f67c2b5cd3b6d9596a","session_id":"619be31dcfc4d781ad04b57c","condition":"contingent","relevant_dimensions":["antennae","legs"],"bee_group":{"antennae":"A","wings":"X","pattern":"X","legs":"M"},"bonus":0.6200000000000012},{"rt":6000.5,"stimulus":"bees-with-color/bee-B2SF.svg","response":0,"trial_type":"image-button-response","trial_index":9,"time_elapsed":356314,"internal_node_id":"0.0-4.0-0.1","subject_id":"60fd487a67bd78e529e91894","study_id":"6197b3f67c2b5cd3b6d9596a","session_id":"619be31dcfc4d781ad04b57c","condition":"contingent","relevant_dimensions":["antennae","legs"],"bee_group":{"antennae":"A","wings":"X","pattern":"X","legs":"M"},"action":"harvest","summary":"good-harvest","bonus":0.6200000000000012},{"rt":11754.69999999553,"stimulus":"\n                    <p><b>Action: <em>harvest</em></b></p>\n                    <p>This is the bee that you just saw.</p>\n                    <img src=\"bees-with-color/bee-B2SF.svg\" width=\"200\">\n                    <p><span class=\"greenText\"><b>Successful harvest!</b></span><br>Your pay has increased by $0.02. Your bonus pay is now $0.58.</p>\n            ","response":0,"trial_type":"html-button-response","trial_index":10,"time_elapsed":368070,"internal_node_id":"0.0-4.0-1.1","subject_id":"60fd487a67bd78e529e91894","study_id":"6197b3f67c2b5cd3b6d9596a","session_id":"619be31dcfc4d781ad04b57c","condition":"contingent","relevant_dimensions":["antennae","legs"],"bee_group":{"antennae":"A","wings":"X","pattern":"X","legs":"M"},"bonus":0.6200000000000012},{"rt":3892.5,"stimulus":"bees-with-color/bee-A1DM.svg","response":0,"trial_type":"image-button-response","trial_index":11,"time_elapsed":371964,"internal_node_id":"0.0-4.0-0.2","subject_id":"60fd487a67bd78e529e91894","study_id":"6197b3f67c2b5cd3b6d9596a","session_id":"619be31dcfc4d781ad04b57c","condition":"contingent","relevant_dimensions":["antennae","legs"],"bee_group":{"antennae":"A","wings":"X","pattern":"X","legs":"M"},"action":"harvest","summary":"bad-harvest","bonus":0.6200000000000012},{"rt":13955.10000000149,"stimulus":"\n                    <p><b>Action: <em>harvest</em></b></p>\n                    <p>This is the bee that you just saw.</p>\n                    <img src=\"bees-with-color/bee-A1DM.svg\" width=\"200\">\n                    <p><span class=\"redText\">Bad choice, the bee was angry.</span><br><b>You have been stung!</b><br>Your pay has been decreased by $0.10. Your bonus pay is now $0.48.</p>\n            ","response":0,"trial_type":"html-button-response","trial_index":12,"time_elapsed":385920,"internal_node_id":"0.0-4.0-1.2","subject_id":"60fd487a67bd78e529e91894","study_id":"6197b3f67c2b5cd3b6d9596a","session_id":"619be31dcfc4d781ad04b57c","condition":"contingent","relevant_dimensions":["antennae","legs"],"bee_group":{"antennae":"A","wings":"X","pattern":"X","legs":"M"},"bonus":0.6200000000000012},{"rt":2539.1999999955297,"stimulus":"bees-with-color/bee-B2SM.svg","response":0,"trial_type":"image-button-response","trial_index":13,"time_elapsed":388461,"internal_node_id":"0.0-4.0-0.3","subject_id":"60fd487a67bd78e529e91894","study_id":"6197b3f67c2b5cd3b6d9596a","session_id":"619be31dcfc4d781ad04b57c","condition":"contingent","relevant_dimensions":["antennae","legs"],"bee_group":{"antennae":"A","wings":"X","pattern":"X","legs":"M"},"action":"harvest","summary":"good-harvest","bonus":0.6200000000000012},{"rt":6696.5,"stimulus":"\n                    <p><b>Action: <em>harvest</em></b></p>\n                    <p>This is the bee that you just saw.</p>\n                    <img src=\"bees-with-color/bee-B2SM.svg\" width=\"200\">\n                    <p><span class=\"greenText\"><b>Successful harvest!</b></span><br>Your pay has increased by $0.02. Your bonus pay is now $0.50.</p>\n            ","response":0,"trial_type":"html-button-response","trial_index":14,"time_elapsed":395158,"internal_node_id":"0.0-4.0-1.3","subject_id":"60fd487a67bd78e529e91894","study_id":"6197b3f67c2b5cd3b6d9596a","session_id":"619be31dcfc4d781ad04b57c","condition":"contingent","relevant_dimensions":["antennae","legs"],"bee_group":{"antennae":"A","wings":"X","pattern":"X","legs":"M"},"bonus":0.6200000000000012},{"rt":1417.1999999955297,"stimulus":"bees-with-color/bee-B2DF.svg","response":1,"trial_type":"image-button-response","trial_index":15,"time_elapsed":396576,"internal_node_id":"0.0-4.0-0.4","subject_id":"60fd487a67bd78e529e91894","study_id":"6197b3f67c2b5cd3b6d9596a","session_id":"619be31dcfc4d781ad04b57c","condition":"contingent","relevant_dimensions":["antennae","legs"],"bee_group":{"antennae":"A","wings":"X","pattern":"X","legs":"M"},"action":"avoid","summary":"bad-avoid","bonus":0.6200000000000012},{"rt":1168.6000000014901,"stimulus":"\n                    <p><b>Action: <em>avoid</em></b></p>\n                    <p>This is the bee that you just saw.</p>\n                    <img src=\"bees-with-color/bee-B2DF.svg\" width=\"200\">\n                    <p><br>Your bonus pay is unchanged, and remains at $0.50.</p>\n            ","response":0,"trial_type":"html-button-response","trial_index":16,"time_elapsed":397746,"internal_node_id":"0.0-4.0-1.4","subject_id":"60fd487a67bd78e529e91894","study_id":"6197b3f67c2b5cd3b6d9596a","session_id":"619be31dcfc4d781ad04b57c","condition":"contingent","relevant_dimensions":["antennae","legs"],"bee_group":{"antennae":"A","wings":"X","pattern":"X","legs":"M"},"bonus":0.6200000000000012},{"rt":1769.6999999955297,"stimulus":"bees-with-color/bee-A2SF.svg","response":0,"trial_type":"image-button-response","trial_index":17,"time_elapsed":399517,"internal_node_id":"0.0-4.0-0.5","subject_id":"60fd487a67bd78e529e91894","study_id":"6197b3f67c2b5cd3b6d9596a","session_id":"619be31dcfc4d781ad04b57c","condition":"contingent","relevant_dimensions":["antennae","legs"],"bee_group":{"antennae":"A","wings":"X","pattern":"X","legs":"M"},"action":"harvest","summary":"good-harvest","bonus":0.6200000000000012},{"rt":1936.5999999940395,"stimulus":"\n                    <p><b>Action: <em>harvest</em></b></p>\n                    <p>This is the bee that you just saw.</p>\n                    <img src=\"bees-with-color/bee-A2SF.svg\" width=\"200\">\n                    <p><span class=\"greenText\"><b>Successful harvest!</b></span><br>Your pay has increased by $0.02. Your bonus pay is now $0.52.</p>\n            ","response":0,"trial_type":"html-button-response","trial_index":18,"time_elapsed":401454,"internal_node_id":"0.0-4.0-1.5","subject_id":"60fd487a67bd78e529e91894","study_id":"6197b3f67c2b5cd3b6d9596a","session_id":"619be31dcfc4d781ad04b57c","condition":"contingent","relevant_dimensions":["antennae","legs"],"bee_group":{"antennae":"A","wings":"X","pattern":"X","legs":"M"},"bonus":0.6200000000000012},{"rt":1496.7999999970198,"stimulus":"bees-with-color/bee-A2DM.svg","response":1,"trial_type":"image-button-response","trial_index":19,"time_elapsed":402952,"internal_node_id":"0.0-4.0-0.6","subject_id":"60fd487a67bd78e529e91894","study_id":"6197b3f67c2b5cd3b6d9596a","session_id":"619be31dcfc4d781ad04b57c","condition":"contingent","relevant_dimensions":["antennae","legs"],"bee_group":{"antennae":"A","wings":"X","pattern":"X","legs":"M"},"action":"avoid","summary":"good-avoid","bonus":0.6200000000000012},{"rt":1057,"stimulus":"\n                    <p><b>Action: <em>avoid</em></b></p>\n                    <p>This is the bee that you just saw.</p>\n                    <img src=\"bees-with-color/bee-A2DM.svg\" width=\"200\">\n                    <p><br>Your bonus pay is unchanged, and remains at $0.52.</p>\n            ","response":0,"trial_type":"html-button-response","trial_index":20,"time_elapsed":404010,"internal_node_id":"0.0-4.0-1.6","subject_id":"60fd487a67bd78e529e91894","study_id":"6197b3f67c2b5cd3b6d9596a","session_id":"619be31dcfc4d781ad04b57c","condition":"contingent","relevant_dimensions":["antennae","legs"],"bee_group":{"antennae":"A","wings":"X","pattern":"X","legs":"M"},"bonus":0.6200000000000012},{"rt":1592.8000000044703,"stimulus":"bees-with-color/bee-B2DM.svg","response":1,"trial_type":"image-button-response","trial_index":21,"time_elapsed":405604,"internal_node_id":"0.0-4.0-0.7","subject_id":"60fd487a67bd78e529e91894","study_id":"6197b3f67c2b5cd3b6d9596a","session_id":"619be31dcfc4d781ad04b57c","condition":"contingent","relevant_dimensions":["antennae","legs"],"bee_group":{"antennae":"A","wings":"X","pattern":"X","legs":"M"},"action":"avoid","summary":"bad-avoid","bonus":0.6200000000000012},{"rt":735.2999999970198,"stimulus":"\n                    <p><b>Action: <em>avoid</em></b></p>\n                    <p>This is the bee that you just saw.</p>\n                    <img src=\"bees-with-color/bee-B2DM.svg\" width=\"200\">\n                    <p><br>Your bonus pay is unchanged, and remains at $0.52.</p>\n            ","response":0,"trial_type":"html-button-response","trial_index":22,"time_elapsed":406340,"internal_node_id":"0.0-4.0-1.7","subject_id":"60fd487a67bd78e529e91894","study_id":"6197b3f67c2b5cd3b6d9596a","session_id":"619be31dcfc4d781ad04b57c","condition":"contingent","relevant_dimensions":["antennae","legs"],"bee_group":{"antennae":"A","wings":"X","pattern":"X","legs":"M"},"bonus":0.6200000000000012},{"rt":1088.5,"stimulus":"bees-with-color/bee-B1DM.svg","response":1,"trial_type":"image-button-response","trial_index":23,"time_elapsed":407430,"internal_node_id":"0.0-4.0-0.8","subject_id":"60fd487a67bd78e529e91894","study_id":"6197b3f67c2b5cd3b6d9596a","session_id":"619be31dcfc4d781ad04b57c","condition":"contingent","relevant_dimensions":["antennae","legs"],"bee_group":{"antennae":"A","wings":"X","pattern":"X","legs":"M"},"action":"avoid","summary":"bad-avoid","bonus":0.6200000000000012},{"rt":752.8999999985099,"stimulus":"\n                    <p><b>Action: <em>avoid</em></b></p>\n                    <p>This is the bee that you just saw.</p>\n                    <img src=\"bees-with-color/bee-B1DM.svg\" width=\"200\">\n                    <p><br>Your bonus pay is unchanged, and remains at $0.52.</p>\n            ","response":0,"trial_type":"html-button-response","trial_index":24,"time_elapsed":408184,"internal_node_id":"0.0-4.0-1.8","subject_id":"60fd487a67bd78e529e91894","study_id":"6197b3f67c2b5cd3b6d9596a","session_id":"619be31dcfc4d781ad04b57c","condition":"contingent","relevant_dimensions":["antennae","legs"],"bee_group":{"antennae":"A","wings":"X","pattern":"X","legs":"M"},"bonus":0.6200000000000012},{"rt":1129.5,"stimulus":"bees-with-color/bee-A2SM.svg","response":0,"trial_type":"image-button-response","trial_index":25,"time_elapsed":409314,"internal_node_id":"0.0-4.0-0.9","subject_id":"60fd487a67bd78e529e91894","study_id":"6197b3f67c2b5cd3b6d9596a","session_id":"619be31dcfc4d781ad04b57c","condition":"contingent","relevant_dimensions":["antennae","legs"],"bee_group":{"antennae":"A","wings":"X","pattern":"X","legs":"M"},"action":"harvest","summary":"bad-harvest","bonus":0.6200000000000012},{"rt":30516.5,"stimulus":"\n                    <p><b>Action: <em>harvest</em></b></p>\n                    <p>This is the bee that you just saw.</p>\n                    <img src=\"bees-with-color/bee-A2SM.svg\" width=\"200\">\n                    <p><span class=\"redText\">Bad choice, the bee was angry.</span><br><b>You have been stung!</b><br>Your pay has been decreased by $0.10. Your bonus pay is now $0.42.</p>\n            ","response":0,"trial_type":"html-button-response","trial_index":26,"time_elapsed":439832,"internal_node_id":"0.0-4.0-1.9","subject_id":"60fd487a67bd78e529e91894","study_id":"6197b3f67c2b5cd3b6d9596a","session_id":"619be31dcfc4d781ad04b57c","condition":"contingent","relevant_dimensions":["antennae","legs"],"bee_group":{"antennae":"A","wings":"X","pattern":"X","legs":"M"},"bonus":0.6200000000000012},{"rt":2106.5999999940395,"stimulus":"bees-with-color/bee-B1DF.svg","response":0,"trial_type":"image-button-response","trial_index":27,"time_elapsed":441940,"internal_node_id":"0.0-4.0-0.10","subject_id":"60fd487a67bd78e529e91894","study_id":"6197b3f67c2b5cd3b6d9596a","session_id":"619be31dcfc4d781ad04b57c","condition":"contingent","relevant_dimensions":["antennae","legs"],"bee_group":{"antennae":"A","wings":"X","pattern":"X","legs":"M"},"action":"harvest","summary":"good-harvest","bonus":0.6200000000000012},{"rt":1848.6999999955297,"stimulus":"\n                    <p><b>Action: <em>harvest</em></b></p>\n                    <p>This is the bee that you just saw.</p>\n                    <img src=\"bees-with-color/bee-B1DF.svg\" width=\"200\">\n                    <p><span class=\"greenText\"><b>Successful harvest!</b></span><br>Your pay has increased by $0.02. Your bonus pay is now $0.44.</p>\n            ","response":0,"trial_type":"html-button-response","trial_index":28,"time_elapsed":443790,"internal_node_id":"0.0-4.0-1.10","subject_id":"60fd487a67bd78e529e91894","study_id":"6197b3f67c2b5cd3b6d9596a","session_id":"619be31dcfc4d781ad04b57c","condition":"contingent","relevant_dimensions":["antennae","legs"],"bee_group":{"antennae":"A","wings":"X","pattern":"X","legs":"M"},"bonus":0.6200000000000012},{"rt":1441.8000000044703,"stimulus":"bees-with-color/bee-B1SF.svg","response":0,"trial_type":"image-button-response","trial_index":29,"time_elapsed":445233,"internal_node_id":"0.0-4.0-0.11","subject_id":"60fd487a67bd78e529e91894","study_id":"6197b3f67c2b5cd3b6d9596a","session_id":"619be31dcfc4d781ad04b57c","condition":"contingent","relevant_dimensions":["antennae","legs"],"bee_group":{"antennae":"A","wings":"X","pattern":"X","legs":"M"},"action":"harvest","summary":"good-harvest","bonus":0.6200000000000012},{"rt":1296.2999999970198,"stimulus":"\n                    <p><b>Action: <em>harvest</em></b></p>\n                    <p>This is the bee that you just saw.</p>\n                    <img src=\"bees-with-color/bee-B1SF.svg\" width=\"200\">\n                    <p><span class=\"greenText\"><b>Successful harvest!</b></span><br>Your pay has increased by $0.02. Your bonus pay is now $0.46.</p>\n            ","response":0,"trial_type":"html-button-response","trial_index":30,"time_elapsed":446530,"internal_node_id":"0.0-4.0-1.11","subject_id":"60fd487a67bd78e529e91894","study_id":"6197b3f67c2b5cd3b6d9596a","session_id":"619be31dcfc4d781ad04b57c","condition":"contingent","relevant_dimensions":["antennae","legs"],"bee_group":{"antennae":"A","wings":"X","pattern":"X","legs":"M"},"bonus":0.6200000000000012},{"rt":3740.7999999970198,"stimulus":"bees-with-color/bee-A2DF.svg","response":0,"trial_type":"image-button-response","trial_index":31,"time_elapsed":450272,"internal_node_id":"0.0-4.0-0.12","subject_id":"60fd487a67bd78e529e91894","study_id":"6197b3f67c2b5cd3b6d9596a","session_id":"619be31dcfc4d781ad04b57c","condition":"contingent","relevant_dimensions":["antennae","legs"],"bee_group":{"antennae":"A","wings":"X","pattern":"X","legs":"M"},"action":"harvest","summary":"good-harvest","bonus":0.6200000000000012},{"rt":1144.7999999970198,"stimulus":"\n                    <p><b>Action: <em>harvest</em></b></p>\n                    <p>This is the bee that you just saw.</p>\n                    <img src=\"bees-with-color/bee-A2DF.svg\" width=\"200\">\n                    <p><span class=\"greenText\"><b>Successful harvest!</b></span><br>Your pay has increased by $0.02. Your bonus pay is now $0.48.</p>\n            ","response":0,"trial_type":"html-button-response","trial_index":32,"time_elapsed":451418,"internal_node_id":"0.0-4.0-1.12","subject_id":"60fd487a67bd78e529e91894","study_id":"6197b3f67c2b5cd3b6d9596a","session_id":"619be31dcfc4d781ad04b57c","condition":"contingent","relevant_dimensions":["antennae","legs"],"bee_group":{"antennae":"A","wings":"X","pattern":"X","legs":"M"},"bonus":0.6200000000000012},{"rt":4808.79999999702,"stimulus":"bees-with-color/bee-B1SM.svg","response":0,"trial_type":"image-button-response","trial_index":33,"time_elapsed":456228,"internal_node_id":"0.0-4.0-0.13","subject_id":"60fd487a67bd78e529e91894","study_id":"6197b3f67c2b5cd3b6d9596a","session_id":"619be31dcfc4d781ad04b57c","condition":"contingent","relevant_dimensions":["antennae","legs"],"bee_group":{"antennae":"A","wings":"X","pattern":"X","legs":"M"},"action":"harvest","summary":"good-harvest","bonus":0.6200000000000012},{"rt":1304.7999999970198,"stimulus":"\n                    <p><b>Action: <em>harvest</em></b></p>\n                    <p>This is the bee that you just saw.</p>\n                    <img src=\"bees-with-color/bee-B1SM.svg\" width=\"200\">\n                    <p><span class=\"greenText\"><b>Successful harvest!</b></span><br>Your pay has increased by $0.02. Your bonus pay is now $0.50.</p>\n            ","response":0,"trial_type":"html-button-response","trial_index":34,"time_elapsed":457534,"internal_node_id":"0.0-4.0-1.13","subject_id":"60fd487a67bd78e529e91894","study_id":"6197b3f67c2b5cd3b6d9596a","session_id":"619be31dcfc4d781ad04b57c","condition":"contingent","relevant_dimensions":["antennae","legs"],"bee_group":{"antennae":"A","wings":"X","pattern":"X","legs":"M"},"bonus":0.6200000000000012},{"rt":1921.1999999955297,"stimulus":"bees-with-color/bee-A1DF.svg","response":0,"trial_type":"image-button-response","trial_index":35,"time_elapsed":459456,"internal_node_id":"0.0-4.0-0.14","subject_id":"60fd487a67bd78e529e91894","study_id":"6197b3f67c2b5cd3b6d9596a","session_id":"619be31dcfc4d781ad04b57c","condition":"contingent","relevant_dimensions":["antennae","legs"],"bee_group":{"antennae":"A","wings":"X","pattern":"X","legs":"M"},"action":"harvest","summary":"good-harvest","bonus":0.6200000000000012},{"rt":1009.0999999940395,"stimulus":"\n                    <p><b>Action: <em>harvest</em></b></p>\n                    <p>This is the bee that you just saw.</p>\n                    <img src=\"bees-with-color/bee-A1DF.svg\" width=\"200\">\n                    <p><span class=\"greenText\"><b>Successful harvest!</b></span><br>Your pay has increased by $0.02. Your bonus pay is now $0.52.</p>\n            ","response":0,"trial_type":"html-button-response","trial_index":36,"time_elapsed":460466,"internal_node_id":"0.0-4.0-1.14","subject_id":"60fd487a67bd78e529e91894","study_id":"6197b3f67c2b5cd3b6d9596a","session_id":"619be31dcfc4d781ad04b57c","condition":"contingent","relevant_dimensions":["antennae","legs"],"bee_group":{"antennae":"A","wings":"X","pattern":"X","legs":"M"},"bonus":0.6200000000000012},{"rt":1713.1999999955297,"stimulus":"bees-with-color/bee-A1SM.svg","response":0,"trial_type":"image-button-response","trial_index":37,"time_elapsed":462180,"internal_node_id":"0.0-4.0-0.15","subject_id":"60fd487a67bd78e529e91894","study_id":"6197b3f67c2b5cd3b6d9596a","session_id":"619be31dcfc4d781ad04b57c","condition":"contingent","relevant_dimensions":["antennae","legs"],"bee_group":{"antennae":"A","wings":"X","pattern":"X","legs":"M"},"action":"harvest","summary":"bad-harvest","bonus":0.6200000000000012},{"rt":6979.19999999553,"stimulus":"\n                    <p><b>Action: <em>harvest</em></b></p>\n                    <p>This is the bee that you just saw.</p>\n                    <img src=\"bees-with-color/bee-A1SM.svg\" width=\"200\">\n                    <p><span class=\"redText\">Bad choice, the bee was angry.</span><br><b>You have been stung!</b><br>Your pay has been decreased by $0.10. Your bonus pay is now $0.42.</p>\n            ","response":0,"trial_type":"html-button-response","trial_index":38,"time_elapsed":469160,"internal_node_id":"0.0-4.0-1.15","subject_id":"60fd487a67bd78e529e91894","study_id":"6197b3f67c2b5cd3b6d9596a","session_id":"619be31dcfc4d781ad04b57c","condition":"contingent","relevant_dimensions":["antennae","legs"],"bee_group":{"antennae":"A","wings":"X","pattern":"X","legs":"M"},"bonus":0.6200000000000012},{"rt":1728.6999999955297,"stimulus":"bees-with-color/bee-B1DM.svg","response":0,"trial_type":"image-button-response","trial_index":39,"time_elapsed":470890,"internal_node_id":"0.0-4.0-0.16","subject_id":"60fd487a67bd78e529e91894","study_id":"6197b3f67c2b5cd3b6d9596a","session_id":"619be31dcfc4d781ad04b57c","condition":"contingent","relevant_dimensions":["antennae","legs"],"bee_group":{"antennae":"A","wings":"X","pattern":"X","legs":"M"},"action":"harvest","summary":"good-harvest","bonus":0.6200000000000012},{"rt":1024.5,"stimulus":"\n                    <p><b>Action: <em>harvest</em></b></p>\n                    <p>This is the bee that you just saw.</p>\n                    <img src=\"bees-with-color/bee-B1DM.svg\" width=\"200\">\n                    <p><span class=\"greenText\"><b>Successful harvest!</b></span><br>Your pay has increased by $0.02. Your bonus pay is now $0.44.</p>\n            ","response":0,"trial_type":"html-button-response","trial_index":40,"time_elapsed":471916,"internal_node_id":"0.0-4.0-1.16","subject_id":"60fd487a67bd78e529e91894","study_id":"6197b3f67c2b5cd3b6d9596a","session_id":"619be31dcfc4d781ad04b57c","condition":"contingent","relevant_dimensions":["antennae","legs"],"bee_group":{"antennae":"A","wings":"X","pattern":"X","legs":"M"},"bonus":0.6200000000000012},{"rt":3765.10000000149,"stimulus":"bees-with-color/bee-B1SM.svg","response":1,"trial_type":"image-button-response","trial_index":41,"time_elapsed":475682,"internal_node_id":"0.0-4.0-0.17","subject_id":"60fd487a67bd78e529e91894","study_id":"6197b3f67c2b5cd3b6d9596a","session_id":"619be31dcfc4d781ad04b57c","condition":"contingent","relevant_dimensions":["antennae","legs"],"bee_group":{"antennae":"A","wings":"X","pattern":"X","legs":"M"},"action":"avoid","summary":"bad-avoid","bonus":0.6200000000000012},{"rt":2987.2000000029802,"stimulus":"\n                    <p><b>Action: <em>avoid</em></b></p>\n                    <p>This is the bee that you just saw.</p>\n                    <img src=\"bees-with-color/bee-B1SM.svg\" width=\"200\">\n                    <p><br>Your bonus pay is unchanged, and remains at $0.44.</p>\n            ","response":0,"trial_type":"html-button-response","trial_index":42,"time_elapsed":478670,"internal_node_id":"0.0-4.0-1.17","subject_id":"60fd487a67bd78e529e91894","study_id":"6197b3f67c2b5cd3b6d9596a","session_id":"619be31dcfc4d781ad04b57c","condition":"contingent","relevant_dimensions":["antennae","legs"],"bee_group":{"antennae":"A","wings":"X","pattern":"X","legs":"M"},"bonus":0.6200000000000012},{"rt":2074.6999999955297,"stimulus":"bees-with-color/bee-B2SM.svg","response":0,"trial_type":"image-button-response","trial_index":43,"time_elapsed":480746,"internal_node_id":"0.0-4.0-0.18","subject_id":"60fd487a67bd78e529e91894","study_id":"6197b3f67c2b5cd3b6d9596a","session_id":"619be31dcfc4d781ad04b57c","condition":"contingent","relevant_dimensions":["antennae","legs"],"bee_group":{"antennae":"A","wings":"X","pattern":"X","legs":"M"},"action":"harvest","summary":"good-harvest","bonus":0.6200000000000012},{"rt":1313.1999999955297,"stimulus":"\n                    <p><b>Action: <em>harvest</em></b></p>\n                    <p>This is the bee that you just saw.</p>\n                    <img src=\"bees-with-color/bee-B2SM.svg\" width=\"200\">\n                    <p><span class=\"greenText\"><b>Successful harvest!</b></span><br>Your pay has increased by $0.02. Your bonus pay is now $0.46.</p>\n            ","response":0,"trial_type":"html-button-response","trial_index":44,"time_elapsed":482060,"internal_node_id":"0.0-4.0-1.18","subject_id":"60fd487a67bd78e529e91894","study_id":"6197b3f67c2b5cd3b6d9596a","session_id":"619be31dcfc4d781ad04b57c","condition":"contingent","relevant_dimensions":["antennae","legs"],"bee_group":{"antennae":"A","wings":"X","pattern":"X","legs":"M"},"bonus":0.6200000000000012},{"rt":1872.8999999985099,"stimulus":"bees-with-color/bee-A1DF.svg","response":0,"trial_type":"image-button-response","trial_index":45,"time_elapsed":483934,"internal_node_id":"0.0-4.0-0.19","subject_id":"60fd487a67bd78e529e91894","study_id":"6197b3f67c2b5cd3b6d9596a","session_id":"619be31dcfc4d781ad04b57c","condition":"contingent","relevant_dimensions":["antennae","legs"],"bee_group":{"antennae":"A","wings":"X","pattern":"X","legs":"M"},"action":"harvest","summary":"good-harvest","bonus":0.6200000000000012},{"rt":1089.3000000044703,"stimulus":"\n                    <p><b>Action: <em>harvest</em></b></p>\n                    <p>This is the bee that you just saw.</p>\n                    <img src=\"bees-with-color/bee-A1DF.svg\" width=\"200\">\n                    <p><span class=\"greenText\"><b>Successful harvest!</b></span><br>Your pay has increased by $0.02. Your bonus pay is now $0.48.</p>\n            ","response":0,"trial_type":"html-button-response","trial_index":46,"time_elapsed":485024,"internal_node_id":"0.0-4.0-1.19","subject_id":"60fd487a67bd78e529e91894","study_id":"6197b3f67c2b5cd3b6d9596a","session_id":"619be31dcfc4d781ad04b57c","condition":"contingent","relevant_dimensions":["antennae","legs"],"bee_group":{"antennae":"A","wings":"X","pattern":"X","legs":"M"},"bonus":0.6200000000000012},{"rt":5528.89999999851,"stimulus":"bees-with-color/bee-A1DM.svg","response":1,"trial_type":"image-button-response","trial_index":47,"time_elapsed":490554,"internal_node_id":"0.0-4.0-0.20","subject_id":"60fd487a67bd78e529e91894","study_id":"6197b3f67c2b5cd3b6d9596a","session_id":"619be31dcfc4d781ad04b57c","condition":"contingent","relevant_dimensions":["antennae","legs"],"bee_group":{"antennae":"A","wings":"X","pattern":"X","legs":"M"},"action":"avoid","summary":"good-avoid","bonus":0.6200000000000012},{"rt":2035.2000000029802,"stimulus":"\n                    <p><b>Action: <em>avoid</em></b></p>\n                    <p>This is the bee that you just saw.</p>\n                    <img src=\"bees-with-color/bee-A1DM.svg\" width=\"200\">\n                    <p><br>Your bonus pay is unchanged, and remains at $0.48.</p>\n            ","response":0,"trial_type":"html-button-response","trial_index":48,"time_elapsed":492591,"internal_node_id":"0.0-4.0-1.20","subject_id":"60fd487a67bd78e529e91894","study_id":"6197b3f67c2b5cd3b6d9596a","session_id":"619be31dcfc4d781ad04b57c","condition":"contingent","relevant_dimensions":["antennae","legs"],"bee_group":{"antennae":"A","wings":"X","pattern":"X","legs":"M"},"bonus":0.6200000000000012},{"rt":4888.20000000298,"stimulus":"bees-with-color/bee-A1SM.svg","response":0,"trial_type":"image-button-response","trial_index":49,"time_elapsed":497480,"internal_node_id":"0.0-4.0-0.21","subject_id":"60fd487a67bd78e529e91894","study_id":"6197b3f67c2b5cd3b6d9596a","session_id":"619be31dcfc4d781ad04b57c","condition":"contingent","relevant_dimensions":["antennae","legs"],"bee_group":{"antennae":"A","wings":"X","pattern":"X","legs":"M"},"action":"harvest","summary":"bad-harvest","bonus":0.6200000000000012},{"rt":1233.2999999970198,"stimulus":"\n                    <p><b>Action: <em>harvest</em></b></p>\n                    <p>This is the bee that you just saw.</p>\n                    <img src=\"bees-with-color/bee-A1SM.svg\" width=\"200\">\n                    <p><span class=\"redText\">Bad choice, the bee was angry.</span><br><b>You have been stung!</b><br>Your pay has been decreased by $0.10. Your bonus pay is now $0.38.</p>\n            ","response":0,"trial_type":"html-button-response","trial_index":50,"time_elapsed":498714,"internal_node_id":"0.0-4.0-1.21","subject_id":"60fd487a67bd78e529e91894","study_id":"6197b3f67c2b5cd3b6d9596a","session_id":"619be31dcfc4d781ad04b57c","condition":"contingent","relevant_dimensions":["antennae","legs"],"bee_group":{"antennae":"A","wings":"X","pattern":"X","legs":"M"},"bonus":0.6200000000000012},{"rt":2136.7999999970198,"stimulus":"bees-with-color/bee-A2DF.svg","response":0,"trial_type":"image-button-response","trial_index":51,"time_elapsed":500852,"internal_node_id":"0.0-4.0-0.22","subject_id":"60fd487a67bd78e529e91894","study_id":"6197b3f67c2b5cd3b6d9596a","session_id":"619be31dcfc4d781ad04b57c","condition":"contingent","relevant_dimensions":["antennae","legs"],"bee_group":{"antennae":"A","wings":"X","pattern":"X","legs":"M"},"action":"harvest","summary":"good-harvest","bonus":0.6200000000000012},{"rt":977,"stimulus":"\n                    <p><b>Action: <em>harvest</em></b></p>\n                    <p>This is the bee that you just saw.</p>\n                    <img src=\"bees-with-color/bee-A2DF.svg\" width=\"200\">\n                    <p><span class=\"greenText\"><b>Successful harvest!</b></span><br>Your pay has increased by $0.02. Your bonus pay is now $0.40.</p>\n            ","response":0,"trial_type":"html-button-response","trial_index":52,"time_elapsed":501830,"internal_node_id":"0.0-4.0-1.22","subject_id":"60fd487a67bd78e529e91894","study_id":"6197b3f67c2b5cd3b6d9596a","session_id":"619be31dcfc4d781ad04b57c","condition":"contingent","relevant_dimensions":["antennae","legs"],"bee_group":{"antennae":"A","wings":"X","pattern":"X","legs":"M"},"bonus":0.6200000000000012},{"rt":1697.1000000014901,"stimulus":"bees-with-color/bee-B1SF.svg","response":0,"trial_type":"image-button-response","trial_index":53,"time_elapsed":503528,"internal_node_id":"0.0-4.0-0.23","subject_id":"60fd487a67bd78e529e91894","study_id":"6197b3f67c2b5cd3b6d9596a","session_id":"619be31dcfc4d781ad04b57c","condition":"contingent","relevant_dimensions":["antennae","legs"],"bee_group":{"antennae":"A","wings":"X","pattern":"X","legs":"M"},"action":"harvest","summary":"good-harvest","bonus":0.6200000000000012},{"rt":977.1999999955297,"stimulus":"\n                    <p><b>Action: <em>harvest</em></b></p>\n                    <p>This is the bee that you just saw.</p>\n                    <img src=\"bees-with-color/bee-B1SF.svg\" width=\"200\">\n                    <p><span class=\"greenText\"><b>Successful harvest!</b></span><br>Your pay has increased by $0.02. Your bonus pay is now $0.42.</p>\n            ","response":0,"trial_type":"html-button-response","trial_index":54,"time_elapsed":504506,"internal_node_id":"0.0-4.0-1.23","subject_id":"60fd487a67bd78e529e91894","study_id":"6197b3f67c2b5cd3b6d9596a","session_id":"619be31dcfc4d781ad04b57c","condition":"contingent","relevant_dimensions":["antennae","legs"],"bee_group":{"antennae":"A","wings":"X","pattern":"X","legs":"M"},"bonus":0.6200000000000012},{"rt":2739.0999999940395,"stimulus":"bees-with-color/bee-A1SF.svg","response":0,"trial_type":"image-button-response","trial_index":55,"time_elapsed":507247,"internal_node_id":"0.0-4.0-0.24","subject_id":"60fd487a67bd78e529e91894","study_id":"6197b3f67c2b5cd3b6d9596a","session_id":"619be31dcfc4d781ad04b57c","condition":"contingent","relevant_dimensions":["antennae","legs"],"bee_group":{"antennae":"A","wings":"X","pattern":"X","legs":"M"},"action":"harvest","summary":"good-harvest","bonus":0.6200000000000012},{"rt":879.1999999955297,"stimulus":"\n                    <p><b>Action: <em>harvest</em></b></p>\n                    <p>This is the bee that you just saw.</p>\n                    <img src=\"bees-with-color/bee-A1SF.svg\" width=\"200\">\n                    <p><span class=\"greenText\"><b>Successful harvest!</b></span><br>Your pay has increased by $0.02. Your bonus pay is now $0.44.</p>\n            ","response":0,"trial_type":"html-button-response","trial_index":56,"time_elapsed":508127,"internal_node_id":"0.0-4.0-1.24","subject_id":"60fd487a67bd78e529e91894","study_id":"6197b3f67c2b5cd3b6d9596a","session_id":"619be31dcfc4d781ad04b57c","condition":"contingent","relevant_dimensions":["antennae","legs"],"bee_group":{"antennae":"A","wings":"X","pattern":"X","legs":"M"},"bonus":0.6200000000000012},{"rt":1448.7999999970198,"stimulus":"bees-with-color/bee-B2SF.svg","response":0,"trial_type":"image-button-response","trial_index":57,"time_elapsed":509576,"internal_node_id":"0.0-4.0-0.25","subject_id":"60fd487a67bd78e529e91894","study_id":"6197b3f67c2b5cd3b6d9596a","session_id":"619be31dcfc4d781ad04b57c","condition":"contingent","relevant_dimensions":["antennae","legs"],"bee_group":{"antennae":"A","wings":"X","pattern":"X","legs":"M"},"action":"harvest","summary":"good-harvest","bonus":0.6200000000000012},{"rt":1041.1999999955297,"stimulus":"\n                    <p><b>Action: <em>harvest</em></b></p>\n                    <p>This is the bee that you just saw.</p>\n                    <img src=\"bees-with-color/bee-B2SF.svg\" width=\"200\">\n                    <p><span class=\"greenText\"><b>Successful harvest!</b></span><br>Your pay has increased by $0.02. Your bonus pay is now $0.46.</p>\n            ","response":0,"trial_type":"html-button-response","trial_index":58,"time_elapsed":510619,"internal_node_id":"0.0-4.0-1.25","subject_id":"60fd487a67bd78e529e91894","study_id":"6197b3f67c2b5cd3b6d9596a","session_id":"619be31dcfc4d781ad04b57c","condition":"contingent","relevant_dimensions":["antennae","legs"],"bee_group":{"antennae":"A","wings":"X","pattern":"X","legs":"M"},"bonus":0.6200000000000012},{"rt":3115.1999999955297,"stimulus":"bees-with-color/bee-A2SM.svg","response":0,"trial_type":"image-button-response","trial_index":59,"time_elapsed":513734,"internal_node_id":"0.0-4.0-0.26","subject_id":"60fd487a67bd78e529e91894","study_id":"6197b3f67c2b5cd3b6d9596a","session_id":"619be31dcfc4d781ad04b57c","condition":"contingent","relevant_dimensions":["antennae","legs"],"bee_group":{"antennae":"A","wings":"X","pattern":"X","legs":"M"},"action":"harvest","summary":"bad-harvest","bonus":0.6200000000000012},{"rt":1987,"stimulus":"\n                    <p><b>Action: <em>harvest</em></b></p>\n                    <p>This is the bee that you just saw.</p>\n                    <img src=\"bees-with-color/bee-A2SM.svg\" width=\"200\">\n                    <p><span class=\"redText\">Bad choice, the bee was angry.</span><br><b>You have been stung!</b><br>Your pay has been decreased by $0.10. Your bonus pay is now $0.36.</p>\n            ","response":0,"trial_type":"html-button-response","trial_index":60,"time_elapsed":515723,"internal_node_id":"0.0-4.0-1.26","subject_id":"60fd487a67bd78e529e91894","study_id":"6197b3f67c2b5cd3b6d9596a","session_id":"619be31dcfc4d781ad04b57c","condition":"contingent","relevant_dimensions":["antennae","legs"],"bee_group":{"antennae":"A","wings":"X","pattern":"X","legs":"M"},"bonus":0.6200000000000012},{"rt":2091,"stimulus":"bees-with-color/bee-B2DM.svg","response":0,"trial_type":"image-button-response","trial_index":61,"time_elapsed":517815,"internal_node_id":"0.0-4.0-0.27","subject_id":"60fd487a67bd78e529e91894","study_id":"6197b3f67c2b5cd3b6d9596a","session_id":"619be31dcfc4d781ad04b57c","condition":"contingent","relevant_dimensions":["antennae","legs"],"bee_group":{"antennae":"A","wings":"X","pattern":"X","legs":"M"},"action":"harvest","summary":"good-harvest","bonus":0.6200000000000012},{"rt":1137.1000000014901,"stimulus":"\n                    <p><b>Action: <em>harvest</em></b></p>\n                    <p>This is the bee that you just saw.</p>\n                    <img src=\"bees-with-color/bee-B2DM.svg\" width=\"200\">\n                    <p><span class=\"greenText\"><b>Successful harvest!</b></span><br>Your pay has increased by $0.02. Your bonus pay is now $0.38.</p>\n            ","response":0,"trial_type":"html-button-response","trial_index":62,"time_elapsed":518953,"internal_node_id":"0.0-4.0-1.27","subject_id":"60fd487a67bd78e529e91894","study_id":"6197b3f67c2b5cd3b6d9596a","session_id":"619be31dcfc4d781ad04b57c","condition":"contingent","relevant_dimensions":["antennae","legs"],"bee_group":{"antennae":"A","wings":"X","pattern":"X","legs":"M"},"bonus":0.6200000000000012},{"rt":2496.89999999851,"stimulus":"bees-with-color/bee-A2DM.svg","response":1,"trial_type":"image-button-response","trial_index":63,"time_elapsed":521450,"internal_node_id":"0.0-4.0-0.28","subject_id":"60fd487a67bd78e529e91894","study_id":"6197b3f67c2b5cd3b6d9596a","session_id":"619be31dcfc4d781ad04b57c","condition":"contingent","relevant_dimensions":["antennae","legs"],"bee_group":{"antennae":"A","wings":"X","pattern":"X","legs":"M"},"action":"avoid","summary":"good-avoid","bonus":0.6200000000000012},{"rt":721,"stimulus":"\n                    <p><b>Action: <em>avoid</em></b></p>\n                    <p>This is the bee that you just saw.</p>\n                    <img src=\"bees-with-color/bee-A2DM.svg\" width=\"200\">\n                    <p><br>Your bonus pay is unchanged, and remains at $0.38.</p>\n            ","response":0,"trial_type":"html-button-response","trial_index":64,"time_elapsed":522172,"internal_node_id":"0.0-4.0-1.28","subject_id":"60fd487a67bd78e529e91894","study_id":"6197b3f67c2b5cd3b6d9596a","session_id":"619be31dcfc4d781ad04b57c","condition":"contingent","relevant_dimensions":["antennae","legs"],"bee_group":{"antennae":"A","wings":"X","pattern":"X","legs":"M"},"bonus":0.6200000000000012},{"rt":3003,"stimulus":"bees-with-color/bee-B2DF.svg","response":0,"trial_type":"image-button-response","trial_index":65,"time_elapsed":525177,"internal_node_id":"0.0-4.0-0.29","subject_id":"60fd487a67bd78e529e91894","study_id":"6197b3f67c2b5cd3b6d9596a","session_id":"619be31dcfc4d781ad04b57c","condition":"contingent","relevant_dimensions":["antennae","legs"],"bee_group":{"antennae":"A","wings":"X","pattern":"X","legs":"M"},"action":"harvest","summary":"good-harvest","bonus":0.6200000000000012},{"rt":928.8999999985099,"stimulus":"\n                    <p><b>Action: <em>harvest</em></b></p>\n                    <p>This is the bee that you just saw.</p>\n                    <img src=\"bees-with-color/bee-B2DF.svg\" width=\"200\">\n                    <p><span class=\"greenText\"><b>Successful harvest!</b></span><br>Your pay has increased by $0.02. Your bonus pay is now $0.40.</p>\n            ","response":0,"trial_type":"html-button-response","trial_index":66,"time_elapsed":526107,"internal_node_id":"0.0-4.0-1.29","subject_id":"60fd487a67bd78e529e91894","study_id":"6197b3f67c2b5cd3b6d9596a","session_id":"619be31dcfc4d781ad04b57c","condition":"contingent","relevant_dimensions":["antennae","legs"],"bee_group":{"antennae":"A","wings":"X","pattern":"X","legs":"M"},"bonus":0.6200000000000012},{"rt":1230.8999999985099,"stimulus":"bees-with-color/bee-B1DF.svg","response":0,"trial_type":"image-button-response","trial_index":67,"time_elapsed":527339,"internal_node_id":"0.0-4.0-0.30","subject_id":"60fd487a67bd78e529e91894","study_id":"6197b3f67c2b5cd3b6d9596a","session_id":"619be31dcfc4d781ad04b57c","condition":"contingent","relevant_dimensions":["antennae","legs"],"bee_group":{"antennae":"A","wings":"X","pattern":"X","legs":"M"},"action":"harvest","summary":"good-harvest","bonus":0.6200000000000012},{"rt":769.3999999985099,"stimulus":"\n                    <p><b>Action: <em>harvest</em></b></p>\n                    <p>This is the bee that you just saw.</p>\n                    <img src=\"bees-with-color/bee-B1DF.svg\" width=\"200\">\n                    <p><span class=\"greenText\"><b>Successful harvest!</b></span><br>Your pay has increased by $0.02. Your bonus pay is now $0.42.</p>\n            ","response":0,"trial_type":"html-button-response","trial_index":68,"time_elapsed":528109,"internal_node_id":"0.0-4.0-1.30","subject_id":"60fd487a67bd78e529e91894","study_id":"6197b3f67c2b5cd3b6d9596a","session_id":"619be31dcfc4d781ad04b57c","condition":"contingent","relevant_dimensions":["antennae","legs"],"bee_group":{"antennae":"A","wings":"X","pattern":"X","legs":"M"},"bonus":0.6200000000000012},{"rt":1392.7999999970198,"stimulus":"bees-with-color/bee-A2SF.svg","response":0,"trial_type":"image-button-response","trial_index":69,"time_elapsed":529503,"internal_node_id":"0.0-4.0-0.31","subject_id":"60fd487a67bd78e529e91894","study_id":"6197b3f67c2b5cd3b6d9596a","session_id":"619be31dcfc4d781ad04b57c","condition":"contingent","relevant_dimensions":["antennae","legs"],"bee_group":{"antennae":"A","wings":"X","pattern":"X","legs":"M"},"action":"harvest","summary":"good-harvest","bonus":0.6200000000000012},{"rt":1336.8999999985099,"stimulus":"\n                    <p><b>Action: <em>harvest</em></b></p>\n                    <p>This is the bee that you just saw.</p>\n                    <img src=\"bees-with-color/bee-A2SF.svg\" width=\"200\">\n                    <p><span class=\"greenText\"><b>Successful harvest!</b></span><br>Your pay has increased by $0.02. Your bonus pay is now $0.44.</p>\n            ","response":0,"trial_type":"html-button-response","trial_index":70,"time_elapsed":530841,"internal_node_id":"0.0-4.0-1.31","subject_id":"60fd487a67bd78e529e91894","study_id":"6197b3f67c2b5cd3b6d9596a","session_id":"619be31dcfc4d781ad04b57c","condition":"contingent","relevant_dimensions":["antennae","legs"],"bee_group":{"antennae":"A","wings":"X","pattern":"X","legs":"M"},"bonus":0.6200000000000012},{"rt":3114.7999999970198,"stimulus":"bees-with-color/bee-B1DM.svg","response":1,"trial_type":"image-button-response","trial_index":71,"time_elapsed":533957,"internal_node_id":"0.0-4.0-0.32","subject_id":"60fd487a67bd78e529e91894","study_id":"6197b3f67c2b5cd3b6d9596a","session_id":"619be31dcfc4d781ad04b57c","condition":"contingent","relevant_dimensions":["antennae","legs"],"bee_group":{"antennae":"A","wings":"X","pattern":"X","legs":"M"},"action":"avoid","summary":"bad-avoid","bonus":0.6200000000000012},{"rt":608.8999999985099,"stimulus":"\n                    <p><b>Action: <em>avoid</em></b></p>\n                    <p>This is the bee that you just saw.</p>\n                    <img src=\"bees-with-color/bee-B1DM.svg\" width=\"200\">\n                    <p><br>Your bonus pay is unchanged, and remains at $0.44.</p>\n            ","response":0,"trial_type":"html-button-response","trial_index":72,"time_elapsed":534567,"internal_node_id":"0.0-4.0-1.32","subject_id":"60fd487a67bd78e529e91894","study_id":"6197b3f67c2b5cd3b6d9596a","session_id":"619be31dcfc4d781ad04b57c","condition":"contingent","relevant_dimensions":["antennae","legs"],"bee_group":{"antennae":"A","wings":"X","pattern":"X","legs":"M"},"bonus":0.6200000000000012},{"rt":1624.8000000044703,"stimulus":"bees-with-color/bee-A2DF.svg","response":0,"trial_type":"image-button-response","trial_index":73,"time_elapsed":536193,"internal_node_id":"0.0-4.0-0.33","subject_id":"60fd487a67bd78e529e91894","study_id":"6197b3f67c2b5cd3b6d9596a","session_id":"619be31dcfc4d781ad04b57c","condition":"contingent","relevant_dimensions":["antennae","legs"],"bee_group":{"antennae":"A","wings":"X","pattern":"X","legs":"M"},"action":"harvest","summary":"good-harvest","bonus":0.6200000000000012},{"rt":913,"stimulus":"\n                    <p><b>Action: <em>harvest</em></b></p>\n                    <p>This is the bee that you just saw.</p>\n                    <img src=\"bees-with-color/bee-A2DF.svg\" width=\"200\">\n                    <p><span class=\"greenText\"><b>Successful harvest!</b></span><br>Your pay has increased by $0.02. Your bonus pay is now $0.46.</p>\n            ","response":0,"trial_type":"html-button-response","trial_index":74,"time_elapsed":537107,"internal_node_id":"0.0-4.0-1.33","subject_id":"60fd487a67bd78e529e91894","study_id":"6197b3f67c2b5cd3b6d9596a","session_id":"619be31dcfc4d781ad04b57c","condition":"contingent","relevant_dimensions":["antennae","legs"],"bee_group":{"antennae":"A","wings":"X","pattern":"X","legs":"M"},"bonus":0.6200000000000012},{"rt":2874.89999999851,"stimulus":"bees-with-color/bee-A2SF.svg","response":0,"trial_type":"image-button-response","trial_index":75,"time_elapsed":539982,"internal_node_id":"0.0-4.0-0.34","subject_id":"60fd487a67bd78e529e91894","study_id":"6197b3f67c2b5cd3b6d9596a","session_id":"619be31dcfc4d781ad04b57c","condition":"contingent","relevant_dimensions":["antennae","legs"],"bee_group":{"antennae":"A","wings":"X","pattern":"X","legs":"M"},"action":"harvest","summary":"good-harvest","bonus":0.6200000000000012},{"rt":833.1999999955297,"stimulus":"\n                    <p><b>Action: <em>harvest</em></b></p>\n                    <p>This is the bee that you just saw.</p>\n                    <img src=\"bees-with-color/bee-A2SF.svg\" width=\"200\">\n                    <p><span class=\"greenText\"><b>Successful harvest!</b></span><br>Your pay has increased by $0.02. Your bonus pay is now $0.48.</p>\n            ","response":0,"trial_type":"html-button-response","trial_index":76,"time_elapsed":540817,"internal_node_id":"0.0-4.0-1.34","subject_id":"60fd487a67bd78e529e91894","study_id":"6197b3f67c2b5cd3b6d9596a","session_id":"619be31dcfc4d781ad04b57c","condition":"contingent","relevant_dimensions":["antennae","legs"],"bee_group":{"antennae":"A","wings":"X","pattern":"X","legs":"M"},"bonus":0.6200000000000012},{"rt":3501,"stimulus":"bees-with-color/bee-A1SF.svg","response":0,"trial_type":"image-button-response","trial_index":77,"time_elapsed":544319,"internal_node_id":"0.0-4.0-0.35","subject_id":"60fd487a67bd78e529e91894","study_id":"6197b3f67c2b5cd3b6d9596a","session_id":"619be31dcfc4d781ad04b57c","condition":"contingent","relevant_dimensions":["antennae","legs"],"bee_group":{"antennae":"A","wings":"X","pattern":"X","legs":"M"},"action":"harvest","summary":"good-harvest","bonus":0.6200000000000012},{"rt":886.3999999985099,"stimulus":"\n                    <p><b>Action: <em>harvest</em></b></p>\n                    <p>This is the bee that you just saw.</p>\n                    <img src=\"bees-with-color/bee-A1SF.svg\" width=\"200\">\n                    <p><span class=\"greenText\"><b>Successful harvest!</b></span><br>Your pay has increased by $0.02. Your bonus pay is now $0.50.</p>\n            ","response":0,"trial_type":"html-button-response","trial_index":78,"time_elapsed":545207,"internal_node_id":"0.0-4.0-1.35","subject_id":"60fd487a67bd78e529e91894","study_id":"6197b3f67c2b5cd3b6d9596a","session_id":"619be31dcfc4d781ad04b57c","condition":"contingent","relevant_dimensions":["antennae","legs"],"bee_group":{"antennae":"A","wings":"X","pattern":"X","legs":"M"},"bonus":0.6200000000000012},{"rt":5375.10000000149,"stimulus":"bees-with-color/bee-A2SM.svg","response":0,"trial_type":"image-button-response","trial_index":79,"time_elapsed":550583,"internal_node_id":"0.0-4.0-0.36","subject_id":"60fd487a67bd78e529e91894","study_id":"6197b3f67c2b5cd3b6d9596a","session_id":"619be31dcfc4d781ad04b57c","condition":"contingent","relevant_dimensions":["antennae","legs"],"bee_group":{"antennae":"A","wings":"X","pattern":"X","legs":"M"},"action":"harvest","summary":"bad-harvest","bonus":0.6200000000000012},{"rt":14140.89999999851,"stimulus":"\n                    <p><b>Action: <em>harvest</em></b></p>\n                    <p>This is the bee that you just saw.</p>\n                    <img src=\"bees-with-color/bee-A2SM.svg\" width=\"200\">\n                    <p><span class=\"redText\">Bad choice, the bee was angry.</span><br><b>You have been stung!</b><br>Your pay has been decreased by $0.10. Your bonus pay is now $0.40.</p>\n            ","response":0,"trial_type":"html-button-response","trial_index":80,"time_elapsed":564725,"internal_node_id":"0.0-4.0-1.36","subject_id":"60fd487a67bd78e529e91894","study_id":"6197b3f67c2b5cd3b6d9596a","session_id":"619be31dcfc4d781ad04b57c","condition":"contingent","relevant_dimensions":["antennae","legs"],"bee_group":{"antennae":"A","wings":"X","pattern":"X","legs":"M"},"bonus":0.6200000000000012},{"rt":1824.8999999985099,"stimulus":"bees-with-color/bee-A1DM.svg","response":1,"trial_type":"image-button-response","trial_index":81,"time_elapsed":566551,"internal_node_id":"0.0-4.0-0.37","subject_id":"60fd487a67bd78e529e91894","study_id":"6197b3f67c2b5cd3b6d9596a","session_id":"619be31dcfc4d781ad04b57c","condition":"contingent","relevant_dimensions":["antennae","legs"],"bee_group":{"antennae":"A","wings":"X","pattern":"X","legs":"M"},"action":"avoid","summary":"good-avoid","bonus":0.6200000000000012},{"rt":1089,"stimulus":"\n                    <p><b>Action: <em>avoid</em></b></p>\n                    <p>This is the bee that you just saw.</p>\n                    <img src=\"bees-with-color/bee-A1DM.svg\" width=\"200\">\n                    <p><br>Your bonus pay is unchanged, and remains at $0.40.</p>\n            ","response":0,"trial_type":"html-button-response","trial_index":82,"time_elapsed":567640,"internal_node_id":"0.0-4.0-1.37","subject_id":"60fd487a67bd78e529e91894","study_id":"6197b3f67c2b5cd3b6d9596a","session_id":"619be31dcfc4d781ad04b57c","condition":"contingent","relevant_dimensions":["antennae","legs"],"bee_group":{"antennae":"A","wings":"X","pattern":"X","legs":"M"},"bonus":0.6200000000000012},{"rt":2041.0999999940395,"stimulus":"bees-with-color/bee-B2DF.svg","response":0,"trial_type":"image-button-response","trial_index":83,"time_elapsed":569682,"internal_node_id":"0.0-4.0-0.38","subject_id":"60fd487a67bd78e529e91894","study_id":"6197b3f67c2b5cd3b6d9596a","session_id":"619be31dcfc4d781ad04b57c","condition":"contingent","relevant_dimensions":["antennae","legs"],"bee_group":{"antennae":"A","wings":"X","pattern":"X","legs":"M"},"action":"harvest","summary":"good-harvest","bonus":0.6200000000000012},{"rt":1153.1999999955297,"stimulus":"\n                    <p><b>Action: <em>harvest</em></b></p>\n                    <p>This is the bee that you just saw.</p>\n                    <img src=\"bees-with-color/bee-B2DF.svg\" width=\"200\">\n                    <p><span class=\"greenText\"><b>Successful harvest!</b></span><br>Your pay has increased by $0.02. Your bonus pay is now $0.42.</p>\n            ","response":0,"trial_type":"html-button-response","trial_index":84,"time_elapsed":570836,"internal_node_id":"0.0-4.0-1.38","subject_id":"60fd487a67bd78e529e91894","study_id":"6197b3f67c2b5cd3b6d9596a","session_id":"619be31dcfc4d781ad04b57c","condition":"contingent","relevant_dimensions":["antennae","legs"],"bee_group":{"antennae":"A","wings":"X","pattern":"X","legs":"M"},"bonus":0.6200000000000012},{"rt":1281,"stimulus":"bees-with-color/bee-B1DF.svg","response":0,"trial_type":"image-button-response","trial_index":85,"time_elapsed":572118,"internal_node_id":"0.0-4.0-0.39","subject_id":"60fd487a67bd78e529e91894","study_id":"6197b3f67c2b5cd3b6d9596a","session_id":"619be31dcfc4d781ad04b57c","condition":"contingent","relevant_dimensions":["antennae","legs"],"bee_group":{"antennae":"A","wings":"X","pattern":"X","legs":"M"},"action":"harvest","summary":"good-harvest","bonus":0.6200000000000012},{"rt":993,"stimulus":"\n                    <p><b>Action: <em>harvest</em></b></p>\n                    <p>This is the bee that you just saw.</p>\n                    <img src=\"bees-with-color/bee-B1DF.svg\" width=\"200\">\n                    <p><span class=\"greenText\"><b>Successful harvest!</b></span><br>Your pay has increased by $0.02. Your bonus pay is now $0.44.</p>\n            ","response":0,"trial_type":"html-button-response","trial_index":86,"time_elapsed":573112,"internal_node_id":"0.0-4.0-1.39","subject_id":"60fd487a67bd78e529e91894","study_id":"6197b3f67c2b5cd3b6d9596a","session_id":"619be31dcfc4d781ad04b57c","condition":"contingent","relevant_dimensions":["antennae","legs"],"bee_group":{"antennae":"A","wings":"X","pattern":"X","legs":"M"},"bonus":0.6200000000000012},{"rt":3109.0999999940395,"stimulus":"bees-with-color/bee-B2DM.svg","response":1,"trial_type":"image-button-response","trial_index":87,"time_elapsed":576222,"internal_node_id":"0.0-4.0-0.40","subject_id":"60fd487a67bd78e529e91894","study_id":"6197b3f67c2b5cd3b6d9596a","session_id":"619be31dcfc4d781ad04b57c","condition":"contingent","relevant_dimensions":["antennae","legs"],"bee_group":{"antennae":"A","wings":"X","pattern":"X","legs":"M"},"action":"avoid","summary":"bad-avoid","bonus":0.6200000000000012},{"rt":719.1000000014901,"stimulus":"\n                    <p><b>Action: <em>avoid</em></b></p>\n                    <p>This is the bee that you just saw.</p>\n                    <img src=\"bees-with-color/bee-B2DM.svg\" width=\"200\">\n                    <p><br>Your bonus pay is unchanged, and remains at $0.44.</p>\n            ","response":0,"trial_type":"html-button-response","trial_index":88,"time_elapsed":576942,"internal_node_id":"0.0-4.0-1.40","subject_id":"60fd487a67bd78e529e91894","study_id":"6197b3f67c2b5cd3b6d9596a","session_id":"619be31dcfc4d781ad04b57c","condition":"contingent","relevant_dimensions":["antennae","legs"],"bee_group":{"antennae":"A","wings":"X","pattern":"X","legs":"M"},"bonus":0.6200000000000012},{"rt":1416.7999999970198,"stimulus":"bees-with-color/bee-A1SM.svg","response":0,"trial_type":"image-button-response","trial_index":89,"time_elapsed":578360,"internal_node_id":"0.0-4.0-0.41","subject_id":"60fd487a67bd78e529e91894","study_id":"6197b3f67c2b5cd3b6d9596a","session_id":"619be31dcfc4d781ad04b57c","condition":"contingent","relevant_dimensions":["antennae","legs"],"bee_group":{"antennae":"A","wings":"X","pattern":"X","legs":"M"},"action":"harvest","summary":"bad-harvest","bonus":0.6200000000000012},{"rt":8515,"stimulus":"\n                    <p><b>Action: <em>harvest</em></b></p>\n                    <p>This is the bee that you just saw.</p>\n                    <img src=\"bees-with-color/bee-A1SM.svg\" width=\"200\">\n                    <p><span class=\"redText\">Bad choice, the bee was angry.</span><br><b>You have been stung!</b><br>Your pay has been decreased by $0.10. Your bonus pay is now $0.34.</p>\n            ","response":0,"trial_type":"html-button-response","trial_index":90,"time_elapsed":586876,"internal_node_id":"0.0-4.0-1.41","subject_id":"60fd487a67bd78e529e91894","study_id":"6197b3f67c2b5cd3b6d9596a","session_id":"619be31dcfc4d781ad04b57c","condition":"contingent","relevant_dimensions":["antennae","legs"],"bee_group":{"antennae":"A","wings":"X","pattern":"X","legs":"M"},"bonus":0.6200000000000012},{"rt":1424.7999999970198,"stimulus":"bees-with-color/bee-B2SF.svg","response":0,"trial_type":"image-button-response","trial_index":91,"time_elapsed":588302,"internal_node_id":"0.0-4.0-0.42","subject_id":"60fd487a67bd78e529e91894","study_id":"6197b3f67c2b5cd3b6d9596a","session_id":"619be31dcfc4d781ad04b57c","condition":"contingent","relevant_dimensions":["antennae","legs"],"bee_group":{"antennae":"A","wings":"X","pattern":"X","legs":"M"},"action":"harvest","summary":"good-harvest","bonus":0.6200000000000012},{"rt":1255,"stimulus":"\n                    <p><b>Action: <em>harvest</em></b></p>\n                    <p>This is the bee that you just saw.</p>\n                    <img src=\"bees-with-color/bee-B2SF.svg\" width=\"200\">\n                    <p><span class=\"greenText\"><b>Successful harvest!</b></span><br>Your pay has increased by $0.02. Your bonus pay is now $0.36.</p>\n            ","response":0,"trial_type":"html-button-response","trial_index":92,"time_elapsed":589558,"internal_node_id":"0.0-4.0-1.42","subject_id":"60fd487a67bd78e529e91894","study_id":"6197b3f67c2b5cd3b6d9596a","session_id":"619be31dcfc4d781ad04b57c","condition":"contingent","relevant_dimensions":["antennae","legs"],"bee_group":{"antennae":"A","wings":"X","pattern":"X","legs":"M"},"bonus":0.6200000000000012},{"rt":5185.0999999940395,"stimulus":"bees-with-color/bee-A2DM.svg","response":1,"trial_type":"image-button-response","trial_index":93,"time_elapsed":594744,"internal_node_id":"0.0-4.0-0.43","subject_id":"60fd487a67bd78e529e91894","study_id":"6197b3f67c2b5cd3b6d9596a","session_id":"619be31dcfc4d781ad04b57c","condition":"contingent","relevant_dimensions":["antennae","legs"],"bee_group":{"antennae":"A","wings":"X","pattern":"X","legs":"M"},"action":"avoid","summary":"good-avoid","bonus":0.6200000000000012},{"rt":847.1000000014901,"stimulus":"\n                    <p><b>Action: <em>avoid</em></b></p>\n                    <p>This is the bee that you just saw.</p>\n                    <img src=\"bees-with-color/bee-A2DM.svg\" width=\"200\">\n                    <p><br>Your bonus pay is unchanged, and remains at $0.36.</p>\n            ","response":0,"trial_type":"html-button-response","trial_index":94,"time_elapsed":595592,"internal_node_id":"0.0-4.0-1.43","subject_id":"60fd487a67bd78e529e91894","study_id":"6197b3f67c2b5cd3b6d9596a","session_id":"619be31dcfc4d781ad04b57c","condition":"contingent","relevant_dimensions":["antennae","legs"],"bee_group":{"antennae":"A","wings":"X","pattern":"X","legs":"M"},"bonus":0.6200000000000012},{"rt":1771.1000000014901,"stimulus":"bees-with-color/bee-A1DF.svg","response":0,"trial_type":"image-button-response","trial_index":95,"time_elapsed":597364,"internal_node_id":"0.0-4.0-0.44","subject_id":"60fd487a67bd78e529e91894","study_id":"6197b3f67c2b5cd3b6d9596a","session_id":"619be31dcfc4d781ad04b57c","condition":"contingent","relevant_dimensions":["antennae","legs"],"bee_group":{"antennae":"A","wings":"X","pattern":"X","legs":"M"},"action":"harvest","summary":"good-harvest","bonus":0.6200000000000012},{"rt":974.3999999985099,"stimulus":"\n                    <p><b>Action: <em>harvest</em></b></p>\n                    <p>This is the bee that you just saw.</p>\n                    <img src=\"bees-with-color/bee-A1DF.svg\" width=\"200\">\n                    <p><span class=\"greenText\"><b>Successful harvest!</b></span><br>Your pay has increased by $0.02. Your bonus pay is now $0.38.</p>\n            ","response":0,"trial_type":"html-button-response","trial_index":96,"time_elapsed":598340,"internal_node_id":"0.0-4.0-1.44","subject_id":"60fd487a67bd78e529e91894","study_id":"6197b3f67c2b5cd3b6d9596a","session_id":"619be31dcfc4d781ad04b57c","condition":"contingent","relevant_dimensions":["antennae","legs"],"bee_group":{"antennae":"A","wings":"X","pattern":"X","legs":"M"},"bonus":0.6200000000000012},{"rt":1866.5,"stimulus":"bees-with-color/bee-B1SF.svg","response":0,"trial_type":"image-button-response","trial_index":97,"time_elapsed":600208,"internal_node_id":"0.0-4.0-0.45","subject_id":"60fd487a67bd78e529e91894","study_id":"6197b3f67c2b5cd3b6d9596a","session_id":"619be31dcfc4d781ad04b57c","condition":"contingent","relevant_dimensions":["antennae","legs"],"bee_group":{"antennae":"A","wings":"X","pattern":"X","legs":"M"},"action":"harvest","summary":"good-harvest","bonus":0.6200000000000012},{"rt":783,"stimulus":"\n                    <p><b>Action: <em>harvest</em></b></p>\n                    <p>This is the bee that you just saw.</p>\n                    <img src=\"bees-with-color/bee-B1SF.svg\" width=\"200\">\n                    <p><span class=\"greenText\"><b>Successful harvest!</b></span><br>Your pay has increased by $0.02. Your bonus pay is now $0.40.</p>\n            ","response":0,"trial_type":"html-button-response","trial_index":98,"time_elapsed":600992,"internal_node_id":"0.0-4.0-1.45","subject_id":"60fd487a67bd78e529e91894","study_id":"6197b3f67c2b5cd3b6d9596a","session_id":"619be31dcfc4d781ad04b57c","condition":"contingent","relevant_dimensions":["antennae","legs"],"bee_group":{"antennae":"A","wings":"X","pattern":"X","legs":"M"},"bonus":0.6200000000000012},{"rt":2347,"stimulus":"bees-with-color/bee-B2SM.svg","response":1,"trial_type":"image-button-response","trial_index":99,"time_elapsed":603340,"internal_node_id":"0.0-4.0-0.46","subject_id":"60fd487a67bd78e529e91894","study_id":"6197b3f67c2b5cd3b6d9596a","session_id":"619be31dcfc4d781ad04b57c","condition":"contingent","relevant_dimensions":["antennae","legs"],"bee_group":{"antennae":"A","wings":"X","pattern":"X","legs":"M"},"action":"avoid","summary":"bad-avoid","bonus":0.6200000000000012},{"rt":737.1000000014901,"stimulus":"\n                    <p><b>Action: <em>avoid</em></b></p>\n                    <p>This is the bee that you just saw.</p>\n                    <img src=\"bees-with-color/bee-B2SM.svg\" width=\"200\">\n                    <p><br>Your bonus pay is unchanged, and remains at $0.40.</p>\n            ","response":0,"trial_type":"html-button-response","trial_index":100,"time_elapsed":604079,"internal_node_id":"0.0-4.0-1.46","subject_id":"60fd487a67bd78e529e91894","study_id":"6197b3f67c2b5cd3b6d9596a","session_id":"619be31dcfc4d781ad04b57c","condition":"contingent","relevant_dimensions":["antennae","legs"],"bee_group":{"antennae":"A","wings":"X","pattern":"X","legs":"M"},"bonus":0.6200000000000012},{"rt":3290.4000000059605,"stimulus":"bees-with-color/bee-B1SM.svg","response":0,"trial_type":"image-button-response","trial_index":101,"time_elapsed":607370,"internal_node_id":"0.0-4.0-0.47","subject_id":"60fd487a67bd78e529e91894","study_id":"6197b3f67c2b5cd3b6d9596a","session_id":"619be31dcfc4d781ad04b57c","condition":"contingent","relevant_dimensions":["antennae","legs"],"bee_group":{"antennae":"A","wings":"X","pattern":"X","legs":"M"},"action":"harvest","summary":"good-harvest","bonus":0.6200000000000012},{"rt":945.2999999970198,"stimulus":"\n                    <p><b>Action: <em>harvest</em></b></p>\n                    <p>This is the bee that you just saw.</p>\n                    <img src=\"bees-with-color/bee-B1SM.svg\" width=\"200\">\n                    <p><span class=\"greenText\"><b>Successful harvest!</b></span><br>Your pay has increased by $0.02. Your bonus pay is now $0.42.</p>\n            ","response":0,"trial_type":"html-button-response","trial_index":102,"time_elapsed":608316,"internal_node_id":"0.0-4.0-1.47","subject_id":"60fd487a67bd78e529e91894","study_id":"6197b3f67c2b5cd3b6d9596a","session_id":"619be31dcfc4d781ad04b57c","condition":"contingent","relevant_dimensions":["antennae","legs"],"bee_group":{"antennae":"A","wings":"X","pattern":"X","legs":"M"},"bonus":0.6200000000000012},{"rt":2785.60000000149,"stimulus":"bees-with-color/bee-B1SF.svg","response":0,"trial_type":"image-button-response","trial_index":103,"time_elapsed":611104,"internal_node_id":"0.0-4.0-0.48","subject_id":"60fd487a67bd78e529e91894","study_id":"6197b3f67c2b5cd3b6d9596a","session_id":"619be31dcfc4d781ad04b57c","condition":"contingent","relevant_dimensions":["antennae","legs"],"bee_group":{"antennae":"A","wings":"X","pattern":"X","legs":"M"},"action":"harvest","summary":"good-harvest","bonus":0.6200000000000012},{"rt":799.1999999955297,"stimulus":"\n                    <p><b>Action: <em>harvest</em></b></p>\n                    <p>This is the bee that you just saw.</p>\n                    <img src=\"bees-with-color/bee-B1SF.svg\" width=\"200\">\n                    <p><span class=\"greenText\"><b>Successful harvest!</b></span><br>Your pay has increased by $0.02. Your bonus pay is now $0.44.</p>\n            ","response":0,"trial_type":"html-button-response","trial_index":104,"time_elapsed":611904,"internal_node_id":"0.0-4.0-1.48","subject_id":"60fd487a67bd78e529e91894","study_id":"6197b3f67c2b5cd3b6d9596a","session_id":"619be31dcfc4d781ad04b57c","condition":"contingent","relevant_dimensions":["antennae","legs"],"bee_group":{"antennae":"A","wings":"X","pattern":"X","legs":"M"},"bonus":0.6200000000000012},{"rt":2563.7000000029802,"stimulus":"bees-with-color/bee-B2DF.svg","response":0,"trial_type":"image-button-response","trial_index":105,"time_elapsed":614469,"internal_node_id":"0.0-4.0-0.49","subject_id":"60fd487a67bd78e529e91894","study_id":"6197b3f67c2b5cd3b6d9596a","session_id":"619be31dcfc4d781ad04b57c","condition":"contingent","relevant_dimensions":["antennae","legs"],"bee_group":{"antennae":"A","wings":"X","pattern":"X","legs":"M"},"action":"harvest","summary":"good-harvest","bonus":0.6200000000000012},{"rt":736.3999999985099,"stimulus":"\n                    <p><b>Action: <em>harvest</em></b></p>\n                    <p>This is the bee that you just saw.</p>\n                    <img src=\"bees-with-color/bee-B2DF.svg\" width=\"200\">\n                    <p><span class=\"greenText\"><b>Successful harvest!</b></span><br>Your pay has increased by $0.02. Your bonus pay is now $0.46.</p>\n            ","response":0,"trial_type":"html-button-response","trial_index":106,"time_elapsed":615206,"internal_node_id":"0.0-4.0-1.49","subject_id":"60fd487a67bd78e529e91894","study_id":"6197b3f67c2b5cd3b6d9596a","session_id":"619be31dcfc4d781ad04b57c","condition":"contingent","relevant_dimensions":["antennae","legs"],"bee_group":{"antennae":"A","wings":"X","pattern":"X","legs":"M"},"bonus":0.6200000000000012},{"rt":3516.89999999851,"stimulus":"bees-with-color/bee-A2DF.svg","response":1,"trial_type":"image-button-response","trial_index":107,"time_elapsed":618724,"internal_node_id":"0.0-4.0-0.50","subject_id":"60fd487a67bd78e529e91894","study_id":"6197b3f67c2b5cd3b6d9596a","session_id":"619be31dcfc4d781ad04b57c","condition":"contingent","relevant_dimensions":["antennae","legs"],"bee_group":{"antennae":"A","wings":"X","pattern":"X","legs":"M"},"action":"avoid","summary":"bad-avoid","bonus":0.6200000000000012},{"rt":897.1999999955297,"stimulus":"\n                    <p><b>Action: <em>avoid</em></b></p>\n                    <p>This is the bee that you just saw.</p>\n                    <img src=\"bees-with-color/bee-A2DF.svg\" width=\"200\">\n                    <p><br>Your bonus pay is unchanged, and remains at $0.46.</p>\n            ","response":0,"trial_type":"html-button-response","trial_index":108,"time_elapsed":619622,"internal_node_id":"0.0-4.0-1.50","subject_id":"60fd487a67bd78e529e91894","study_id":"6197b3f67c2b5cd3b6d9596a","session_id":"619be31dcfc4d781ad04b57c","condition":"contingent","relevant_dimensions":["antennae","legs"],"bee_group":{"antennae":"A","wings":"X","pattern":"X","legs":"M"},"bonus":0.6200000000000012},{"rt":1441.6000000014901,"stimulus":"bees-with-color/bee-B1DF.svg","response":0,"trial_type":"image-button-response","trial_index":109,"time_elapsed":621065,"internal_node_id":"0.0-4.0-0.51","subject_id":"60fd487a67bd78e529e91894","study_id":"6197b3f67c2b5cd3b6d9596a","session_id":"619be31dcfc4d781ad04b57c","condition":"contingent","relevant_dimensions":["antennae","legs"],"bee_group":{"antennae":"A","wings":"X","pattern":"X","legs":"M"},"action":"harvest","summary":"good-harvest","bonus":0.6200000000000012},{"rt":1040.3999999985099,"stimulus":"\n                    <p><b>Action: <em>harvest</em></b></p>\n                    <p>This is the bee that you just saw.</p>\n                    <img src=\"bees-with-color/bee-B1DF.svg\" width=\"200\">\n                    <p><span class=\"greenText\"><b>Successful harvest!</b></span><br>Your pay has increased by $0.02. Your bonus pay is now $0.48.</p>\n            ","response":0,"trial_type":"html-button-response","trial_index":110,"time_elapsed":622106,"internal_node_id":"0.0-4.0-1.51","subject_id":"60fd487a67bd78e529e91894","study_id":"6197b3f67c2b5cd3b6d9596a","session_id":"619be31dcfc4d781ad04b57c","condition":"contingent","relevant_dimensions":["antennae","legs"],"bee_group":{"antennae":"A","wings":"X","pattern":"X","legs":"M"},"bonus":0.6200000000000012},{"rt":3819.2999999970198,"stimulus":"bees-with-color/bee-B2DM.svg","response":1,"trial_type":"image-button-response","trial_index":111,"time_elapsed":625926,"internal_node_id":"0.0-4.0-0.52","subject_id":"60fd487a67bd78e529e91894","study_id":"6197b3f67c2b5cd3b6d9596a","session_id":"619be31dcfc4d781ad04b57c","condition":"contingent","relevant_dimensions":["antennae","legs"],"bee_group":{"antennae":"A","wings":"X","pattern":"X","legs":"M"},"action":"avoid","summary":"bad-avoid","bonus":0.6200000000000012},{"rt":705.0999999940395,"stimulus":"\n                    <p><b>Action: <em>avoid</em></b></p>\n                    <p>This is the bee that you just saw.</p>\n                    <img src=\"bees-with-color/bee-B2DM.svg\" width=\"200\">\n                    <p><br>Your bonus pay is unchanged, and remains at $0.48.</p>\n            ","response":0,"trial_type":"html-button-response","trial_index":112,"time_elapsed":626632,"internal_node_id":"0.0-4.0-1.52","subject_id":"60fd487a67bd78e529e91894","study_id":"6197b3f67c2b5cd3b6d9596a","session_id":"619be31dcfc4d781ad04b57c","condition":"contingent","relevant_dimensions":["antennae","legs"],"bee_group":{"antennae":"A","wings":"X","pattern":"X","legs":"M"},"bonus":0.6200000000000012},{"rt":4545,"stimulus":"bees-with-color/bee-A2SF.svg","response":0,"trial_type":"image-button-response","trial_index":113,"time_elapsed":631178,"internal_node_id":"0.0-4.0-0.53","subject_id":"60fd487a67bd78e529e91894","study_id":"6197b3f67c2b5cd3b6d9596a","session_id":"619be31dcfc4d781ad04b57c","condition":"contingent","relevant_dimensions":["antennae","legs"],"bee_group":{"antennae":"A","wings":"X","pattern":"X","legs":"M"},"action":"harvest","summary":"good-harvest","bonus":0.6200000000000012},{"rt":1007.0999999940395,"stimulus":"\n                    <p><b>Action: <em>harvest</em></b></p>\n                    <p>This is the bee that you just saw.</p>\n                    <img src=\"bees-with-color/bee-A2SF.svg\" width=\"200\">\n                    <p><span class=\"greenText\"><b>Successful harvest!</b></span><br>Your pay has increased by $0.02. Your bonus pay is now $0.50.</p>\n            ","response":0,"trial_type":"html-button-response","trial_index":114,"time_elapsed":632186,"internal_node_id":"0.0-4.0-1.53","subject_id":"60fd487a67bd78e529e91894","study_id":"6197b3f67c2b5cd3b6d9596a","session_id":"619be31dcfc4d781ad04b57c","condition":"contingent","relevant_dimensions":["antennae","legs"],"bee_group":{"antennae":"A","wings":"X","pattern":"X","legs":"M"},"bonus":0.6200000000000012},{"rt":1634.8999999985099,"stimulus":"bees-with-color/bee-A2DM.svg","response":1,"trial_type":"image-button-response","trial_index":115,"time_elapsed":633822,"internal_node_id":"0.0-4.0-0.54","subject_id":"60fd487a67bd78e529e91894","study_id":"6197b3f67c2b5cd3b6d9596a","session_id":"619be31dcfc4d781ad04b57c","condition":"contingent","relevant_dimensions":["antennae","legs"],"bee_group":{"antennae":"A","wings":"X","pattern":"X","legs":"M"},"action":"avoid","summary":"good-avoid","bonus":0.6200000000000012},{"rt":1345.3000000044703,"stimulus":"\n                    <p><b>Action: <em>avoid</em></b></p>\n                    <p>This is the bee that you just saw.</p>\n                    <img src=\"bees-with-color/bee-A2DM.svg\" width=\"200\">\n                    <p><br>Your bonus pay is unchanged, and remains at $0.50.</p>\n            ","response":0,"trial_type":"html-button-response","trial_index":116,"time_elapsed":635168,"internal_node_id":"0.0-4.0-1.54","subject_id":"60fd487a67bd78e529e91894","study_id":"6197b3f67c2b5cd3b6d9596a","session_id":"619be31dcfc4d781ad04b57c","condition":"contingent","relevant_dimensions":["antennae","legs"],"bee_group":{"antennae":"A","wings":"X","pattern":"X","legs":"M"},"bonus":0.6200000000000012},{"rt":1672.5999999940395,"stimulus":"bees-with-color/bee-A1DM.svg","response":0,"trial_type":"image-button-response","trial_index":117,"time_elapsed":636842,"internal_node_id":"0.0-4.0-0.55","subject_id":"60fd487a67bd78e529e91894","study_id":"6197b3f67c2b5cd3b6d9596a","session_id":"619be31dcfc4d781ad04b57c","condition":"contingent","relevant_dimensions":["antennae","legs"],"bee_group":{"antennae":"A","wings":"X","pattern":"X","legs":"M"},"action":"harvest","summary":"bad-harvest","bonus":0.6200000000000012},{"rt":13227,"stimulus":"\n                    <p><b>Action: <em>harvest</em></b></p>\n                    <p>This is the bee that you just saw.</p>\n                    <img src=\"bees-with-color/bee-A1DM.svg\" width=\"200\">\n                    <p><span class=\"redText\">Bad choice, the bee was angry.</span><br><b>You have been stung!</b><br>Your pay has been decreased by $0.10. Your bonus pay is now $0.40.</p>\n            ","response":0,"trial_type":"html-button-response","trial_index":118,"time_elapsed":650070,"internal_node_id":"0.0-4.0-1.55","subject_id":"60fd487a67bd78e529e91894","study_id":"6197b3f67c2b5cd3b6d9596a","session_id":"619be31dcfc4d781ad04b57c","condition":"contingent","relevant_dimensions":["antennae","legs"],"bee_group":{"antennae":"A","wings":"X","pattern":"X","legs":"M"},"bonus":0.6200000000000012},{"rt":8550.89999999851,"stimulus":"bees-with-color/bee-A1DF.svg","response":0,"trial_type":"image-button-response","trial_index":119,"time_elapsed":658622,"internal_node_id":"0.0-4.0-0.56","subject_id":"60fd487a67bd78e529e91894","study_id":"6197b3f67c2b5cd3b6d9596a","session_id":"619be31dcfc4d781ad04b57c","condition":"contingent","relevant_dimensions":["antennae","legs"],"bee_group":{"antennae":"A","wings":"X","pattern":"X","legs":"M"},"action":"harvest","summary":"good-harvest","bonus":0.6200000000000012},{"rt":1022.8000000044703,"stimulus":"\n                    <p><b>Action: <em>harvest</em></b></p>\n                    <p>This is the bee that you just saw.</p>\n                    <img src=\"bees-with-color/bee-A1DF.svg\" width=\"200\">\n                    <p><span class=\"greenText\"><b>Successful harvest!</b></span><br>Your pay has increased by $0.02. Your bonus pay is now $0.42.</p>\n            ","response":0,"trial_type":"html-button-response","trial_index":120,"time_elapsed":659646,"internal_node_id":"0.0-4.0-1.56","subject_id":"60fd487a67bd78e529e91894","study_id":"6197b3f67c2b5cd3b6d9596a","session_id":"619be31dcfc4d781ad04b57c","condition":"contingent","relevant_dimensions":["antennae","legs"],"bee_group":{"antennae":"A","wings":"X","pattern":"X","legs":"M"},"bonus":0.6200000000000012},{"rt":2066.89999999851,"stimulus":"bees-with-color/bee-B1SM.svg","response":0,"trial_type":"image-button-response","trial_index":121,"time_elapsed":661714,"internal_node_id":"0.0-4.0-0.57","subject_id":"60fd487a67bd78e529e91894","study_id":"6197b3f67c2b5cd3b6d9596a","session_id":"619be31dcfc4d781ad04b57c","condition":"contingent","relevant_dimensions":["antennae","legs"],"bee_group":{"antennae":"A","wings":"X","pattern":"X","legs":"M"},"action":"harvest","summary":"good-harvest","bonus":0.6200000000000012},{"rt":686.8000000044703,"stimulus":"\n                    <p><b>Action: <em>harvest</em></b></p>\n                    <p>This is the bee that you just saw.</p>\n                    <img src=\"bees-with-color/bee-B1SM.svg\" width=\"200\">\n                    <p><span class=\"greenText\"><b>Successful harvest!</b></span><br>Your pay has increased by $0.02. Your bonus pay is now $0.44.</p>\n            ","response":0,"trial_type":"html-button-response","trial_index":122,"time_elapsed":662402,"internal_node_id":"0.0-4.0-1.57","subject_id":"60fd487a67bd78e529e91894","study_id":"6197b3f67c2b5cd3b6d9596a","session_id":"619be31dcfc4d781ad04b57c","condition":"contingent","relevant_dimensions":["antennae","legs"],"bee_group":{"antennae":"A","wings":"X","pattern":"X","legs":"M"},"bonus":0.6200000000000012},{"rt":3669.0999999940395,"stimulus":"bees-with-color/bee-A2SM.svg","response":0,"trial_type":"image-button-response","trial_index":123,"time_elapsed":666072,"internal_node_id":"0.0-4.0-0.58","subject_id":"60fd487a67bd78e529e91894","study_id":"6197b3f67c2b5cd3b6d9596a","session_id":"619be31dcfc4d781ad04b57c","condition":"contingent","relevant_dimensions":["antennae","legs"],"bee_group":{"antennae":"A","wings":"X","pattern":"X","legs":"M"},"action":"harvest","summary":"bad-harvest","bonus":0.6200000000000012},{"rt":4725.19999999553,"stimulus":"\n                    <p><b>Action: <em>harvest</em></b></p>\n                    <p>This is the bee that you just saw.</p>\n                    <img src=\"bees-with-color/bee-A2SM.svg\" width=\"200\">\n                    <p><span class=\"redText\">Bad choice, the bee was angry.</span><br><b>You have been stung!</b><br>Your pay has been decreased by $0.10. Your bonus pay is now $0.34.</p>\n            ","response":0,"trial_type":"html-button-response","trial_index":124,"time_elapsed":670798,"internal_node_id":"0.0-4.0-1.58","subject_id":"60fd487a67bd78e529e91894","study_id":"6197b3f67c2b5cd3b6d9596a","session_id":"619be31dcfc4d781ad04b57c","condition":"contingent","relevant_dimensions":["antennae","legs"],"bee_group":{"antennae":"A","wings":"X","pattern":"X","legs":"M"},"bonus":0.6200000000000012},{"rt":2381.3000000044703,"stimulus":"bees-with-color/bee-A1SM.svg","response":0,"trial_type":"image-button-response","trial_index":125,"time_elapsed":673180,"internal_node_id":"0.0-4.0-0.59","subject_id":"60fd487a67bd78e529e91894","study_id":"6197b3f67c2b5cd3b6d9596a","session_id":"619be31dcfc4d781ad04b57c","condition":"contingent","relevant_dimensions":["antennae","legs"],"bee_group":{"antennae":"A","wings":"X","pattern":"X","legs":"M"},"action":"harvest","summary":"bad-harvest","bonus":0.6200000000000012},{"rt":1310.7999999970198,"stimulus":"\n                    <p><b>Action: <em>harvest</em></b></p>\n                    <p>This is the bee that you just saw.</p>\n                    <img src=\"bees-with-color/bee-A1SM.svg\" width=\"200\">\n                    <p><span class=\"redText\">Bad choice, the bee was angry.</span><br><b>You have been stung!</b><br>Your pay has been decreased by $0.10. Your bonus pay is now $0.24.</p>\n            ","response":0,"trial_type":"html-button-response","trial_index":126,"time_elapsed":674492,"internal_node_id":"0.0-4.0-1.59","subject_id":"60fd487a67bd78e529e91894","study_id":"6197b3f67c2b5cd3b6d9596a","session_id":"619be31dcfc4d781ad04b57c","condition":"contingent","relevant_dimensions":["antennae","legs"],"bee_group":{"antennae":"A","wings":"X","pattern":"X","legs":"M"},"bonus":0.6200000000000012},{"rt":3845.3000000044703,"stimulus":"bees-with-color/bee-B2SM.svg","response":0,"trial_type":"image-button-response","trial_index":127,"time_elapsed":678338,"internal_node_id":"0.0-4.0-0.60","subject_id":"60fd487a67bd78e529e91894","study_id":"6197b3f67c2b5cd3b6d9596a","session_id":"619be31dcfc4d781ad04b57c","condition":"contingent","relevant_dimensions":["antennae","legs"],"bee_group":{"antennae":"A","wings":"X","pattern":"X","legs":"M"},"action":"harvest","summary":"good-harvest","bonus":0.6200000000000012},{"rt":864.2999999970198,"stimulus":"\n                    <p><b>Action: <em>harvest</em></b></p>\n                    <p>This is the bee that you just saw.</p>\n                    <img src=\"bees-with-color/bee-B2SM.svg\" width=\"200\">\n                    <p><span class=\"greenText\"><b>Successful harvest!</b></span><br>Your pay has increased by $0.02. Your bonus pay is now $0.26.</p>\n            ","response":0,"trial_type":"html-button-response","trial_index":128,"time_elapsed":679204,"internal_node_id":"0.0-4.0-1.60","subject_id":"60fd487a67bd78e529e91894","study_id":"6197b3f67c2b5cd3b6d9596a","session_id":"619be31dcfc4d781ad04b57c","condition":"contingent","relevant_dimensions":["antennae","legs"],"bee_group":{"antennae":"A","wings":"X","pattern":"X","legs":"M"},"bonus":0.6200000000000012},{"rt":2170.8000000044703,"stimulus":"bees-with-color/bee-B1DM.svg","response":0,"trial_type":"image-button-response","trial_index":129,"time_elapsed":681376,"internal_node_id":"0.0-4.0-0.61","subject_id":"60fd487a67bd78e529e91894","study_id":"6197b3f67c2b5cd3b6d9596a","session_id":"619be31dcfc4d781ad04b57c","condition":"contingent","relevant_dimensions":["antennae","legs"],"bee_group":{"antennae":"A","wings":"X","pattern":"X","legs":"M"},"action":"harvest","summary":"good-harvest","bonus":0.6200000000000012},{"rt":847.3999999985099,"stimulus":"\n                    <p><b>Action: <em>harvest</em></b></p>\n                    <p>This is the bee that you just saw.</p>\n                    <img src=\"bees-with-color/bee-B1DM.svg\" width=\"200\">\n                    <p><span class=\"greenText\"><b>Successful harvest!</b></span><br>Your pay has increased by $0.02. Your bonus pay is now $0.28.</p>\n            ","response":0,"trial_type":"html-button-response","trial_index":130,"time_elapsed":682224,"internal_node_id":"0.0-4.0-1.61","subject_id":"60fd487a67bd78e529e91894","study_id":"6197b3f67c2b5cd3b6d9596a","session_id":"619be31dcfc4d781ad04b57c","condition":"contingent","relevant_dimensions":["antennae","legs"],"bee_group":{"antennae":"A","wings":"X","pattern":"X","legs":"M"},"bonus":0.6200000000000012},{"rt":1465.3999999985099,"stimulus":"bees-with-color/bee-B2SF.svg","response":0,"trial_type":"image-button-response","trial_index":131,"time_elapsed":683690,"internal_node_id":"0.0-4.0-0.62","subject_id":"60fd487a67bd78e529e91894","study_id":"6197b3f67c2b5cd3b6d9596a","session_id":"619be31dcfc4d781ad04b57c","condition":"contingent","relevant_dimensions":["antennae","legs"],"bee_group":{"antennae":"A","wings":"X","pattern":"X","legs":"M"},"action":"harvest","summary":"good-harvest","bonus":0.6200000000000012},{"rt":1024.6999999955297,"stimulus":"\n                    <p><b>Action: <em>harvest</em></b></p>\n                    <p>This is the bee that you just saw.</p>\n                    <img src=\"bees-with-color/bee-B2SF.svg\" width=\"200\">\n                    <p><span class=\"greenText\"><b>Successful harvest!</b></span><br>Your pay has increased by $0.02. Your bonus pay is now $0.30.</p>\n            ","response":0,"trial_type":"html-button-response","trial_index":132,"time_elapsed":684716,"internal_node_id":"0.0-4.0-1.62","subject_id":"60fd487a67bd78e529e91894","study_id":"6197b3f67c2b5cd3b6d9596a","session_id":"619be31dcfc4d781ad04b57c","condition":"contingent","relevant_dimensions":["antennae","legs"],"bee_group":{"antennae":"A","wings":"X","pattern":"X","legs":"M"},"bonus":0.6200000000000012},{"rt":1921.2999999970198,"stimulus":"bees-with-color/bee-A1SF.svg","response":0,"trial_type":"image-button-response","trial_index":133,"time_elapsed":686638,"internal_node_id":"0.0-4.0-0.63","subject_id":"60fd487a67bd78e529e91894","study_id":"6197b3f67c2b5cd3b6d9596a","session_id":"619be31dcfc4d781ad04b57c","condition":"contingent","relevant_dimensions":["antennae","legs"],"bee_group":{"antennae":"A","wings":"X","pattern":"X","legs":"M"},"action":"harvest","summary":"good-harvest","bonus":0.6200000000000012},{"rt":849.1000000014901,"stimulus":"\n                    <p><b>Action: <em>harvest</em></b></p>\n                    <p>This is the bee that you just saw.</p>\n                    <img src=\"bees-with-color/bee-A1SF.svg\" width=\"200\">\n                    <p><span class=\"greenText\"><b>Successful harvest!</b></span><br>Your pay has increased by $0.02. Your bonus pay is now $0.32.</p>\n            ","response":0,"trial_type":"html-button-response","trial_index":134,"time_elapsed":687489,"internal_node_id":"0.0-4.0-1.63","subject_id":"60fd487a67bd78e529e91894","study_id":"6197b3f67c2b5cd3b6d9596a","session_id":"619be31dcfc4d781ad04b57c","condition":"contingent","relevant_dimensions":["antennae","legs"],"bee_group":{"antennae":"A","wings":"X","pattern":"X","legs":"M"},"bonus":0.6200000000000012},{"rt":5381.39999999851,"stimulus":"You have completed the first part of this experiment.<br><br>You will now begin a shorter second part, in which you will receive no feedback.<br>The same rules regarding bonus pay apply.<br><br>Press any key to begin.","response":" ","trial_type":"html-keyboard-response","trial_index":135,"time_elapsed":692871,"internal_node_id":"0.0-5.0","subject_id":"60fd487a67bd78e529e91894","study_id":"6197b3f67c2b5cd3b6d9596a","session_id":"619be31dcfc4d781ad04b57c","condition":"contingent","relevant_dimensions":["antennae","legs"],"bee_group":{"antennae":"A","wings":"X","pattern":"X","legs":"M"},"bonus":0.6200000000000012},{"rt":3706.2999999970198,"stimulus":"bees-with-color/bee-A1DF.svg","response":0,"trial_type":"image-button-response","trial_index":136,"time_elapsed":696593,"internal_node_id":"0.0-6.0-0.0","subject_id":"60fd487a67bd78e529e91894","study_id":"6197b3f67c2b5cd3b6d9596a","session_id":"619be31dcfc4d781ad04b57c","condition":"contingent","relevant_dimensions":["antennae","legs"],"bee_group":{"antennae":"A","wings":"X","pattern":"X","legs":"M"},"bonus":0.6200000000000012},{"rt":3260.39999999851,"stimulus":"bees-with-color/bee-A1DM.svg","response":1,"trial_type":"image-button-response","trial_index":137,"time_elapsed":699855,"internal_node_id":"0.0-6.0-0.1","subject_id":"60fd487a67bd78e529e91894","study_id":"6197b3f67c2b5cd3b6d9596a","session_id":"619be31dcfc4d781ad04b57c","condition":"contingent","relevant_dimensions":["antennae","legs"],"bee_group":{"antennae":"A","wings":"X","pattern":"X","legs":"M"},"bonus":0.6200000000000012},{"rt":5576.89999999851,"stimulus":"bees-with-color/bee-B2DF.svg","response":0,"trial_type":"image-button-response","trial_index":138,"time_elapsed":705433,"internal_node_id":"0.0-6.0-0.2","subject_id":"60fd487a67bd78e529e91894","study_id":"6197b3f67c2b5cd3b6d9596a","session_id":"619be31dcfc4d781ad04b57c","condition":"contingent","relevant_dimensions":["antennae","legs"],"bee_group":{"antennae":"A","wings":"X","pattern":"X","legs":"M"},"bonus":0.6200000000000012},{"rt":5198.19999999553,"stimulus":"bees-with-color/bee-A1SF.svg","response":0,"trial_type":"image-button-response","trial_index":139,"time_elapsed":710633,"internal_node_id":"0.0-6.0-0.3","subject_id":"60fd487a67bd78e529e91894","study_id":"6197b3f67c2b5cd3b6d9596a","session_id":"619be31dcfc4d781ad04b57c","condition":"contingent","relevant_dimensions":["antennae","legs"],"bee_group":{"antennae":"A","wings":"X","pattern":"X","legs":"M"},"bonus":0.6200000000000012},{"rt":4334.80000000447,"stimulus":"bees-with-color/bee-B1DF.svg","response":0,"trial_type":"image-button-response","trial_index":140,"time_elapsed":714969,"internal_node_id":"0.0-6.0-0.4","subject_id":"60fd487a67bd78e529e91894","study_id":"6197b3f67c2b5cd3b6d9596a","session_id":"619be31dcfc4d781ad04b57c","condition":"contingent","relevant_dimensions":["antennae","legs"],"bee_group":{"antennae":"A","wings":"X","pattern":"X","legs":"M"},"bonus":0.6200000000000012},{"rt":1062.1000000014901,"stimulus":"bees-with-color/bee-B1SF.svg","response":0,"trial_type":"image-button-response","trial_index":141,"time_elapsed":716033,"internal_node_id":"0.0-6.0-0.5","subject_id":"60fd487a67bd78e529e91894","study_id":"6197b3f67c2b5cd3b6d9596a","session_id":"619be31dcfc4d781ad04b57c","condition":"contingent","relevant_dimensions":["antennae","legs"],"bee_group":{"antennae":"A","wings":"X","pattern":"X","legs":"M"},"bonus":0.6200000000000012},{"rt":1400.3999999985099,"stimulus":"bees-with-color/bee-A2SM.svg","response":1,"trial_type":"image-button-response","trial_index":142,"time_elapsed":717435,"internal_node_id":"0.0-6.0-0.6","subject_id":"60fd487a67bd78e529e91894","study_id":"6197b3f67c2b5cd3b6d9596a","session_id":"619be31dcfc4d781ad04b57c","condition":"contingent","relevant_dimensions":["antennae","legs"],"bee_group":{"antennae":"A","wings":"X","pattern":"X","legs":"M"},"bonus":0.6200000000000012},{"rt":2258.60000000149,"stimulus":"bees-with-color/bee-B1SM.svg","response":0,"trial_type":"image-button-response","trial_index":143,"time_elapsed":719695,"internal_node_id":"0.0-6.0-0.7","subject_id":"60fd487a67bd78e529e91894","study_id":"6197b3f67c2b5cd3b6d9596a","session_id":"619be31dcfc4d781ad04b57c","condition":"contingent","relevant_dimensions":["antennae","legs"],"bee_group":{"antennae":"A","wings":"X","pattern":"X","legs":"M"},"bonus":0.6200000000000012},{"rt":4528.5,"stimulus":"bees-with-color/bee-A2SF.svg","response":1,"trial_type":"image-button-response","trial_index":144,"time_elapsed":724225,"internal_node_id":"0.0-6.0-0.8","subject_id":"60fd487a67bd78e529e91894","study_id":"6197b3f67c2b5cd3b6d9596a","session_id":"619be31dcfc4d781ad04b57c","condition":"contingent","relevant_dimensions":["antennae","legs"],"bee_group":{"antennae":"A","wings":"X","pattern":"X","legs":"M"},"bonus":0.6200000000000012},{"rt":2402.5,"stimulus":"bees-with-color/bee-A2DM.svg","response":1,"trial_type":"image-button-response","trial_index":145,"time_elapsed":726629,"internal_node_id":"0.0-6.0-0.9","subject_id":"60fd487a67bd78e529e91894","study_id":"6197b3f67c2b5cd3b6d9596a","session_id":"619be31dcfc4d781ad04b57c","condition":"contingent","relevant_dimensions":["antennae","legs"],"bee_group":{"antennae":"A","wings":"X","pattern":"X","legs":"M"},"bonus":0.6200000000000012},{"rt":3626.5999999940395,"stimulus":"bees-with-color/bee-B1DM.svg","response":0,"trial_type":"image-button-response","trial_index":146,"time_elapsed":730257,"internal_node_id":"0.0-6.0-0.10","subject_id":"60fd487a67bd78e529e91894","study_id":"6197b3f67c2b5cd3b6d9596a","session_id":"619be31dcfc4d781ad04b57c","condition":"contingent","relevant_dimensions":["antennae","legs"],"bee_group":{"antennae":"A","wings":"X","pattern":"X","legs":"M"},"bonus":0.6200000000000012},{"rt":2403,"stimulus":"bees-with-color/bee-A2DF.svg","response":1,"trial_type":"image-button-response","trial_index":147,"time_elapsed":732661,"internal_node_id":"0.0-6.0-0.11","subject_id":"60fd487a67bd78e529e91894","study_id":"6197b3f67c2b5cd3b6d9596a","session_id":"619be31dcfc4d781ad04b57c","condition":"contingent","relevant_dimensions":["antennae","legs"],"bee_group":{"antennae":"A","wings":"X","pattern":"X","legs":"M"},"bonus":0.6200000000000012},{"rt":1800.5999999940395,"stimulus":"bees-with-color/bee-B2SM.svg","response":0,"trial_type":"image-button-response","trial_index":148,"time_elapsed":734463,"internal_node_id":"0.0-6.0-0.12","subject_id":"60fd487a67bd78e529e91894","study_id":"6197b3f67c2b5cd3b6d9596a","session_id":"619be31dcfc4d781ad04b57c","condition":"contingent","relevant_dimensions":["antennae","legs"],"bee_group":{"antennae":"A","wings":"X","pattern":"X","legs":"M"},"bonus":0.6200000000000012},{"rt":1816.6999999955297,"stimulus":"bees-with-color/bee-B2DM.svg","response":0,"trial_type":"image-button-response","trial_index":149,"time_elapsed":736281,"internal_node_id":"0.0-6.0-0.13","subject_id":"60fd487a67bd78e529e91894","study_id":"6197b3f67c2b5cd3b6d9596a","session_id":"619be31dcfc4d781ad04b57c","condition":"contingent","relevant_dimensions":["antennae","legs"],"bee_group":{"antennae":"A","wings":"X","pattern":"X","legs":"M"},"bonus":0.6200000000000012},{"rt":3460.89999999851,"stimulus":"bees-with-color/bee-A1SM.svg","response":1,"trial_type":"image-button-response","trial_index":150,"time_elapsed":739743,"internal_node_id":"0.0-6.0-0.14","subject_id":"60fd487a67bd78e529e91894","study_id":"6197b3f67c2b5cd3b6d9596a","session_id":"619be31dcfc4d781ad04b57c","condition":"contingent","relevant_dimensions":["antennae","legs"],"bee_group":{"antennae":"A","wings":"X","pattern":"X","legs":"M"},"bonus":0.6200000000000012},{"rt":3284.60000000149,"stimulus":"bees-with-color/bee-B2SF.svg","response":0,"trial_type":"image-button-response","trial_index":151,"time_elapsed":743029,"internal_node_id":"0.0-6.0-0.15","subject_id":"60fd487a67bd78e529e91894","study_id":"6197b3f67c2b5cd3b6d9596a","session_id":"619be31dcfc4d781ad04b57c","condition":"contingent","relevant_dimensions":["antennae","legs"],"bee_group":{"antennae":"A","wings":"X","pattern":"X","legs":"M"},"bonus":0.6200000000000012},{"rt":9366.60000000149,"stimulus":"bees-with-color/bee-A2DF.svg","response":0,"trial_type":"image-button-response","trial_index":152,"time_elapsed":752396,"internal_node_id":"0.0-6.0-0.16","subject_id":"60fd487a67bd78e529e91894","study_id":"6197b3f67c2b5cd3b6d9596a","session_id":"619be31dcfc4d781ad04b57c","condition":"contingent","relevant_dimensions":["antennae","legs"],"bee_group":{"antennae":"A","wings":"X","pattern":"X","legs":"M"},"bonus":0.6200000000000012},{"rt":1833,"stimulus":"bees-with-color/bee-A2SM.svg","response":1,"trial_type":"image-button-response","trial_index":153,"time_elapsed":754230,"internal_node_id":"0.0-6.0-0.17","subject_id":"60fd487a67bd78e529e91894","study_id":"6197b3f67c2b5cd3b6d9596a","session_id":"619be31dcfc4d781ad04b57c","condition":"contingent","relevant_dimensions":["antennae","legs"],"bee_group":{"antennae":"A","wings":"X","pattern":"X","legs":"M"},"bonus":0.6200000000000012},{"rt":1690.8999999985099,"stimulus":"bees-with-color/bee-A2SF.svg","response":0,"trial_type":"image-button-response","trial_index":154,"time_elapsed":755922,"internal_node_id":"0.0-6.0-0.18","subject_id":"60fd487a67bd78e529e91894","study_id":"6197b3f67c2b5cd3b6d9596a","session_id":"619be31dcfc4d781ad04b57c","condition":"contingent","relevant_dimensions":["antennae","legs"],"bee_group":{"antennae":"A","wings":"X","pattern":"X","legs":"M"},"bonus":0.6200000000000012},{"rt":6628.89999999851,"stimulus":"bees-with-color/bee-A1DM.svg","response":1,"trial_type":"image-button-response","trial_index":155,"time_elapsed":762552,"internal_node_id":"0.0-6.0-0.19","subject_id":"60fd487a67bd78e529e91894","study_id":"6197b3f67c2b5cd3b6d9596a","session_id":"619be31dcfc4d781ad04b57c","condition":"contingent","relevant_dimensions":["antennae","legs"],"bee_group":{"antennae":"A","wings":"X","pattern":"X","legs":"M"},"bonus":0.6200000000000012},{"rt":1360.6999999955297,"stimulus":"bees-with-color/bee-B1SF.svg","response":0,"trial_type":"image-button-response","trial_index":156,"time_elapsed":763914,"internal_node_id":"0.0-6.0-0.20","subject_id":"60fd487a67bd78e529e91894","study_id":"6197b3f67c2b5cd3b6d9596a","session_id":"619be31dcfc4d781ad04b57c","condition":"contingent","relevant_dimensions":["antennae","legs"],"bee_group":{"antennae":"A","wings":"X","pattern":"X","legs":"M"},"bonus":0.6200000000000012},{"rt":1505.8999999985099,"stimulus":"bees-with-color/bee-B2DF.svg","response":0,"trial_type":"image-button-response","trial_index":157,"time_elapsed":765421,"internal_node_id":"0.0-6.0-0.21","subject_id":"60fd487a67bd78e529e91894","study_id":"6197b3f67c2b5cd3b6d9596a","session_id":"619be31dcfc4d781ad04b57c","condition":"contingent","relevant_dimensions":["antennae","legs"],"bee_group":{"antennae":"A","wings":"X","pattern":"X","legs":"M"},"bonus":0.6200000000000012},{"rt":3422.39999999851,"stimulus":"bees-with-color/bee-A1SF.svg","response":1,"trial_type":"image-button-response","trial_index":158,"time_elapsed":768844,"internal_node_id":"0.0-6.0-0.22","subject_id":"60fd487a67bd78e529e91894","study_id":"6197b3f67c2b5cd3b6d9596a","session_id":"619be31dcfc4d781ad04b57c","condition":"contingent","relevant_dimensions":["antennae","legs"],"bee_group":{"antennae":"A","wings":"X","pattern":"X","legs":"M"},"bonus":0.6200000000000012},{"rt":2714.7999999970198,"stimulus":"bees-with-color/bee-B1DM.svg","response":0,"trial_type":"image-button-response","trial_index":159,"time_elapsed":771560,"internal_node_id":"0.0-6.0-0.23","subject_id":"60fd487a67bd78e529e91894","study_id":"6197b3f67c2b5cd3b6d9596a","session_id":"619be31dcfc4d781ad04b57c","condition":"contingent","relevant_dimensions":["antennae","legs"],"bee_group":{"antennae":"A","wings":"X","pattern":"X","legs":"M"},"bonus":0.6200000000000012},{"rt":937,"stimulus":"bees-with-color/bee-B2DM.svg","response":0,"trial_type":"image-button-response","trial_index":160,"time_elapsed":772498,"internal_node_id":"0.0-6.0-0.24","subject_id":"60fd487a67bd78e529e91894","study_id":"6197b3f67c2b5cd3b6d9596a","session_id":"619be31dcfc4d781ad04b57c","condition":"contingent","relevant_dimensions":["antennae","legs"],"bee_group":{"antennae":"A","wings":"X","pattern":"X","legs":"M"},"bonus":0.6200000000000012},{"rt":1321.4000000059605,"stimulus":"bees-with-color/bee-B1DF.svg","response":0,"trial_type":"image-button-response","trial_index":161,"time_elapsed":773820,"internal_n