[{"success":true,"trial_type":"fullscreen","trial_index":0,"time_elapsed":5311,"internal_node_id":"0.0-0.0","subject_id":"5f2c4bf4e4f3080e6a469fcc","study_id":"6197b3f67c2b5cd3b6d9596a","session_id":"619bef0503cd0bacf87b214e","condition":"full-information","relevant_dimensions":["antennae","legs"],"bee_group":{"antennae":"B","wings":"X","pattern":"X","legs":"F"},"bonus":0.9800000000000008},{"success":true,"timeout":false,"failed_images":[],"failed_audio":[],"failed_video":[],"trial_type":"preload","trial_index":1,"time_elapsed":7219,"internal_node_id":"0.0-1.0","subject_id":"5f2c4bf4e4f3080e6a469fcc","study_id":"6197b3f67c2b5cd3b6d9596a","session_id":"619bef0503cd0bacf87b214e","condition":"full-information","relevant_dimensions":["antennae","legs"],"bee_group":{"antennae":"B","wings":"X","pattern":"X","legs":"F"},"bonus":0.9800000000000008},{"rt":1965,"stimulus":"Welcome! Press any key to begin.","response":" ","trial_type":"html-keyboard-response","trial_index":2,"time_elapsed":9188,"internal_node_id":"0.0-2.0","subject_id":"5f2c4bf4e4f3080e6a469fcc","study_id":"6197b3f67c2b5cd3b6d9596a","session_id":"619bef0503cd0bacf87b214e","condition":"full-information","relevant_dimensions":["antennae","legs"],"bee_group":{"antennae":"B","wings":"X","pattern":"X","legs":"F"},"bonus":0.9800000000000008},{"view_history":[{"page_index":0,"viewing_time":3887},{"page_index":1,"viewing_time":17039},{"page_index":2,"viewing_time":13688},{"page_index":3,"viewing_time":18836},{"page_index":4,"viewing_time":6798},{"page_index":5,"viewing_time":11833},{"page_index":6,"viewing_time":17110},{"page_index":7,"viewing_time":6133},{"page_index":8,"viewing_time":8404},{"page_index":9,"viewing_time":6812},{"page_index":10,"viewing_time":4486},{"page_index":11,"viewing_time":19855},{"page_index":12,"viewing_time":7035},{"page_index":13,"viewing_time":2279},{"page_index":14,"viewing_time":2808}],"rt":147003,"trial_type":"instructions","trial_index":3,"time_elapsed":156194,"internal_node_id":"0.0-3.0-0.0","subject_id":"5f2c4bf4e4f3080e6a469fcc","study_id":"6197b3f67c2b5cd3b6d9596a","session_id":"619bef0503cd0bacf87b214e","condition":"full-information","relevant_dimensions":["antennae","legs"],"bee_group":{"antennae":"B","wings":"X","pattern":"X","legs":"F"},"bonus":0.9800000000000008},{"rt":13593,"response":{"Q0":["Two or six legs","Stripes or spots on body","Single or double wings","Antennae or no antennae"]},"question_order":[0],"trial_type":"survey-multi-select","trial_index":4,"time_elapsed":169852,"internal_node_id":"0.0-3.0-1.0","subject_id":"5f2c4bf4e4f3080e6a469fcc","study_id":"6197b3f67c2b5cd3b6d9596a","session_id":"619bef0503cd0bacf87b214e","condition":"full-information","relevant_dimensions":["antennae","legs"],"bee_group":{"antennae":"B","wings":"X","pattern":"X","legs":"F"},"correct":true,"bonus":0.9800000000000008},{"rt":21193,"response":{"Q1":"No.","Q2":"Based on the four features of the bee.","Q3":"You learn if it was friendly or dangerous, but do not alter your bonus."},"question_order":[0,1,2],"trial_type":"survey-multi-choice","trial_index":5,"time_elapsed":191051,"internal_node_id":"0.0-3.0-2.0","subject_id":"5f2c4bf4e4f3080e6a469fcc","study_id":"6197b3f67c2b5cd3b6d9596a","session_id":"619bef0503cd0bacf87b214e","condition":"full-information","relevant_dimensions":["antennae","legs"],"bee_group":{"antennae":"B","wings":"X","pattern":"X","legs":"F"},"correct":true,"bonus":0.9800000000000008},{"rt":2193,"stimulus":"<p>Congrats, you got everything right<br>When you're ready, click the button below to continue to the experiment.</p>","response":0,"trial_type":"html-button-response","trial_index":6,"time_elapsed":193249,"internal_node_id":"0.0-3.0-3.0","subject_id":"5f2c4bf4e4f3080e6a469fcc","study_id":"6197b3f67c2b5cd3b6d9596a","session_id":"619bef0503cd0bacf87b214e","condition":"full-information","relevant_dimensions":["antennae","legs"],"bee_group":{"antennae":"B","wings":"X","pattern":"X","legs":"F"},"bonus":0.9800000000000008},{"rt":2720,"stimulus":"bees-with-color/bee-A2DF.svg","response":0,"trial_type":"image-button-response","trial_index":7,"time_elapsed":195976,"internal_node_id":"0.0-4.0-0.0","subject_id":"5f2c4bf4e4f3080e6a469fcc","study_id":"6197b3f67c2b5cd3b6d9596a","session_id":"619bef0503cd0bacf87b214e","condition":"full-information","relevant_dimensions":["antennae","legs"],"bee_group":{"antennae":"B","wings":"X","pattern":"X","legs":"F"},"action":"harvest","summary":"good-harvest","bonus":0.9800000000000008},{"rt":12150,"stimulus":"\n                    <p><b>Action: <em>harvest</em></b></p>\n                    <p>This is the bee that you just saw.</p>\n                    <img src=\"bees-with-color/bee-A2DF.svg\" width=\"200\">\n                    <p><span class=\"greenText\"><b>Successful harvest!</b></span><br>Your pay has increased by $0.02. Your bonus pay is now $0.56.</p>\n            ","response":0,"trial_type":"html-button-response","trial_index":8,"time_elapsed":208171,"internal_node_id":"0.0-4.0-1.0","subject_id":"5f2c4bf4e4f3080e6a469fcc","study_id":"6197b3f67c2b5cd3b6d9596a","session_id":"619bef0503cd0bacf87b214e","condition":"full-information","relevant_dimensions":["antennae","legs"],"bee_group":{"antennae":"B","wings":"X","pattern":"X","legs":"F"},"bonus":0.9800000000000008},{"rt":2133,"stimulus":"bees-with-color/bee-B2SM.svg","response":0,"trial_type":"image-button-response","trial_index":9,"time_elapsed":210310,"internal_node_id":"0.0-4.0-0.1","subject_id":"5f2c4bf4e4f3080e6a469fcc","study_id":"6197b3f67c2b5cd3b6d9596a","session_id":"619bef0503cd0bacf87b214e","condition":"full-information","relevant_dimensions":["antennae","legs"],"bee_group":{"antennae":"B","wings":"X","pattern":"X","legs":"F"},"action":"harvest","summary":"good-harvest","bonus":0.9800000000000008},{"rt":8493,"stimulus":"\n                    <p><b>Action: <em>harvest</em></b></p>\n                    <p>This is the bee that you just saw.</p>\n                    <img src=\"bees-with-color/bee-B2SM.svg\" width=\"200\">\n                    <p><span class=\"greenText\"><b>Successful harvest!</b></span><br>Your pay has increased by $0.02. Your bonus pay is now $0.58.</p>\n            ","response":0,"trial_type":"html-button-response","trial_index":10,"time_elapsed":218809,"internal_node_id":"0.0-4.0-1.1","subject_id":"5f2c4bf4e4f3080e6a469fcc","study_id":"6197b3f67c2b5cd3b6d9596a","session_id":"619bef0503cd0bacf87b214e","condition":"full-information","relevant_dimensions":["antennae","legs"],"bee_group":{"antennae":"B","wings":"X","pattern":"X","legs":"F"},"bonus":0.9800000000000008},{"rt":2711,"stimulus":"bees-with-color/bee-B2SF.svg","response":0,"trial_type":"image-button-response","trial_index":11,"time_elapsed":221523,"internal_node_id":"0.0-4.0-0.2","subject_id":"5f2c4bf4e4f3080e6a469fcc","study_id":"6197b3f67c2b5cd3b6d9596a","session_id":"619bef0503cd0bacf87b214e","condition":"full-information","relevant_dimensions":["antennae","legs"],"bee_group":{"antennae":"B","wings":"X","pattern":"X","legs":"F"},"action":"harvest","summary":"bad-harvest","bonus":0.9800000000000008},{"rt":24453,"stimulus":"\n                    <p><b>Action: <em>harvest</em></b></p>\n                    <p>This is the bee that you just saw.</p>\n                    <img src=\"bees-with-color/bee-B2SF.svg\" width=\"200\">\n                    <p><span class=\"redText\">Bad choice, the bee was angry.</span><br><b>You have been stung!</b><br>Your pay has been decreased by $0.10. Your bonus pay is now $0.48.</p>\n            ","response":0,"trial_type":"html-button-response","trial_index":12,"time_elapsed":245981,"internal_node_id":"0.0-4.0-1.2","subject_id":"5f2c4bf4e4f3080e6a469fcc","study_id":"6197b3f67c2b5cd3b6d9596a","session_id":"619bef0503cd0bacf87b214e","condition":"full-information","relevant_dimensions":["antennae","legs"],"bee_group":{"antennae":"B","wings":"X","pattern":"X","legs":"F"},"bonus":0.9800000000000008},{"rt":3331,"stimulus":"bees-with-color/bee-A1DM.svg","response":0,"trial_type":"image-button-response","trial_index":13,"time_elapsed":249317,"internal_node_id":"0.0-4.0-0.3","subject_id":"5f2c4bf4e4f3080e6a469fcc","study_id":"6197b3f67c2b5cd3b6d9596a","session_id":"619bef0503cd0bacf87b214e","condition":"full-information","relevant_dimensions":["antennae","legs"],"bee_group":{"antennae":"B","wings":"X","pattern":"X","legs":"F"},"action":"harvest","summary":"good-harvest","bonus":0.9800000000000008},{"rt":3592,"stimulus":"\n                    <p><b>Action: <em>harvest</em></b></p>\n                    <p>This is the bee that you just saw.</p>\n                    <img src=\"bees-with-color/bee-A1DM.svg\" width=\"200\">\n                    <p><span class=\"greenText\"><b>Successful harvest!</b></span><br>Your pay has increased by $0.02. Your bonus pay is now $0.50.</p>\n            ","response":0,"trial_type":"html-button-response","trial_index":14,"time_elapsed":252912,"internal_node_id":"0.0-4.0-1.3","subject_id":"5f2c4bf4e4f3080e6a469fcc","study_id":"6197b3f67c2b5cd3b6d9596a","session_id":"619bef0503cd0bacf87b214e","condition":"full-information","relevant_dimensions":["antennae","legs"],"bee_group":{"antennae":"B","wings":"X","pattern":"X","legs":"F"},"bonus":0.9800000000000008},{"rt":2491,"stimulus":"bees-with-color/bee-B1DM.svg","response":0,"trial_type":"image-button-response","trial_index":15,"time_elapsed":255406,"internal_node_id":"0.0-4.0-0.4","subject_id":"5f2c4bf4e4f3080e6a469fcc","study_id":"6197b3f67c2b5cd3b6d9596a","session_id":"619bef0503cd0bacf87b214e","condition":"full-information","relevant_dimensions":["antennae","legs"],"bee_group":{"antennae":"B","wings":"X","pattern":"X","legs":"F"},"action":"harvest","summary":"good-harvest","bonus":0.9800000000000008},{"rt":6644,"stimulus":"\n                    <p><b>Action: <em>harvest</em></b></p>\n                    <p>This is the bee that you just saw.</p>\n                    <img src=\"bees-with-color/bee-B1DM.svg\" width=\"200\">\n                    <p><span class=\"greenText\"><b>Successful harvest!</b></span><br>Your pay has increased by $0.02. Your bonus pay is now $0.52.</p>\n            ","response":0,"trial_type":"html-button-response","trial_index":16,"time_elapsed":262053,"internal_node_id":"0.0-4.0-1.4","subject_id":"5f2c4bf4e4f3080e6a469fcc","study_id":"6197b3f67c2b5cd3b6d9596a","session_id":"619bef0503cd0bacf87b214e","condition":"full-information","relevant_dimensions":["antennae","legs"],"bee_group":{"antennae":"B","wings":"X","pattern":"X","legs":"F"},"bonus":0.9800000000000008},{"rt":4883,"stimulus":"bees-with-color/bee-B2DF.svg","response":0,"trial_type":"image-button-response","trial_index":17,"time_elapsed":266939,"internal_node_id":"0.0-4.0-0.5","subject_id":"5f2c4bf4e4f3080e6a469fcc","study_id":"6197b3f67c2b5cd3b6d9596a","session_id":"619bef0503cd0bacf87b214e","condition":"full-information","relevant_dimensions":["antennae","legs"],"bee_group":{"antennae":"B","wings":"X","pattern":"X","legs":"F"},"action":"harvest","summary":"bad-harvest","bonus":0.9800000000000008},{"rt":25158,"stimulus":"\n                    <p><b>Action: <em>harvest</em></b></p>\n                    <p>This is the bee that you just saw.</p>\n                    <img src=\"bees-with-color/bee-B2DF.svg\" width=\"200\">\n                    <p><span class=\"redText\">Bad choice, the bee was angry.</span><br><b>You have been stung!</b><br>Your pay has been decreased by $0.10. Your bonus pay is now $0.42.</p>\n            ","response":0,"trial_type":"html-button-response","trial_index":18,"time_elapsed":292103,"internal_node_id":"0.0-4.0-1.5","subject_id":"5f2c4bf4e4f3080e6a469fcc","study_id":"6197b3f67c2b5cd3b6d9596a","session_id":"619bef0503cd0bacf87b214e","condition":"full-information","relevant_dimensions":["antennae","legs"],"bee_group":{"antennae":"B","wings":"X","pattern":"X","legs":"F"},"bonus":0.9800000000000008},{"rt":3625,"stimulus":"bees-with-color/bee-A2DM.svg","response":0,"trial_type":"image-button-response","trial_index":19,"time_elapsed":295731,"internal_node_id":"0.0-4.0-0.6","subject_id":"5f2c4bf4e4f3080e6a469fcc","study_id":"6197b3f67c2b5cd3b6d9596a","session_id":"619bef0503cd0bacf87b214e","condition":"full-information","relevant_dimensions":["antennae","legs"],"bee_group":{"antennae":"B","wings":"X","pattern":"X","legs":"F"},"action":"harvest","summary":"good-harvest","bonus":0.9800000000000008},{"rt":3686,"stimulus":"\n                    <p><b>Action: <em>harvest</em></b></p>\n                    <p>This is the bee that you just saw.</p>\n                    <img src=\"bees-with-color/bee-A2DM.svg\" width=\"200\">\n                    <p><span class=\"greenText\"><b>Successful harvest!</b></span><br>Your pay has increased by $0.02. Your bonus pay is now $0.44.</p>\n            ","response":0,"trial_type":"html-button-response","trial_index":20,"time_elapsed":299420,"internal_node_id":"0.0-4.0-1.6","subject_id":"5f2c4bf4e4f3080e6a469fcc","study_id":"6197b3f67c2b5cd3b6d9596a","session_id":"619bef0503cd0bacf87b214e","condition":"full-information","relevant_dimensions":["antennae","legs"],"bee_group":{"antennae":"B","wings":"X","pattern":"X","legs":"F"},"bonus":0.9800000000000008},{"rt":2950,"stimulus":"bees-with-color/bee-A1SM.svg","response":0,"trial_type":"image-button-response","trial_index":21,"time_elapsed":302372,"internal_node_id":"0.0-4.0-0.7","subject_id":"5f2c4bf4e4f3080e6a469fcc","study_id":"6197b3f67c2b5cd3b6d9596a","session_id":"619bef0503cd0bacf87b214e","condition":"full-information","relevant_dimensions":["antennae","legs"],"bee_group":{"antennae":"B","wings":"X","pattern":"X","legs":"F"},"action":"harvest","summary":"good-harvest","bonus":0.9800000000000008},{"rt":2930,"stimulus":"\n                    <p><b>Action: <em>harvest</em></b></p>\n                    <p>This is the bee that you just saw.</p>\n                    <img src=\"bees-with-color/bee-A1SM.svg\" width=\"200\">\n                    <p><span class=\"greenText\"><b>Successful harvest!</b></span><br>Your pay has increased by $0.02. Your bonus pay is now $0.46.</p>\n            ","response":0,"trial_type":"html-button-response","trial_index":22,"time_elapsed":305305,"internal_node_id":"0.0-4.0-1.7","subject_id":"5f2c4bf4e4f3080e6a469fcc","study_id":"6197b3f67c2b5cd3b6d9596a","session_id":"619bef0503cd0bacf87b214e","condition":"full-information","relevant_dimensions":["antennae","legs"],"bee_group":{"antennae":"B","wings":"X","pattern":"X","legs":"F"},"bonus":0.9800000000000008},{"rt":2985,"stimulus":"bees-with-color/bee-A1DF.svg","response":0,"trial_type":"image-button-response","trial_index":23,"time_elapsed":308295,"internal_node_id":"0.0-4.0-0.8","subject_id":"5f2c4bf4e4f3080e6a469fcc","study_id":"6197b3f67c2b5cd3b6d9596a","session_id":"619bef0503cd0bacf87b214e","condition":"full-information","relevant_dimensions":["antennae","legs"],"bee_group":{"antennae":"B","wings":"X","pattern":"X","legs":"F"},"action":"harvest","summary":"good-harvest","bonus":0.9800000000000008},{"rt":4938,"stimulus":"\n                    <p><b>Action: <em>harvest</em></b></p>\n                    <p>This is the bee that you just saw.</p>\n                    <img src=\"bees-with-color/bee-A1DF.svg\" width=\"200\">\n                    <p><span class=\"greenText\"><b>Successful harvest!</b></span><br>Your pay has increased by $0.02. Your bonus pay is now $0.48.</p>\n            ","response":0,"trial_type":"html-button-response","trial_index":24,"time_elapsed":313237,"internal_node_id":"0.0-4.0-1.8","subject_id":"5f2c4bf4e4f3080e6a469fcc","study_id":"6197b3f67c2b5cd3b6d9596a","session_id":"619bef0503cd0bacf87b214e","condition":"full-information","relevant_dimensions":["antennae","legs"],"bee_group":{"antennae":"B","wings":"X","pattern":"X","legs":"F"},"bonus":0.9800000000000008},{"rt":2434,"stimulus":"bees-with-color/bee-B1SF.svg","response":0,"trial_type":"image-button-response","trial_index":25,"time_elapsed":315674,"internal_node_id":"0.0-4.0-0.9","subject_id":"5f2c4bf4e4f3080e6a469fcc","study_id":"6197b3f67c2b5cd3b6d9596a","session_id":"619bef0503cd0bacf87b214e","condition":"full-information","relevant_dimensions":["antennae","legs"],"bee_group":{"antennae":"B","wings":"X","pattern":"X","legs":"F"},"action":"harvest","summary":"bad-harvest","bonus":0.9800000000000008},{"rt":40012,"stimulus":"\n                    <p><b>Action: <em>harvest</em></b></p>\n                    <p>This is the bee that you just saw.</p>\n                    <img src=\"bees-with-color/bee-B1SF.svg\" width=\"200\">\n                    <p><span class=\"redText\">Bad choice, the bee was angry.</span><br><b>You have been stung!</b><br>Your pay has been decreased by $0.10. Your bonus pay is now $0.38.</p>\n            ","response":0,"trial_type":"html-button-response","trial_index":26,"time_elapsed":355690,"internal_node_id":"0.0-4.0-1.9","subject_id":"5f2c4bf4e4f3080e6a469fcc","study_id":"6197b3f67c2b5cd3b6d9596a","session_id":"619bef0503cd0bacf87b214e","condition":"full-information","relevant_dimensions":["antennae","legs"],"bee_group":{"antennae":"B","wings":"X","pattern":"X","legs":"F"},"bonus":0.9800000000000008},{"rt":2792,"stimulus":"bees-with-color/bee-A2SF.svg","response":0,"trial_type":"image-button-response","trial_index":27,"time_elapsed":358486,"internal_node_id":"0.0-4.0-0.10","subject_id":"5f2c4bf4e4f3080e6a469fcc","study_id":"6197b3f67c2b5cd3b6d9596a","session_id":"619bef0503cd0bacf87b214e","condition":"full-information","relevant_dimensions":["antennae","legs"],"bee_group":{"antennae":"B","wings":"X","pattern":"X","legs":"F"},"action":"harvest","summary":"good-harvest","bonus":0.9800000000000008},{"rt":2497,"stimulus":"\n                    <p><b>Action: <em>harvest</em></b></p>\n                    <p>This is the bee that you just saw.</p>\n                    <img src=\"bees-with-color/bee-A2SF.svg\" width=\"200\">\n                    <p><span class=\"greenText\"><b>Successful harvest!</b></span><br>Your pay has increased by $0.02. Your bonus pay is now $0.40.</p>\n            ","response":0,"trial_type":"html-button-response","trial_index":28,"time_elapsed":360985,"internal_node_id":"0.0-4.0-1.10","subject_id":"5f2c4bf4e4f3080e6a469fcc","study_id":"6197b3f67c2b5cd3b6d9596a","session_id":"619bef0503cd0bacf87b214e","condition":"full-information","relevant_dimensions":["antennae","legs"],"bee_group":{"antennae":"B","wings":"X","pattern":"X","legs":"F"},"bonus":0.9800000000000008},{"rt":3206,"stimulus":"bees-with-color/bee-A1SF.svg","response":0,"trial_type":"image-button-response","trial_index":29,"time_elapsed":364195,"internal_node_id":"0.0-4.0-0.11","subject_id":"5f2c4bf4e4f3080e6a469fcc","study_id":"6197b3f67c2b5cd3b6d9596a","session_id":"619bef0503cd0bacf87b214e","condition":"full-information","relevant_dimensions":["antennae","legs"],"bee_group":{"antennae":"B","wings":"X","pattern":"X","legs":"F"},"action":"harvest","summary":"good-harvest","bonus":0.9800000000000008},{"rt":5251,"stimulus":"\n                    <p><b>Action: <em>harvest</em></b></p>\n                    <p>This is the bee that you just saw.</p>\n                    <img src=\"bees-with-color/bee-A1SF.svg\" width=\"200\">\n                    <p><span class=\"greenText\"><b>Successful harvest!</b></span><br>Your pay has increased by $0.02. Your bonus pay is now $0.42.</p>\n            ","response":0,"trial_type":"html-button-response","trial_index":30,"time_elapsed":369449,"internal_node_id":"0.0-4.0-1.11","subject_id":"5f2c4bf4e4f3080e6a469fcc","study_id":"6197b3f67c2b5cd3b6d9596a","session_id":"619bef0503cd0bacf87b214e","condition":"full-information","relevant_dimensions":["antennae","legs"],"bee_group":{"antennae":"B","wings":"X","pattern":"X","legs":"F"},"bonus":0.9800000000000008},{"rt":2089,"stimulus":"bees-with-color/bee-B1SM.svg","response":0,"trial_type":"image-button-response","trial_index":31,"time_elapsed":371543,"internal_node_id":"0.0-4.0-0.12","subject_id":"5f2c4bf4e4f3080e6a469fcc","study_id":"6197b3f67c2b5cd3b6d9596a","session_id":"619bef0503cd0bacf87b214e","condition":"full-information","relevant_dimensions":["antennae","legs"],"bee_group":{"antennae":"B","wings":"X","pattern":"X","legs":"F"},"action":"harvest","summary":"good-harvest","bonus":0.9800000000000008},{"rt":3741,"stimulus":"\n                    <p><b>Action: <em>harvest</em></b></p>\n                    <p>This is the bee that you just saw.</p>\n                    <img src=\"bees-with-color/bee-B1SM.svg\" width=\"200\">\n                    <p><span class=\"greenText\"><b>Successful harvest!</b></span><br>Your pay has increased by $0.02. Your bonus pay is now $0.44.</p>\n            ","response":0,"trial_type":"html-button-response","trial_index":32,"time_elapsed":375287,"internal_node_id":"0.0-4.0-1.12","subject_id":"5f2c4bf4e4f3080e6a469fcc","study_id":"6197b3f67c2b5cd3b6d9596a","session_id":"619bef0503cd0bacf87b214e","condition":"full-information","relevant_dimensions":["antennae","legs"],"bee_group":{"antennae":"B","wings":"X","pattern":"X","legs":"F"},"bonus":0.9800000000000008},{"rt":8784,"stimulus":"bees-with-color/bee-B1DF.svg","response":1,"trial_type":"image-button-response","trial_index":33,"time_elapsed":384075,"internal_node_id":"0.0-4.0-0.13","subject_id":"5f2c4bf4e4f3080e6a469fcc","study_id":"6197b3f67c2b5cd3b6d9596a","session_id":"619bef0503cd0bacf87b214e","condition":"full-information","relevant_dimensions":["antennae","legs"],"bee_group":{"antennae":"B","wings":"X","pattern":"X","legs":"F"},"action":"avoid","summary":"good-avoid","bonus":0.9800000000000008},{"rt":5142,"stimulus":"\n                    <p><b>Action: <em>avoid</em></b></p>\n                    <p>This is the bee that you just saw.</p>\n                    <img src=\"bees-with-color/bee-B1DF.svg\" width=\"200\">\n                    <p><span class=\"greenText\">Good choice!</span>  This bee would have stung you.<br>Your bonus pay is unchanged, and remains at $0.44.</p>\n            ","response":0,"trial_type":"html-button-response","trial_index":34,"time_elapsed":389220,"internal_node_id":"0.0-4.0-1.13","subject_id":"5f2c4bf4e4f3080e6a469fcc","study_id":"6197b3f67c2b5cd3b6d9596a","session_id":"619bef0503cd0bacf87b214e","condition":"full-information","relevant_dimensions":["antennae","legs"],"bee_group":{"antennae":"B","wings":"X","pattern":"X","legs":"F"},"bonus":0.9800000000000008},{"rt":1759,"stimulus":"bees-with-color/bee-A2SM.svg","response":0,"trial_type":"image-button-response","trial_index":35,"time_elapsed":390982,"internal_node_id":"0.0-4.0-0.14","subject_id":"5f2c4bf4e4f3080e6a469fcc","study_id":"6197b3f67c2b5cd3b6d9596a","session_id":"619bef0503cd0bacf87b214e","condition":"full-information","relevant_dimensions":["antennae","legs"],"bee_group":{"antennae":"B","wings":"X","pattern":"X","legs":"F"},"action":"harvest","summary":"good-harvest","bonus":0.9800000000000008},{"rt":2409,"stimulus":"\n                    <p><b>Action: <em>harvest</em></b></p>\n                    <p>This is the bee that you just saw.</p>\n                    <img src=\"bees-with-color/bee-A2SM.svg\" width=\"200\">\n                    <p><span class=\"greenText\"><b>Successful harvest!</b></span><br>Your pay has increased by $0.02. Your bonus pay is now $0.46.</p>\n            ","response":0,"trial_type":"html-button-response","trial_index":36,"time_elapsed":393395,"internal_node_id":"0.0-4.0-1.14","subject_id":"5f2c4bf4e4f3080e6a469fcc","study_id":"6197b3f67c2b5cd3b6d9596a","session_id":"619bef0503cd0bacf87b214e","condition":"full-information","relevant_dimensions":["antennae","legs"],"bee_group":{"antennae":"B","wings":"X","pattern":"X","legs":"F"},"bonus":0.9800000000000008},{"rt":2211,"stimulus":"bees-with-color/bee-B2DM.svg","response":0,"trial_type":"image-button-response","trial_index":37,"time_elapsed":395608,"internal_node_id":"0.0-4.0-0.15","subject_id":"5f2c4bf4e4f3080e6a469fcc","study_id":"6197b3f67c2b5cd3b6d9596a","session_id":"619bef0503cd0bacf87b214e","condition":"full-information","relevant_dimensions":["antennae","legs"],"bee_group":{"antennae":"B","wings":"X","pattern":"X","legs":"F"},"action":"harvest","summary":"good-harvest","bonus":0.9800000000000008},{"rt":2332,"stimulus":"\n                    <p><b>Action: <em>harvest</em></b></p>\n                    <p>This is the bee that you just saw.</p>\n                    <img src=\"bees-with-color/bee-B2DM.svg\" width=\"200\">\n                    <p><span class=\"greenText\"><b>Successful harvest!</b></span><br>Your pay has increased by $0.02. Your bonus pay is now $0.48.</p>\n            ","response":0,"trial_type":"html-button-response","trial_index":38,"time_elapsed":397943,"internal_node_id":"0.0-4.0-1.15","subject_id":"5f2c4bf4e4f3080e6a469fcc","study_id":"6197b3f67c2b5cd3b6d9596a","session_id":"619bef0503cd0bacf87b214e","condition":"full-information","relevant_dimensions":["antennae","legs"],"bee_group":{"antennae":"B","wings":"X","pattern":"X","legs":"F"},"bonus":0.9800000000000008},{"rt":7070,"stimulus":"bees-with-color/bee-B2DF.svg","response":1,"trial_type":"image-button-response","trial_index":39,"time_elapsed":405017,"internal_node_id":"0.0-4.0-0.16","subject_id":"5f2c4bf4e4f3080e6a469fcc","study_id":"6197b3f67c2b5cd3b6d9596a","session_id":"619bef0503cd0bacf87b214e","condition":"full-information","relevant_dimensions":["antennae","legs"],"bee_group":{"antennae":"B","wings":"X","pattern":"X","legs":"F"},"action":"avoid","summary":"good-avoid","bonus":0.9800000000000008},{"rt":3826,"stimulus":"\n                    <p><b>Action: <em>avoid</em></b></p>\n                    <p>This is the bee that you just saw.</p>\n                    <img src=\"bees-with-color/bee-B2DF.svg\" width=\"200\">\n                    <p><span class=\"greenText\">Good choice!</span>  This bee would have stung you.<br>Your bonus pay is unchanged, and remains at $0.48.</p>\n            ","response":0,"trial_type":"html-button-response","trial_index":40,"time_elapsed":408848,"internal_node_id":"0.0-4.0-1.16","subject_id":"5f2c4bf4e4f3080e6a469fcc","study_id":"6197b3f67c2b5cd3b6d9596a","session_id":"619bef0503cd0bacf87b214e","condition":"full-information","relevant_dimensions":["antennae","legs"],"bee_group":{"antennae":"B","wings":"X","pattern":"X","legs":"F"},"bonus":0.9800000000000008},{"rt":2052,"stimulus":"bees-with-color/bee-B1DM.svg","response":0,"trial_type":"image-button-response","trial_index":41,"time_elapsed":410900,"internal_node_id":"0.0-4.0-0.17","subject_id":"5f2c4bf4e4f3080e6a469fcc","study_id":"6197b3f67c2b5cd3b6d9596a","session_id":"619bef0503cd0bacf87b214e","condition":"full-information","relevant_dimensions":["antennae","legs"],"bee_group":{"antennae":"B","wings":"X","pattern":"X","legs":"F"},"action":"harvest","summary":"good-harvest","bonus":0.9800000000000008},{"rt":2228,"stimulus":"\n                    <p><b>Action: <em>harvest</em></b></p>\n                    <p>This is the bee that you just saw.</p>\n                    <img src=\"bees-with-color/bee-B1DM.svg\" width=\"200\">\n                    <p><span class=\"greenText\"><b>Successful harvest!</b></span><br>Your pay has increased by $0.02. Your bonus pay is now $0.50.</p>\n            ","response":0,"trial_type":"html-button-response","trial_index":42,"time_elapsed":413132,"internal_node_id":"0.0-4.0-1.17","subject_id":"5f2c4bf4e4f3080e6a469fcc","study_id":"6197b3f67c2b5cd3b6d9596a","session_id":"619bef0503cd0bacf87b214e","condition":"full-information","relevant_dimensions":["antennae","legs"],"bee_group":{"antennae":"B","wings":"X","pattern":"X","legs":"F"},"bonus":0.9800000000000008},{"rt":4692,"stimulus":"bees-with-color/bee-B1DF.svg","response":1,"trial_type":"image-button-response","trial_index":43,"time_elapsed":417828,"internal_node_id":"0.0-4.0-0.18","subject_id":"5f2c4bf4e4f3080e6a469fcc","study_id":"6197b3f67c2b5cd3b6d9596a","session_id":"619bef0503cd0bacf87b214e","condition":"full-information","relevant_dimensions":["antennae","legs"],"bee_group":{"antennae":"B","wings":"X","pattern":"X","legs":"F"},"action":"avoid","summary":"good-avoid","bonus":0.9800000000000008},{"rt":2588,"stimulus":"\n                    <p><b>Action: <em>avoid</em></b></p>\n                    <p>This is the bee that you just saw.</p>\n                    <img src=\"bees-with-color/bee-B1DF.svg\" width=\"200\">\n                    <p><span class=\"greenText\">Good choice!</span>  This bee would have stung you.<br>Your bonus pay is unchanged, and remains at $0.50.</p>\n            ","response":0,"trial_type":"html-button-response","trial_index":44,"time_elapsed":420419,"internal_node_id":"0.0-4.0-1.18","subject_id":"5f2c4bf4e4f3080e6a469fcc","study_id":"6197b3f67c2b5cd3b6d9596a","session_id":"619bef0503cd0bacf87b214e","condition":"full-information","relevant_dimensions":["antennae","legs"],"bee_group":{"antennae":"B","wings":"X","pattern":"X","legs":"F"},"bonus":0.9800000000000008},{"rt":1780,"stimulus":"bees-with-color/bee-A1DM.svg","response":0,"trial_type":"image-button-response","trial_index":45,"time_elapsed":422201,"internal_node_id":"0.0-4.0-0.19","subject_id":"5f2c4bf4e4f3080e6a469fcc","study_id":"6197b3f67c2b5cd3b6d9596a","session_id":"619bef0503cd0bacf87b214e","condition":"full-information","relevant_dimensions":["antennae","legs"],"bee_group":{"antennae":"B","wings":"X","pattern":"X","legs":"F"},"action":"harvest","summary":"good-harvest","bonus":0.9800000000000008},{"rt":2743,"stimulus":"\n                    <p><b>Action: <em>harvest</em></b></p>\n                    <p>This is the bee that you just saw.</p>\n                    <img src=\"bees-with-color/bee-A1DM.svg\" width=\"200\">\n                    <p><span class=\"greenText\"><b>Successful harvest!</b></span><br>Your pay has increased by $0.02. Your bonus pay is now $0.52.</p>\n            ","response":0,"trial_type":"html-button-response","trial_index":46,"time_elapsed":424947,"internal_node_id":"0.0-4.0-1.19","subject_id":"5f2c4bf4e4f3080e6a469fcc","study_id":"6197b3f67c2b5cd3b6d9596a","session_id":"619bef0503cd0bacf87b214e","condition":"full-information","relevant_dimensions":["antennae","legs"],"bee_group":{"antennae":"B","wings":"X","pattern":"X","legs":"F"},"bonus":0.9800000000000008},{"rt":2469,"stimulus":"bees-with-color/bee-A1SM.svg","response":0,"trial_type":"image-button-response","trial_index":47,"time_elapsed":427419,"internal_node_id":"0.0-4.0-0.20","subject_id":"5f2c4bf4e4f3080e6a469fcc","study_id":"6197b3f67c2b5cd3b6d9596a","session_id":"619bef0503cd0bacf87b214e","condition":"full-information","relevant_dimensions":["antennae","legs"],"bee_group":{"antennae":"B","wings":"X","pattern":"X","legs":"F"},"action":"harvest","summary":"good-harvest","bonus":0.9800000000000008},{"rt":2425,"stimulus":"\n                    <p><b>Action: <em>harvest</em></b></p>\n                    <p>This is the bee that you just saw.</p>\n                    <img src=\"bees-with-color/bee-A1SM.svg\" width=\"200\">\n                    <p><span class=\"greenText\"><b>Successful harvest!</b></span><br>Your pay has increased by $0.02. Your bonus pay is now $0.54.</p>\n            ","response":0,"trial_type":"html-button-response","trial_index":48,"time_elapsed":429848,"internal_node_id":"0.0-4.0-1.20","subject_id":"5f2c4bf4e4f3080e6a469fcc","study_id":"6197b3f67c2b5cd3b6d9596a","session_id":"619bef0503cd0bacf87b214e","condition":"full-information","relevant_dimensions":["antennae","legs"],"bee_group":{"antennae":"B","wings":"X","pattern":"X","legs":"F"},"bonus":0.9800000000000008},{"rt":2473,"stimulus":"bees-with-color/bee-A2SF.svg","response":0,"trial_type":"image-button-response","trial_index":49,"time_elapsed":432324,"internal_node_id":"0.0-4.0-0.21","subject_id":"5f2c4bf4e4f3080e6a469fcc","study_id":"6197b3f67c2b5cd3b6d9596a","session_id":"619bef0503cd0bacf87b214e","condition":"full-information","relevant_dimensions":["antennae","legs"],"bee_group":{"antennae":"B","wings":"X","pattern":"X","legs":"F"},"action":"harvest","summary":"good-harvest","bonus":0.9800000000000008},{"rt":2380,"stimulus":"\n                    <p><b>Action: <em>harvest</em></b></p>\n                    <p>This is the bee that you just saw.</p>\n                    <img src=\"bees-with-color/bee-A2SF.svg\" width=\"200\">\n                    <p><span class=\"greenText\"><b>Successful harvest!</b></span><br>Your pay has increased by $0.02. Your bonus pay is now $0.56.</p>\n            ","response":0,"trial_type":"html-button-response","trial_index":50,"time_elapsed":434708,"internal_node_id":"0.0-4.0-1.21","subject_id":"5f2c4bf4e4f3080e6a469fcc","study_id":"6197b3f67c2b5cd3b6d9596a","session_id":"619bef0503cd0bacf87b214e","condition":"full-information","relevant_dimensions":["antennae","legs"],"bee_group":{"antennae":"B","wings":"X","pattern":"X","legs":"F"},"bonus":0.9800000000000008},{"rt":1941,"stimulus":"bees-with-color/bee-B1SM.svg","response":0,"trial_type":"image-button-response","trial_index":51,"time_elapsed":436652,"internal_node_id":"0.0-4.0-0.22","subject_id":"5f2c4bf4e4f3080e6a469fcc","study_id":"6197b3f67c2b5cd3b6d9596a","session_id":"619bef0503cd0bacf87b214e","condition":"full-information","relevant_dimensions":["antennae","legs"],"bee_group":{"antennae":"B","wings":"X","pattern":"X","legs":"F"},"action":"harvest","summary":"good-harvest","bonus":0.9800000000000008},{"rt":2333,"stimulus":"\n                    <p><b>Action: <em>harvest</em></b></p>\n                    <p>This is the bee that you just saw.</p>\n                    <img src=\"bees-with-color/bee-B1SM.svg\" width=\"200\">\n                    <p><span class=\"greenText\"><b>Successful harvest!</b></span><br>Your pay has increased by $0.02. Your bonus pay is now $0.58.</p>\n            ","response":0,"trial_type":"html-button-response","trial_index":52,"time_elapsed":438987,"internal_node_id":"0.0-4.0-1.22","subject_id":"5f2c4bf4e4f3080e6a469fcc","study_id":"6197b3f67c2b5cd3b6d9596a","session_id":"619bef0503cd0bacf87b214e","condition":"full-information","relevant_dimensions":["antennae","legs"],"bee_group":{"antennae":"B","wings":"X","pattern":"X","legs":"F"},"bonus":0.9800000000000008},{"rt":2483,"stimulus":"bees-with-color/bee-A2DM.svg","response":0,"trial_type":"image-button-response","trial_index":53,"time_elapsed":441474,"internal_node_id":"0.0-4.0-0.23","subject_id":"5f2c4bf4e4f3080e6a469fcc","study_id":"6197b3f67c2b5cd3b6d9596a","session_id":"619bef0503cd0bacf87b214e","condition":"full-information","relevant_dimensions":["antennae","legs"],"bee_group":{"antennae":"B","wings":"X","pattern":"X","legs":"F"},"action":"harvest","summary":"good-harvest","bonus":0.9800000000000008},{"rt":3873,"stimulus":"\n                    <p><b>Action: <em>harvest</em></b></p>\n                    <p>This is the bee that you just saw.</p>\n                    <img src=\"bees-with-color/bee-A2DM.svg\" width=\"200\">\n                    <p><span class=\"greenText\"><b>Successful harvest!</b></span><br>Your pay has increased by $0.02. Your bonus pay is now $0.60.</p>\n            ","response":0,"trial_type":"html-button-response","trial_index":54,"time_elapsed":445351,"internal_node_id":"0.0-4.0-1.23","subject_id":"5f2c4bf4e4f3080e6a469fcc","study_id":"6197b3f67c2b5cd3b6d9596a","session_id":"619bef0503cd0bacf87b214e","condition":"full-information","relevant_dimensions":["antennae","legs"],"bee_group":{"antennae":"B","wings":"X","pattern":"X","legs":"F"},"bonus":0.9800000000000008},{"rt":2335,"stimulus":"bees-with-color/bee-B1SF.svg","response":1,"trial_type":"image-button-response","trial_index":55,"time_elapsed":447690,"internal_node_id":"0.0-4.0-0.24","subject_id":"5f2c4bf4e4f3080e6a469fcc","study_id":"6197b3f67c2b5cd3b6d9596a","session_id":"619bef0503cd0bacf87b214e","condition":"full-information","relevant_dimensions":["antennae","legs"],"bee_group":{"antennae":"B","wings":"X","pattern":"X","legs":"F"},"action":"avoid","summary":"good-avoid","bonus":0.9800000000000008},{"rt":3433,"stimulus":"\n                    <p><b>Action: <em>avoid</em></b></p>\n                    <p>This is the bee that you just saw.</p>\n                    <img src=\"bees-with-color/bee-B1SF.svg\" width=\"200\">\n                    <p><span class=\"greenText\">Good choice!</span>  This bee would have stung you.<br>Your bonus pay is unchanged, and remains at $0.60.</p>\n            ","response":0,"trial_type":"html-button-response","trial_index":56,"time_elapsed":451126,"internal_node_id":"0.0-4.0-1.24","subject_id":"5f2c4bf4e4f3080e6a469fcc","study_id":"6197b3f67c2b5cd3b6d9596a","session_id":"619bef0503cd0bacf87b214e","condition":"full-information","relevant_dimensions":["antennae","legs"],"bee_group":{"antennae":"B","wings":"X","pattern":"X","legs":"F"},"bonus":0.9800000000000008},{"rt":1946,"stimulus":"bees-with-color/bee-B2DM.svg","response":0,"trial_type":"image-button-response","trial_index":57,"time_elapsed":453075,"internal_node_id":"0.0-4.0-0.25","subject_id":"5f2c4bf4e4f3080e6a469fcc","study_id":"6197b3f67c2b5cd3b6d9596a","session_id":"619bef0503cd0bacf87b214e","condition":"full-information","relevant_dimensions":["antennae","legs"],"bee_group":{"antennae":"B","wings":"X","pattern":"X","legs":"F"},"action":"harvest","summary":"good-harvest","bonus":0.9800000000000008},{"rt":3129,"stimulus":"\n                    <p><b>Action: <em>harvest</em></b></p>\n                    <p>This is the bee that you just saw.</p>\n                    <img src=\"bees-with-color/bee-B2DM.svg\" width=\"200\">\n                    <p><span class=\"greenText\"><b>Successful harvest!</b></span><br>Your pay has increased by $0.02. Your bonus pay is now $0.62.</p>\n            ","response":0,"trial_type":"html-button-response","trial_index":58,"time_elapsed":456208,"internal_node_id":"0.0-4.0-1.25","subject_id":"5f2c4bf4e4f3080e6a469fcc","study_id":"6197b3f67c2b5cd3b6d9596a","session_id":"619bef0503cd0bacf87b214e","condition":"full-information","relevant_dimensions":["antennae","legs"],"bee_group":{"antennae":"B","wings":"X","pattern":"X","legs":"F"},"bonus":0.9800000000000008},{"rt":2811,"stimulus":"bees-with-color/bee-B2SM.svg","response":0,"trial_type":"image-button-response","trial_index":59,"time_elapsed":459022,"internal_node_id":"0.0-4.0-0.26","subject_id":"5f2c4bf4e4f3080e6a469fcc","study_id":"6197b3f67c2b5cd3b6d9596a","session_id":"619bef0503cd0bacf87b214e","condition":"full-information","relevant_dimensions":["antennae","legs"],"bee_group":{"antennae":"B","wings":"X","pattern":"X","legs":"F"},"action":"harvest","summary":"good-harvest","bonus":0.9800000000000008},{"rt":2444,"stimulus":"\n                    <p><b>Action: <em>harvest</em></b></p>\n                    <p>This is the bee that you just saw.</p>\n                    <img src=\"bees-with-color/bee-B2SM.svg\" width=\"200\">\n                    <p><span class=\"greenText\"><b>Successful harvest!</b></span><br>Your pay has increased by $0.02. Your bonus pay is now $0.64.</p>\n            ","response":0,"trial_type":"html-button-response","trial_index":60,"time_elapsed":461469,"internal_node_id":"0.0-4.0-1.26","subject_id":"5f2c4bf4e4f3080e6a469fcc","study_id":"6197b3f67c2b5cd3b6d9596a","session_id":"619bef0503cd0bacf87b214e","condition":"full-information","relevant_dimensions":["antennae","legs"],"bee_group":{"antennae":"B","wings":"X","pattern":"X","legs":"F"},"bonus":0.9800000000000008},{"rt":2461,"stimulus":"bees-with-color/bee-A2DF.svg","response":0,"trial_type":"image-button-response","trial_index":61,"time_elapsed":463932,"internal_node_id":"0.0-4.0-0.27","subject_id":"5f2c4bf4e4f3080e6a469fcc","study_id":"6197b3f67c2b5cd3b6d9596a","session_id":"619bef0503cd0bacf87b214e","condition":"full-information","relevant_dimensions":["antennae","legs"],"bee_group":{"antennae":"B","wings":"X","pattern":"X","legs":"F"},"action":"harvest","summary":"good-harvest","bonus":0.9800000000000008},{"rt":3685,"stimulus":"\n                    <p><b>Action: <em>harvest</em></b></p>\n                    <p>This is the bee that you just saw.</p>\n                    <img src=\"bees-with-color/bee-A2DF.svg\" width=\"200\">\n                    <p><span class=\"greenText\"><b>Successful harvest!</b></span><br>Your pay has increased by $0.02. Your bonus pay is now $0.66.</p>\n            ","response":0,"trial_type":"html-button-response","trial_index":62,"time_elapsed":467621,"internal_node_id":"0.0-4.0-1.27","subject_id":"5f2c4bf4e4f3080e6a469fcc","study_id":"6197b3f67c2b5cd3b6d9596a","session_id":"619bef0503cd0bacf87b214e","condition":"full-information","relevant_dimensions":["antennae","legs"],"bee_group":{"antennae":"B","wings":"X","pattern":"X","legs":"F"},"bonus":0.9800000000000008},{"rt":3979,"stimulus":"bees-with-color/bee-A1SF.svg","response":0,"trial_type":"image-button-response","trial_index":63,"time_elapsed":471603,"internal_node_id":"0.0-4.0-0.28","subject_id":"5f2c4bf4e4f3080e6a469fcc","study_id":"6197b3f67c2b5cd3b6d9596a","session_id":"619bef0503cd0bacf87b214e","condition":"full-information","relevant_dimensions":["antennae","legs"],"bee_group":{"antennae":"B","wings":"X","pattern":"X","legs":"F"},"action":"harvest","summary":"good-harvest","bonus":0.9800000000000008},{"rt":2936,"stimulus":"\n                    <p><b>Action: <em>harvest</em></b></p>\n                    <p>This is the bee that you just saw.</p>\n                    <img src=\"bees-with-color/bee-A1SF.svg\" width=\"200\">\n                    <p><span class=\"greenText\"><b>Successful harvest!</b></span><br>Your pay has increased by $0.02. Your bonus pay is now $0.68.</p>\n            ","response":0,"trial_type":"html-button-response","trial_index":64,"time_elapsed":474542,"internal_node_id":"0.0-4.0-1.28","subject_id":"5f2c4bf4e4f3080e6a469fcc","study_id":"6197b3f67c2b5cd3b6d9596a","session_id":"619bef0503cd0bacf87b214e","condition":"full-information","relevant_dimensions":["antennae","legs"],"bee_group":{"antennae":"B","wings":"X","pattern":"X","legs":"F"},"bonus":0.9800000000000008},{"rt":2202,"stimulus":"bees-with-color/bee-A1DF.svg","response":0,"trial_type":"image-button-response","trial_index":65,"time_elapsed":476746,"internal_node_id":"0.0-4.0-0.29","subject_id":"5f2c4bf4e4f3080e6a469fcc","study_id":"6197b3f67c2b5cd3b6d9596a","session_id":"619bef0503cd0bacf87b214e","condition":"full-information","relevant_dimensions":["antennae","legs"],"bee_group":{"antennae":"B","wings":"X","pattern":"X","legs":"F"},"action":"harvest","summary":"good-harvest","bonus":0.9800000000000008},{"rt":2098,"stimulus":"\n                    <p><b>Action: <em>harvest</em></b></p>\n                    <p>This is the bee that you just saw.</p>\n                    <img src=\"bees-with-color/bee-A1DF.svg\" width=\"200\">\n                    <p><span class=\"greenText\"><b>Successful harvest!</b></span><br>Your pay has increased by $0.02. Your bonus pay is now $0.70.</p>\n            ","response":0,"trial_type":"html-button-response","trial_index":66,"time_elapsed":478847,"internal_node_id":"0.0-4.0-1.29","subject_id":"5f2c4bf4e4f3080e6a469fcc","study_id":"6197b3f67c2b5cd3b6d9596a","session_id":"619bef0503cd0bacf87b214e","condition":"full-information","relevant_dimensions":["antennae","legs"],"bee_group":{"antennae":"B","wings":"X","pattern":"X","legs":"F"},"bonus":0.9800000000000008},{"rt":2278,"stimulus":"bees-with-color/bee-A2SM.svg","response":0,"trial_type":"image-button-response","trial_index":67,"time_elapsed":481128,"internal_node_id":"0.0-4.0-0.30","subject_id":"5f2c4bf4e4f3080e6a469fcc","study_id":"6197b3f67c2b5cd3b6d9596a","session_id":"619bef0503cd0bacf87b214e","condition":"full-information","relevant_dimensions":["antennae","legs"],"bee_group":{"antennae":"B","wings":"X","pattern":"X","legs":"F"},"action":"harvest","summary":"good-harvest","bonus":0.9800000000000008},{"rt":1813,"stimulus":"\n                    <p><b>Action: <em>harvest</em></b></p>\n                    <p>This is the bee that you just saw.</p>\n                    <img src=\"bees-with-color/bee-A2SM.svg\" width=\"200\">\n                    <p><span class=\"greenText\"><b>Successful harvest!</b></span><br>Your pay has increased by $0.02. Your bonus pay is now $0.72.</p>\n            ","response":0,"trial_type":"html-button-response","trial_index":68,"time_elapsed":482945,"internal_node_id":"0.0-4.0-1.30","subject_id":"5f2c4bf4e4f3080e6a469fcc","study_id":"6197b3f67c2b5cd3b6d9596a","session_id":"619bef0503cd0bacf87b214e","condition":"full-information","relevant_dimensions":["antennae","legs"],"bee_group":{"antennae":"B","wings":"X","pattern":"X","legs":"F"},"bonus":0.9800000000000008},{"rt":2043,"stimulus":"bees-with-color/bee-B2SF.svg","response":1,"trial_type":"image-button-response","trial_index":69,"time_elapsed":484990,"internal_node_id":"0.0-4.0-0.31","subject_id":"5f2c4bf4e4f3080e6a469fcc","study_id":"6197b3f67c2b5cd3b6d9596a","session_id":"619bef0503cd0bacf87b214e","condition":"full-information","relevant_dimensions":["antennae","legs"],"bee_group":{"antennae":"B","wings":"X","pattern":"X","legs":"F"},"action":"avoid","summary":"good-avoid","bonus":0.9800000000000008},{"rt":3136,"stimulus":"\n                    <p><b>Action: <em>avoid</em></b></p>\n                    <p>This is the bee that you just saw.</p>\n                    <img src=\"bees-with-color/bee-B2SF.svg\" width=\"200\">\n                    <p><span class=\"greenText\">Good choice!</span>  This bee would have stung you.<br>Your bonus pay is unchanged, and remains at $0.72.</p>\n            ","response":0,"trial_type":"html-button-response","trial_index":70,"time_elapsed":488130,"internal_node_id":"0.0-4.0-1.31","subject_id":"5f2c4bf4e4f3080e6a469fcc","study_id":"6197b3f67c2b5cd3b6d9596a","session_id":"619bef0503cd0bacf87b214e","condition":"full-information","relevant_dimensions":["antennae","legs"],"bee_group":{"antennae":"B","wings":"X","pattern":"X","legs":"F"},"bonus":0.9800000000000008},{"rt":2253,"stimulus":"bees-with-color/bee-B1SF.svg","response":1,"trial_type":"image-button-response","trial_index":71,"time_elapsed":490387,"internal_node_id":"0.0-4.0-0.32","subject_id":"5f2c4bf4e4f3080e6a469fcc","study_id":"6197b3f67c2b5cd3b6d9596a","session_id":"619bef0503cd0bacf87b214e","condition":"full-information","relevant_dimensions":["antennae","legs"],"bee_group":{"antennae":"B","wings":"X","pattern":"X","legs":"F"},"action":"avoid","summary":"good-avoid","bonus":0.9800000000000008},{"rt":2483,"stimulus":"\n                    <p><b>Action: <em>avoid</em></b></p>\n                    <p>This is the bee that you just saw.</p>\n                    <img src=\"bees-with-color/bee-B1SF.svg\" width=\"200\">\n                    <p><span class=\"greenText\">Good choice!</span>  This bee would have stung you.<br>Your bonus pay is unchanged, and remains at $0.72.</p>\n            ","response":0,"trial_type":"html-button-response","trial_index":72,"time_elapsed":492873,"internal_node_id":"0.0-4.0-1.32","subject_id":"5f2c4bf4e4f3080e6a469fcc","study_id":"6197b3f67c2b5cd3b6d9596a","session_id":"619bef0503cd0bacf87b214e","condition":"full-information","relevant_dimensions":["antennae","legs"],"bee_group":{"antennae":"B","wings":"X","pattern":"X","legs":"F"},"bonus":0.9800000000000008},{"rt":2018,"stimulus":"bees-with-color/bee-A2DF.svg","response":0,"trial_type":"image-button-response","trial_index":73,"time_elapsed":494894,"internal_node_id":"0.0-4.0-0.33","subject_id":"5f2c4bf4e4f3080e6a469fcc","study_id":"6197b3f67c2b5cd3b6d9596a","session_id":"619bef0503cd0bacf87b214e","condition":"full-information","relevant_dimensions":["antennae","legs"],"bee_group":{"antennae":"B","wings":"X","pattern":"X","legs":"F"},"action":"harvest","summary":"good-harvest","bonus":0.9800000000000008},{"rt":1772,"stimulus":"\n                    <p><b>Action: <em>harvest</em></b></p>\n                    <p>This is the bee that you just saw.</p>\n                    <img src=\"bees-with-color/bee-A2DF.svg\" width=\"200\">\n                    <p><span class=\"greenText\"><b>Successful harvest!</b></span><br>Your pay has increased by $0.02. Your bonus pay is now $0.74.</p>\n            ","response":0,"trial_type":"html-button-response","trial_index":74,"time_elapsed":496671,"internal_node_id":"0.0-4.0-1.33","subject_id":"5f2c4bf4e4f3080e6a469fcc","study_id":"6197b3f67c2b5cd3b6d9596a","session_id":"619bef0503cd0bacf87b214e","condition":"full-information","relevant_dimensions":["antennae","legs"],"bee_group":{"antennae":"B","wings":"X","pattern":"X","legs":"F"},"bonus":0.9800000000000008},{"rt":1894,"stimulus":"bees-with-color/bee-B2DM.svg","response":0,"trial_type":"image-button-response","trial_index":75,"time_elapsed":498568,"internal_node_id":"0.0-4.0-0.34","subject_id":"5f2c4bf4e4f3080e6a469fcc","study_id":"6197b3f67c2b5cd3b6d9596a","session_id":"619bef0503cd0bacf87b214e","condition":"full-information","relevant_dimensions":["antennae","legs"],"bee_group":{"antennae":"B","wings":"X","pattern":"X","legs":"F"},"action":"harvest","summary":"good-harvest","bonus":0.9800000000000008},{"rt":2560,"stimulus":"\n                    <p><b>Action: <em>harvest</em></b></p>\n                    <p>This is the bee that you just saw.</p>\n                    <img src=\"bees-with-color/bee-B2DM.svg\" width=\"200\">\n                    <p><span class=\"greenText\"><b>Successful harvest!</b></span><br>Your pay has increased by $0.02. Your bonus pay is now $0.76.</p>\n            ","response":0,"trial_type":"html-button-response","trial_index":76,"time_elapsed":501131,"internal_node_id":"0.0-4.0-1.34","subject_id":"5f2c4bf4e4f3080e6a469fcc","study_id":"6197b3f67c2b5cd3b6d9596a","session_id":"619bef0503cd0bacf87b214e","condition":"full-information","relevant_dimensions":["antennae","legs"],"bee_group":{"antennae":"B","wings":"X","pattern":"X","legs":"F"},"bonus":0.9800000000000008},{"rt":1846,"stimulus":"bees-with-color/bee-B1SM.svg","response":0,"trial_type":"image-button-response","trial_index":77,"time_elapsed":502979,"internal_node_id":"0.0-4.0-0.35","subject_id":"5f2c4bf4e4f3080e6a469fcc","study_id":"6197b3f67c2b5cd3b6d9596a","session_id":"619bef0503cd0bacf87b214e","condition":"full-information","relevant_dimensions":["antennae","legs"],"bee_group":{"antennae":"B","wings":"X","pattern":"X","legs":"F"},"action":"harvest","summary":"good-harvest","bonus":0.9800000000000008},{"rt":2225,"stimulus":"\n                    <p><b>Action: <em>harvest</em></b></p>\n                    <p>This is the bee that you just saw.</p>\n                    <img src=\"bees-with-color/bee-B1SM.svg\" width=\"200\">\n                    <p><span class=\"greenText\"><b>Successful harvest!</b></span><br>Your pay has increased by $0.02. Your bonus pay is now $0.78.</p>\n            ","response":0,"trial_type":"html-button-response","trial_index":78,"time_elapsed":505207,"internal_node_id":"0.0-4.0-1.35","subject_id":"5f2c4bf4e4f3080e6a469fcc","study_id":"6197b3f67c2b5cd3b6d9596a","session_id":"619bef0503cd0bacf87b214e","condition":"full-information","relevant_dimensions":["antennae","legs"],"bee_group":{"antennae":"B","wings":"X","pattern":"X","legs":"F"},"bonus":0.9800000000000008},{"rt":2418,"stimulus":"bees-with-color/bee-A1DM.svg","response":0,"trial_type":"image-button-response","trial_index":79,"time_elapsed":507628,"internal_node_id":"0.0-4.0-0.36","subject_id":"5f2c4bf4e4f3080e6a469fcc","study_id":"6197b3f67c2b5cd3b6d9596a","session_id":"619bef0503cd0bacf87b214e","condition":"full-information","relevant_dimensions":["antennae","legs"],"bee_group":{"antennae":"B","wings":"X","pattern":"X","legs":"F"},"action":"harvest","summary":"good-harvest","bonus":0.9800000000000008},{"rt":2091,"stimulus":"\n                    <p><b>Action: <em>harvest</em></b></p>\n                    <p>This is the bee that you just saw.</p>\n                    <img src=\"bees-with-color/bee-A1DM.svg\" width=\"200\">\n                    <p><span class=\"greenText\"><b>Successful harvest!</b></span><br>Your pay has increased by $0.02. Your bonus pay is now $0.80.</p>\n            ","response":0,"trial_type":"html-button-response","trial_index":80,"time_elapsed":509722,"internal_node_id":"0.0-4.0-1.36","subject_id":"5f2c4bf4e4f3080e6a469fcc","study_id":"6197b3f67c2b5cd3b6d9596a","session_id":"619bef0503cd0bacf87b214e","condition":"full-information","relevant_dimensions":["antennae","legs"],"bee_group":{"antennae":"B","wings":"X","pattern":"X","legs":"F"},"bonus":0.9800000000000008},{"rt":2867,"stimulus":"bees-with-color/bee-A1DF.svg","response":0,"trial_type":"image-button-response","trial_index":81,"time_elapsed":512591,"internal_node_id":"0.0-4.0-0.37","subject_id":"5f2c4bf4e4f3080e6a469fcc","study_id":"6197b3f67c2b5cd3b6d9596a","session_id":"619bef0503cd0bacf87b214e","condition":"full-information","relevant_dimensions":["antennae","legs"],"bee_group":{"antennae":"B","wings":"X","pattern":"X","legs":"F"},"action":"harvest","summary":"good-harvest","bonus":0.9800000000000008},{"rt":2766,"stimulus":"\n                    <p><b>Action: <em>harvest</em></b></p>\n                    <p>This is the bee that you just saw.</p>\n                    <img src=\"bees-with-color/bee-A1DF.svg\" width=\"200\">\n                    <p><span class=\"greenText\"><b>Successful harvest!</b></span><br>Your pay has increased by $0.02. Your bonus pay is now $0.82.</p>\n            ","response":0,"trial_type":"html-button-response","trial_index":82,"time_elapsed":515360,"internal_node_id":"0.0-4.0-1.37","subject_id":"5f2c4bf4e4f3080e6a469fcc","study_id":"6197b3f67c2b5cd3b6d9596a","session_id":"619bef0503cd0bacf87b214e","condition":"full-information","relevant_dimensions":["antennae","legs"],"bee_group":{"antennae":"B","wings":"X","pattern":"X","legs":"F"},"bonus":0.9800000000000008},{"rt":2610,"stimulus":"bees-with-color/bee-B2SM.svg","response":0,"trial_type":"image-button-response","trial_index":83,"time_elapsed":517973,"internal_node_id":"0.0-4.0-0.38","subject_id":"5f2c4bf4e4f3080e6a469fcc","study_id":"6197b3f67c2b5cd3b6d9596a","session_id":"619bef0503cd0bacf87b214e","condition":"full-information","relevant_dimensions":["antennae","legs"],"bee_group":{"antennae":"B","wings":"X","pattern":"X","legs":"F"},"action":"harvest","summary":"good-harvest","bonus":0.9800000000000008},{"rt":2577,"stimulus":"\n                    <p><b>Action: <em>harvest</em></b></p>\n                    <p>This is the bee that you just saw.</p>\n                    <img src=\"bees-with-color/bee-B2SM.svg\" width=\"200\">\n                    <p><span class=\"greenText\"><b>Successful harvest!</b></span><br>Your pay has increased by $0.02. Your bonus pay is now $0.84.</p>\n            ","response":0,"trial_type":"html-button-response","trial_index":84,"time_elapsed":520554,"internal_node_id":"0.0-4.0-1.38","subject_id":"5f2c4bf4e4f3080e6a469fcc","study_id":"6197b3f67c2b5cd3b6d9596a","session_id":"619bef0503cd0bacf87b214e","condition":"full-information","relevant_dimensions":["antennae","legs"],"bee_group":{"antennae":"B","wings":"X","pattern":"X","legs":"F"},"bonus":0.9800000000000008},{"rt":1903,"stimulus":"bees-with-color/bee-B2SF.svg","response":1,"trial_type":"image-button-response","trial_index":85,"time_elapsed":522458,"internal_node_id":"0.0-4.0-0.39","subject_id":"5f2c4bf4e4f3080e6a469fcc","study_id":"6197b3f67c2b5cd3b6d9596a","session_id":"619bef0503cd0bacf87b214e","condition":"full-information","relevant_dimensions":["antennae","legs"],"bee_group":{"antennae":"B","wings":"X","pattern":"X","legs":"F"},"action":"avoid","summary":"good-avoid","bonus":0.9800000000000008},{"rt":4762,"stimulus":"\n                    <p><b>Action: <em>avoid</em></b></p>\n                    <p>This is the bee that you just saw.</p>\n                    <img src=\"bees-with-color/bee-B2SF.svg\" width=\"200\">\n                    <p><span class=\"greenText\">Good choice!</span>  This bee would have stung you.<br>Your bonus pay is unchanged, and remains at $0.84.</p>\n            ","response":0,"trial_type":"html-button-response","trial_index":86,"time_elapsed":527223,"internal_node_id":"0.0-4.0-1.39","subject_id":"5f2c4bf4e4f3080e6a469fcc","study_id":"6197b3f67c2b5cd3b6d9596a","session_id":"619bef0503cd0bacf87b214e","condition":"full-information","relevant_dimensions":["antennae","legs"],"bee_group":{"antennae":"B","wings":"X","pattern":"X","legs":"F"},"bonus":0.9800000000000008},{"rt":3168,"stimulus":"bees-with-color/bee-A1SF.svg","response":0,"trial_type":"image-button-response","trial_index":87,"time_elapsed":530393,"internal_node_id":"0.0-4.0-0.40","subject_id":"5f2c4bf4e4f3080e6a469fcc","study_id":"6197b3f67c2b5cd3b6d9596a","session_id":"619bef0503cd0bacf87b214e","condition":"full-information","relevant_dimensions":["antennae","legs"],"bee_group":{"antennae":"B","wings":"X","pattern":"X","legs":"F"},"action":"harvest","summary":"good-harvest","bonus":0.9800000000000008},{"rt":1562,"stimulus":"\n                    <p><b>Action: <em>harvest</em></b></p>\n                    <p>This is the bee that you just saw.</p>\n                    <img src=\"bees-with-color/bee-A1SF.svg\" width=\"200\">\n                    <p><span class=\"greenText\"><b>Successful harvest!</b></span><br>Your pay has increased by $0.02. Your bonus pay is now $0.86.</p>\n            ","response":0,"trial_type":"html-button-response","trial_index":88,"time_elapsed":531958,"internal_node_id":"0.0-4.0-1.40","subject_id":"5f2c4bf4e4f3080e6a469fcc","study_id":"6197b3f67c2b5cd3b6d9596a","session_id":"619bef0503cd0bacf87b214e","condition":"full-information","relevant_dimensions":["antennae","legs"],"bee_group":{"antennae":"B","wings":"X","pattern":"X","legs":"F"},"bonus":0.9800000000000008},{"rt":1814,"stimulus":"bees-with-color/bee-B1DM.svg","response":0,"trial_type":"image-button-response","trial_index":89,"time_elapsed":533776,"internal_node_id":"0.0-4.0-0.41","subject_id":"5f2c4bf4e4f3080e6a469fcc","study_id":"6197b3f67c2b5cd3b6d9596a","session_id":"619bef0503cd0bacf87b214e","condition":"full-information","relevant_dimensions":["antennae","legs"],"bee_group":{"antennae":"B","wings":"X","pattern":"X","legs":"F"},"action":"harvest","summary":"good-harvest","bonus":0.9800000000000008},{"rt":2356,"stimulus":"\n                    <p><b>Action: <em>harvest</em></b></p>\n                    <p>This is the bee that you just saw.</p>\n                    <img src=\"bees-with-color/bee-B1DM.svg\" width=\"200\">\n                    <p><span class=\"greenText\"><b>Successful harvest!</b></span><br>Your pay has increased by $0.02. Your bonus pay is now $0.88.</p>\n            ","response":0,"trial_type":"html-button-response","trial_index":90,"time_elapsed":536134,"internal_node_id":"0.0-4.0-1.41","subject_id":"5f2c4bf4e4f3080e6a469fcc","study_id":"6197b3f67c2b5cd3b6d9596a","session_id":"619bef0503cd0bacf87b214e","condition":"full-information","relevant_dimensions":["antennae","legs"],"bee_group":{"antennae":"B","wings":"X","pattern":"X","legs":"F"},"bonus":0.9800000000000008},{"rt":2113,"stimulus":"bees-with-color/bee-A1SM.svg","response":0,"trial_type":"image-button-response","trial_index":91,"time_elapsed":538250,"internal_node_id":"0.0-4.0-0.42","subject_id":"5f2c4bf4e4f3080e6a469fcc","study_id":"6197b3f67c2b5cd3b6d9596a","session_id":"619bef0503cd0bacf87b214e","condition":"full-information","relevant_dimensions":["antennae","legs"],"bee_group":{"antennae":"B","wings":"X","pattern":"X","legs":"F"},"action":"harvest","summary":"good-harvest","bonus":0.9800000000000008},{"rt":2049,"stimulus":"\n                    <p><b>Action: <em>harvest</em></b></p>\n                    <p>This is the bee that you just saw.</p>\n                    <img src=\"bees-with-color/bee-A1SM.svg\" width=\"200\">\n                    <p><span class=\"greenText\"><b>Successful harvest!</b></span><br>Your pay has increased by $0.02. Your bonus pay is now $0.90.</p>\n            ","response":0,"trial_type":"html-button-response","trial_index":92,"time_elapsed":540301,"internal_node_id":"0.0-4.0-1.42","subject_id":"5f2c4bf4e4f3080e6a469fcc","study_id":"6197b3f67c2b5cd3b6d9596a","session_id":"619bef0503cd0bacf87b214e","condition":"full-information","relevant_dimensions":["antennae","legs"],"bee_group":{"antennae":"B","wings":"X","pattern":"X","legs":"F"},"bonus":0.9800000000000008},{"rt":2478,"stimulus":"bees-with-color/bee-A2SF.svg","response":0,"trial_type":"image-button-response","trial_index":93,"time_elapsed":542782,"internal_node_id":"0.0-4.0-0.43","subject_id":"5f2c4bf4e4f3080e6a469fcc","study_id":"6197b3f67c2b5cd3b6d9596a","session_id":"619bef0503cd0bacf87b214e","condition":"full-information","relevant_dimensions":["antennae","legs"],"bee_group":{"antennae":"B","wings":"X","pattern":"X","legs":"F"},"action":"harvest","summary":"good-harvest","bonus":0.9800000000000008},{"rt":2554,"stimulus":"\n                    <p><b>Action: <em>harvest</em></b></p>\n                    <p>This is the bee that you just saw.</p>\n                    <img src=\"bees-with-color/bee-A2SF.svg\" width=\"200\">\n                    <p><span class=\"greenText\"><b>Successful harvest!</b></span><br>Your pay has increased by $0.02. Your bonus pay is now $0.92.</p>\n            ","response":0,"trial_type":"html-button-response","trial_index":94,"time_elapsed":545338,"internal_node_id":"0.0-4.0-1.43","subject_id":"5f2c4bf4e4f3080e6a469fcc","study_id":"6197b3f67c2b5cd3b6d9596a","session_id":"619bef0503cd0bacf87b214e","condition":"full-information","relevant_dimensions":["antennae","legs"],"bee_group":{"antennae":"B","wings":"X","pattern":"X","legs":"F"},"bonus":0.9800000000000008},{"rt":2090,"stimulus":"bees-with-color/bee-B2DF.svg","response":1,"trial_type":"image-button-response","trial_index":95,"time_elapsed":547430,"internal_node_id":"0.0-4.0-0.44","subject_id":"5f2c4bf4e4f3080e6a469fcc","study_id":"6197b3f67c2b5cd3b6d9596a","session_id":"619bef0503cd0bacf87b214e","condition":"full-information","relevant_dimensions":["antennae","legs"],"bee_group":{"antennae":"B","wings":"X","pattern":"X","legs":"F"},"action":"avoid","summary":"good-avoid","bonus":0.9800000000000008},{"rt":2435,"stimulus":"\n                    <p><b>Action: <em>avoid</em></b></p>\n                    <p>This is the bee that you just saw.</p>\n                    <img src=\"bees-with-color/bee-B2DF.svg\" width=\"200\">\n                    <p><span class=\"greenText\">Good choice!</span>  This bee would have stung you.<br>Your bonus pay is unchanged, and remains at $0.92.</p>\n            ","response":0,"trial_type":"html-button-response","trial_index":96,"time_elapsed":549869,"internal_node_id":"0.0-4.0-1.44","subject_id":"5f2c4bf4e4f3080e6a469fcc","study_id":"6197b3f67c2b5cd3b6d9596a","session_id":"619bef0503cd0bacf87b214e","condition":"full-information","relevant_dimensions":["antennae","legs"],"bee_group":{"antennae":"B","wings":"X","pattern":"X","legs":"F"},"bonus":0.9800000000000008},{"rt":1733,"stimulus":"bees-with-color/bee-A2DM.svg","response":0,"trial_type":"image-button-response","trial_index":97,"time_elapsed":551605,"internal_node_id":"0.0-4.0-0.45","subject_id":"5f2c4bf4e4f3080e6a469fcc","study_id":"6197b3f67c2b5cd3b6d9596a","session_id":"619bef0503cd0bacf87b214e","condition":"full-information","relevant_dimensions":["antennae","legs"],"bee_group":{"antennae":"B","wings":"X","pattern":"X","legs":"F"},"action":"harvest","summary":"good-harvest","bonus":0.9800000000000008},{"rt":2388,"stimulus":"\n                    <p><b>Action: <em>harvest</em></b></p>\n                    <p>This is the bee that you just saw.</p>\n                    <img src=\"bees-with-color/bee-A2DM.svg\" width=\"200\">\n                    <p><span class=\"greenText\"><b>Successful harvest!</b></span><br>Your pay has increased by $0.02. Your bonus pay is now $0.94.</p>\n            ","response":0,"trial_type":"html-button-response","trial_index":98,"time_elapsed":553997,"internal_node_id":"0.0-4.0-1.45","subject_id":"5f2c4bf4e4f3080e6a469fcc","study_id":"6197b3f67c2b5cd3b6d9596a","session_id":"619bef0503cd0bacf87b214e","condition":"full-information","relevant_dimensions":["antennae","legs"],"bee_group":{"antennae":"B","wings":"X","pattern":"X","legs":"F"},"bonus":0.9800000000000008},{"rt":1815,"stimulus":"bees-with-color/bee-B1DF.svg","response":1,"trial_type":"image-button-response","trial_index":99,"time_elapsed":555815,"internal_node_id":"0.0-4.0-0.46","subject_id":"5f2c4bf4e4f3080e6a469fcc","study_id":"6197b3f67c2b5cd3b6d9596a","session_id":"619bef0503cd0bacf87b214e","condition":"full-information","relevant_dimensions":["antennae","legs"],"bee_group":{"antennae":"B","wings":"X","pattern":"X","legs":"F"},"action":"avoid","summary":"good-avoid","bonus":0.9800000000000008},{"rt":2252,"stimulus":"\n                    <p><b>Action: <em>avoid</em></b></p>\n                    <p>This is the bee that you just saw.</p>\n                    <img src=\"bees-with-color/bee-B1DF.svg\" width=\"200\">\n                    <p><span class=\"greenText\">Good choice!</span>  This bee would have stung you.<br>Your bonus pay is unchanged, and remains at $0.94.</p>\n            ","response":0,"trial_type":"html-button-response","trial_index":100,"time_elapsed":558071,"internal_node_id":"0.0-4.0-1.46","subject_id":"5f2c4bf4e4f3080e6a469fcc","study_id":"6197b3f67c2b5cd3b6d9596a","session_id":"619bef0503cd0bacf87b214e","condition":"full-information","relevant_dimensions":["antennae","legs"],"bee_group":{"antennae":"B","wings":"X","pattern":"X","legs":"F"},"bonus":0.9800000000000008},{"rt":1872,"stimulus":"bees-with-color/bee-A2SM.svg","response":0,"trial_type":"image-button-response","trial_index":101,"time_elapsed":559945,"internal_node_id":"0.0-4.0-0.47","subject_id":"5f2c4bf4e4f3080e6a469fcc","study_id":"6197b3f67c2b5cd3b6d9596a","session_id":"619bef0503cd0bacf87b214e","condition":"full-information","relevant_dimensions":["antennae","legs"],"bee_group":{"antennae":"B","wings":"X","pattern":"X","legs":"F"},"action":"harvest","summary":"good-harvest","bonus":0.9800000000000008},{"rt":3393,"stimulus":"\n                    <p><b>Action: <em>harvest</em></b></p>\n                    <p>This is the bee that you just saw.</p>\n                    <img src=\"bees-with-color/bee-A2SM.svg\" width=\"200\">\n                    <p><span class=\"greenText\"><b>Successful harvest!</b></span><br>Your pay has increased by $0.02. Your bonus pay is now $0.96.</p>\n            ","response":0,"trial_type":"html-button-response","trial_index":102,"time_elapsed":563340,"internal_node_id":"0.0-4.0-1.47","subject_id":"5f2c4bf4e4f3080e6a469fcc","study_id":"6197b3f67c2b5cd3b6d9596a","session_id":"619bef0503cd0bacf87b214e","condition":"full-information","relevant_dimensions":["antennae","legs"],"bee_group":{"antennae":"B","wings":"X","pattern":"X","legs":"F"},"bonus":0.9800000000000008},{"rt":2084,"stimulus":"bees-with-color/bee-A2SF.svg","response":0,"trial_type":"image-button-response","trial_index":103,"time_elapsed":565428,"internal_node_id":"0.0-4.0-0.48","subject_id":"5f2c4bf4e4f3080e6a469fcc","study_id":"6197b3f67c2b5cd3b6d9596a","session_id":"619bef0503cd0bacf87b214e","condition":"full-information","relevant_dimensions":["antennae","legs"],"bee_group":{"antennae":"B","wings":"X","pattern":"X","legs":"F"},"action":"harvest","summary":"good-harvest","bonus":0.9800000000000008},{"rt":2007,"stimulus":"\n                    <p><b>Action: <em>harvest</em></b></p>\n                    <p>This is the bee that you just saw.</p>\n                    <img src=\"bees-with-color/bee-A2SF.svg\" width=\"200\">\n                    <p><span class=\"greenText\"><b>Successful harvest!</b></span><br>Your pay has increased by $0.02. Your bonus pay is now $0.98.</p>\n            ","response":0,"trial_type":"html-button-response","trial_index":104,"time_elapsed":567439,"internal_node_id":"0.0-4.0-1.48","subject_id":"5f2c4bf4e4f3080e6a469fcc","study_id":"6197b3f67c2b5cd3b6d9596a","session_id":"619bef0503cd0bacf87b214e","condition":"full-information","relevant_dimensions":["antennae","legs"],"bee_group":{"antennae":"B","wings":"X","pattern":"X","legs":"F"},"bonus":0.9800000000000008},{"rt":1988,"stimulus":"bees-with-color/bee-B2SF.svg","response":1,"trial_type":"image-button-response","trial_index":105,"time_elapsed":569431,"internal_node_id":"0.0-4.0-0.49","subject_id":"5f2c4bf4e4f3080e6a469fcc","study_id":"6197b3f67c2b5cd3b6d9596a","session_id":"619bef0503cd0bacf87b214e","condition":"full-information","relevant_dimensions":["antennae","legs"],"bee_group":{"antennae":"B","wings":"X","pattern":"X","legs":"F"},"action":"avoid","summary":"good-avoid","bonus":0.9800000000000008},{"rt":2691,"stimulus":"\n                    <p><b>Action: <em>avoid</em></b></p>\n                    <p>This is the bee that you just saw.</p>\n                    <img src=\"bees-with-color/bee-B2SF.svg\" width=\"200\">\n                    <p><span class=\"greenText\">Good choice!</span>  This bee would have stung you.<br>Your bonus pay is unchanged, and remains at $0.98.</p>\n            ","response":0,"trial_type":"html-button-response","trial_index":106,"time_elapsed":572127,"internal_node_id":"0.0-4.0-1.49","subject_id":"5f2c4bf4e4f3080e6a469fcc","study_id":"6197b3f67c2b5cd3b6d9596a","session_id":"619bef0503cd0bacf87b214e","condition":"full-information","relevant_dimensions":["antennae","legs"],"bee_group":{"antennae":"B","wings":"X","pattern":"X","legs":"F"},"bonus":0.9800000000000008},{"rt":1852,"stimulus":"bees-with-color/bee-B2DM.svg","response":0,"trial_type":"image-button-response","trial_index":107,"time_elapsed":573982,"internal_node_id":"0.0-4.0-0.50","subject_id":"5f2c4bf4e4f3080e6a469fcc","study_id":"6197b3f67c2b5cd3b6d9596a","session_id":"619bef0503cd0bacf87b214e","condition":"full-information","relevant_dimensions":["antennae","legs"],"bee_group":{"antennae":"B","wings":"X","pattern":"X","legs":"F"},"action":"harvest","summary":"good-harvest","bonus":0.9800000000000008},{"rt":3963,"stimulus":"\n                    <p><b>Action: <em>harvest</em></b></p>\n                    <p>This is the bee that you just saw.</p>\n                    <img src=\"bees-with-color/bee-B2DM.svg\" width=\"200\">\n                    <p><span class=\"greenText\"><b>Successful harvest!</b></span><br>Your pay has increased by $0.02. Your bonus pay is now $1.00.</p>\n            ","response":0,"trial_type":"html-button-response","trial_index":108,"time_elapsed":577947,"internal_node_id":"0.0-4.0-1.50","subject_id":"5f2c4bf4e4f3080e6a469fcc","study_id":"6197b3f67c2b5cd3b6d9596a","session_id":"619bef0503cd0bacf87b214e","condition":"full-information","relevant_dimensions":["antennae","legs"],"bee_group":{"antennae":"B","wings":"X","pattern":"X","legs":"F"},"bonus":0.9800000000000008},{"rt":1572,"stimulus":"bees-with-color/bee-A2SM.svg","response":0,"trial_type":"image-button-response","trial_index":109,"time_elapsed":579521,"internal_node_id":"0.0-4.0-0.51","subject_id":"5f2c4bf4e4f3080e6a469fcc","study_id":"6197b3f67c2b5cd3b6d9596a","session_id":"619bef0503cd0bacf87b214e","condition":"full-information","relevant_dimensions":["antennae","legs"],"bee_group":{"antennae":"B","wings":"X","pattern":"X","legs":"F"},"action":"harvest","summary":"good-harvest","bonus":0.9800000000000008},{"rt":2637,"stimulus":"\n                    <p><b>Action: <em>harvest</em></b></p>\n                    <p>This is the bee that you just saw.</p>\n                    <img src=\"bees-with-color/bee-A2SM.svg\" width=\"200\">\n                    <p><span class=\"greenText\"><b>Successful harvest!</b></span><br>Your pay has increased by $0.02. Your bonus pay is now $1.02.</p>\n            ","response":0,"trial_type":"html-button-response","trial_index":110,"time_elapsed":582162,"internal_node_id":"0.0-4.0-1.51","subject_id":"5f2c4bf4e4f3080e6a469fcc","study_id":"6197b3f67c2b5cd3b6d9596a","session_id":"619bef0503cd0bacf87b214e","condition":"full-information","relevant_dimensions":["antennae","legs"],"bee_group":{"antennae":"B","wings":"X","pattern":"X","legs":"F"},"bonus":0.9800000000000008},{"rt":1965,"stimulus":"bees-with-color/bee-A1SF.svg","response":0,"trial_type":"image-button-response","trial_index":111,"time_elapsed":584130,"internal_node_id":"0.0-4.0-0.52","subject_id":"5f2c4bf4e4f3080e6a469fcc","study_id":"6197b3f67c2b5cd3b6d9596a","session_id":"619bef0503cd0bacf87b214e","condition":"full-information","relevant_dimensions":["antennae","legs"],"bee_group":{"antennae":"B","wings":"X","pattern":"X","legs":"F"},"action":"harvest","summary":"good-harvest","bonus":0.9800000000000008},{"rt":2899,"stimulus":"\n                    <p><b>Action: <em>harvest</em></b></p>\n                    <p>This is the bee that you just saw.</p>\n                    <img src=\"bees-with-color/bee-A1SF.svg\" width=\"200\">\n                    <p><span class=\"greenText\"><b>Successful harvest!</b></span><br>Your pay has increased by $0.02. Your bonus pay is now $1.04.</p>\n            ","response":0,"trial_type":"html-button-response","trial_index":112,"time_elapsed":587031,"internal_node_id":"0.0-4.0-1.52","subject_id":"5f2c4bf4e4f3080e6a469fcc","study_id":"6197b3f67c2b5cd3b6d9596a","session_id":"619bef0503cd0bacf87b214e","condition":"full-information","relevant_dimensions":["antennae","legs"],"bee_group":{"antennae":"B","wings":"X","pattern":"X","legs":"F"},"bonus":0.9800000000000008},{"rt":1541,"stimulus":"bees-with-color/bee-A2DM.svg","response":0,"trial_type":"image-button-response","trial_index":113,"time_elapsed":588574,"internal_node_id":"0.0-4.0-0.53","subject_id":"5f2c4bf4e4f3080e6a469fcc","study_id":"6197b3f67c2b5cd3b6d9596a","session_id":"619bef0503cd0bacf87b214e","condition":"full-information","relevant_dimensions":["antennae","legs"],"bee_group":{"antennae":"B","wings":"X","pattern":"X","legs":"F"},"action":"harvest","summary":"good-harvest","bonus":0.9800000000000008},{"rt":2755,"stimulus":"\n                    <p><b>Action: <em>harvest</em></b></p>\n                    <p>This is the bee that you just saw.</p>\n                    <img src=\"bees-with-color/bee-A2DM.svg\" width=\"200\">\n                    <p><span class=\"greenText\"><b>Successful harvest!</b></span><br>Your pay has increased by $0.02. Your bonus pay is now $1.06.</p>\n            ","response":0,"trial_type":"html-button-response","trial_index":114,"time_elapsed":591332,"internal_node_id":"0.0-4.0-1.53","subject_id":"5f2c4bf4e4f3080e6a469fcc","study_id":"6197b3f67c2b5cd3b6d9596a","session_id":"619bef0503cd0bacf87b214e","condition":"full-information","relevant_dimensions":["antennae","legs"],"bee_group":{"antennae":"B","wings":"X","pattern":"X","legs":"F"},"bonus":0.9800000000000008},{"rt":1774,"stimulus":"bees-with-color/bee-B2SM.svg","response":0,"trial_type":"image-button-response","trial_index":115,"time_elapsed":593110,"internal_node_id":"0.0-4.0-0.54","subject_id":"5f2c4bf4e4f3080e6a469fcc","study_id":"6197b3f67c2b5cd3b6d9596a","session_id":"619bef0503cd0bacf87b214e","condition":"full-information","relevant_dimensions":["antennae","legs"],"bee_group":{"antennae":"B","wings":"X","pattern":"X","legs":"F"},"action":"harvest","summary":"good-harvest","bonus":0.9800000000000008},{"rt":3230,"stimulus":"\n                    <p><b>Action: <em>harvest</em></b></p>\n                    <p>This is the bee that you just saw.</p>\n                    <img src=\"bees-with-color/bee-B2SM.svg\" width=\"200\">\n                    <p><span class=\"greenText\"><b>Successful harvest!</b></span><br>Your pay has increased by $0.02. Your bonus pay is now $1.08.</p>\n            ","response":0,"trial_type":"html-button-response","trial_index":116,"time_elapsed":596343,"internal_node_id":"0.0-4.0-1.54","subject_id":"5f2c4bf4e4f3080e6a469fcc","study_id":"6197b3f67c2b5cd3b6d9596a","session_id":"619bef0503cd0bacf87b214e","condition":"full-information","relevant_dimensions":["antennae","legs"],"bee_group":{"antennae":"B","wings":"X","pattern":"X","legs":"F"},"bonus":0.9800000000000008},{"rt":2552,"stimulus":"bees-with-color/bee-B1SF.svg","response":1,"trial_type":"image-button-response","trial_index":117,"time_elapsed":598898,"internal_node_id":"0.0-4.0-0.55","subject_id":"5f2c4bf4e4f3080e6a469fcc","study_id":"6197b3f67c2b5cd3b6d9596a","session_id":"619bef0503cd0bacf87b214e","condition":"full-information","relevant_dimensions":["antennae","legs"],"bee_group":{"antennae":"B","wings":"X","pattern":"X","legs":"F"},"action":"avoid","summary":"good-avoid","bonus":0.9800000000000008},{"rt":2160,"stimulus":"\n                    <p><b>Action: <em>avoid</em></b></p>\n                    <p>This is the bee that you just saw.</p>\n                    <img src=\"bees-with-color/bee-B1SF.svg\" width=\"200\">\n                    <p><span class=\"greenText\">Good choice!</span>  This bee would have stung you.<br>Your bonus pay is unchanged, and remains at $1.08.</p>\n            ","response":0,"trial_type":"html-button-response","trial_index":118,"time_elapsed":601062,"internal_node_id":"0.0-4.0-1.55","subject_id":"5f2c4bf4e4f3080e6a469fcc","study_id":"6197b3f67c2b5cd3b6d9596a","session_id":"619bef0503cd0bacf87b214e","condition":"full-information","relevant_dimensions":["antennae","legs"],"bee_group":{"antennae":"B","wings":"X","pattern":"X","legs":"F"},"bonus":0.9800000000000008},{"rt":2271,"stimulus":"bees-with-color/bee-B1DF.svg","response":1,"trial_type":"image-button-response","trial_index":119,"time_elapsed":603335,"internal_node_id":"0.0-4.0-0.56","subject_id":"5f2c4bf4e4f3080e6a469fcc","study_id":"6197b3f67c2b5cd3b6d9596a","session_id":"619bef0503cd0bacf87b214e","condition":"full-information","relevant_dimensions":["antennae","legs"],"bee_group":{"antennae":"B","wings":"X","pattern":"X","legs":"F"},"action":"avoid","summary":"good-avoid","bonus":0.9800000000000008},{"rt":2569,"stimulus":"\n                    <p><b>Action: <em>avoid</em></b></p>\n                    <p>This is the bee that you just saw.</p>\n                    <img src=\"bees-with-color/bee-B1DF.svg\" width=\"200\">\n                    <p><span class=\"greenText\">Good choice!</span>  This bee would have stung you.<br>Your bonus pay is unchanged, and remains at $1.08.</p>\n            ","response":0,"trial_type":"html-button-response","trial_index":120,"time_elapsed":605907,"internal_node_id":"0.0-4.0-1.56","subject_id":"5f2c4bf4e4f3080e6a469fcc","study_id":"6197b3f67c2b5cd3b6d9596a","session_id":"619bef0503cd0bacf87b214e","condition":"full-information","relevant_dimensions":["antennae","legs"],"bee_group":{"antennae":"B","wings":"X","pattern":"X","legs":"F"},"bonus":0.9800000000000008},{"rt":1702,"stimulus":"bees-with-color/bee-A1DF.svg","response":0,"trial_type":"image-button-response","trial_index":121,"time_elapsed":607612,"internal_node_id":"0.0-4.0-0.57","subject_id":"5f2c4bf4e4f3080e6a469fcc","study_id":"6197b3f67c2b5cd3b6d9596a","session_id":"619bef0503cd0bacf87b214e","condition":"full-information","relevant_dimensions":["antennae","legs"],"bee_group":{"antennae":"B","wings":"X","pattern":"X","legs":"F"},"action":"harvest","summary":"good-harvest","bonus":0.9800000000000008},{"rt":2878,"stimulus":"\n                    <p><b>Action: <em>harvest</em></b></p>\n                    <p>This is the bee that you just saw.</p>\n                    <img src=\"bees-with-color/bee-A1DF.svg\" width=\"200\">\n                    <p><span class=\"greenText\"><b>Successful harvest!</b></span><br>Your pay has increased by $0.02. Your bonus pay is now $1.10.</p>\n            ","response":0,"trial_type":"html-button-response","trial_index":122,"time_elapsed":610494,"internal_node_id":"0.0-4.0-1.57","subject_id":"5f2c4bf4e4f3080e6a469fcc","study_id":"6197b3f67c2b5cd3b6d9596a","session_id":"619bef0503cd0bacf87b214e","condition":"full-information","relevant_dimensions":["antennae","legs"],"bee_group":{"antennae":"B","wings":"X","pattern":"X","legs":"F"},"bonus":0.9800000000000008},{"rt":1797,"stimulus":"bees-with-color/bee-A2DF.svg","response":0,"trial_type":"image-button-response","trial_index":123,"time_elapsed":612293,"internal_node_id":"0.0-4.0-0.58","subject_id":"5f2c4bf4e4f3080e6a469fcc","study_id":"6197b3f67c2b5cd3b6d9596a","session_id":"619bef0503cd0bacf87b214e","condition":"full-information","relevant_dimensions":["antennae","legs"],"bee_group":{"antennae":"B","wings":"X","pattern":"X","legs":"F"},"action":"harvest","summary":"good-harvest","bonus":0.9800000000000008},{"rt":2489,"stimulus":"\n                    <p><b>Action: <em>harvest</em></b></p>\n                    <p>This is the bee that you just saw.</p>\n                    <img src=\"bees-with-color/bee-A2DF.svg\" width=\"200\">\n                    <p><span class=\"greenText\"><b>Successful harvest!</b></span><br>Your pay has increased by $0.02. Your bonus pay is now $1.12.</p>\n            ","response":0,"trial_type":"html-button-response","trial_index":124,"time_elapsed":614785,"internal_node_id":"0.0-4.0-1.58","subject_id":"5f2c4bf4e4f3080e6a469fcc","study_id":"6197b3f67c2b5cd3b6d9596a","session_id":"619bef0503cd0bacf87b214e","condition":"full-information","relevant_dimensions":["antennae","legs"],"bee_group":{"antennae":"B","wings":"X","pattern":"X","legs":"F"},"bonus":0.9800000000000008},{"rt":2811,"stimulus":"bees-with-color/bee-B2DF.svg","response":1,"trial_type":"image-button-response","trial_index":125,"time_elapsed":617601,"internal_node_id":"0.0-4.0-0.59","subject_id":"5f2c4bf4e4f3080e6a469fcc","study_id":"6197b3f67c2b5cd3b6d9596a","session_id":"619bef0503cd0bacf87b214e","condition":"full-information","relevant_dimensions":["antennae","legs"],"bee_group":{"antennae":"B","wings":"X","pattern":"X","legs":"F"},"action":"avoid","summary":"good-avoid","bonus":0.9800000000000008},{"rt":2060,"stimulus":"\n                    <p><b>Action: <em>avoid</em></b></p>\n                    <p>This is the bee that you just saw.</p>\n                    <img src=\"bees-with-color/bee-B2DF.svg\" width=\"200\">\n                    <p><span class=\"greenText\">Good choice!</span>  This bee would have stung you.<br>Your bonus pay is unchanged, and remains at $1.12.</p>\n            ","response":0,"trial_type":"html-button-response","trial_index":126,"time_elapsed":619664,"internal_node_id":"0.0-4.0-1.59","subject_id":"5f2c4bf4e4f3080e6a469fcc","study_id":"6197b3f67c2b5cd3b6d9596a","session_id":"619bef0503cd0bacf87b214e","condition":"full-information","relevant_dimensions":["antennae","legs"],"bee_group":{"antennae":"B","wings":"X","pattern":"X","legs":"F"},"bonus":0.9800000000000008},{"rt":1641,"stimulus":"bees-with-color/bee-B1SM.svg","response":0,"trial_type":"image-button-response","trial_index":127,"time_elapsed":621308,"internal_node_id":"0.0-4.0-0.60","subject_id":"5f2c4bf4e4f3080e6a469fcc","study_id":"6197b3f67c2b5cd3b6d9596a","session_id":"619bef0503cd0bacf87b214e","condition":"full-information","relevant_dimensions":["antennae","legs"],"bee_group":{"antennae":"B","wings":"X","pattern":"X","legs":"F"},"action":"harvest","summary":"good-harvest","bonus":0.9800000000000008},{"rt":1499,"stimulus":"\n                    <p><b>Action: <em>harvest</em></b></p>\n                    <p>This is the bee that you just saw.</p>\n                    <img src=\"bees-with-color/bee-B1SM.svg\" width=\"200\">\n                    <p><span class=\"greenText\"><b>Successful harvest!</b></span><br>Your pay has increased by $0.02. Your bonus pay is now $1.14.</p>\n            ","response":0,"trial_type":"html-button-response","trial_index":128,"time_elapsed":622810,"internal_node_id":"0.0-4.0-1.60","subject_id":"5f2c4bf4e4f3080e6a469fcc","study_id":"6197b3f67c2b5cd3b6d9596a","session_id":"619bef0503cd0bacf87b214e","condition":"full-information","relevant_dimensions":["antennae","legs"],"bee_group":{"antennae":"B","wings":"X","pattern":"X","legs":"F"},"bonus":0.9800000000000008},{"rt":2676,"stimulus":"bees-with-color/bee-B1DM.svg","response":0,"trial_type":"image-button-response","trial_index":129,"time_elapsed":625490,"internal_node_id":"0.0-4.0-0.61","subject_id":"5f2c4bf4e4f3080e6a469fcc","study_id":"6197b3f67c2b5cd3b6d9596a","session_id":"619bef0503cd0bacf87b214e","condition":"full-information","relevant_dimensions":["antennae","legs"],"bee_group":{"antennae":"B","wings":"X","pattern":"X","legs":"F"},"action":"harvest","summary":"good-harvest","bonus":0.9800000000000008},{"rt":1627,"stimulus":"\n                    <p><b>Action: <em>harvest</em></b></p>\n                    <p>This is the bee that you just saw.</p>\n                    <img src=\"bees-with-color/bee-B1DM.svg\" width=\"200\">\n                    <p><span class=\"greenText\"><b>Successful harvest!</b></span><br>Your pay has increased by $0.02. Your bonus pay is now $1.16.</p>\n            ","response":0,"trial_type":"html-button-response","trial_index":130,"time_elapsed":627119,"internal_node_id":"0.0-4.0-1.61","subject_id":"5f2c4bf4e4f3080e6a469fcc","study_id":"6197b3f67c2b5cd3b6d9596a","session_id":"619bef0503cd0bacf87b214e","condition":"full-information","relevant_dimensions":["antennae","legs"],"bee_group":{"antennae":"B","wings":"X","pattern":"X","legs":"F"},"bonus":0.9800000000000008},{"rt":2294,"stimulus":"bees-with-color/bee-A1DM.svg","response":0,"trial_type":"image-button-response","trial_index":131,"time_elapsed":629417,"internal_node_id":"0.0-4.0-0.62","subject_id":"5f2c4bf4e4f3080e6a469fcc","study_id":"6197b3f67c2b5cd3b6d9596a","session_id":"619bef0503cd0bacf87b214e","condition":"full-information","relevant_dimensions":["antennae","legs"],"bee_group":{"antennae":"B","wings":"X","pattern":"X","legs":"F"},"action":"harvest","summary":"good-harvest","bonus":0.9800000000000008},{"rt":1802,"stimulus":"\n                    <p><b>Action: <em>harvest</em></b></p>\n                    <p>This is the bee that you just saw.</p>\n                    <img src=\"bees-with-color/bee-A1DM.svg\" width=\"200\">\n                    <p><span class=\"greenText\"><b>Successful harvest!</b></span><br>Your pay has increased by $0.02. Your bonus pay is now $1.18.</p>\n            ","response":0,"trial_type":"html-button-response","trial_index":132,"time_elapsed":631223,"internal_node_id":"0.0-4.0-1.62","subject_id":"5f2c4bf4e4f3080e6a469fcc","study_id":"6197b3f67c2b5cd3b6d9596a","session_id":"619bef0503cd0bacf87b214e","condition":"full-information","relevant_dimensions":["antennae","legs"],"bee_group":{"antennae":"B","wings":"X","pattern":"X","legs":"F"},"bonus":0.9800000000000008},{"rt":2482,"stimulus":"bees-with-color/bee-A1SM.svg","response":0,"trial_type":"image-button-response","trial_index":133,"time_elapsed":633709,"internal_node_id":"0.0-4.0-0.63","subject_id":"5f2c4bf4e4f3080e6a469fcc","study_id":"6197b3f67c2b5cd3b6d9596a","session_id":"619bef0503cd0bacf87b214e","condition":"full-information","relevant_dimensions":["antennae","legs"],"bee_group":{"antennae":"B","wings":"X","pattern":"X","legs":"F"},"action":"harvest","summary":"good-harvest","bonus":0.9800000000000008},{"rt":3498,"stimulus":"\n                    <p><b>Action: <em>harvest</em></b></p>\n                    <p>This is the bee that you just saw.</p>\n                    <img src=\"bees-with-color/bee-A1SM.svg\" width=\"200\">\n                    <p><span class=\"greenText\"><b>Successful harvest!</b></span><br>Your pay has increased by $0.02. Your bonus pay is now $1.20.</p>\n            ","response":0,"trial_type":"html-button-response","trial_index":134,"time_elapsed":637210,"internal_node_id":"0.0-4.0-1.63","subject_id":"5f2c4bf4e4f3080e6a469fcc","study_id":"6197b3f67c2b5cd3b6d9596a","session_id":"619bef0503cd0bacf87b214e","condition":"full-information","relevant_dimensions":["antennae","legs"],"bee_group":{"antennae":"B","wings":"X","pattern":"X","legs":"F"},"bonus":0.9800000000000008},{"rt":5543,"stimulus":"You have completed the first part of this experiment.<br><br>You will now begin a shorter second part, in which you will receive no feedback.<br>The same rules regarding bonus pay apply.<br><br>Press any key to begin.","response":" ","trial_type":"html-keyboard-response","trial_index":135,"time_elapsed":642757,"internal_node_id":"0.0-5.0","subject_id":"5f2c4bf4e4f3080e6a469fcc","study_id":"6197b3f67c2b5cd3b6d9596a","session_id":"619bef0503cd0bacf87b214e","condition":"full-information","relevant_dimensions":["antennae","legs"],"bee_group":{"antennae":"B","wings":"X","pattern":"X","legs":"F"},"bonus":0.9800000000000008},{"rt":4027,"stimulus":"bees-with-color/bee-B1DF.svg","response":0,"trial_type":"image-button-response","trial_index":136,"time_elapsed":646788,"internal_node_id":"0.0-6.0-0.0","subject_id":"5f2c4bf4e4f3080e6a469fcc","study_id":"6197b3f67c2b5cd3b6d9596a","session_id":"619bef0503cd0bacf87b214e","condition":"full-information","relevant_dimensions":["antennae","legs"],"bee_group":{"antennae":"B","wings":"X","pattern":"X","legs":"F"},"bonus":0.9800000000000008},{"rt":4627,"stimulus":"bees-with-color/bee-A1SF.svg","response":0,"trial_type":"image-button-response","trial_index":137,"time_elapsed":651418,"internal_node_id":"0.0-6.0-0.1","subject_id":"5f2c4bf4e4f3080e6a469fcc","study_id":"6197b3f67c2b5cd3b6d9596a","session_id":"619bef0503cd0bacf87b214e","condition":"full-information","relevant_dimensions":["antennae","legs"],"bee_group":{"antennae":"B","wings":"X","pattern":"X","legs":"F"},"bonus":0.9800000000000008},{"rt":2388,"stimulus":"bees-with-color/bee-B1SF.svg","response":1,"trial_type":"image-button-response","trial_index":138,"time_elapsed":653811,"internal_node_id":"0.0-6.0-0.2","subject_id":"5f2c4bf4e4f3080e6a469fcc","study_id":"6197b3f67c2b5cd3b6d9596a","session_id":"619bef0503cd0bacf87b214e","condition":"full-information","relevant_dimensions":["antennae","legs"],"bee_group":{"antennae":"B","wings":"X","pattern":"X","legs":"F"},"bonus":0.9800000000000008},{"rt":2114,"stimulus":"bees-with-color/bee-B1DM.svg","response":0,"trial_type":"image-button-response","trial_index":139,"time_elapsed":655928,"internal_node_id":"0.0-6.0-0.3","subject_id":"5f2c4bf4e4f3080e6a469fcc","study_id":"6197b3f67c2b5cd3b6d9596a","session_id":"619bef0503cd0bacf87b214e","condition":"full-information","relevant_dimensions":["antennae","legs"],"bee_group":{"antennae":"B","wings":"X","pattern":"X","legs":"F"},"bonus":0.9800000000000008},{"rt":3251,"stimulus":"bees-with-color/bee-A2SM.svg","response":0,"trial_type":"image-button-response","trial_index":140,"time_elapsed":659182,"internal_node_id":"0.0-6.0-0.4","subject_id":"5f2c4bf4e4f3080e6a469fcc","study_id":"6197b3f67c2b5cd3b6d9596a","session_id":"619bef0503cd0bacf87b214e","condition":"full-information","relevant_dimensions":["antennae","legs"],"bee_group":{"antennae":"B","wings":"X","pattern":"X","legs":"F"},"bonus":0.9800000000000008},{"rt":3191,"stimulus":"bees-with-color/bee-A2DM.svg","response":0,"trial_type":"image-button-response","trial_index":141,"time_elapsed":662377,"internal_node_id":"0.0-6.0-0.5","subject_id":"5f2c4bf4e4f3080e6a469fcc","study_id":"6197b3f67c2b5cd3b6d9596a","session_id":"619bef0503cd0bacf87b214e","condition":"full-information","relevant_dimensions":["antennae","legs"],"bee_group":{"antennae":"B","wings":"X","pattern":"X","legs":"F"},"bonus":0.9800000000000008},{"rt":1790,"stimulus":"bees-with-color/bee-A2DF.svg","response":0,"trial_type":"image-button-response","trial_index":142,"time_elapsed":664171,"internal_node_id":"0.0-6.0-0.6","subject_id":"5f2c4bf4e4f3080e6a469fcc","study_id":"6197b3f67c2b5cd3b6d9596a","session_id":"619bef0503cd0bacf87b214e","condition":"full-information","relevant_dimensions":["antennae","legs"],"bee_group":{"antennae":"B","wings":"X","pattern":"X","legs":"F"},"bonus":0.9800000000000008},{"rt":1742,"stimulus":"bees-with-color/bee-A1DF.svg","response":0,"trial_type":"image-button-response","trial_index":143,"time_elapsed":665916,"internal_node_id":"0.0-6.0-0.7","subject_id":"5f2c4bf4e4f3080e6a469fcc","study_id":"6197b3f67c2b5cd3b6d9596a","session_id":"619bef0503cd0bacf87b214e","condition":"full-information","relevant_dimensions":["antennae","legs"],"bee_group":{"antennae":"B","wings":"X","pattern":"X","legs":"F"},"bonus":0.9800000000000008},{"rt":1448,"stimulus":"bees-with-color/bee-B2DF.svg","response":0,"trial_type":"image-button-response","trial_index":144,"time_elapsed":667368,"internal_node_id":"0.0-6.0-0.8","subject_id":"5f2c4bf4e4f3080e6a469fcc","study_id":"6197b3f67c2b5cd3b6d9596a","session_id":"619bef0503cd0bacf87b214e","condition":"full-information","relevant_dimensions":["antennae","legs"],"bee_group":{"antennae":"B","wings":"X","pattern":"X","legs":"F"},"bonus":0.9800000000000008},{"rt":1052,"stimulus":"bees-with-color/bee-B2DM.svg","response":0,"trial_type":"image-button-response","trial_index":145,"time_elapsed":668425,"internal_node_id":"0.0-6.0-0.9","subject_id":"5f2c4bf4e4f3080e6a469fcc","study_id":"6197b3f67c2b5cd3b6d9596a","session_id":"619bef0503cd0bacf87b214e","condition":"full-information","relevant_dimensions":["antennae","legs"],"bee_group":{"antennae":"B","wings":"X","pattern":"X","legs":"F"},"bonus":0.9800000000000008},{"rt":1215,"stimulus":"bees-with-color/bee-A1DM.svg","response":1,"trial_type":"image-button-response","trial_index":146,"time_elapsed":669642,"internal_node_id":"0.0-6.0-0.10","subject_id":"5f2c4bf4e4f3080e6a469fcc","study_id":"6197b3f67c2b5cd3b6d9596a","session_id":"619bef0503cd0bacf87b214e","condition":"full-information","relevant_dimensions":["antennae","legs"],"bee_group":{"antennae":"B","wings":"X","pattern":"X","legs":"F"},"bonus":0.9800000000000008},{"rt":1122,"stimulus":"bees-with-color/bee-A2SF.svg","response":0,"trial_type":"image-button-response","trial_index":147,"time_elapsed":670768,"internal_node_id":"0.0-6.0-0.11","subject_id":"5f2c4bf4e4f3080e6a469fcc","study_id":"6197b3f67c2b5cd3b6d9596a","session_id":"619bef0503cd0bacf87b214e","condition":"full-information","relevant_dimensions":["antennae","legs"],"bee_group":{"antennae":"B","wings":"X","pattern":"X","legs":"F"},"bonus":0.9800000000000008},{"rt":1522,"stimulus":"bees-with-color/bee-B2SF.svg","response":0,"trial_type":"image-button-response","trial_index":148,"time_elapsed":672293,"internal_node_id":"0.0-6.0-0.12","subject_id":"5f2c4bf4e4f3080e6a469fcc","study_id":"6197b3f67c2b5cd3b6d9596a","session_id":"619bef0503cd0bacf87b214e","condition":"full-information","relevant_dimensions":["antennae","legs"],"bee_group":{"antennae":"B","wings":"X","pattern":"X","legs":"F"},"bonus":0.9800000000000008},{"rt":1413,"stimulus":"bees-with-color/bee-B1SM.svg","response":0,"trial_type":"image-button-response","trial_index":149,"time_elapsed":673710,"internal_node_id":"0.0-6.0-0.13","subject_id":"5f2c4bf4e4f3080e6a469fcc","study_id":"6197b3f67c2b5cd3b6d9596a","session_id":"619bef0503cd0bacf87b214e","condition":"full-information","relevant_dimensions":["antennae","legs"],"bee_group":{"antennae":"B","wings":"X","pattern":"X","legs":"F"},"bonus":0.9800000000000008},{"rt":2262,"stimulus":"bees-with-color/bee-A1SM.svg","response":1,"trial_type":"image-button-response","trial_index":150,"time_elapsed":675975,"internal_node_id":"0.0-6.0-0.14","subject_id":"5f2c4bf4e4f3080e6a469fcc","study_id":"6197b3f67c2b5cd3b6d9596a","session_id":"619bef0503cd0bacf87b214e","condition":"full-information","relevant_dimensions":["antennae","legs"],"bee_group":{"antennae":"B","wings":"X","pattern":"X","legs":"F"},"bonus":0.9800000000000008},{"rt":1255,"stimulus":"bees-with-color/bee-B2SM.svg","response":0,"trial_type":"image-button-response","trial_index":151,"time_elapsed":677233,"internal_node_id":"0.0-6.0-0.15","subject_id":"5f2c4bf4e4f3080e6a469fcc","study_id":"6197b3f67c2b5cd3b6d9596a","session_id":"619bef0503cd0bacf87b214e","condition":"full-information","relevant_dimensions":["antennae","legs"],"bee_group":{"antennae":"B","wings":"X","pattern":"X","legs":"F"},"bonus":0.9800000000000008},{"rt":1295,"stimulus":"bees-with-color/bee-A2DF.svg","response":0,"trial_type":"image-button-response","trial_index":152,"time_elapsed":678531,"internal_node_id":"0.0-6.0-0.16","subject_id":"5f2c4bf4e4f3080e6a469fcc","study_id":"6197b3f67c2b5cd3b6d9596a","session_id":"619bef0503cd0bacf87b214e","condition":"full-information","relevant_dimensions":["antennae","legs"],"bee_group":{"antennae":"B","wings":"X","pattern":"X","legs":"F"},"bonus":0.9800000000000008},{"rt":1814,"stimulus":"bees-with-color/bee-B1SF.svg","response":0,"trial_type":"image-button-response","trial_index":153,"time_elapsed":680347,"internal_node_id":"0.0-6.0-0.17","subject_id":"5f2c4bf4e4f3080e6a469fcc","study_id":"6197b3f67c2b5cd3b6d9596a","session_id":"619bef0503cd0bacf87b214e","condition":"full-information","relevant_dimensions":["antennae","legs"],"bee_group":{"antennae":"B","wings":"X","pattern":"X","legs":"F"},"bonus":0.9800000000000008},{"rt":912,"stimulus":"bees-with-color/bee-B2DF.svg","response":0,"trial_type":"image-button-response","trial_index":154,"time_elapsed":681262,"internal_node_id":"0.0-6.0-0.18","subject_id":"5f2c4bf4e4f3080e6a469fcc","study_id":"6197b3f67c2b5cd3b6d9596a","session_id":"619bef0503cd0bacf87b214e","condition":"full-information","relevant_dimensions":["antennae","legs"],"bee_group":{"antennae":"B","wings":"X","pattern":"X","legs":"F"},"bonus":0.9800000000000008},{"rt":1413,"stimulus":"bees-with-color/bee-A2DM.svg","response":1,"trial_type":"image-button-response","trial_index":155,"time_elapsed":682679,"internal_node_id":"0.0-6.0-0.19","subject_id":"5f2c4bf4e4f3080e6a469fcc","study_id":"6197b3f67c2b5cd3b6d9596a","session_id":"619bef0503cd0bacf87b214e","condition":"full-information","relevant_dimensions":["antennae","legs"],"bee_group":{"antennae":"B","wings":"X","pattern":"X","legs":"F"},"bonus":0.9800000000000008},{"rt":1127,"stimulus":"bees-with-color/bee-B2DM.svg","response":0,"trial_type":"image-button-response","trial_index":156,"time_elapsed":683809,"internal_node_id":"0.0-6.0-0.20","subject_id":"5f2c4bf4e4f3080e6a469fcc","study_id":"6197b3f67c2b5cd3b6d9596a","session_id":"619bef0503cd0bacf87b214e","condition":"full-information","relevant_dimensions":["antennae","legs"],"bee_group":{"antennae":"B","wings":"X","pattern":"X","legs":"F"},"bonus":0.9800000000000008},{"rt":1248,"stimulus":"bees-with-color/bee-A1SF.svg","response":0,"trial_type":"image-button-response","trial_index":157,"time_elapsed":685059,"internal_node_id":"0.0-6.0-0.21","subject_id":"5f2c4bf4e4f3080e6a469fcc","study_id":"6197b3f67c2b5cd3b6d9596a","session_id":"619bef0503cd0bacf87b214e","condition":"full-information","relevant_dimensions":["antennae","legs"],"bee_group":{"antennae":"B","wings":"X","pattern":"X","legs":"F"},"bonus":0.9800000000000008},{"rt":918,"stimulus":"bees-with-color/bee-B2SM.svg","response":0,"trial_type":"image-button-response","trial_index":158,"time_elapsed":685980,"internal_node_id":"0.0-6.0-0.22","subject_id":"5f2c4bf4e4f3080e6a469fcc","study_id":"6197b3f67c2b5cd3b6d9596a","session_id":"619bef0503cd0bacf87b214e","condition":"full-information","relevant_dimensions":["antennae","legs"],"bee_group":{"antennae":"B","wings":"X","pattern":"X","legs":"F"},"bonus":0.9800000000000008},{"rt":1103,"stimulus":"bees-with-color/bee-A2SM.svg","response":0,"trial_type":"image-button-response","trial_index":159,"time_elapsed":687088,"internal_node_id":"0.0-6.0-0.23","subject_id":"5f2c4bf4e4f3080e6a469fcc","study_id":"6197b3f67c2b5cd3b6d9596a","session_id":"619bef0503cd0bacf87b214e","condition":"full-information","relevant_dimensions":["antennae","legs"],"bee_group":{"antennae":"B","wings":"X","pattern":"X","legs":"F"},"bonus":0.9800000000000008},{"rt":1200,"stimulus":"bees-with-color/bee-B1SM.svg","response":0,"trial_type":"image-button-response","trial_index":160,"time_elapsed":688292,"internal_node_id":"0.0-6.0-0.24","subject_id":"5f2c4bf4e4f3080e6a469fcc","study_id":"6197b3f67c2b5cd3b6d9596a","session_id":"619bef0503cd0bacf87b214e","condition":"full-information","relevant_dimensions":["antennae","legs"],"bee_group":{"antennae":"B","wings":"X","pattern":"X","legs":"F"},"bonus":0.9800000000000008},{"rt":1028,"stimulus":"bees-with-color/bee-A1SM.svg","response":1,"trial_type":"image-button-response","trial_index":161,"time_elapsed":689322,"internal_node_id":"0.0