[{"success":true,"trial_type":"fullscreen","trial_index":0,"time_elapsed":28677,"internal_node_id":"0.0-0.0","subject_id":"5ebff737aa6b8f042a132ec3","study_id":"6197b3f67c2b5cd3b6d9596a","session_id":"6197b9e2fb9516d89b2b6a76","condition":"contingent","relevant_dimensions":["pattern","legs"],"bee_group":{"antennae":"X","wings":"X","pattern":"D","legs":"F"},"bonus":0.9200000000000005},{"success":true,"timeout":false,"failed_images":[],"failed_audio":[],"failed_video":[],"trial_type":"preload","trial_index":1,"time_elapsed":30954,"internal_node_id":"0.0-1.0","subject_id":"5ebff737aa6b8f042a132ec3","study_id":"6197b3f67c2b5cd3b6d9596a","session_id":"6197b9e2fb9516d89b2b6a76","condition":"contingent","relevant_dimensions":["pattern","legs"],"bee_group":{"antennae":"X","wings":"X","pattern":"D","legs":"F"},"bonus":0.9200000000000005},{"rt":1350,"stimulus":"Welcome! Press any key to begin.","response":" ","trial_type":"html-keyboard-response","trial_index":2,"time_elapsed":32304,"internal_node_id":"0.0-2.0","subject_id":"5ebff737aa6b8f042a132ec3","study_id":"6197b3f67c2b5cd3b6d9596a","session_id":"6197b9e2fb9516d89b2b6a76","condition":"contingent","relevant_dimensions":["pattern","legs"],"bee_group":{"antennae":"X","wings":"X","pattern":"D","legs":"F"},"bonus":0.9200000000000005},{"view_history":[{"page_index":0,"viewing_time":3169},{"page_index":1,"viewing_time":12919},{"page_index":2,"viewing_time":8420},{"page_index":3,"viewing_time":7282},{"page_index":4,"viewing_time":10710},{"page_index":5,"viewing_time":5673},{"page_index":6,"viewing_time":8449},{"page_index":7,"viewing_time":7434},{"page_index":6,"viewing_time":1762},{"page_index":7,"viewing_time":1693},{"page_index":8,"viewing_time":2216},{"page_index":7,"viewing_time":14472},{"page_index":8,"viewing_time":5549},{"page_index":9,"viewing_time":4789},{"page_index":10,"viewing_time":3032},{"page_index":11,"viewing_time":7567},{"page_index":12,"viewing_time":7549},{"page_index":13,"viewing_time":2077},{"page_index":12,"viewing_time":776},{"page_index":11,"viewing_time":1259},{"page_index":10,"viewing_time":3021},{"page_index":9,"viewing_time":1448},{"page_index":8,"viewing_time":709},{"page_index":9,"viewing_time":252},{"page_index":10,"viewing_time":459},{"page_index":11,"viewing_time":10168},{"page_index":10,"viewing_time":711},{"page_index":9,"viewing_time":478},{"page_index":8,"viewing_time":577},{"page_index":7,"viewing_time":1106},{"page_index":6,"viewing_time":957},{"page_index":7,"viewing_time":18023},{"page_index":8,"viewing_time":27076},{"page_index":9,"viewing_time":13437},{"page_index":10,"viewing_time":14707},{"page_index":11,"viewing_time":3422},{"page_index":12,"viewing_time":2806},{"page_index":13,"viewing_time":1053},{"page_index":14,"viewing_time":2007}],"rt":219214,"trial_type":"instructions","trial_index":3,"time_elapsed":251518,"internal_node_id":"0.0-3.0-0.0","subject_id":"5ebff737aa6b8f042a132ec3","study_id":"6197b3f67c2b5cd3b6d9596a","session_id":"6197b9e2fb9516d89b2b6a76","condition":"contingent","relevant_dimensions":["pattern","legs"],"bee_group":{"antennae":"X","wings":"X","pattern":"D","legs":"F"},"bonus":0.9200000000000005},{"rt":18187,"response":{"Q0":["Two or six legs","Stripes or spots on body","Single or double wings","Antennae or no antennae"]},"question_order":[0],"trial_type":"survey-multi-select","trial_index":4,"time_elapsed":269708,"internal_node_id":"0.0-3.0-1.0","subject_id":"5ebff737aa6b8f042a132ec3","study_id":"6197b3f67c2b5cd3b6d9596a","session_id":"6197b9e2fb9516d89b2b6a76","condition":"contingent","relevant_dimensions":["pattern","legs"],"bee_group":{"antennae":"X","wings":"X","pattern":"D","legs":"F"},"correct":true,"bonus":0.9200000000000005},{"rt":40891,"response":{"Q1":"No.","Q2":"Based on the four features of the bee.","Q3":"You do not learn if it was friendly or dangerous, and do not alter your bonus."},"question_order":[0,1,2],"trial_type":"survey-multi-choice","trial_index":5,"time_elapsed":310601,"internal_node_id":"0.0-3.0-2.0","subject_id":"5ebff737aa6b8f042a132ec3","study_id":"6197b3f67c2b5cd3b6d9596a","session_id":"6197b9e2fb9516d89b2b6a76","condition":"contingent","relevant_dimensions":["pattern","legs"],"bee_group":{"antennae":"X","wings":"X","pattern":"D","legs":"F"},"correct":true,"bonus":0.9200000000000005},{"rt":3616,"stimulus":"<p>Congrats, you got everything right<br>When you're ready, click the button below to continue to the experiment.</p>","response":0,"trial_type":"html-button-response","trial_index":6,"time_elapsed":314218,"internal_node_id":"0.0-3.0-3.0","subject_id":"5ebff737aa6b8f042a132ec3","study_id":"6197b3f67c2b5cd3b6d9596a","session_id":"6197b9e2fb9516d89b2b6a76","condition":"contingent","relevant_dimensions":["pattern","legs"],"bee_group":{"antennae":"X","wings":"X","pattern":"D","legs":"F"},"bonus":0.9200000000000005},{"rt":48660,"stimulus":"bees-with-color/bee-A1DM.svg","response":0,"trial_type":"image-button-response","trial_index":7,"time_elapsed":362880,"internal_node_id":"0.0-4.0-0.0","subject_id":"5ebff737aa6b8f042a132ec3","study_id":"6197b3f67c2b5cd3b6d9596a","session_id":"6197b9e2fb9516d89b2b6a76","condition":"contingent","relevant_dimensions":["pattern","legs"],"bee_group":{"antennae":"X","wings":"X","pattern":"D","legs":"F"},"action":"harvest","summary":"good-harvest","bonus":0.9200000000000005},{"rt":8859,"stimulus":"\n                    <p><b>Action: <em>harvest</em></b></p>\n                    <p>This is the bee that you just saw.</p>\n                    <img src=\"bees-with-color/bee-A1DM.svg\" width=\"200\">\n                    <p><span class=\"greenText\"><b>Successful harvest!</b></span><br>Your pay has increased by $0.02. Your bonus pay is now $0.56.</p>\n            ","response":0,"trial_type":"html-button-response","trial_index":8,"time_elapsed":371755,"internal_node_id":"0.0-4.0-1.0","subject_id":"5ebff737aa6b8f042a132ec3","study_id":"6197b3f67c2b5cd3b6d9596a","session_id":"6197b9e2fb9516d89b2b6a76","condition":"contingent","relevant_dimensions":["pattern","legs"],"bee_group":{"antennae":"X","wings":"X","pattern":"D","legs":"F"},"bonus":0.9200000000000005},{"rt":27574,"stimulus":"bees-with-color/bee-B1DM.svg","response":0,"trial_type":"image-button-response","trial_index":9,"time_elapsed":399330,"internal_node_id":"0.0-4.0-0.1","subject_id":"5ebff737aa6b8f042a132ec3","study_id":"6197b3f67c2b5cd3b6d9596a","session_id":"6197b9e2fb9516d89b2b6a76","condition":"contingent","relevant_dimensions":["pattern","legs"],"bee_group":{"antennae":"X","wings":"X","pattern":"D","legs":"F"},"action":"harvest","summary":"good-harvest","bonus":0.9200000000000005},{"rt":12900,"stimulus":"\n                    <p><b>Action: <em>harvest</em></b></p>\n                    <p>This is the bee that you just saw.</p>\n                    <img src=\"bees-with-color/bee-B1DM.svg\" width=\"200\">\n                    <p><span class=\"greenText\"><b>Successful harvest!</b></span><br>Your pay has increased by $0.02. Your bonus pay is now $0.58.</p>\n            ","response":0,"trial_type":"html-button-response","trial_index":10,"time_elapsed":412230,"internal_node_id":"0.0-4.0-1.1","subject_id":"5ebff737aa6b8f042a132ec3","study_id":"6197b3f67c2b5cd3b6d9596a","session_id":"6197b9e2fb9516d89b2b6a76","condition":"contingent","relevant_dimensions":["pattern","legs"],"bee_group":{"antennae":"X","wings":"X","pattern":"D","legs":"F"},"bonus":0.9200000000000005},{"rt":23067,"stimulus":"bees-with-color/bee-B1DF.svg","response":0,"trial_type":"image-button-response","trial_index":11,"time_elapsed":435299,"internal_node_id":"0.0-4.0-0.2","subject_id":"5ebff737aa6b8f042a132ec3","study_id":"6197b3f67c2b5cd3b6d9596a","session_id":"6197b9e2fb9516d89b2b6a76","condition":"contingent","relevant_dimensions":["pattern","legs"],"bee_group":{"antennae":"X","wings":"X","pattern":"D","legs":"F"},"action":"harvest","summary":"bad-harvest","bonus":0.9200000000000005},{"rt":15390,"stimulus":"\n                    <p><b>Action: <em>harvest</em></b></p>\n                    <p>This is the bee that you just saw.</p>\n                    <img src=\"bees-with-color/bee-B1DF.svg\" width=\"200\">\n                    <p><span class=\"redText\">Bad choice, the bee was angry.</span><br><b>You have been stung!</b><br>Your pay has been decreased by $0.10. Your bonus pay is now $0.48.</p>\n            ","response":0,"trial_type":"html-button-response","trial_index":12,"time_elapsed":450692,"internal_node_id":"0.0-4.0-1.2","subject_id":"5ebff737aa6b8f042a132ec3","study_id":"6197b3f67c2b5cd3b6d9596a","session_id":"6197b9e2fb9516d89b2b6a76","condition":"contingent","relevant_dimensions":["pattern","legs"],"bee_group":{"antennae":"X","wings":"X","pattern":"D","legs":"F"},"bonus":0.9200000000000005},{"rt":1931,"stimulus":"bees-with-color/bee-A2DM.svg","response":0,"trial_type":"image-button-response","trial_index":13,"time_elapsed":452623,"internal_node_id":"0.0-4.0-0.3","subject_id":"5ebff737aa6b8f042a132ec3","study_id":"6197b3f67c2b5cd3b6d9596a","session_id":"6197b9e2fb9516d89b2b6a76","condition":"contingent","relevant_dimensions":["pattern","legs"],"bee_group":{"antennae":"X","wings":"X","pattern":"D","legs":"F"},"action":"harvest","summary":"good-harvest","bonus":0.9200000000000005},{"rt":1161,"stimulus":"\n                    <p><b>Action: <em>harvest</em></b></p>\n                    <p>This is the bee that you just saw.</p>\n                    <img src=\"bees-with-color/bee-A2DM.svg\" width=\"200\">\n                    <p><span class=\"greenText\"><b>Successful harvest!</b></span><br>Your pay has increased by $0.02. Your bonus pay is now $0.50.</p>\n            ","response":0,"trial_type":"html-button-response","trial_index":14,"time_elapsed":453784,"internal_node_id":"0.0-4.0-1.3","subject_id":"5ebff737aa6b8f042a132ec3","study_id":"6197b3f67c2b5cd3b6d9596a","session_id":"6197b9e2fb9516d89b2b6a76","condition":"contingent","relevant_dimensions":["pattern","legs"],"bee_group":{"antennae":"X","wings":"X","pattern":"D","legs":"F"},"bonus":0.9200000000000005},{"rt":1181,"stimulus":"bees-with-color/bee-B2DF.svg","response":1,"trial_type":"image-button-response","trial_index":15,"time_elapsed":454967,"internal_node_id":"0.0-4.0-0.4","subject_id":"5ebff737aa6b8f042a132ec3","study_id":"6197b3f67c2b5cd3b6d9596a","session_id":"6197b9e2fb9516d89b2b6a76","condition":"contingent","relevant_dimensions":["pattern","legs"],"bee_group":{"antennae":"X","wings":"X","pattern":"D","legs":"F"},"action":"avoid","summary":"good-avoid","bonus":0.9200000000000005},{"rt":2188,"stimulus":"\n                    <p><b>Action: <em>avoid</em></b></p>\n                    <p>This is the bee that you just saw.</p>\n                    <img src=\"bees-with-color/bee-B2DF.svg\" width=\"200\">\n                    <p><br>Your bonus pay is unchanged, and remains at $0.50.</p>\n            ","response":0,"trial_type":"html-button-response","trial_index":16,"time_elapsed":457156,"internal_node_id":"0.0-4.0-1.4","subject_id":"5ebff737aa6b8f042a132ec3","study_id":"6197b3f67c2b5cd3b6d9596a","session_id":"6197b9e2fb9516d89b2b6a76","condition":"contingent","relevant_dimensions":["pattern","legs"],"bee_group":{"antennae":"X","wings":"X","pattern":"D","legs":"F"},"bonus":0.9200000000000005},{"rt":1960,"stimulus":"bees-with-color/bee-B1SF.svg","response":1,"trial_type":"image-button-response","trial_index":17,"time_elapsed":459117,"internal_node_id":"0.0-4.0-0.5","subject_id":"5ebff737aa6b8f042a132ec3","study_id":"6197b3f67c2b5cd3b6d9596a","session_id":"6197b9e2fb9516d89b2b6a76","condition":"contingent","relevant_dimensions":["pattern","legs"],"bee_group":{"antennae":"X","wings":"X","pattern":"D","legs":"F"},"action":"avoid","summary":"bad-avoid","bonus":0.9200000000000005},{"rt":591,"stimulus":"\n                    <p><b>Action: <em>avoid</em></b></p>\n                    <p>This is the bee that you just saw.</p>\n                    <img src=\"bees-with-color/bee-B1SF.svg\" width=\"200\">\n                    <p><br>Your bonus pay is unchanged, and remains at $0.50.</p>\n            ","response":0,"trial_type":"html-button-response","trial_index":18,"time_elapsed":459709,"internal_node_id":"0.0-4.0-1.5","subject_id":"5ebff737aa6b8f042a132ec3","study_id":"6197b3f67c2b5cd3b6d9596a","session_id":"6197b9e2fb9516d89b2b6a76","condition":"contingent","relevant_dimensions":["pattern","legs"],"bee_group":{"antennae":"X","wings":"X","pattern":"D","legs":"F"},"bonus":0.9200000000000005},{"rt":1351,"stimulus":"bees-with-color/bee-A2SF.svg","response":1,"trial_type":"image-button-response","trial_index":19,"time_elapsed":461061,"internal_node_id":"0.0-4.0-0.6","subject_id":"5ebff737aa6b8f042a132ec3","study_id":"6197b3f67c2b5cd3b6d9596a","session_id":"6197b9e2fb9516d89b2b6a76","condition":"contingent","relevant_dimensions":["pattern","legs"],"bee_group":{"antennae":"X","wings":"X","pattern":"D","legs":"F"},"action":"avoid","summary":"bad-avoid","bonus":0.9200000000000005},{"rt":1297,"stimulus":"\n                    <p><b>Action: <em>avoid</em></b></p>\n                    <p>This is the bee that you just saw.</p>\n                    <img src=\"bees-with-color/bee-A2SF.svg\" width=\"200\">\n                    <p><br>Your bonus pay is unchanged, and remains at $0.50.</p>\n            ","response":0,"trial_type":"html-button-response","trial_index":20,"time_elapsed":462359,"internal_node_id":"0.0-4.0-1.6","subject_id":"5ebff737aa6b8f042a132ec3","study_id":"6197b3f67c2b5cd3b6d9596a","session_id":"6197b9e2fb9516d89b2b6a76","condition":"contingent","relevant_dimensions":["pattern","legs"],"bee_group":{"antennae":"X","wings":"X","pattern":"D","legs":"F"},"bonus":0.9200000000000005},{"rt":901,"stimulus":"bees-with-color/bee-B2DM.svg","response":0,"trial_type":"image-button-response","trial_index":21,"time_elapsed":463263,"internal_node_id":"0.0-4.0-0.7","subject_id":"5ebff737aa6b8f042a132ec3","study_id":"6197b3f67c2b5cd3b6d9596a","session_id":"6197b9e2fb9516d89b2b6a76","condition":"contingent","relevant_dimensions":["pattern","legs"],"bee_group":{"antennae":"X","wings":"X","pattern":"D","legs":"F"},"action":"harvest","summary":"good-harvest","bonus":0.9200000000000005},{"rt":674,"stimulus":"\n                    <p><b>Action: <em>harvest</em></b></p>\n                    <p>This is the bee that you just saw.</p>\n                    <img src=\"bees-with-color/bee-B2DM.svg\" width=\"200\">\n                    <p><span class=\"greenText\"><b>Successful harvest!</b></span><br>Your pay has increased by $0.02. Your bonus pay is now $0.52.</p>\n            ","response":0,"trial_type":"html-button-response","trial_index":22,"time_elapsed":463937,"internal_node_id":"0.0-4.0-1.7","subject_id":"5ebff737aa6b8f042a132ec3","study_id":"6197b3f67c2b5cd3b6d9596a","session_id":"6197b9e2fb9516d89b2b6a76","condition":"contingent","relevant_dimensions":["pattern","legs"],"bee_group":{"antennae":"X","wings":"X","pattern":"D","legs":"F"},"bonus":0.9200000000000005},{"rt":1155,"stimulus":"bees-with-color/bee-A2DF.svg","response":1,"trial_type":"image-button-response","trial_index":23,"time_elapsed":465092,"internal_node_id":"0.0-4.0-0.8","subject_id":"5ebff737aa6b8f042a132ec3","study_id":"6197b3f67c2b5cd3b6d9596a","session_id":"6197b9e2fb9516d89b2b6a76","condition":"contingent","relevant_dimensions":["pattern","legs"],"bee_group":{"antennae":"X","wings":"X","pattern":"D","legs":"F"},"action":"avoid","summary":"good-avoid","bonus":0.9200000000000005},{"rt":589,"stimulus":"\n                    <p><b>Action: <em>avoid</em></b></p>\n                    <p>This is the bee that you just saw.</p>\n                    <img src=\"bees-with-color/bee-A2DF.svg\" width=\"200\">\n                    <p><br>Your bonus pay is unchanged, and remains at $0.52.</p>\n            ","response":0,"trial_type":"html-button-response","trial_index":24,"time_elapsed":465682,"internal_node_id":"0.0-4.0-1.8","subject_id":"5ebff737aa6b8f042a132ec3","study_id":"6197b3f67c2b5cd3b6d9596a","session_id":"6197b9e2fb9516d89b2b6a76","condition":"contingent","relevant_dimensions":["pattern","legs"],"bee_group":{"antennae":"X","wings":"X","pattern":"D","legs":"F"},"bonus":0.9200000000000005},{"rt":710,"stimulus":"bees-with-color/bee-B2SM.svg","response":0,"trial_type":"image-button-response","trial_index":25,"time_elapsed":466392,"internal_node_id":"0.0-4.0-0.9","subject_id":"5ebff737aa6b8f042a132ec3","study_id":"6197b3f67c2b5cd3b6d9596a","session_id":"6197b9e2fb9516d89b2b6a76","condition":"contingent","relevant_dimensions":["pattern","legs"],"bee_group":{"antennae":"X","wings":"X","pattern":"D","legs":"F"},"action":"harvest","summary":"good-harvest","bonus":0.9200000000000005},{"rt":733,"stimulus":"\n                    <p><b>Action: <em>harvest</em></b></p>\n                    <p>This is the bee that you just saw.</p>\n                    <img src=\"bees-with-color/bee-B2SM.svg\" width=\"200\">\n                    <p><span class=\"greenText\"><b>Successful harvest!</b></span><br>Your pay has increased by $0.02. Your bonus pay is now $0.54.</p>\n            ","response":0,"trial_type":"html-button-response","trial_index":26,"time_elapsed":467126,"internal_node_id":"0.0-4.0-1.9","subject_id":"5ebff737aa6b8f042a132ec3","study_id":"6197b3f67c2b5cd3b6d9596a","session_id":"6197b9e2fb9516d89b2b6a76","condition":"contingent","relevant_dimensions":["pattern","legs"],"bee_group":{"antennae":"X","wings":"X","pattern":"D","legs":"F"},"bonus":0.9200000000000005},{"rt":660,"stimulus":"bees-with-color/bee-B1SM.svg","response":0,"trial_type":"image-button-response","trial_index":27,"time_elapsed":467787,"internal_node_id":"0.0-4.0-0.10","subject_id":"5ebff737aa6b8f042a132ec3","study_id":"6197b3f67c2b5cd3b6d9596a","session_id":"6197b9e2fb9516d89b2b6a76","condition":"contingent","relevant_dimensions":["pattern","legs"],"bee_group":{"antennae":"X","wings":"X","pattern":"D","legs":"F"},"action":"harvest","summary":"good-harvest","bonus":0.9200000000000005},{"rt":736,"stimulus":"\n                    <p><b>Action: <em>harvest</em></b></p>\n                    <p>This is the bee that you just saw.</p>\n                    <img src=\"bees-with-color/bee-B1SM.svg\" width=\"200\">\n                    <p><span class=\"greenText\"><b>Successful harvest!</b></span><br>Your pay has increased by $0.02. Your bonus pay is now $0.56.</p>\n            ","response":0,"trial_type":"html-button-response","trial_index":28,"time_elapsed":468524,"internal_node_id":"0.0-4.0-1.10","subject_id":"5ebff737aa6b8f042a132ec3","study_id":"6197b3f67c2b5cd3b6d9596a","session_id":"6197b9e2fb9516d89b2b6a76","condition":"contingent","relevant_dimensions":["pattern","legs"],"bee_group":{"antennae":"X","wings":"X","pattern":"D","legs":"F"},"bonus":0.9200000000000005},{"rt":2214,"stimulus":"bees-with-color/bee-A1SF.svg","response":1,"trial_type":"image-button-response","trial_index":29,"time_elapsed":470739,"internal_node_id":"0.0-4.0-0.11","subject_id":"5ebff737aa6b8f042a132ec3","study_id":"6197b3f67c2b5cd3b6d9596a","session_id":"6197b9e2fb9516d89b2b6a76","condition":"contingent","relevant_dimensions":["pattern","legs"],"bee_group":{"antennae":"X","wings":"X","pattern":"D","legs":"F"},"action":"avoid","summary":"bad-avoid","bonus":0.9200000000000005},{"rt":715,"stimulus":"\n                    <p><b>Action: <em>avoid</em></b></p>\n                    <p>This is the bee that you just saw.</p>\n                    <img src=\"bees-with-color/bee-A1SF.svg\" width=\"200\">\n                    <p><br>Your bonus pay is unchanged, and remains at $0.56.</p>\n            ","response":0,"trial_type":"html-button-response","trial_index":30,"time_elapsed":471454,"internal_node_id":"0.0-4.0-1.11","subject_id":"5ebff737aa6b8f042a132ec3","study_id":"6197b3f67c2b5cd3b6d9596a","session_id":"6197b9e2fb9516d89b2b6a76","condition":"contingent","relevant_dimensions":["pattern","legs"],"bee_group":{"antennae":"X","wings":"X","pattern":"D","legs":"F"},"bonus":0.9200000000000005},{"rt":1212,"stimulus":"bees-with-color/bee-A1DF.svg","response":1,"trial_type":"image-button-response","trial_index":31,"time_elapsed":472667,"internal_node_id":"0.0-4.0-0.12","subject_id":"5ebff737aa6b8f042a132ec3","study_id":"6197b3f67c2b5cd3b6d9596a","session_id":"6197b9e2fb9516d89b2b6a76","condition":"contingent","relevant_dimensions":["pattern","legs"],"bee_group":{"antennae":"X","wings":"X","pattern":"D","legs":"F"},"action":"avoid","summary":"good-avoid","bonus":0.9200000000000005},{"rt":619,"stimulus":"\n                    <p><b>Action: <em>avoid</em></b></p>\n                    <p>This is the bee that you just saw.</p>\n                    <img src=\"bees-with-color/bee-A1DF.svg\" width=\"200\">\n                    <p><br>Your bonus pay is unchanged, and remains at $0.56.</p>\n            ","response":0,"trial_type":"html-button-response","trial_index":32,"time_elapsed":473288,"internal_node_id":"0.0-4.0-1.12","subject_id":"5ebff737aa6b8f042a132ec3","study_id":"6197b3f67c2b5cd3b6d9596a","session_id":"6197b9e2fb9516d89b2b6a76","condition":"contingent","relevant_dimensions":["pattern","legs"],"bee_group":{"antennae":"X","wings":"X","pattern":"D","legs":"F"},"bonus":0.9200000000000005},{"rt":768,"stimulus":"bees-with-color/bee-A2SM.svg","response":0,"trial_type":"image-button-response","trial_index":33,"time_elapsed":474058,"internal_node_id":"0.0-4.0-0.13","subject_id":"5ebff737aa6b8f042a132ec3","study_id":"6197b3f67c2b5cd3b6d9596a","session_id":"6197b9e2fb9516d89b2b6a76","condition":"contingent","relevant_dimensions":["pattern","legs"],"bee_group":{"antennae":"X","wings":"X","pattern":"D","legs":"F"},"action":"harvest","summary":"good-harvest","bonus":0.9200000000000005},{"rt":562,"stimulus":"\n                    <p><b>Action: <em>harvest</em></b></p>\n                    <p>This is the bee that you just saw.</p>\n                    <img src=\"bees-with-color/bee-A2SM.svg\" width=\"200\">\n                    <p><span class=\"greenText\"><b>Successful harvest!</b></span><br>Your pay has increased by $0.02. Your bonus pay is now $0.58.</p>\n            ","response":0,"trial_type":"html-button-response","trial_index":34,"time_elapsed":474621,"internal_node_id":"0.0-4.0-1.13","subject_id":"5ebff737aa6b8f042a132ec3","study_id":"6197b3f67c2b5cd3b6d9596a","session_id":"6197b9e2fb9516d89b2b6a76","condition":"contingent","relevant_dimensions":["pattern","legs"],"bee_group":{"antennae":"X","wings":"X","pattern":"D","legs":"F"},"bonus":0.9200000000000005},{"rt":794,"stimulus":"bees-with-color/bee-A1SM.svg","response":0,"trial_type":"image-button-response","trial_index":35,"time_elapsed":475416,"internal_node_id":"0.0-4.0-0.14","subject_id":"5ebff737aa6b8f042a132ec3","study_id":"6197b3f67c2b5cd3b6d9596a","session_id":"6197b9e2fb9516d89b2b6a76","condition":"contingent","relevant_dimensions":["pattern","legs"],"bee_group":{"antennae":"X","wings":"X","pattern":"D","legs":"F"},"action":"harvest","summary":"good-harvest","bonus":0.9200000000000005},{"rt":808,"stimulus":"\n                    <p><b>Action: <em>harvest</em></b></p>\n                    <p>This is the bee that you just saw.</p>\n                    <img src=\"bees-with-color/bee-A1SM.svg\" width=\"200\">\n                    <p><span class=\"greenText\"><b>Successful harvest!</b></span><br>Your pay has increased by $0.02. Your bonus pay is now $0.60.</p>\n            ","response":0,"trial_type":"html-button-response","trial_index":36,"time_elapsed":476225,"internal_node_id":"0.0-4.0-1.14","subject_id":"5ebff737aa6b8f042a132ec3","study_id":"6197b3f67c2b5cd3b6d9596a","session_id":"6197b9e2fb9516d89b2b6a76","condition":"contingent","relevant_dimensions":["pattern","legs"],"bee_group":{"antennae":"X","wings":"X","pattern":"D","legs":"F"},"bonus":0.9200000000000005},{"rt":1094,"stimulus":"bees-with-color/bee-B2SF.svg","response":1,"trial_type":"image-button-response","trial_index":37,"time_elapsed":477320,"internal_node_id":"0.0-4.0-0.15","subject_id":"5ebff737aa6b8f042a132ec3","study_id":"6197b3f67c2b5cd3b6d9596a","session_id":"6197b9e2fb9516d89b2b6a76","condition":"contingent","relevant_dimensions":["pattern","legs"],"bee_group":{"antennae":"X","wings":"X","pattern":"D","legs":"F"},"action":"avoid","summary":"bad-avoid","bonus":0.9200000000000005},{"rt":511,"stimulus":"\n                    <p><b>Action: <em>avoid</em></b></p>\n                    <p>This is the bee that you just saw.</p>\n                    <img src=\"bees-with-color/bee-B2SF.svg\" width=\"200\">\n                    <p><br>Your bonus pay is unchanged, and remains at $0.60.</p>\n            ","response":0,"trial_type":"html-button-response","trial_index":38,"time_elapsed":477831,"internal_node_id":"0.0-4.0-1.15","subject_id":"5ebff737aa6b8f042a132ec3","study_id":"6197b3f67c2b5cd3b6d9596a","session_id":"6197b9e2fb9516d89b2b6a76","condition":"contingent","relevant_dimensions":["pattern","legs"],"bee_group":{"antennae":"X","wings":"X","pattern":"D","legs":"F"},"bonus":0.9200000000000005},{"rt":607,"stimulus":"bees-with-color/bee-A2DM.svg","response":0,"trial_type":"image-button-response","trial_index":39,"time_elapsed":478439,"internal_node_id":"0.0-4.0-0.16","subject_id":"5ebff737aa6b8f042a132ec3","study_id":"6197b3f67c2b5cd3b6d9596a","session_id":"6197b9e2fb9516d89b2b6a76","condition":"contingent","relevant_dimensions":["pattern","legs"],"bee_group":{"antennae":"X","wings":"X","pattern":"D","legs":"F"},"action":"harvest","summary":"good-harvest","bonus":0.9200000000000005},{"rt":647,"stimulus":"\n                    <p><b>Action: <em>harvest</em></b></p>\n                    <p>This is the bee that you just saw.</p>\n                    <img src=\"bees-with-color/bee-A2DM.svg\" width=\"200\">\n                    <p><span class=\"greenText\"><b>Successful harvest!</b></span><br>Your pay has increased by $0.02. Your bonus pay is now $0.62.</p>\n            ","response":0,"trial_type":"html-button-response","trial_index":40,"time_elapsed":479087,"internal_node_id":"0.0-4.0-1.16","subject_id":"5ebff737aa6b8f042a132ec3","study_id":"6197b3f67c2b5cd3b6d9596a","session_id":"6197b9e2fb9516d89b2b6a76","condition":"contingent","relevant_dimensions":["pattern","legs"],"bee_group":{"antennae":"X","wings":"X","pattern":"D","legs":"F"},"bonus":0.9200000000000005},{"rt":976,"stimulus":"bees-with-color/bee-B1SF.svg","response":1,"trial_type":"image-button-response","trial_index":41,"time_elapsed":480063,"internal_node_id":"0.0-4.0-0.17","subject_id":"5ebff737aa6b8f042a132ec3","study_id":"6197b3f67c2b5cd3b6d9596a","session_id":"6197b9e2fb9516d89b2b6a76","condition":"contingent","relevant_dimensions":["pattern","legs"],"bee_group":{"antennae":"X","wings":"X","pattern":"D","legs":"F"},"action":"avoid","summary":"bad-avoid","bonus":0.9200000000000005},{"rt":642,"stimulus":"\n                    <p><b>Action: <em>avoid</em></b></p>\n                    <p>This is the bee that you just saw.</p>\n                    <img src=\"bees-with-color/bee-B1SF.svg\" width=\"200\">\n                    <p><br>Your bonus pay is unchanged, and remains at $0.62.</p>\n            ","response":0,"trial_type":"html-button-response","trial_index":42,"time_elapsed":480707,"internal_node_id":"0.0-4.0-1.17","subject_id":"5ebff737aa6b8f042a132ec3","study_id":"6197b3f67c2b5cd3b6d9596a","session_id":"6197b9e2fb9516d89b2b6a76","condition":"contingent","relevant_dimensions":["pattern","legs"],"bee_group":{"antennae":"X","wings":"X","pattern":"D","legs":"F"},"bonus":0.9200000000000005},{"rt":823,"stimulus":"bees-with-color/bee-A1SF.svg","response":1,"trial_type":"image-button-response","trial_index":43,"time_elapsed":481531,"internal_node_id":"0.0-4.0-0.18","subject_id":"5ebff737aa6b8f042a132ec3","study_id":"6197b3f67c2b5cd3b6d9596a","session_id":"6197b9e2fb9516d89b2b6a76","condition":"contingent","relevant_dimensions":["pattern","legs"],"bee_group":{"antennae":"X","wings":"X","pattern":"D","legs":"F"},"action":"avoid","summary":"bad-avoid","bonus":0.9200000000000005},{"rt":562,"stimulus":"\n                    <p><b>Action: <em>avoid</em></b></p>\n                    <p>This is the bee that you just saw.</p>\n                    <img src=\"bees-with-color/bee-A1SF.svg\" width=\"200\">\n                    <p><br>Your bonus pay is unchanged, and remains at $0.62.</p>\n            ","response":0,"trial_type":"html-button-response","trial_index":44,"time_elapsed":482094,"internal_node_id":"0.0-4.0-1.18","subject_id":"5ebff737aa6b8f042a132ec3","study_id":"6197b3f67c2b5cd3b6d9596a","session_id":"6197b9e2fb9516d89b2b6a76","condition":"contingent","relevant_dimensions":["pattern","legs"],"bee_group":{"antennae":"X","wings":"X","pattern":"D","legs":"F"},"bonus":0.9200000000000005},{"rt":1164,"stimulus":"bees-with-color/bee-B1DF.svg","response":1,"trial_type":"image-button-response","trial_index":45,"time_elapsed":483259,"internal_node_id":"0.0-4.0-0.19","subject_id":"5ebff737aa6b8f042a132ec3","study_id":"6197b3f67c2b5cd3b6d9596a","session_id":"6197b9e2fb9516d89b2b6a76","condition":"contingent","relevant_dimensions":["pattern","legs"],"bee_group":{"antennae":"X","wings":"X","pattern":"D","legs":"F"},"action":"avoid","summary":"good-avoid","bonus":0.9200000000000005},{"rt":575,"stimulus":"\n                    <p><b>Action: <em>avoid</em></b></p>\n                    <p>This is the bee that you just saw.</p>\n                    <img src=\"bees-with-color/bee-B1DF.svg\" width=\"200\">\n                    <p><br>Your bonus pay is unchanged, and remains at $0.62.</p>\n            ","response":0,"trial_type":"html-button-response","trial_index":46,"time_elapsed":483835,"internal_node_id":"0.0-4.0-1.19","subject_id":"5ebff737aa6b8f042a132ec3","study_id":"6197b3f67c2b5cd3b6d9596a","session_id":"6197b9e2fb9516d89b2b6a76","condition":"contingent","relevant_dimensions":["pattern","legs"],"bee_group":{"antennae":"X","wings":"X","pattern":"D","legs":"F"},"bonus":0.9200000000000005},{"rt":822,"stimulus":"bees-with-color/bee-A2SM.svg","response":0,"trial_type":"image-button-response","trial_index":47,"time_elapsed":484658,"internal_node_id":"0.0-4.0-0.20","subject_id":"5ebff737aa6b8f042a132ec3","study_id":"6197b3f67c2b5cd3b6d9596a","session_id":"6197b9e2fb9516d89b2b6a76","condition":"contingent","relevant_dimensions":["pattern","legs"],"bee_group":{"antennae":"X","wings":"X","pattern":"D","legs":"F"},"action":"harvest","summary":"good-harvest","bonus":0.9200000000000005},{"rt":595,"stimulus":"\n                    <p><b>Action: <em>harvest</em></b></p>\n                    <p>This is the bee that you just saw.</p>\n                    <img src=\"bees-with-color/bee-A2SM.svg\" width=\"200\">\n                    <p><span class=\"greenText\"><b>Successful harvest!</b></span><br>Your pay has increased by $0.02. Your bonus pay is now $0.64.</p>\n            ","response":0,"trial_type":"html-button-response","trial_index":48,"time_elapsed":485254,"internal_node_id":"0.0-4.0-1.20","subject_id":"5ebff737aa6b8f042a132ec3","study_id":"6197b3f67c2b5cd3b6d9596a","session_id":"6197b9e2fb9516d89b2b6a76","condition":"contingent","relevant_dimensions":["pattern","legs"],"bee_group":{"antennae":"X","wings":"X","pattern":"D","legs":"F"},"bonus":0.9200000000000005},{"rt":1860,"stimulus":"bees-with-color/bee-B2DF.svg","response":1,"trial_type":"image-button-response","trial_index":49,"time_elapsed":487115,"internal_node_id":"0.0-4.0-0.21","subject_id":"5ebff737aa6b8f042a132ec3","study_id":"6197b3f67c2b5cd3b6d9596a","session_id":"6197b9e2fb9516d89b2b6a76","condition":"contingent","relevant_dimensions":["pattern","legs"],"bee_group":{"antennae":"X","wings":"X","pattern":"D","legs":"F"},"action":"avoid","summary":"good-avoid","bonus":0.9200000000000005},{"rt":493,"stimulus":"\n                    <p><b>Action: <em>avoid</em></b></p>\n                    <p>This is the bee that you just saw.</p>\n                    <img src=\"bees-with-color/bee-B2DF.svg\" width=\"200\">\n                    <p><br>Your bonus pay is unchanged, and remains at $0.64.</p>\n            ","response":0,"trial_type":"html-button-response","trial_index":50,"time_elapsed":487608,"internal_node_id":"0.0-4.0-1.21","subject_id":"5ebff737aa6b8f042a132ec3","study_id":"6197b3f67c2b5cd3b6d9596a","session_id":"6197b9e2fb9516d89b2b6a76","condition":"contingent","relevant_dimensions":["pattern","legs"],"bee_group":{"antennae":"X","wings":"X","pattern":"D","legs":"F"},"bonus":0.9200000000000005},{"rt":610,"stimulus":"bees-with-color/bee-A1DM.svg","response":0,"trial_type":"image-button-response","trial_index":51,"time_elapsed":488221,"internal_node_id":"0.0-4.0-0.22","subject_id":"5ebff737aa6b8f042a132ec3","study_id":"6197b3f67c2b5cd3b6d9596a","session_id":"6197b9e2fb9516d89b2b6a76","condition":"contingent","relevant_dimensions":["pattern","legs"],"bee_group":{"antennae":"X","wings":"X","pattern":"D","legs":"F"},"action":"harvest","summary":"good-harvest","bonus":0.9200000000000005},{"rt":512,"stimulus":"\n                    <p><b>Action: <em>harvest</em></b></p>\n                    <p>This is the bee that you just saw.</p>\n                    <img src=\"bees-with-color/bee-A1DM.svg\" width=\"200\">\n                    <p><span class=\"greenText\"><b>Successful harvest!</b></span><br>Your pay has increased by $0.02. Your bonus pay is now $0.66.</p>\n            ","response":0,"trial_type":"html-button-response","trial_index":52,"time_elapsed":488735,"internal_node_id":"0.0-4.0-1.22","subject_id":"5ebff737aa6b8f042a132ec3","study_id":"6197b3f67c2b5cd3b6d9596a","session_id":"6197b9e2fb9516d89b2b6a76","condition":"contingent","relevant_dimensions":["pattern","legs"],"bee_group":{"antennae":"X","wings":"X","pattern":"D","legs":"F"},"bonus":0.9200000000000005},{"rt":725,"stimulus":"bees-with-color/bee-A1SM.svg","response":0,"trial_type":"image-button-response","trial_index":53,"time_elapsed":489461,"internal_node_id":"0.0-4.0-0.23","subject_id":"5ebff737aa6b8f042a132ec3","study_id":"6197b3f67c2b5cd3b6d9596a","session_id":"6197b9e2fb9516d89b2b6a76","condition":"contingent","relevant_dimensions":["pattern","legs"],"bee_group":{"antennae":"X","wings":"X","pattern":"D","legs":"F"},"action":"harvest","summary":"good-harvest","bonus":0.9200000000000005},{"rt":582,"stimulus":"\n                    <p><b>Action: <em>harvest</em></b></p>\n                    <p>This is the bee that you just saw.</p>\n                    <img src=\"bees-with-color/bee-A1SM.svg\" width=\"200\">\n                    <p><span class=\"greenText\"><b>Successful harvest!</b></span><br>Your pay has increased by $0.02. Your bonus pay is now $0.68.</p>\n            ","response":0,"trial_type":"html-button-response","trial_index":54,"time_elapsed":490044,"internal_node_id":"0.0-4.0-1.23","subject_id":"5ebff737aa6b8f042a132ec3","study_id":"6197b3f67c2b5cd3b6d9596a","session_id":"6197b9e2fb9516d89b2b6a76","condition":"contingent","relevant_dimensions":["pattern","legs"],"bee_group":{"antennae":"X","wings":"X","pattern":"D","legs":"F"},"bonus":0.9200000000000005},{"rt":830,"stimulus":"bees-with-color/bee-B2SF.svg","response":1,"trial_type":"image-button-response","trial_index":55,"time_elapsed":490875,"internal_node_id":"0.0-4.0-0.24","subject_id":"5ebff737aa6b8f042a132ec3","study_id":"6197b3f67c2b5cd3b6d9596a","session_id":"6197b9e2fb9516d89b2b6a76","condition":"contingent","relevant_dimensions":["pattern","legs"],"bee_group":{"antennae":"X","wings":"X","pattern":"D","legs":"F"},"action":"avoid","summary":"bad-avoid","bonus":0.9200000000000005},{"rt":524,"stimulus":"\n                    <p><b>Action: <em>avoid</em></b></p>\n                    <p>This is the bee that you just saw.</p>\n                    <img src=\"bees-with-color/bee-B2SF.svg\" width=\"200\">\n                    <p><br>Your bonus pay is unchanged, and remains at $0.68.</p>\n            ","response":0,"trial_type":"html-button-response","trial_index":56,"time_elapsed":491400,"internal_node_id":"0.0-4.0-1.24","subject_id":"5ebff737aa6b8f042a132ec3","study_id":"6197b3f67c2b5cd3b6d9596a","session_id":"6197b9e2fb9516d89b2b6a76","condition":"contingent","relevant_dimensions":["pattern","legs"],"bee_group":{"antennae":"X","wings":"X","pattern":"D","legs":"F"},"bonus":0.9200000000000005},{"rt":800,"stimulus":"bees-with-color/bee-A2SF.svg","response":1,"trial_type":"image-button-response","trial_index":57,"time_elapsed":492201,"internal_node_id":"0.0-4.0-0.25","subject_id":"5ebff737aa6b8f042a132ec3","study_id":"6197b3f67c2b5cd3b6d9596a","session_id":"6197b9e2fb9516d89b2b6a76","condition":"contingent","relevant_dimensions":["pattern","legs"],"bee_group":{"antennae":"X","wings":"X","pattern":"D","legs":"F"},"action":"avoid","summary":"bad-avoid","bonus":0.9200000000000005},{"rt":501,"stimulus":"\n                    <p><b>Action: <em>avoid</em></b></p>\n                    <p>This is the bee that you just saw.</p>\n                    <img src=\"bees-with-color/bee-A2SF.svg\" width=\"200\">\n                    <p><br>Your bonus pay is unchanged, and remains at $0.68.</p>\n            ","response":0,"trial_type":"html-button-response","trial_index":58,"time_elapsed":492703,"internal_node_id":"0.0-4.0-1.25","subject_id":"5ebff737aa6b8f042a132ec3","study_id":"6197b3f67c2b5cd3b6d9596a","session_id":"6197b9e2fb9516d89b2b6a76","condition":"contingent","relevant_dimensions":["pattern","legs"],"bee_group":{"antennae":"X","wings":"X","pattern":"D","legs":"F"},"bonus":0.9200000000000005},{"rt":576,"stimulus":"bees-with-color/bee-A2DF.svg","response":1,"trial_type":"image-button-response","trial_index":59,"time_elapsed":493280,"internal_node_id":"0.0-4.0-0.26","subject_id":"5ebff737aa6b8f042a132ec3","study_id":"6197b3f67c2b5cd3b6d9596a","session_id":"6197b9e2fb9516d89b2b6a76","condition":"contingent","relevant_dimensions":["pattern","legs"],"bee_group":{"antennae":"X","wings":"X","pattern":"D","legs":"F"},"action":"avoid","summary":"good-avoid","bonus":0.9200000000000005},{"rt":496,"stimulus":"\n                    <p><b>Action: <em>avoid</em></b></p>\n                    <p>This is the bee that you just saw.</p>\n                    <img src=\"bees-with-color/bee-A2DF.svg\" width=\"200\">\n                    <p><br>Your bonus pay is unchanged, and remains at $0.68.</p>\n            ","response":0,"trial_type":"html-button-response","trial_index":60,"time_elapsed":493777,"internal_node_id":"0.0-4.0-1.26","subject_id":"5ebff737aa6b8f042a132ec3","study_id":"6197b3f67c2b5cd3b6d9596a","session_id":"6197b9e2fb9516d89b2b6a76","condition":"contingent","relevant_dimensions":["pattern","legs"],"bee_group":{"antennae":"X","wings":"X","pattern":"D","legs":"F"},"bonus":0.9200000000000005},{"rt":801,"stimulus":"bees-with-color/bee-B1DM.svg","response":0,"trial_type":"image-button-response","trial_index":61,"time_elapsed":494579,"internal_node_id":"0.0-4.0-0.27","subject_id":"5ebff737aa6b8f042a132ec3","study_id":"6197b3f67c2b5cd3b6d9596a","session_id":"6197b9e2fb9516d89b2b6a76","condition":"contingent","relevant_dimensions":["pattern","legs"],"bee_group":{"antennae":"X","wings":"X","pattern":"D","legs":"F"},"action":"harvest","summary":"good-harvest","bonus":0.9200000000000005},{"rt":459,"stimulus":"\n                    <p><b>Action: <em>harvest</em></b></p>\n                    <p>This is the bee that you just saw.</p>\n                    <img src=\"bees-with-color/bee-B1DM.svg\" width=\"200\">\n                    <p><span class=\"greenText\"><b>Successful harvest!</b></span><br>Your pay has increased by $0.02. Your bonus pay is now $0.70.</p>\n            ","response":0,"trial_type":"html-button-response","trial_index":62,"time_elapsed":495039,"internal_node_id":"0.0-4.0-1.27","subject_id":"5ebff737aa6b8f042a132ec3","study_id":"6197b3f67c2b5cd3b6d9596a","session_id":"6197b9e2fb9516d89b2b6a76","condition":"contingent","relevant_dimensions":["pattern","legs"],"bee_group":{"antennae":"X","wings":"X","pattern":"D","legs":"F"},"bonus":0.9200000000000005},{"rt":1029,"stimulus":"bees-with-color/bee-A1DF.svg","response":1,"trial_type":"image-button-response","trial_index":63,"time_elapsed":496069,"internal_node_id":"0.0-4.0-0.28","subject_id":"5ebff737aa6b8f042a132ec3","study_id":"6197b3f67c2b5cd3b6d9596a","session_id":"6197b9e2fb9516d89b2b6a76","condition":"contingent","relevant_dimensions":["pattern","legs"],"bee_group":{"antennae":"X","wings":"X","pattern":"D","legs":"F"},"action":"avoid","summary":"good-avoid","bonus":0.9200000000000005},{"rt":499,"stimulus":"\n                    <p><b>Action: <em>avoid</em></b></p>\n                    <p>This is the bee that you just saw.</p>\n                    <img src=\"bees-with-color/bee-A1DF.svg\" width=\"200\">\n                    <p><br>Your bonus pay is unchanged, and remains at $0.70.</p>\n            ","response":0,"trial_type":"html-button-response","trial_index":64,"time_elapsed":496569,"internal_node_id":"0.0-4.0-1.28","subject_id":"5ebff737aa6b8f042a132ec3","study_id":"6197b3f67c2b5cd3b6d9596a","session_id":"6197b9e2fb9516d89b2b6a76","condition":"contingent","relevant_dimensions":["pattern","legs"],"bee_group":{"antennae":"X","wings":"X","pattern":"D","legs":"F"},"bonus":0.9200000000000005},{"rt":776,"stimulus":"bees-with-color/bee-B2SM.svg","response":0,"trial_type":"image-button-response","trial_index":65,"time_elapsed":497347,"internal_node_id":"0.0-4.0-0.29","subject_id":"5ebff737aa6b8f042a132ec3","study_id":"6197b3f67c2b5cd3b6d9596a","session_id":"6197b9e2fb9516d89b2b6a76","condition":"contingent","relevant_dimensions":["pattern","legs"],"bee_group":{"antennae":"X","wings":"X","pattern":"D","legs":"F"},"action":"harvest","summary":"good-harvest","bonus":0.9200000000000005},{"rt":564,"stimulus":"\n                    <p><b>Action: <em>harvest</em></b></p>\n                    <p>This is the bee that you just saw.</p>\n                    <img src=\"bees-with-color/bee-B2SM.svg\" width=\"200\">\n                    <p><span class=\"greenText\"><b>Successful harvest!</b></span><br>Your pay has increased by $0.02. Your bonus pay is now $0.72.</p>\n            ","response":0,"trial_type":"html-button-response","trial_index":66,"time_elapsed":497911,"internal_node_id":"0.0-4.0-1.29","subject_id":"5ebff737aa6b8f042a132ec3","study_id":"6197b3f67c2b5cd3b6d9596a","session_id":"6197b9e2fb9516d89b2b6a76","condition":"contingent","relevant_dimensions":["pattern","legs"],"bee_group":{"antennae":"X","wings":"X","pattern":"D","legs":"F"},"bonus":0.9200000000000005},{"rt":700,"stimulus":"bees-with-color/bee-B2DM.svg","response":0,"trial_type":"image-button-response","trial_index":67,"time_elapsed":498611,"internal_node_id":"0.0-4.0-0.30","subject_id":"5ebff737aa6b8f042a132ec3","study_id":"6197b3f67c2b5cd3b6d9596a","session_id":"6197b9e2fb9516d89b2b6a76","condition":"contingent","relevant_dimensions":["pattern","legs"],"bee_group":{"antennae":"X","wings":"X","pattern":"D","legs":"F"},"action":"harvest","summary":"good-harvest","bonus":0.9200000000000005},{"rt":539,"stimulus":"\n                    <p><b>Action: <em>harvest</em></b></p>\n                    <p>This is the bee that you just saw.</p>\n                    <img src=\"bees-with-color/bee-B2DM.svg\" width=\"200\">\n                    <p><span class=\"greenText\"><b>Successful harvest!</b></span><br>Your pay has increased by $0.02. Your bonus pay is now $0.74.</p>\n            ","response":0,"trial_type":"html-button-response","trial_index":68,"time_elapsed":499151,"internal_node_id":"0.0-4.0-1.30","subject_id":"5ebff737aa6b8f042a132ec3","study_id":"6197b3f67c2b5cd3b6d9596a","session_id":"6197b9e2fb9516d89b2b6a76","condition":"contingent","relevant_dimensions":["pattern","legs"],"bee_group":{"antennae":"X","wings":"X","pattern":"D","legs":"F"},"bonus":0.9200000000000005},{"rt":928,"stimulus":"bees-with-color/bee-B1SM.svg","response":0,"trial_type":"image-button-response","trial_index":69,"time_elapsed":500081,"internal_node_id":"0.0-4.0-0.31","subject_id":"5ebff737aa6b8f042a132ec3","study_id":"6197b3f67c2b5cd3b6d9596a","session_id":"6197b9e2fb9516d89b2b6a76","condition":"contingent","relevant_dimensions":["pattern","legs"],"bee_group":{"antennae":"X","wings":"X","pattern":"D","legs":"F"},"action":"harvest","summary":"good-harvest","bonus":0.9200000000000005},{"rt":920,"stimulus":"\n                    <p><b>Action: <em>harvest</em></b></p>\n                    <p>This is the bee that you just saw.</p>\n                    <img src=\"bees-with-color/bee-B1SM.svg\" width=\"200\">\n                    <p><span class=\"greenText\"><b>Successful harvest!</b></span><br>Your pay has increased by $0.02. Your bonus pay is now $0.76.</p>\n            ","response":0,"trial_type":"html-button-response","trial_index":70,"time_elapsed":501003,"internal_node_id":"0.0-4.0-1.31","subject_id":"5ebff737aa6b8f042a132ec3","study_id":"6197b3f67c2b5cd3b6d9596a","session_id":"6197b9e2fb9516d89b2b6a76","condition":"contingent","relevant_dimensions":["pattern","legs"],"bee_group":{"antennae":"X","wings":"X","pattern":"D","legs":"F"},"bonus":0.9200000000000005},{"rt":557,"stimulus":"bees-with-color/bee-B1DM.svg","response":0,"trial_type":"image-button-response","trial_index":71,"time_elapsed":501560,"internal_node_id":"0.0-4.0-0.32","subject_id":"5ebff737aa6b8f042a132ec3","study_id":"6197b3f67c2b5cd3b6d9596a","session_id":"6197b9e2fb9516d89b2b6a76","condition":"contingent","relevant_dimensions":["pattern","legs"],"bee_group":{"antennae":"X","wings":"X","pattern":"D","legs":"F"},"action":"harvest","summary":"good-harvest","bonus":0.9200000000000005},{"rt":632,"stimulus":"\n                    <p><b>Action: <em>harvest</em></b></p>\n                    <p>This is the bee that you just saw.</p>\n                    <img src=\"bees-with-color/bee-B1DM.svg\" width=\"200\">\n                    <p><span class=\"greenText\"><b>Successful harvest!</b></span><br>Your pay has increased by $0.02. Your bonus pay is now $0.78.</p>\n            ","response":0,"trial_type":"html-button-response","trial_index":72,"time_elapsed":502193,"internal_node_id":"0.0-4.0-1.32","subject_id":"5ebff737aa6b8f042a132ec3","study_id":"6197b3f67c2b5cd3b6d9596a","session_id":"6197b9e2fb9516d89b2b6a76","condition":"contingent","relevant_dimensions":["pattern","legs"],"bee_group":{"antennae":"X","wings":"X","pattern":"D","legs":"F"},"bonus":0.9200000000000005},{"rt":853,"stimulus":"bees-with-color/bee-B2SF.svg","response":1,"trial_type":"image-button-response","trial_index":73,"time_elapsed":503047,"internal_node_id":"0.0-4.0-0.33","subject_id":"5ebff737aa6b8f042a132ec3","study_id":"6197b3f67c2b5cd3b6d9596a","session_id":"6197b9e2fb9516d89b2b6a76","condition":"contingent","relevant_dimensions":["pattern","legs"],"bee_group":{"antennae":"X","wings":"X","pattern":"D","legs":"F"},"action":"avoid","summary":"bad-avoid","bonus":0.9200000000000005},{"rt":602,"stimulus":"\n                    <p><b>Action: <em>avoid</em></b></p>\n                    <p>This is the bee that you just saw.</p>\n                    <img src=\"bees-with-color/bee-B2SF.svg\" width=\"200\">\n                    <p><br>Your bonus pay is unchanged, and remains at $0.78.</p>\n            ","response":0,"trial_type":"html-button-response","trial_index":74,"time_elapsed":503651,"internal_node_id":"0.0-4.0-1.33","subject_id":"5ebff737aa6b8f042a132ec3","study_id":"6197b3f67c2b5cd3b6d9596a","session_id":"6197b9e2fb9516d89b2b6a76","condition":"contingent","relevant_dimensions":["pattern","legs"],"bee_group":{"antennae":"X","wings":"X","pattern":"D","legs":"F"},"bonus":0.9200000000000005},{"rt":860,"stimulus":"bees-with-color/bee-A1SF.svg","response":1,"trial_type":"image-button-response","trial_index":75,"time_elapsed":504512,"internal_node_id":"0.0-4.0-0.34","subject_id":"5ebff737aa6b8f042a132ec3","study_id":"6197b3f67c2b5cd3b6d9596a","session_id":"6197b9e2fb9516d89b2b6a76","condition":"contingent","relevant_dimensions":["pattern","legs"],"bee_group":{"antennae":"X","wings":"X","pattern":"D","legs":"F"},"action":"avoid","summary":"bad-avoid","bonus":0.9200000000000005},{"rt":599,"stimulus":"\n                    <p><b>Action: <em>avoid</em></b></p>\n                    <p>This is the bee that you just saw.</p>\n                    <img src=\"bees-with-color/bee-A1SF.svg\" width=\"200\">\n                    <p><br>Your bonus pay is unchanged, and remains at $0.78.</p>\n            ","response":0,"trial_type":"html-button-response","trial_index":76,"time_elapsed":505112,"internal_node_id":"0.0-4.0-1.34","subject_id":"5ebff737aa6b8f042a132ec3","study_id":"6197b3f67c2b5cd3b6d9596a","session_id":"6197b9e2fb9516d89b2b6a76","condition":"contingent","relevant_dimensions":["pattern","legs"],"bee_group":{"antennae":"X","wings":"X","pattern":"D","legs":"F"},"bonus":0.9200000000000005},{"rt":820,"stimulus":"bees-with-color/bee-B2SM.svg","response":0,"trial_type":"image-button-response","trial_index":77,"time_elapsed":505932,"internal_node_id":"0.0-4.0-0.35","subject_id":"5ebff737aa6b8f042a132ec3","study_id":"6197b3f67c2b5cd3b6d9596a","session_id":"6197b9e2fb9516d89b2b6a76","condition":"contingent","relevant_dimensions":["pattern","legs"],"bee_group":{"antennae":"X","wings":"X","pattern":"D","legs":"F"},"action":"harvest","summary":"good-harvest","bonus":0.9200000000000005},{"rt":581,"stimulus":"\n                    <p><b>Action: <em>harvest</em></b></p>\n                    <p>This is the bee that you just saw.</p>\n                    <img src=\"bees-with-color/bee-B2SM.svg\" width=\"200\">\n                    <p><span class=\"greenText\"><b>Successful harvest!</b></span><br>Your pay has increased by $0.02. Your bonus pay is now $0.80.</p>\n            ","response":0,"trial_type":"html-button-response","trial_index":78,"time_elapsed":506514,"internal_node_id":"0.0-4.0-1.35","subject_id":"5ebff737aa6b8f042a132ec3","study_id":"6197b3f67c2b5cd3b6d9596a","session_id":"6197b9e2fb9516d89b2b6a76","condition":"contingent","relevant_dimensions":["pattern","legs"],"bee_group":{"antennae":"X","wings":"X","pattern":"D","legs":"F"},"bonus":0.9200000000000005},{"rt":4438,"stimulus":"bees-with-color/bee-A1SM.svg","response":0,"trial_type":"image-button-response","trial_index":79,"time_elapsed":510954,"internal_node_id":"0.0-4.0-0.36","subject_id":"5ebff737aa6b8f042a132ec3","study_id":"6197b3f67c2b5cd3b6d9596a","session_id":"6197b9e2fb9516d89b2b6a76","condition":"contingent","relevant_dimensions":["pattern","legs"],"bee_group":{"antennae":"X","wings":"X","pattern":"D","legs":"F"},"action":"harvest","summary":"good-harvest","bonus":0.9200000000000005},{"rt":570,"stimulus":"\n                    <p><b>Action: <em>harvest</em></b></p>\n                    <p>This is the bee that you just saw.</p>\n                    <img src=\"bees-with-color/bee-A1SM.svg\" width=\"200\">\n                    <p><span class=\"greenText\"><b>Successful harvest!</b></span><br>Your pay has increased by $0.02. Your bonus pay is now $0.82.</p>\n            ","response":0,"trial_type":"html-button-response","trial_index":80,"time_elapsed":511525,"internal_node_id":"0.0-4.0-1.36","subject_id":"5ebff737aa6b8f042a132ec3","study_id":"6197b3f67c2b5cd3b6d9596a","session_id":"6197b9e2fb9516d89b2b6a76","condition":"contingent","relevant_dimensions":["pattern","legs"],"bee_group":{"antennae":"X","wings":"X","pattern":"D","legs":"F"},"bonus":0.9200000000000005},{"rt":752,"stimulus":"bees-with-color/bee-A2DM.svg","response":0,"trial_type":"image-button-response","trial_index":81,"time_elapsed":512277,"internal_node_id":"0.0-4.0-0.37","subject_id":"5ebff737aa6b8f042a132ec3","study_id":"6197b3f67c2b5cd3b6d9596a","session_id":"6197b9e2fb9516d89b2b6a76","condition":"contingent","relevant_dimensions":["pattern","legs"],"bee_group":{"antennae":"X","wings":"X","pattern":"D","legs":"F"},"action":"harvest","summary":"good-harvest","bonus":0.9200000000000005},{"rt":569,"stimulus":"\n                    <p><b>Action: <em>harvest</em></b></p>\n                    <p>This is the bee that you just saw.</p>\n                    <img src=\"bees-with-color/bee-A2DM.svg\" width=\"200\">\n                    <p><span class=\"greenText\"><b>Successful harvest!</b></span><br>Your pay has increased by $0.02. Your bonus pay is now $0.84.</p>\n            ","response":0,"trial_type":"html-button-response","trial_index":82,"time_elapsed":512846,"internal_node_id":"0.0-4.0-1.37","subject_id":"5ebff737aa6b8f042a132ec3","study_id":"6197b3f67c2b5cd3b6d9596a","session_id":"6197b9e2fb9516d89b2b6a76","condition":"contingent","relevant_dimensions":["pattern","legs"],"bee_group":{"antennae":"X","wings":"X","pattern":"D","legs":"F"},"bonus":0.9200000000000005},{"rt":760,"stimulus":"bees-with-color/bee-B2DF.svg","response":1,"trial_type":"image-button-response","trial_index":83,"time_elapsed":513607,"internal_node_id":"0.0-4.0-0.38","subject_id":"5ebff737aa6b8f042a132ec3","study_id":"6197b3f67c2b5cd3b6d9596a","session_id":"6197b9e2fb9516d89b2b6a76","condition":"contingent","relevant_dimensions":["pattern","legs"],"bee_group":{"antennae":"X","wings":"X","pattern":"D","legs":"F"},"action":"avoid","summary":"good-avoid","bonus":0.9200000000000005},{"rt":424,"stimulus":"\n                    <p><b>Action: <em>avoid</em></b></p>\n                    <p>This is the bee that you just saw.</p>\n                    <img src=\"bees-with-color/bee-B2DF.svg\" width=\"200\">\n                    <p><br>Your bonus pay is unchanged, and remains at $0.84.</p>\n            ","response":0,"trial_type":"html-button-response","trial_index":84,"time_elapsed":514033,"internal_node_id":"0.0-4.0-1.38","subject_id":"5ebff737aa6b8f042a132ec3","study_id":"6197b3f67c2b5cd3b6d9596a","session_id":"6197b9e2fb9516d89b2b6a76","condition":"contingent","relevant_dimensions":["pattern","legs"],"bee_group":{"antennae":"X","wings":"X","pattern":"D","legs":"F"},"bonus":0.9200000000000005},{"rt":939,"stimulus":"bees-with-color/bee-A2DF.svg","response":1,"trial_type":"image-button-response","trial_index":85,"time_elapsed":514972,"internal_node_id":"0.0-4.0-0.39","subject_id":"5ebff737aa6b8f042a132ec3","study_id":"6197b3f67c2b5cd3b6d9596a","session_id":"6197b9e2fb9516d89b2b6a76","condition":"contingent","relevant_dimensions":["pattern","legs"],"bee_group":{"antennae":"X","wings":"X","pattern":"D","legs":"F"},"action":"avoid","summary":"good-avoid","bonus":0.9200000000000005},{"rt":538,"stimulus":"\n                    <p><b>Action: <em>avoid</em></b></p>\n                    <p>This is the bee that you just saw.</p>\n                    <img src=\"bees-with-color/bee-A2DF.svg\" width=\"200\">\n                    <p><br>Your bonus pay is unchanged, and remains at $0.84.</p>\n            ","response":0,"trial_type":"html-button-response","trial_index":86,"time_elapsed":515511,"internal_node_id":"0.0-4.0-1.39","subject_id":"5ebff737aa6b8f042a132ec3","study_id":"6197b3f67c2b5cd3b6d9596a","session_id":"6197b9e2fb9516d89b2b6a76","condition":"contingent","relevant_dimensions":["pattern","legs"],"bee_group":{"antennae":"X","wings":"X","pattern":"D","legs":"F"},"bonus":0.9200000000000005},{"rt":688,"stimulus":"bees-with-color/bee-A2SM.svg","response":0,"trial_type":"image-button-response","trial_index":87,"time_elapsed":516200,"internal_node_id":"0.0-4.0-0.40","subject_id":"5ebff737aa6b8f042a132ec3","study_id":"6197b3f67c2b5cd3b6d9596a","session_id":"6197b9e2fb9516d89b2b6a76","condition":"contingent","relevant_dimensions":["pattern","legs"],"bee_group":{"antennae":"X","wings":"X","pattern":"D","legs":"F"},"action":"harvest","summary":"good-harvest","bonus":0.9200000000000005},{"rt":542,"stimulus":"\n                    <p><b>Action: <em>harvest</em></b></p>\n                    <p>This is the bee that you just saw.</p>\n                    <img src=\"bees-with-color/bee-A2SM.svg\" width=\"200\">\n                    <p><span class=\"greenText\"><b>Successful harvest!</b></span><br>Your pay has increased by $0.02. Your bonus pay is now $0.86.</p>\n            ","response":0,"trial_type":"html-button-response","trial_index":88,"time_elapsed":516742,"internal_node_id":"0.0-4.0-1.40","subject_id":"5ebff737aa6b8f042a132ec3","study_id":"6197b3f67c2b5cd3b6d9596a","session_id":"6197b9e2fb9516d89b2b6a76","condition":"contingent","relevant_dimensions":["pattern","legs"],"bee_group":{"antennae":"X","wings":"X","pattern":"D","legs":"F"},"bonus":0.9200000000000005},{"rt":775,"stimulus":"bees-with-color/bee-A1DM.svg","response":0,"trial_type":"image-button-response","trial_index":89,"time_elapsed":517519,"internal_node_id":"0.0-4.0-0.41","subject_id":"5ebff737aa6b8f042a132ec3","study_id":"6197b3f67c2b5cd3b6d9596a","session_id":"6197b9e2fb9516d89b2b6a76","condition":"contingent","relevant_dimensions":["pattern","legs"],"bee_group":{"antennae":"X","wings":"X","pattern":"D","legs":"F"},"action":"harvest","summary":"good-harvest","bonus":0.9200000000000005},{"rt":520,"stimulus":"\n                    <p><b>Action: <em>harvest</em></b></p>\n                    <p>This is the bee that you just saw.</p>\n                    <img src=\"bees-with-color/bee-A1DM.svg\" width=\"200\">\n                    <p><span class=\"greenText\"><b>Successful harvest!</b></span><br>Your pay has increased by $0.02. Your bonus pay is now $0.88.</p>\n            ","response":0,"trial_type":"html-button-response","trial_index":90,"time_elapsed":518038,"internal_node_id":"0.0-4.0-1.41","subject_id":"5ebff737aa6b8f042a132ec3","study_id":"6197b3f67c2b5cd3b6d9596a","session_id":"6197b9e2fb9516d89b2b6a76","condition":"contingent","relevant_dimensions":["pattern","legs"],"bee_group":{"antennae":"X","wings":"X","pattern":"D","legs":"F"},"bonus":0.9200000000000005},{"rt":804,"stimulus":"bees-with-color/bee-A2SF.svg","response":1,"trial_type":"image-button-response","trial_index":91,"time_elapsed":518845,"internal_node_id":"0.0-4.0-0.42","subject_id":"5ebff737aa6b8f042a132ec3","study_id":"6197b3f67c2b5cd3b6d9596a","session_id":"6197b9e2fb9516d89b2b6a76","condition":"contingent","relevant_dimensions":["pattern","legs"],"bee_group":{"antennae":"X","wings":"X","pattern":"D","legs":"F"},"action":"avoid","summary":"bad-avoid","bonus":0.9200000000000005},{"rt":489,"stimulus":"\n                    <p><b>Action: <em>avoid</em></b></p>\n                    <p>This is the bee that you just saw.</p>\n                    <img src=\"bees-with-color/bee-A2SF.svg\" width=\"200\">\n                    <p><br>Your bonus pay is unchanged, and remains at $0.88.</p>\n            ","response":0,"trial_type":"html-button-response","trial_index":92,"time_elapsed":519335,"internal_node_id":"0.0-4.0-1.42","subject_id":"5ebff737aa6b8f042a132ec3","study_id":"6197b3f67c2b5cd3b6d9596a","session_id":"6197b9e2fb9516d89b2b6a76","condition":"contingent","relevant_dimensions":["pattern","legs"],"bee_group":{"antennae":"X","wings":"X","pattern":"D","legs":"F"},"bonus":0.9200000000000005},{"rt":1126,"stimulus":"bees-with-color/bee-A1DF.svg","response":1,"trial_type":"image-button-response","trial_index":93,"time_elapsed":520461,"internal_node_id":"0.0-4.0-0.43","subject_id":"5ebff737aa6b8f042a132ec3","study_id":"6197b3f67c2b5cd3b6d9596a","session_id":"6197b9e2fb9516d89b2b6a76","condition":"contingent","relevant_dimensions":["pattern","legs"],"bee_group":{"antennae":"X","wings":"X","pattern":"D","legs":"F"},"action":"avoid","summary":"good-avoid","bonus":0.9200000000000005},{"rt":638,"stimulus":"\n                    <p><b>Action: <em>avoid</em></b></p>\n                    <p>This is the bee that you just saw.</p>\n                    <img src=\"bees-with-color/bee-A1DF.svg\" width=\"200\">\n                    <p><br>Your bonus pay is unchanged, and remains at $0.88.</p>\n            ","response":0,"trial_type":"html-button-response","trial_index":94,"time_elapsed":521100,"internal_node_id":"0.0-4.0-1.43","subject_id":"5ebff737aa6b8f042a132ec3","study_id":"6197b3f67c2b5cd3b6d9596a","session_id":"6197b9e2fb9516d89b2b6a76","condition":"contingent","relevant_dimensions":["pattern","legs"],"bee_group":{"antennae":"X","wings":"X","pattern":"D","legs":"F"},"bonus":0.9200000000000005},{"rt":3048,"stimulus":"bees-with-color/bee-B2DM.svg","response":0,"trial_type":"image-button-response","trial_index":95,"time_elapsed":524149,"internal_node_id":"0.0-4.0-0.44","subject_id":"5ebff737aa6b8f042a132ec3","study_id":"6197b3f67c2b5cd3b6d9596a","session_id":"6197b9e2fb9516d89b2b6a76","condition":"contingent","relevant_dimensions":["pattern","legs"],"bee_group":{"antennae":"X","wings":"X","pattern":"D","legs":"F"},"action":"harvest","summary":"good-harvest","bonus":0.9200000000000005},{"rt":715,"stimulus":"\n                    <p><b>Action: <em>harvest</em></b></p>\n                    <p>This is the bee that you just saw.</p>\n                    <img src=\"bees-with-color/bee-B2DM.svg\" width=\"200\">\n                    <p><span class=\"greenText\"><b>Successful harvest!</b></span><br>Your pay has increased by $0.02. Your bonus pay is now $0.90.</p>\n            ","response":0,"trial_type":"html-button-response","trial_index":96,"time_elapsed":524865,"internal_node_id":"0.0-4.0-1.44","subject_id":"5ebff737aa6b8f042a132ec3","study_id":"6197b3f67c2b5cd3b6d9596a","session_id":"6197b9e2fb9516d89b2b6a76","condition":"contingent","relevant_dimensions":["pattern","legs"],"bee_group":{"antennae":"X","wings":"X","pattern":"D","legs":"F"},"bonus":0.9200000000000005},{"rt":1024,"stimulus":"bees-with-color/bee-B1DF.svg","response":1,"trial_type":"image-button-response","trial_index":97,"time_elapsed":525891,"internal_node_id":"0.0-4.0-0.45","subject_id":"5ebff737aa6b8f042a132ec3","study_id":"6197b3f67c2b5cd3b6d9596a","session_id":"6197b9e2fb9516d89b2b6a76","condition":"contingent","relevant_dimensions":["pattern","legs"],"bee_group":{"antennae":"X","wings":"X","pattern":"D","legs":"F"},"action":"avoid","summary":"good-avoid","bonus":0.9200000000000005},{"rt":999,"stimulus":"\n                    <p><b>Action: <em>avoid</em></b></p>\n                    <p>This is the bee that you just saw.</p>\n                    <img src=\"bees-with-color/bee-B1DF.svg\" width=\"200\">\n                    <p><br>Your bonus pay is unchanged, and remains at $0.90.</p>\n            ","response":0,"trial_type":"html-button-response","trial_index":98,"time_elapsed":526891,"internal_node_id":"0.0-4.0-1.45","subject_id":"5ebff737aa6b8f042a132ec3","study_id":"6197b3f67c2b5cd3b6d9596a","session_id":"6197b9e2fb9516d89b2b6a76","condition":"contingent","relevant_dimensions":["pattern","legs"],"bee_group":{"antennae":"X","wings":"X","pattern":"D","legs":"F"},"bonus":0.9200000000000005},{"rt":760,"stimulus":"bees-with-color/bee-B1SF.svg","response":1,"trial_type":"image-button-response","trial_index":99,"time_elapsed":527652,"internal_node_id":"0.0-4.0-0.46","subject_id":"5ebff737aa6b8f042a132ec3","study_id":"6197b3f67c2b5cd3b6d9596a","session_id":"6197b9e2fb9516d89b2b6a76","condition":"contingent","relevant_dimensions":["pattern","legs"],"bee_group":{"antennae":"X","wings":"X","pattern":"D","legs":"F"},"action":"avoid","summary":"bad-avoid","bonus":0.9200000000000005},{"rt":458,"stimulus":"\n                    <p><b>Action: <em>avoid</em></b></p>\n                    <p>This is the bee that you just saw.</p>\n                    <img src=\"bees-with-color/bee-B1SF.svg\" width=\"200\">\n                    <p><br>Your bonus pay is unchanged, and remains at $0.90.</p>\n            ","response":0,"trial_type":"html-button-response","trial_index":100,"time_elapsed":528110,"internal_node_id":"0.0-4.0-1.46","subject_id":"5ebff737aa6b8f042a132ec3","study_id":"6197b3f67c2b5cd3b6d9596a","session_id":"6197b9e2fb9516d89b2b6a76","condition":"contingent","relevant_dimensions":["pattern","legs"],"bee_group":{"antennae":"X","wings":"X","pattern":"D","legs":"F"},"bonus":0.9200000000000005},{"rt":826,"stimulus":"bees-with-color/bee-B1SM.svg","response":0,"trial_type":"image-button-response","trial_index":101,"time_elapsed":528937,"internal_node_id":"0.0-4.0-0.47","subject_id":"5ebff737aa6b8f042a132ec3","study_id":"6197b3f67c2b5cd3b6d9596a","session_id":"6197b9e2fb9516d89b2b6a76","condition":"contingent","relevant_dimensions":["pattern","legs"],"bee_group":{"antennae":"X","wings":"X","pattern":"D","legs":"F"},"action":"harvest","summary":"good-harvest","bonus":0.9200000000000005},{"rt":479,"stimulus":"\n                    <p><b>Action: <em>harvest</em></b></p>\n                    <p>This is the bee that you just saw.</p>\n                    <img src=\"bees-with-color/bee-B1SM.svg\" width=\"200\">\n                    <p><span class=\"greenText\"><b>Successful harvest!</b></span><br>Your pay has increased by $0.02. Your bonus pay is now $0.92.</p>\n            ","response":0,"trial_type":"html-button-response","trial_index":102,"time_elapsed":529417,"internal_node_id":"0.0-4.0-1.47","subject_id":"5ebff737aa6b8f042a132ec3","study_id":"6197b3f67c2b5cd3b6d9596a","session_id":"6197b9e2fb9516d89b2b6a76","condition":"contingent","relevant_dimensions":["pattern","legs"],"bee_group":{"antennae":"X","wings":"X","pattern":"D","legs":"F"},"bonus":0.9200000000000005},{"rt":531,"stimulus":"bees-with-color/bee-A1SM.svg","response":0,"trial_type":"image-button-response","trial_index":103,"time_elapsed":529949,"internal_node_id":"0.0-4.0-0.48","subject_id":"5ebff737aa6b8f042a132ec3","study_id":"6197b3f67c2b5cd3b6d9596a","session_id":"6197b9e2fb9516d89b2b6a76","condition":"contingent","relevant_dimensions":["pattern","legs"],"bee_group":{"antennae":"X","wings":"X","pattern":"D","legs":"F"},"action":"harvest","summary":"good-harvest","bonus":0.9200000000000005},{"rt":454,"stimulus":"\n                    <p><b>Action: <em>harvest</em></b></p>\n                    <p>This is the bee that you just saw.</p>\n                    <img src=\"bees-with-color/bee-A1SM.svg\" width=\"200\">\n                    <p><span class=\"greenText\"><b>Successful harvest!</b></span><br>Your pay has increased by $0.02. Your bonus pay is now $0.94.</p>\n            ","response":0,"trial_type":"html-button-response","trial_index":104,"time_elapsed":530404,"internal_node_id":"0.0-4.0-1.48","subject_id":"5ebff737aa6b8f042a132ec3","study_id":"6197b3f67c2b5cd3b6d9596a","session_id":"6197b9e2fb9516d89b2b6a76","condition":"contingent","relevant_dimensions":["pattern","legs"],"bee_group":{"antennae":"X","wings":"X","pattern":"D","legs":"F"},"bonus":0.9200000000000005},{"rt":709,"stimulus":"bees-with-color/bee-B1DM.svg","response":0,"trial_type":"image-button-response","trial_index":105,"time_elapsed":531114,"internal_node_id":"0.0-4.0-0.49","subject_id":"5ebff737aa6b8f042a132ec3","study_id":"6197b3f67c2b5cd3b6d9596a","session_id":"6197b9e2fb9516d89b2b6a76","condition":"contingent","relevant_dimensions":["pattern","legs"],"bee_group":{"antennae":"X","wings":"X","pattern":"D","legs":"F"},"action":"harvest","summary":"good-harvest","bonus":0.9200000000000005},{"rt":492,"stimulus":"\n                    <p><b>Action: <em>harvest</em></b></p>\n                    <p>This is the bee that you just saw.</p>\n                    <img src=\"bees-with-color/bee-B1DM.svg\" width=\"200\">\n                    <p><span class=\"greenText\"><b>Successful harvest!</b></span><br>Your pay has increased by $0.02. Your bonus pay is now $0.96.</p>\n            ","response":0,"trial_type":"html-button-response","trial_index":106,"time_elapsed":531606,"internal_node_id":"0.0-4.0-1.49","subject_id":"5ebff737aa6b8f042a132ec3","study_id":"6197b3f67c2b5cd3b6d9596a","session_id":"6197b9e2fb9516d89b2b6a76","condition":"contingent","relevant_dimensions":["pattern","legs"],"bee_group":{"antennae":"X","wings":"X","pattern":"D","legs":"F"},"bonus":0.9200000000000005},{"rt":736,"stimulus":"bees-with-color/bee-B2SF.svg","response":1,"trial_type":"image-button-response","trial_index":107,"time_elapsed":532345,"internal_node_id":"0.0-4.0-0.50","subject_id":"5ebff737aa6b8f042a132ec3","study_id":"6197b3f67c2b5cd3b6d9596a","session_id":"6197b9e2fb9516d89b2b6a76","condition":"contingent","relevant_dimensions":["pattern","legs"],"bee_group":{"antennae":"X","wings":"X","pattern":"D","legs":"F"},"action":"avoid","summary":"bad-avoid","bonus":0.9200000000000005},{"rt":478,"stimulus":"\n                    <p><b>Action: <em>avoid</em></b></p>\n                    <p>This is the bee that you just saw.</p>\n                    <img src=\"bees-with-color/bee-B2SF.svg\" width=\"200\">\n                    <p><br>Your bonus pay is unchanged, and remains at $0.96.</p>\n            ","response":0,"trial_type":"html-button-response","trial_index":108,"time_elapsed":532823,"internal_node_id":"0.0-4.0-1.50","subject_id":"5ebff737aa6b8f042a132ec3","study_id":"6197b3f67c2b5cd3b6d9596a","session_id":"6197b9e2fb9516d89b2b6a76","condition":"contingent","relevant_dimensions":["pattern","legs"],"bee_group":{"antennae":"X","wings":"X","pattern":"D","legs":"F"},"bonus":0.9200000000000005},{"rt":2424,"stimulus":"bees-with-color/bee-B1SF.svg","response":1,"trial_type":"image-button-response","trial_index":109,"time_elapsed":535248,"internal_node_id":"0.0-4.0-0.51","subject_id":"5ebff737aa6b8f042a132ec3","study_id":"6197b3f67c2b5cd3b6d9596a","session_id":"6197b9e2fb9516d89b2b6a76","condition":"contingent","relevant_dimensions":["pattern","legs"],"bee_group":{"antennae":"X","wings":"X","pattern":"D","legs":"F"},"action":"avoid","summary":"bad-avoid","bonus":0.9200000000000005},{"rt":615,"stimulus":"\n                    <p><b>Action: <em>avoid</em></b></p>\n                    <p>This is the bee that you just saw.</p>\n                    <img src=\"bees-with-color/bee-B1SF.svg\" width=\"200\">\n                    <p><br>Your bonus pay is unchanged, and remains at $0.96.</p>\n            ","response":0,"trial_type":"html-button-response","trial_index":110,"time_elapsed":535864,"internal_node_id":"0.0-4.0-1.51","subject_id":"5ebff737aa6b8f042a132ec3","study_id":"6197b3f67c2b5cd3b6d9596a","session_id":"6197b9e2fb9516d89b2b6a76","condition":"contingent","relevant_dimensions":["pattern","legs"],"bee_group":{"antennae":"X","wings":"X","pattern":"D","legs":"F"},"bonus":0.9200000000000005},{"rt":741,"stimulus":"bees-with-color/bee-A2SF.svg","response":1,"trial_type":"image-button-response","trial_index":111,"time_elapsed":536607,"internal_node_id":"0.0-4.0-0.52","subject_id":"5ebff737aa6b8f042a132ec3","study_id":"6197b3f67c2b5cd3b6d9596a","session_id":"6197b9e2fb9516d89b2b6a76","condition":"contingent","relevant_dimensions":["pattern","legs"],"bee_group":{"antennae":"X","wings":"X","pattern":"D","legs":"F"},"action":"avoid","summary":"bad-avoid","bonus":0.9200000000000005},{"rt":420,"stimulus":"\n                    <p><b>Action: <em>avoid</em></b></p>\n                    <p>This is the bee that you just saw.</p>\n                    <img src=\"bees-with-color/bee-A2SF.svg\" width=\"200\">\n                    <p><br>Your bonus pay is unchanged, and remains at $0.96.</p>\n            ","response":0,"trial_type":"html-button-response","trial_index":112,"time_elapsed":537027,"internal_node_id":"0.0-4.0-1.52","subject_id":"5ebff737aa6b8f042a132ec3","study_id":"6197b3f67c2b5cd3b6d9596a","session_id":"6197b9e2fb9516d89b2b6a76","condition":"contingent","relevant_dimensions":["pattern","legs"],"bee_group":{"antennae":"X","wings":"X","pattern":"D","legs":"F"},"bonus":0.9200000000000005},{"rt":706,"stimulus":"bees-with-color/bee-A1DM.svg","response":0,"trial_type":"image-button-response","trial_index":113,"time_elapsed":537734,"internal_node_id":"0.0-4.0-0.53","subject_id":"5ebff737aa6b8f042a132ec3","study_id":"6197b3f67c2b5cd3b6d9596a","session_id":"6197b9e2fb9516d89b2b6a76","condition":"contingent","relevant_dimensions":["pattern","legs"],"bee_group":{"antennae":"X","wings":"X","pattern":"D","legs":"F"},"action":"harvest","summary":"good-harvest","bonus":0.9200000000000005},{"rt":466,"stimulus":"\n                    <p><b>Action: <em>harvest</em></b></p>\n                    <p>This is the bee that you just saw.</p>\n                    <img src=\"bees-with-color/bee-A1DM.svg\" width=\"200\">\n                    <p><span class=\"greenText\"><b>Successful harvest!</b></span><br>Your pay has increased by $0.02. Your bonus pay is now $0.98.</p>\n            ","response":0,"trial_type":"html-button-response","trial_index":114,"time_elapsed":538202,"internal_node_id":"0.0-4.0-1.53","subject_id":"5ebff737aa6b8f042a132ec3","study_id":"6197b3f67c2b5cd3b6d9596a","session_id":"6197b9e2fb9516d89b2b6a76","condition":"contingent","relevant_dimensions":["pattern","legs"],"bee_group":{"antennae":"X","wings":"X","pattern":"D","legs":"F"},"bonus":0.9200000000000005},{"rt":835,"stimulus":"bees-with-color/bee-B1DF.svg","response":1,"trial_type":"image-button-response","trial_index":115,"time_elapsed":539037,"internal_node_id":"0.0-4.0-0.54","subject_id":"5ebff737aa6b8f042a132ec3","study_id":"6197b3f67c2b5cd3b6d9596a","session_id":"6197b9e2fb9516d89b2b6a76","condition":"contingent","relevant_dimensions":["pattern","legs"],"bee_group":{"antennae":"X","wings":"X","pattern":"D","legs":"F"},"action":"avoid","summary":"good-avoid","bonus":0.9200000000000005},{"rt":408,"stimulus":"\n                    <p><b>Action: <em>avoid</em></b></p>\n                    <p>This is the bee that you just saw.</p>\n                    <img src=\"bees-with-color/bee-B1DF.svg\" width=\"200\">\n                    <p><br>Your bonus pay is unchanged, and remains at $0.98.</p>\n            ","response":0,"trial_type":"html-button-response","trial_index":116,"time_elapsed":539446,"internal_node_id":"0.0-4.0-1.54","subject_id":"5ebff737aa6b8f042a132ec3","study_id":"6197b3f67c2b5cd3b6d9596a","session_id":"6197b9e2fb9516d89b2b6a76","condition":"contingent","relevant_dimensions":["pattern","legs"],"bee_group":{"antennae":"X","wings":"X","pattern":"D","legs":"F"},"bonus":0.9200000000000005},{"rt":1088,"stimulus":"bees-with-color/bee-A2DF.svg","response":1,"trial_type":"image-button-response","trial_index":117,"time_elapsed":540535,"internal_node_id":"0.0-4.0-0.55","subject_id":"5ebff737aa6b8f042a132ec3","study_id":"6197b3f67c2b5cd3b6d9596a","session_id":"6197b9e2fb9516d89b2b6a76","condition":"contingent","relevant_dimensions":["pattern","legs"],"bee_group":{"antennae":"X","wings":"X","pattern":"D","legs":"F"},"action":"avoid","summary":"good-avoid","bonus":0.9200000000000005},{"rt":443,"stimulus":"\n                    <p><b>Action: <em>avoid</em></b></p>\n                    <p>This is the bee that you just saw.</p>\n                    <img src=\"bees-with-color/bee-A2DF.svg\" width=\"200\">\n                    <p><br>Your bonus pay is unchanged, and remains at $0.98.</p>\n            ","response":0,"trial_type":"html-button-response","trial_index":118,"time_elapsed":540979,"internal_node_id":"0.0-4.0-1.55","subject_id":"5ebff737aa6b8f042a132ec3","study_id":"6197b3f67c2b5cd3b6d9596a","session_id":"6197b9e2fb9516d89b2b6a76","condition":"contingent","relevant_dimensions":["pattern","legs"],"bee_group":{"antennae":"X","wings":"X","pattern":"D","legs":"F"},"bonus":0.9200000000000005},{"rt":895,"stimulus":"bees-with-color/bee-B2SM.svg","response":0,"trial_type":"image-button-response","trial_index":119,"time_elapsed":541875,"internal_node_id":"0.0-4.0-0.56","subject_id":"5ebff737aa6b8f042a132ec3","study_id":"6197b3f67c2b5cd3b6d9596a","session_id":"6197b9e2fb9516d89b2b6a76","condition":"contingent","relevant_dimensions":["pattern","legs"],"bee_group":{"antennae":"X","wings":"X","pattern":"D","legs":"F"},"action":"harvest","summary":"good-harvest","bonus":0.9200000000000005},{"rt":514,"stimulus":"\n                    <p><b>Action: <em>harvest</em></b></p>\n                    <p>This is the bee that you just saw.</p>\n                    <img src=\"bees-with-color/bee-B2SM.svg\" width=\"200\">\n                    <p><span class=\"greenText\"><b>Successful harvest!</b></span><br>Your pay has increased by $0.02. Your bonus pay is now $1.00.</p>\n            ","response":0,"trial_type":"html-button-response","trial_index":120,"time_elapsed":542392,"internal_node_id":"0.0-4.0-1.56","subject_id":"5ebff737aa6b8f042a132ec3","study_id":"6197b3f67c2b5cd3b6d9596a","session_id":"6197b9e2fb9516d89b2b6a76","condition":"contingent","relevant_dimensions":["pattern","legs"],"bee_group":{"antennae":"X","wings":"X","pattern":"D","legs":"F"},"bonus":0.9200000000000005},{"rt":745,"stimulus":"bees-with-color/bee-A2SM.svg","response":0,"trial_type":"image-button-response","trial_index":121,"time_elapsed":543138,"internal_node_id":"0.0-4.0-0.57","subject_id":"5ebff737aa6b8f042a132ec3","study_id":"6197b3f67c2b5cd3b6d9596a","session_id":"6197b9e2fb9516d89b2b6a76","condition":"contingent","relevant_dimensions":["pattern","legs"],"bee_group":{"antennae":"X","wings":"X","pattern":"D","legs":"F"},"action":"harvest","summary":"good-harvest","bonus":0.9200000000000005},{"rt":572,"stimulus":"\n                    <p><b>Action: <em>harvest</em></b></p>\n                    <p>This is the bee that you just saw.</p>\n                    <img src=\"bees-with-color/bee-A2SM.svg\" width=\"200\">\n                    <p><span class=\"greenText\"><b>Successful harvest!</b></span><br>Your pay has increased by $0.02. Your bonus pay is now $1.02.</p>\n            ","response":0,"trial_type":"html-button-response","trial_index":122,"time_elapsed":543712,"internal_node_id":"0.0-4.0-1.57","subject_id":"5ebff737aa6b8f042a132ec3","study_id":"6197b3f67c2b5cd3b6d9596a","session_id":"6197b9e2fb9516d89b2b6a76","condition":"contingent","relevant_dimensions":["pattern","legs"],"bee_group":{"antennae":"X","wings":"X","pattern":"D","legs":"F"},"bonus":0.9200000000000005},{"rt":1022,"stimulus":"bees-with-color/bee-A1SF.svg","response":1,"trial_type":"image-button-response","trial_index":123,"time_elapsed":544735,"internal_node_id":"0.0-4.0-0.58","subject_id":"5ebff737aa6b8f042a132ec3","study_id":"6197b3f67c2b5cd3b6d9596a","session_id":"6197b9e2fb9516d89b2b6a76","condition":"contingent","relevant_dimensions":["pattern","legs"],"bee_group":{"antennae":"X","wings":"X","pattern":"D","legs":"F"},"action":"avoid","summary":"bad-avoid","bonus":0.9200000000000005},{"rt":422,"stimulus":"\n                    <p><b>Action: <em>avoid</em></b></p>\n                    <p>This is the bee that you just saw.</p>\n                    <img src=\"bees-with-color/bee-A1SF.svg\" width=\"200\">\n                    <p><br>Your bonus pay is unchanged, and remains at $1.02.</p>\n            ","response":0,"trial_type":"html-button-response","trial_index":124,"time_elapsed":545157,"internal_node_id":"0.0-4.0-1.58","subject_id":"5ebff737aa6b8f042a132ec3","study_id":"6197b3f67c2b5cd3b6d9596a","session_id":"6197b9e2fb9516d89b2b6a76","condition":"contingent","relevant_dimensions":["pattern","legs"],"bee_group":{"antennae":"X","wings":"X","pattern":"D","legs":"F"},"bonus":0.9200000000000005},{"rt":974,"stimulus":"bees-with-color/bee-B2DM.svg","response":0,"trial_type":"image-button-response","trial_index":125,"time_elapsed":546133,"internal_node_id":"0.0-4.0-0.59","subject_id":"5ebff737aa6b8f042a132ec3","study_id":"6197b3f67c2b5cd3b6d9596a","session_id":"6197b9e2fb9516d89b2b6a76","condition":"contingent","relevant_dimensions":["pattern","legs"],"bee_group":{"antennae":"X","wings":"X","pattern":"D","legs":"F"},"action":"harvest","summary":"good-harvest","bonus":0.9200000000000005},{"rt":555,"stimulus":"\n                    <p><b>Action: <em>harvest</em></b></p>\n                    <p>This is the bee that you just saw.</p>\n                    <img src=\"bees-with-color/bee-B2DM.svg\" width=\"200\">\n                    <p><span class=\"greenText\"><b>Successful harvest!</b></span><br>Your pay has increased by $0.02. Your bonus pay is now $1.04.</p>\n            ","response":0,"trial_type":"html-button-response","trial_index":126,"time_elapsed":546690,"internal_node_id":"0.0-4.0-1.59","subject_id":"5ebff737aa6b8f042a132ec3","study_id":"6197b3f67c2b5cd3b6d9596a","session_id":"6197b9e2fb9516d89b2b6a76","condition":"contingent","relevant_dimensions":["pattern","legs"],"bee_group":{"antennae":"X","wings":"X","pattern":"D","legs":"F"},"bonus":0.9200000000000005},{"rt":720,"stimulus":"bees-with-color/bee-B1SM.svg","response":0,"trial_type":"image-button-response","trial_index":127,"time_elapsed":547411,"internal_node_id":"0.0-4.0-0.60","subject_id":"5ebff737aa6b8f042a132ec3","study_id":"6197b3f67c2b5cd3b6d9596a","session_id":"6197b9e2fb9516d89b2b6a76","condition":"contingent","relevant_dimensions":["pattern","legs"],"bee_group":{"antennae":"X","wings":"X","pattern":"D","legs":"F"},"action":"harvest","summary":"good-harvest","bonus":0.9200000000000005},{"rt":515,"stimulus":"\n                    <p><b>Action: <em>harvest</em></b></p>\n                    <p>This is the bee that you just saw.</p>\n                    <img src=\"bees-with-color/bee-B1SM.svg\" width=\"200\">\n                    <p><span class=\"greenText\"><b>Successful harvest!</b></span><br>Your pay has increased by $0.02. Your bonus pay is now $1.06.</p>\n            ","response":0,"trial_type":"html-button-response","trial_index":128,"time_elapsed":547927,"internal_node_id":"0.0-4.0-1.60","subject_id":"5ebff737aa6b8f042a132ec3","study_id":"6197b3f67c2b5cd3b6d9596a","session_id":"6197b9e2fb9516d89b2b6a76","condition":"contingent","relevant_dimensions":["pattern","legs"],"bee_group":{"antennae":"X","wings":"X","pattern":"D","legs":"F"},"bonus":0.9200000000000005},{"rt":1037,"stimulus":"bees-with-color/bee-A1DF.svg","response":1,"trial_type":"image-button-response","trial_index":129,"time_elapsed":548966,"internal_node_id":"0.0-4.0-0.61","subject_id":"5ebff737aa6b8f042a132ec3","study_id":"6197b3f67c2b5cd3b6d9596a","session_id":"6197b9e2fb9516d89b2b6a76","condition":"contingent","relevant_dimensions":["pattern","legs"],"bee_group":{"antennae":"X","wings":"X","pattern":"D","legs":"F"},"action":"avoid","summary":"good-avoid","bonus":0.9200000000000005},{"rt":818,"stimulus":"\n                    <p><b>Action: <em>avoid</em></b></p>\n                    <p>This is the bee that you just saw.</p>\n                    <img src=\"bees-with-color/bee-A1DF.svg\" width=\"200\">\n                    <p><br>Your bonus pay is unchanged, and remains at $1.06.</p>\n            ","response":0,"trial_type":"html-button-response","trial_index":130,"time_elapsed":549785,"internal_node_id":"0.0-4.0-1.61","subject_id":"5ebff737aa6b8f042a132ec3","study_id":"6197b3f67c2b5cd3b6d9596a","session_id":"6197b9e2fb9516d89b2b6a76","condition":"contingent","relevant_dimensions":["pattern","legs"],"bee_group":{"antennae":"X","wings":"X","pattern":"D","legs":"F"},"bonus":0.9200000000000005},{"rt":1152,"stimulus":"bees-with-color/bee-A2DM.svg","response":0,"trial_type":"image-button-response","trial_index":131,"time_elapsed":550938,"internal_node_id":"0.0-4.0-0.62","subject_id":"5ebff737aa6b8f042a132ec3","study_id":"6197b3f67c2b5cd3b6d9596a","session_id":"6197b9e2fb9516d89b2b6a76","condition":"contingent","relevant_dimensions":["pattern","legs"],"bee_group":{"antennae":"X","wings":"X","pattern":"D","legs":"F"},"action":"harvest","summary":"good-harvest","bonus":0.9200000000000005},{"rt":1321,"stimulus":"\n                    <p><b>Action: <em>harvest</em></b></p>\n                    <p>This is the bee that you just saw.</p>\n                    <img src=\"bees-with-color/bee-A2DM.svg\" width=\"200\">\n                    <p><span class=\"greenText\"><b>Successful harvest!</b></span><br>Your pay has increased by $0.02. Your bonus pay is now $1.08.</p>\n            ","response":0,"trial_type":"html-button-response","trial_index":132,"time_elapsed":552260,"internal_node_id":"0.0-4.0-1.62","subject_id":"5ebff737aa6b8f042a132ec3","study_id":"6197b3f67c2b5cd3b6d9596a","session_id":"6197b9e2fb9516d89b2b6a76","condition":"contingent","relevant_dimensions":["pattern","legs"],"bee_group":{"antennae":"X","wings":"X","pattern":"D","legs":"F"},"bonus":0.9200000000000005},{"rt":977,"stimulus":"bees-with-color/bee-B2DF.svg","response":1,"trial_type":"image-button-response","trial_index":133,"time_elapsed":553237,"internal_node_id":"0.0-4.0-0.63","subject_id":"5ebff737aa6b8f042a132ec3","study_id":"6197b3f67c2b5cd3b6d9596a","session_id":"6197b9e2fb9516d89b2b6a76","condition":"contingent","relevant_dimensions":["pattern","legs"],"bee_group":{"antennae":"X","wings":"X","pattern":"D","legs":"F"},"action":"avoid","summary":"good-avoid","bonus":0.9200000000000005},{"rt":642,"stimulus":"\n                    <p><b>Action: <em>avoid</em></b></p>\n                    <p>This is the bee that you just saw.</p>\n                    <img src=\"bees-with-color/bee-B2DF.svg\" width=\"200\">\n                    <p><br>Your bonus pay is unchanged, and remains at $1.08.</p>\n            ","response":0,"trial_type":"html-button-response","trial_index":134,"time_elapsed":553881,"internal_node_id":"0.0-4.0-1.63","subject_id":"5ebff737aa6b8f042a132ec3","study_id":"6197b3f67c2b5cd3b6d9596a","session_id":"6197b9e2fb9516d89b2b6a76","condition":"contingent","relevant_dimensions":["pattern","legs"],"bee_group":{"antennae":"X","wings":"X","pattern":"D","legs":"F"},"bonus":0.9200000000000005},{"rt":61754,"stimulus":"You have completed the first part of this experiment.<br><br>You will now begin a shorter second part, in which you will receive no feedback.<br>The same rules regarding bonus pay apply.<br><br>Press any key to begin.","response":" ","trial_type":"html-keyboard-response","trial_index":135,"time_elapsed":615637,"internal_node_id":"0.0-5.0","subject_id":"5ebff737aa6b8f042a132ec3","study_id":"6197b3f67c2b5cd3b6d9596a","session_id":"6197b9e2fb9516d89b2b6a76","condition":"contingent","relevant_dimensions":["pattern","legs"],"bee_group":{"antennae":"X","wings":"X","pattern":"D","legs":"F"},"bonus":0.9200000000000005},{"rt":4428,"stimulus":"bees-with-color/bee-B1DM.svg","response":0,"trial_type":"image-button-response","trial_index":136,"time_elapsed":620067,"internal_node_id":"0.0-6.0-0.0","subject_id":"5ebff737aa6b8f042a132ec3","study_id":"6197b3f67c2b5cd3b6d9596a","session_id":"6197b9e2fb9516d89b2b6a76","condition":"contingent","relevant_dimensions":["pattern","legs"],"bee_group":{"antennae":"X","wings":"X","pattern":"D","legs":"F"},"bonus":0.9200000000000005},{"rt":9950,"stimulus":"bees-with-color/bee-A1SF.svg","response":0,"trial_type":"image-button-response","trial_index":137,"time_elapsed":630018,"internal_node_id":"0.0-6.0-0.1","subject_id":"5ebff737aa6b8f042a132ec3","study_id":"6197b3f67c2b5cd3b6d9596a","session_id":"6197b9e2fb9516d89b2b6a76","condition":"contingent","relevant_dimensions":["pattern","legs"],"bee_group":{"antennae":"X","wings":"X","pattern":"D","legs":"F"},"bonus":0.9200000000000005},{"rt":769,"stimulus":"bees-with-color/bee-A1DF.svg","response":1,"trial_type":"image-button-response","trial_index":138,"time_elapsed":630787,"internal_node_id":"0.0-6.0-0.2","subject_id":"5ebff737aa6b8f042a132ec3","study_id":"6197b3f67c2b5cd3b6d9596a","session_id":"6197b9e2fb9516d89b2b6a76","condition":"contingent","relevant_dimensions":["pattern","legs"],"bee_group":{"antennae":"X","wings":"X","pattern":"D","legs":"F"},"bonus":0.9200000000000005},{"rt":594,"stimulus":"bees-with-color/bee-B1SF.svg","response":0,"trial_type":"image-button-response","trial_index":139,"time_elapsed":631382,"internal_node_id":"0.0-6.0-0.3","subject_id":"5ebff737aa6b8f042a132ec3","study_id":"6197b3f67c2b5cd3b6d9596a","session_id":"6197b9e2fb9516d89b2b6a76","condition":"contingent","relevant_dimensions":["pattern","legs"],"bee_group":{"antennae":"X","wings":"X","pattern":"D","legs":"F"},"bonus":0.9200000000000005},{"rt":143,"stimulus":"bees-with-color/bee-B1DF.svg","response":0,"trial_type":"image-button-response","trial_index":140,"time_elapsed":631525,"internal_node_id":"0.0-6.0-0.4","subject_id":"5ebff737aa6b8f042a132ec3","study_id":"6197b3f67c2b5cd3b6d9596a","session_id":"6197b9e2fb9516d89b2b6a76","condition":"contingent","relevant_dimensions":["pattern","legs"],"bee_group":{"antennae":"X","wings":"X","pattern":"D","legs":"F"},"bonus":0.9200000000000005},{"rt":396,"stimulus":"bees-with-color/bee-B2SF.svg","response":1,"trial_type":"image-button-response","trial_index":141,"time_elapsed":631923,"internal_node_id":"0.0-6.0-0.5","subject_id":"5ebff737aa6b8f042a132ec3","study_id":"6197b3f67c2b5cd3b6d9596a","session_id":"6197b9e2fb9516d89b2b6a76","condition":"contingent","relevant_dimensions":["pattern","legs"],"bee_group":{"antennae":"X","wings":"X","pattern":"D","legs":"F"},"bonus":0.9200000000000005},{"rt":428,"stimulus":"bees-with-color/bee-B1SM.svg","response":0,"trial_type":"image-button-response","trial_index":142,"time_elapsed":632351,"internal_node_id":"0.0-6.0-0.6","subject_id":"5ebff737aa6b8f042a132ec3","study_id":"6197b3f67c2b5cd3b6d9596a","session_id":"6197b9e2fb9516d89b2b6a76","condition":"contingent","relevant_dimensions":["pattern","legs"],"bee_group":{"antennae":"X","wings":"X","pattern":"D","legs":"F"},"bonus":0.9200000000000005},{"rt":157,"stimulus":"bees-with-color/bee-A1SM.svg","response":0,"trial_type":"image-button-response","trial_index":143,"time_elapsed":632510,"internal_node_id":"0.0-6.0-0.7","subject_id":"5ebff737aa6b8f042a132ec3","study_id":"6197b3f67c2b5cd3b6d9596a","session_id":"6197b9e2fb9516d89b2b6a76","condition":"contingent","relevant_dimensions":["pattern","legs"],"bee_group":{"antennae":"X","wings":"X","pattern":"D","legs":"F"},"bonus":0.9200000000000005},{"rt":415,"stimulus":"bees-with-color/bee-A2DF.svg","response":1,"trial_type":"image-button-response","trial_index":144,"time_elapsed":632926,"internal_node_id":"0.0-6.0-0.8","subject_id":"5ebff737aa6b8f042a132ec3","study_id":"6197b3f67c2b5cd3b6d9596a","session_id":"6197b9e2fb9516d89b2b6a76","condition":"contingent","relevant_dimensions":["pattern","legs"],"bee_group":{"antennae":"X","wings":"X","pattern":"D","legs":"F"},"bonus":0.9200000000000005},{"rt":425,"stimulus":"bees-with-color/bee-A1DM.svg","response":0,"trial_type":"image-button-response","trial_index":145,"time_elapsed":633351,"internal_node_id":"0.0-6.0-0.9","subject_id":"5ebff737aa6b8f042a132ec3","study_id":"6197b3f67c2b5cd3b6d9596a","session_id":"6197b9e2fb9516d89b2b6a76","condition":"contingent","relevant_dimensions":["pattern","legs"],"bee_group":{"antennae":"X","wings":"X","pattern":"D","legs":"F"},"bonus":0.9200000000000005},{"rt":163,"stimulus":"bees-with-color/bee-B2SM.svg","response":0,"trial_type":"image-button-response","trial_index":146,"time_elapsed":633517,"internal_node_id":"0.0-6.0-0.10","subject_id":"5ebff737aa6b8f042a132ec3","study_id":"6197b3f67c2b5cd3b6d9596a","session_id":"6197b9e2fb9516d89b2b6a76","condition":"contingent","relevant_dimensions":["pattern","legs"],"bee_group":{"antennae":"X","wings":"X","pattern":"D","legs":"F"},"bonus":0.9200000000000005},{"rt":346,"stimulus":"bees-with-color/bee-B2DM.svg","response":1,"trial_type":"image-button-response","trial_index":147,"time_elapsed":633864,"internal_node_id":"0.0-6.0-0.11","subject_id":"5ebff737aa6b8f042a132ec3","study_id":"6197b3f67c2b5cd3b6d9596a","session_id":"6197b9e2fb9516d89b2b6a76","condition":"contingent","relevant_dimensions":["pattern","legs"],"bee_group":{"antennae":"X","wings":"X","pattern":"D","legs":"F"},"bonus":0.9200000000000005},{"rt":369,"stimulus":"bees-with-color/bee-A2SF.svg","response":0,"trial_type":"image-button-response","trial_index":148,"time_elapsed":634234,"internal_node_id":"0.0-6.0-0.12","subject_id":"5ebff737aa6b8f042a132ec3","study_id":"6197b3f67c2b5cd3b6d9596a","session_id":"6197b9e2fb9516d89b2b6a76","condition":"contingent","relevant_dimensions":["pattern","legs"],"bee_group":{"antennae":"X","wings":"X","pattern":"D","legs":"F"},"bonus":0.9200000000000005},{"rt":139,"stimulus":"bees-with-color/bee-B2DF.svg","response":0,"trial_type":"image-button-response","trial_index":149,"time_elapsed":634374,"internal_node_id":"0.0-6.0-0.13","subject_id":"5ebff737aa6b8f042a132ec3","study_id":"6197b3f67c2b5cd3b6d9596a","session_id":"6197b9e2fb9516d89b2b6a76","condition":"contingent","relevant_dimensions":["pattern","legs"],"bee_group":{"antennae":"X","wings":"X","pattern":"D","legs":"F"},"bonus":0.9200000000000005},{"rt":450,"stimulus":"bees-with-color/bee-A2SM.svg","response":1,"trial_type":"image-button-response","trial_index":150,"time_elapsed":634826,"internal_node_id":"0.0-6.0-0.14","subject_id":"5ebff737aa6b8f042a132ec3","study_id":"6197b3f67c2b5cd3b6d9596a","session_id":"6197b9e2fb9516d89b2b6a76","condition":"contingent","relevant_dimensions":["pattern","legs"],"bee_group":{"antennae":"X","wings":"X","pattern":"D","legs":"F"},"bonus":0.9200000000000005},{"rt":438,"stimulus":"bees-with-color/bee-A2DM.svg","response":0,"trial_type":"image-button-response","trial_index":151,"time_elapsed":635265,"internal_node_id":"0.0-6.0-0.15","subject_id":"5ebff737aa6b8f042a132ec3","study_id":"6197b3f67c2b5cd3b6d9596a","session_id":"6197b9e2fb9516d89b2b6a76","condition":"contingent","relevant_dimensions":["pattern","legs"],"bee_group":{"antennae":"X","wings":"X","pattern":"D","legs":"F"},"bonus":0.9200000000000005},{"rt":162,"stimulus":"bees-with-color/bee-A2SF.svg","response":0,"trial_type":"image-button-response","trial_index":152,"time_elapsed":635428,"internal_node_id":"0.0-6.0-0.16","subject_id":"5ebff737aa6b8f042a132ec3","study_id":"6197b3f67c2b5cd3b6d9596a","session_id":"6197b9e2fb9516d89b2b6a76","condition":"contingent","relevant_dimensions":["pattern","legs"],"bee_group":{"antennae":"X","wings":"X","pattern":"D","legs":"F"},"bonus":0.9200000000000005},{"rt":411,"stimulus":"bees-with-color/bee-B2SM.svg","response":1,"trial_type":"image-button-response","trial_index":153,"time_elapsed":635840,"internal_node_id":"0.0-6.0-0.17","subject_id":"5ebff737aa6b8f042a132ec3","study_id":"6197b3f67c2b5cd3b6d9596a","session_id":"6197b9e2fb9516d89b2b6a76","condition":"contingent","relevant_dimensions":["pattern","legs"],"bee_group":{"antennae":"X","wings":"X","pattern":"D","legs":"F"},"bonus":0.9200000000000005},{"rt":633,"stimulus":"bees-with-color/bee-B1SM.svg","response":0,"trial_type":"image-button-response","trial_index":154,"time_elapsed":636474,"internal_node_id":"0.0-6.0-0.18","subject_id":"5ebff737aa6b8f042a132ec3","study_id":"6197b3f67c2b5cd3b6d9596a","session_id":"6197b9e2fb9516d89b2b6a76","condition":"contingent","relevant_dimensions":["pattern","legs"],"bee_group":{"antennae":"X","wings":"X","pattern":"D","legs":"F"},"bonus":0.9200000000000005},{"rt":130,"stimulus":"bees-with-color/bee-B2DF.svg","response":0,"trial_type":"image-button-response","trial_index":155,"time_elapsed":636605,"internal_node_id":"0.0-6.0-0.19","subject_id":"5ebff737aa6b8f042a132ec3","study_id":"6197b3f67c2b5cd3b6d9596a","session_id":"6197b9e2fb9516d89b2b6a76","condition":"contingent","relevant_dimensions":["pattern","legs"],"bee_group":{"antennae":"X","wings":"X","pattern":"D","legs":"F"},"bonus":0.9200000000000005},{"rt":383,"stimulus":"bees-with-color/bee-A2SM.svg","response":1,"trial_type":"image-button-response","trial_index":156,"time_elapsed":636989,"internal_node_id":"0.0-6.0-0.20","subject_id":"5ebff737aa6b8f042a132ec3","study_id":"6197b3f67c2b5cd3b6d9596a","session_id":"6197b9e2fb9516d89b2b6a76","condition":"contingent","relevant_dimensions":["pattern","legs"],"bee_group":{"antennae":"X","wings":"X","pattern":"D","legs":"F"},"bonus":0.9200000000000005},{"rt":431,"stimulus":"bees-with-color/bee-A1SF.svg","response":0,"trial_type":"image-button-response","trial_index":157,"time_elapsed":637420,"internal_node_id":"0.0-6.0-0.21","subject_id":"5ebff737aa6b8f042a132ec3","study_id":"6197b3f67c2b5cd3b6d9596a","session_id":"6197b9e2fb9516d89b2b6a76","condition":"contingent","relevant_dimensions":["pattern","legs"],"bee_group":{"antennae":"X","wings":"X","pattern":"D","legs":"F"},"bonus":0.9200000000000005},{"rt":149,"stimulus":"bees-with-color/bee-A2DM.svg","response":0,"trial_type":"image-button-response","trial_index":158,"time_elapsed":637569,"internal_node_id":"0.0-6.0-0.22","subject_id":"5ebff737aa6b8f042a132ec3","study_id":"6197b3f67c2b5cd3b6d9596a","session_id":"6197b9e2fb9516d89b2b6a76","condition":"contingent","relevant_dimensions":["pattern","legs"],"bee_group":{"antennae":"X","wings":"X","pattern":"D","legs":"F"},"bonus":0.9200000000000005},{"rt":569,"stimulus":"bees-with-color/bee-B1DF.svg","response":1,"trial_type":"image-button-response","trial_index":159,"time_elapsed":638139,"internal_node_id":"0.0-6.0-0.23","subject_id":"5ebff737aa6b8f042a132ec3","study_id":"6197b3f67c2b5cd3b6d9596a","session_id":"6197b9e2fb9516d89b2b6a76","condition":"contingent","relevant_dimensions":["pattern","legs"],"bee_group":{"antennae":"X","wings":"X","pattern":"D","legs":"F"},"bonus":0.9200000000000005},{"rt":361,"stimulus":"bees-with-color/bee-A1DF.svg","response":0,"trial_type":"image-button-response","trial_index":160,"time_elapsed":638501,"internal_node_id":"0.0-6.0-0.24","subject_id":"5ebff737aa6b8f042a132ec3","study_id":"6197b3f67c2b5cd3b6d9596a","session_id":"6197b9e2fb9516d89b2b6a76","condition":"contingent","relevant_dimensions":["pattern","legs"],"bee_group":{"antennae":"X","wings":"X","pattern":"D","legs":"F"},"bonus":0.9200000000000005},{"rt":149,"stimulus":"bees-with-color/bee-B2SF.svg","response":0,"trial_type":"image-button-response","trial_index":161,"time_elapsed":638652,"internal_node_id":"0.0-6.0-0.25","subject_id":"5ebff737aa6b8f042a132ec3","study_id":"6197b3f67c2b5cd3b6d9596a","session_id":"6197b9e2fb9516d89b2b6a76","condition":"contingent","relevant_dimensions":["pattern","legs"],"bee_group":{"antennae":"X","wings":"X","pattern":"D","legs":"F"},"bonus":0.9200000000000005},{"rt":494,"stimulus":"bees-with-color/bee-B2DM.svg","response":1,"trial_type":"image-button-response","trial_index":162,"time_elapsed":639148,"internal_node_id":"0.0-6.0-0.26","subject_id":"5ebff737aa6b8f042a132ec3","study_id":"6197b3f67c2b5cd3b6d9596a","session_id":"6197b9e2fb9516d89b2b6a76","condition":"contingent","relevant_dimensions":["pattern","legs"],"bee_group":{"antennae":"X","wings":"X","pattern":"D","legs":"F"},"bonus":0.9200000000000005},{"rt":490,"stimulus":"bees-with-color/bee-A1DM.svg","response":0,"trial_type":"image-button-response","trial_index":163,"time_elapsed":639639,"internal_node_id":"0.0-6.0-0.27","subject_id":"5ebff737aa6b8f042a132ec3","study_id":"6197b3f67c2b5cd3b6d9596a","session_id":"6197b9e2fb9516d89b2b6a76","condition":"contingent","relevant_dimensions":["pattern","legs"],"bee_group":{"antennae":"X","wings":"X","pattern":"D","legs":"F"},"bonus":0.9200000000000005},{"rt":156,"stimulus":"bees-with-color/bee-A1SM.svg","response":0,"trial_type":"image-button-response","trial_index":164,"time_elapsed":639796,"internal_node_id":"0.0-6.0-0.28","subject_id":"5ebff737aa6b8f042a132ec3","study_id":"6197b3f67c2b5cd3b6d9596a","session_id":"6197b9e2fb9516d89b2b6a76","condition":"contingent","relevant_dimensions":["pattern","legs"],"bee_group":{"antennae":"X","wings":"X","pattern":"D","legs":"F"},"bonus":0.9200000000000005},{"rt":552,"stimulus":"bees-with-color/bee-B1DM.svg","response":1,"trial_type":"image-button-response","trial_index":165,"time_elapsed":640348,"internal_node_id":"0.0-6.0-0.29","subject_id":"5ebff737aa6b8f042a132ec3","study_id":"6197b3f67c2b5cd3b6d9596a","session_id":"6197b9e2fb9516d89b2b6a76","condition":"contingent","relevant_dimensions":["pattern","legs"],"bee_group":{"antennae":"X","wings":"X","pattern":"D","legs":"F"},"bonus":0.9200000000000005},{"rt":644,"stimulus":"bees-with-color/bee-B1SF.svg","response":0,"trial_type":"image-button-response","trial_index":166,"time_elapsed":640993,"internal_node_id":"0.0-6.0-0.30","subject_id":"5ebff737aa6b8f042a132ec3","study_id":"6197b3f67c2b5cd3b6d9596a","session_id":"6197b9e2fb9516d89b2b6a76","condition":"contingent","relevant_dimensions":["pattern","legs"],"bee_group":{"antennae":"X","wings":"X","pattern":"D","legs":"F"},"bonus":0.9200000000000005},{"rt":652,"stimulus":"bees-with-color/bee-A2DF.svg","response":0,"trial_type":"image-button-response","trial_index":167,"time_elapsed":641646,"internal_node_id":"0.0-6.0-0.31","subject_id":"5ebff737aa6b8f042a132ec3","study_id":"6197b3f67c2b5cd