[{"success":true,"trial_type":"fullscreen","trial_index":0,"time_elapsed":2162,"internal_node_id":"0.0-0.0","subject_id":"600edc6aacc6285957bd1cd6","study_id":"6197b3f67c2b5cd3b6d9596a","session_id":"6197b9e6649d77c5436b4295","condition":"full-information","relevant_dimensions":["antennae","legs"],"bee_group":{"antennae":"B","wings":"X","pattern":"X","legs":"F"},"bonus":0.11999999999999998},{"success":true,"timeout":false,"failed_images":[],"failed_audio":[],"failed_video":[],"trial_type":"preload","trial_index":1,"time_elapsed":2242,"internal_node_id":"0.0-1.0","subject_id":"600edc6aacc6285957bd1cd6","study_id":"6197b3f67c2b5cd3b6d9596a","session_id":"6197b9e6649d77c5436b4295","condition":"full-information","relevant_dimensions":["antennae","legs"],"bee_group":{"antennae":"B","wings":"X","pattern":"X","legs":"F"},"bonus":0.11999999999999998},{"rt":448.09999990463257,"stimulus":"Welcome! Press any key to begin.","response":"arrowright","trial_type":"html-keyboard-response","trial_index":2,"time_elapsed":2691,"internal_node_id":"0.0-2.0","subject_id":"600edc6aacc6285957bd1cd6","study_id":"6197b3f67c2b5cd3b6d9596a","session_id":"6197b9e6649d77c5436b4295","condition":"full-information","relevant_dimensions":["antennae","legs"],"bee_group":{"antennae":"B","wings":"X","pattern":"X","legs":"F"},"bonus":0.11999999999999998},{"view_history":[{"page_index":0,"viewing_time":180.30000019073486},{"page_index":1,"viewing_time":170.29999995231628},{"page_index":2,"viewing_time":156.09999990463257},{"page_index":3,"viewing_time":154.40000009536743},{"page_index":4,"viewing_time":158.39999985694885},{"page_index":5,"viewing_time":165.70000004768372},{"page_index":6,"viewing_time":166.29999995231628},{"page_index":7,"viewing_time":148.30000019073486},{"page_index":8,"viewing_time":310.19999980926514},{"page_index":9,"viewing_time":208.5},{"page_index":10,"viewing_time":167.5},{"page_index":11,"viewing_time":157.40000009536743},{"page_index":12,"viewing_time":284.90000009536743},{"page_index":13,"viewing_time":704.1999998092651},{"page_index":14,"viewing_time":301.60000014305115}],"rt":3434.100000143051,"trial_type":"instructions","trial_index":3,"time_elapsed":6125,"internal_node_id":"0.0-3.0-0.0","subject_id":"600edc6aacc6285957bd1cd6","study_id":"6197b3f67c2b5cd3b6d9596a","session_id":"6197b9e6649d77c5436b4295","condition":"full-information","relevant_dimensions":["antennae","legs"],"bee_group":{"antennae":"B","wings":"X","pattern":"X","legs":"F"},"bonus":0.11999999999999998},{"rt":10471.200000047684,"response":{"Q0":["Two or six legs","Single or double wings","Antennae or no antennae"]},"question_order":[0],"trial_type":"survey-multi-select","trial_index":4,"time_elapsed":16598,"internal_node_id":"0.0-3.0-1.0","subject_id":"600edc6aacc6285957bd1cd6","study_id":"6197b3f67c2b5cd3b6d9596a","session_id":"6197b9e6649d77c5436b4295","condition":"full-information","relevant_dimensions":["antennae","legs"],"bee_group":{"antennae":"B","wings":"X","pattern":"X","legs":"F"},"correct":false,"bonus":0.11999999999999998},{"rt":26124,"response":{"Q1":"Yes.","Q2":"Based on the four features of the bee.","Q3":"You do not learn if it was friendly or dangerous, and do not alter your bonus."},"question_order":[0,1,2],"trial_type":"survey-multi-choice","trial_index":5,"time_elapsed":42727,"internal_node_id":"0.0-3.0-2.0","subject_id":"600edc6aacc6285957bd1cd6","study_id":"6197b3f67c2b5cd3b6d9596a","session_id":"6197b9e6649d77c5436b4295","condition":"full-information","relevant_dimensions":["antennae","legs"],"bee_group":{"antennae":"B","wings":"X","pattern":"X","legs":"F"},"correct":false,"bonus":0.11999999999999998},{"rt":3088.899999856949,"stimulus":"<p>You did not answer all comprehension questions correctly.<br>Press <b>continue</b> to review the instructions again.</p>","response":0,"trial_type":"html-button-response","trial_index":6,"time_elapsed":45819,"internal_node_id":"0.0-3.0-3.0","subject_id":"600edc6aacc6285957bd1cd6","study_id":"6197b3f67c2b5cd3b6d9596a","session_id":"6197b9e6649d77c5436b4295","condition":"full-information","relevant_dimensions":["antennae","legs"],"bee_group":{"antennae":"B","wings":"X","pattern":"X","legs":"F"},"bonus":0.11999999999999998},{"view_history":[{"page_index":0,"viewing_time":1037.3999998569489},{"page_index":1,"viewing_time":1055.1000001430511},{"page_index":2,"viewing_time":1673.2999999523163},{"page_index":3,"viewing_time":197.5},{"page_index":4,"viewing_time":168.29999995231628},{"page_index":5,"viewing_time":167.60000014305115},{"page_index":6,"viewing_time":159.79999995231628},{"page_index":7,"viewing_time":158},{"page_index":8,"viewing_time":352.59999990463257},{"page_index":9,"viewing_time":156.70000004768372},{"page_index":10,"viewing_time":197.59999990463257},{"page_index":11,"viewing_time":452.2000000476837},{"page_index":12,"viewing_time":496.40000009536743},{"page_index":13,"viewing_time":446.2000000476837},{"page_index":14,"viewing_time":379.59999990463257}],"rt":7098.399999856949,"trial_type":"instructions","trial_index":7,"time_elapsed":52918,"internal_node_id":"0.0-3.0-4.0-0.0","subject_id":"600edc6aacc6285957bd1cd6","study_id":"6197b3f67c2b5cd3b6d9596a","session_id":"6197b9e6649d77c5436b4295","condition":"full-information","relevant_dimensions":["antennae","legs"],"bee_group":{"antennae":"B","wings":"X","pattern":"X","legs":"F"},"bonus":0.11999999999999998},{"rt":10911.899999856949,"response":{"Q0":["Two or six legs","Stripes or spots on body","Single or double wings","Antennae or no antennae"]},"question_order":[0],"trial_type":"survey-multi-select","trial_index":8,"time_elapsed":63833,"internal_node_id":"0.0-3.0-4.0-1.0","subject_id":"600edc6aacc6285957bd1cd6","study_id":"6197b3f67c2b5cd3b6d9596a","session_id":"6197b9e6649d77c5436b4295","condition":"full-information","relevant_dimensions":["antennae","legs"],"bee_group":{"antennae":"B","wings":"X","pattern":"X","legs":"F"},"correct":true,"bonus":0.11999999999999998},{"rt":6799,"response":{"Q1":"No.","Q2":"Based on the four features of the bee.","Q3":"You learn if it was friendly or dangerous, but do not alter your bonus."},"question_order":[0,1,2],"trial_type":"survey-multi-choice","trial_index":9,"time_elapsed":70636,"internal_node_id":"0.0-3.0-4.0-2.0","subject_id":"600edc6aacc6285957bd1cd6","study_id":"6197b3f67c2b5cd3b6d9596a","session_id":"6197b9e6649d77c5436b4295","condition":"full-information","relevant_dimensions":["antennae","legs"],"bee_group":{"antennae":"B","wings":"X","pattern":"X","legs":"F"},"correct":true,"bonus":0.11999999999999998},{"rt":4692.599999904633,"stimulus":"<p>Congrats, you got everything right<br>When you're ready, click the button below to continue to the experiment.</p>","response":0,"trial_type":"html-button-response","trial_index":10,"time_elapsed":75333,"internal_node_id":"0.0-3.0-4.0-3.0","subject_id":"600edc6aacc6285957bd1cd6","study_id":"6197b3f67c2b5cd3b6d9596a","session_id":"6197b9e6649d77c5436b4295","condition":"full-information","relevant_dimensions":["antennae","legs"],"bee_group":{"antennae":"B","wings":"X","pattern":"X","legs":"F"},"bonus":0.11999999999999998},{"rt":19855.299999952316,"stimulus":"bees-with-color/bee-A1DM.svg","response":1,"trial_type":"image-button-response","trial_index":11,"time_elapsed":95191,"internal_node_id":"0.0-4.0-0.0","subject_id":"600edc6aacc6285957bd1cd6","study_id":"6197b3f67c2b5cd3b6d9596a","session_id":"6197b9e6649d77c5436b4295","condition":"full-information","relevant_dimensions":["antennae","legs"],"bee_group":{"antennae":"B","wings":"X","pattern":"X","legs":"F"},"action":"avoid","summary":"bad-avoid","bonus":0.11999999999999998},{"rt":4100,"stimulus":"\n                    <p><b>Action: <em>avoid</em></b></p>\n                    <p>This is the bee that you just saw.</p>\n                    <img src=\"bees-with-color/bee-A1DM.svg\" width=\"200\">\n                    <p><span class=\"redText\">Bad choice,</span> the bee was friendly.<br>Your bonus pay is unchanged, and remains at $0.54.</p>\n            ","response":0,"trial_type":"html-button-response","trial_index":12,"time_elapsed":99311,"internal_node_id":"0.0-4.0-1.0","subject_id":"600edc6aacc6285957bd1cd6","study_id":"6197b3f67c2b5cd3b6d9596a","session_id":"6197b9e6649d77c5436b4295","condition":"full-information","relevant_dimensions":["antennae","legs"],"bee_group":{"antennae":"B","wings":"X","pattern":"X","legs":"F"},"bonus":0.11999999999999998},{"rt":3262.0999999046326,"stimulus":"bees-with-color/bee-A2DM.svg","response":1,"trial_type":"image-button-response","trial_index":13,"time_elapsed":102576,"internal_node_id":"0.0-4.0-0.1","subject_id":"600edc6aacc6285957bd1cd6","study_id":"6197b3f67c2b5cd3b6d9596a","session_id":"6197b9e6649d77c5436b4295","condition":"full-information","relevant_dimensions":["antennae","legs"],"bee_group":{"antennae":"B","wings":"X","pattern":"X","legs":"F"},"action":"avoid","summary":"bad-avoid","bonus":0.11999999999999998},{"rt":1292.9000000953674,"stimulus":"\n                    <p><b>Action: <em>avoid</em></b></p>\n                    <p>This is the bee that you just saw.</p>\n                    <img src=\"bees-with-color/bee-A2DM.svg\" width=\"200\">\n                    <p><span class=\"redText\">Bad choice,</span> the bee was friendly.<br>Your bonus pay is unchanged, and remains at $0.54.</p>\n            ","response":0,"trial_type":"html-button-response","trial_index":14,"time_elapsed":103870,"internal_node_id":"0.0-4.0-1.1","subject_id":"600edc6aacc6285957bd1cd6","study_id":"6197b3f67c2b5cd3b6d9596a","session_id":"6197b9e6649d77c5436b4295","condition":"full-information","relevant_dimensions":["antennae","legs"],"bee_group":{"antennae":"B","wings":"X","pattern":"X","legs":"F"},"bonus":0.11999999999999998},{"rt":2767.100000143051,"stimulus":"bees-with-color/bee-A1SF.svg","response":0,"trial_type":"image-button-response","trial_index":15,"time_elapsed":106640,"internal_node_id":"0.0-4.0-0.2","subject_id":"600edc6aacc6285957bd1cd6","study_id":"6197b3f67c2b5cd3b6d9596a","session_id":"6197b9e6649d77c5436b4295","condition":"full-information","relevant_dimensions":["antennae","legs"],"bee_group":{"antennae":"B","wings":"X","pattern":"X","legs":"F"},"action":"harvest","summary":"good-harvest","bonus":0.11999999999999998},{"rt":1781.5999999046326,"stimulus":"\n                    <p><b>Action: <em>harvest</em></b></p>\n                    <p>This is the bee that you just saw.</p>\n                    <img src=\"bees-with-color/bee-A1SF.svg\" width=\"200\">\n                    <p><span class=\"greenText\"><b>Successful harvest!</b></span><br>Your pay has increased by $0.02. Your bonus pay is now $0.56.</p>\n            ","response":0,"trial_type":"html-button-response","trial_index":16,"time_elapsed":108423,"internal_node_id":"0.0-4.0-1.2","subject_id":"600edc6aacc6285957bd1cd6","study_id":"6197b3f67c2b5cd3b6d9596a","session_id":"6197b9e6649d77c5436b4295","condition":"full-information","relevant_dimensions":["antennae","legs"],"bee_group":{"antennae":"B","wings":"X","pattern":"X","legs":"F"},"bonus":0.11999999999999998},{"rt":4889.5,"stimulus":"bees-with-color/bee-B2DF.svg","response":0,"trial_type":"image-button-response","trial_index":17,"time_elapsed":113314,"internal_node_id":"0.0-4.0-0.3","subject_id":"600edc6aacc6285957bd1cd6","study_id":"6197b3f67c2b5cd3b6d9596a","session_id":"6197b9e6649d77c5436b4295","condition":"full-information","relevant_dimensions":["antennae","legs"],"bee_group":{"antennae":"B","wings":"X","pattern":"X","legs":"F"},"action":"harvest","summary":"bad-harvest","bonus":0.11999999999999998},{"rt":1054.2000000476837,"stimulus":"\n                    <p><b>Action: <em>harvest</em></b></p>\n                    <p>This is the bee that you just saw.</p>\n                    <img src=\"bees-with-color/bee-B2DF.svg\" width=\"200\">\n                    <p><span class=\"redText\">Bad choice, the bee was angry.</span><br><b>You have been stung!</b><br>Your pay has been decreased by $0.10. Your bonus pay is now $0.46.</p>\n            ","response":0,"trial_type":"html-button-response","trial_index":18,"time_elapsed":114369,"internal_node_id":"0.0-4.0-1.3","subject_id":"600edc6aacc6285957bd1cd6","study_id":"6197b3f67c2b5cd3b6d9596a","session_id":"6197b9e6649d77c5436b4295","condition":"full-information","relevant_dimensions":["antennae","legs"],"bee_group":{"antennae":"B","wings":"X","pattern":"X","legs":"F"},"bonus":0.11999999999999998},{"rt":2395.699999809265,"stimulus":"bees-with-color/bee-A2DF.svg","response":1,"trial_type":"image-button-response","trial_index":19,"time_elapsed":116767,"internal_node_id":"0.0-4.0-0.4","subject_id":"600edc6aacc6285957bd1cd6","study_id":"6197b3f67c2b5cd3b6d9596a","session_id":"6197b9e6649d77c5436b4295","condition":"full-information","relevant_dimensions":["antennae","legs"],"bee_group":{"antennae":"B","wings":"X","pattern":"X","legs":"F"},"action":"avoid","summary":"bad-avoid","bonus":0.11999999999999998},{"rt":1175.7000000476837,"stimulus":"\n                    <p><b>Action: <em>avoid</em></b></p>\n                    <p>This is the bee that you just saw.</p>\n                    <img src=\"bees-with-color/bee-A2DF.svg\" width=\"200\">\n                    <p><span class=\"redText\">Bad choice,</span> the bee was friendly.<br>Your bonus pay is unchanged, and remains at $0.46.</p>\n            ","response":0,"trial_type":"html-button-response","trial_index":20,"time_elapsed":117944,"internal_node_id":"0.0-4.0-1.4","subject_id":"600edc6aacc6285957bd1cd6","study_id":"6197b3f67c2b5cd3b6d9596a","session_id":"6197b9e6649d77c5436b4295","condition":"full-information","relevant_dimensions":["antennae","legs"],"bee_group":{"antennae":"B","wings":"X","pattern":"X","legs":"F"},"bonus":0.11999999999999998},{"rt":6740.5,"stimulus":"bees-with-color/bee-A1DF.svg","response":0,"trial_type":"image-button-response","trial_index":21,"time_elapsed":124686,"internal_node_id":"0.0-4.0-0.5","subject_id":"600edc6aacc6285957bd1cd6","study_id":"6197b3f67c2b5cd3b6d9596a","session_id":"6197b9e6649d77c5436b4295","condition":"full-information","relevant_dimensions":["antennae","legs"],"bee_group":{"antennae":"B","wings":"X","pattern":"X","legs":"F"},"action":"harvest","summary":"good-harvest","bonus":0.11999999999999998},{"rt":1443,"stimulus":"\n                    <p><b>Action: <em>harvest</em></b></p>\n                    <p>This is the bee that you just saw.</p>\n                    <img src=\"bees-with-color/bee-A1DF.svg\" width=\"200\">\n                    <p><span class=\"greenText\"><b>Successful harvest!</b></span><br>Your pay has increased by $0.02. Your bonus pay is now $0.48.</p>\n            ","response":0,"trial_type":"html-button-response","trial_index":22,"time_elapsed":126131,"internal_node_id":"0.0-4.0-1.5","subject_id":"600edc6aacc6285957bd1cd6","study_id":"6197b3f67c2b5cd3b6d9596a","session_id":"6197b9e6649d77c5436b4295","condition":"full-information","relevant_dimensions":["antennae","legs"],"bee_group":{"antennae":"B","wings":"X","pattern":"X","legs":"F"},"bonus":0.11999999999999998},{"rt":1520.2999999523163,"stimulus":"bees-with-color/bee-B1SF.svg","response":0,"trial_type":"image-button-response","trial_index":23,"time_elapsed":127653,"internal_node_id":"0.0-4.0-0.6","subject_id":"600edc6aacc6285957bd1cd6","study_id":"6197b3f67c2b5cd3b6d9596a","session_id":"6197b9e6649d77c5436b4295","condition":"full-information","relevant_dimensions":["antennae","legs"],"bee_group":{"antennae":"B","wings":"X","pattern":"X","legs":"F"},"action":"harvest","summary":"bad-harvest","bonus":0.11999999999999998},{"rt":1281.2999999523163,"stimulus":"\n                    <p><b>Action: <em>harvest</em></b></p>\n                    <p>This is the bee that you just saw.</p>\n                    <img src=\"bees-with-color/bee-B1SF.svg\" width=\"200\">\n                    <p><span class=\"redText\">Bad choice, the bee was angry.</span><br><b>You have been stung!</b><br>Your pay has been decreased by $0.10. Your bonus pay is now $0.38.</p>\n            ","response":0,"trial_type":"html-button-response","trial_index":24,"time_elapsed":128936,"internal_node_id":"0.0-4.0-1.6","subject_id":"600edc6aacc6285957bd1cd6","study_id":"6197b3f67c2b5cd3b6d9596a","session_id":"6197b9e6649d77c5436b4295","condition":"full-information","relevant_dimensions":["antennae","legs"],"bee_group":{"antennae":"B","wings":"X","pattern":"X","legs":"F"},"bonus":0.11999999999999998},{"rt":1670.7000000476837,"stimulus":"bees-with-color/bee-B2DM.svg","response":1,"trial_type":"image-button-response","trial_index":25,"time_elapsed":130609,"internal_node_id":"0.0-4.0-0.7","subject_id":"600edc6aacc6285957bd1cd6","study_id":"6197b3f67c2b5cd3b6d9596a","session_id":"6197b9e6649d77c5436b4295","condition":"full-information","relevant_dimensions":["antennae","legs"],"bee_group":{"antennae":"B","wings":"X","pattern":"X","legs":"F"},"action":"avoid","summary":"bad-avoid","bonus":0.11999999999999998},{"rt":1594.2999999523163,"stimulus":"\n                    <p><b>Action: <em>avoid</em></b></p>\n                    <p>This is the bee that you just saw.</p>\n                    <img src=\"bees-with-color/bee-B2DM.svg\" width=\"200\">\n                    <p><span class=\"redText\">Bad choice,</span> the bee was friendly.<br>Your bonus pay is unchanged, and remains at $0.38.</p>\n            ","response":0,"trial_type":"html-button-response","trial_index":26,"time_elapsed":132204,"internal_node_id":"0.0-4.0-1.7","subject_id":"600edc6aacc6285957bd1cd6","study_id":"6197b3f67c2b5cd3b6d9596a","session_id":"6197b9e6649d77c5436b4295","condition":"full-information","relevant_dimensions":["antennae","legs"],"bee_group":{"antennae":"B","wings":"X","pattern":"X","legs":"F"},"bonus":0.11999999999999998},{"rt":6795.200000047684,"stimulus":"bees-with-color/bee-B1DM.svg","response":1,"trial_type":"image-button-response","trial_index":27,"time_elapsed":139001,"internal_node_id":"0.0-4.0-0.8","subject_id":"600edc6aacc6285957bd1cd6","study_id":"6197b3f67c2b5cd3b6d9596a","session_id":"6197b9e6649d77c5436b4295","condition":"full-information","relevant_dimensions":["antennae","legs"],"bee_group":{"antennae":"B","wings":"X","pattern":"X","legs":"F"},"action":"avoid","summary":"bad-avoid","bonus":0.11999999999999998},{"rt":1748.1000001430511,"stimulus":"\n                    <p><b>Action: <em>avoid</em></b></p>\n                    <p>This is the bee that you just saw.</p>\n                    <img src=\"bees-with-color/bee-B1DM.svg\" width=\"200\">\n                    <p><span class=\"redText\">Bad choice,</span> the bee was friendly.<br>Your bonus pay is unchanged, and remains at $0.38.</p>\n            ","response":0,"trial_type":"html-button-response","trial_index":28,"time_elapsed":140751,"internal_node_id":"0.0-4.0-1.8","subject_id":"600edc6aacc6285957bd1cd6","study_id":"6197b3f67c2b5cd3b6d9596a","session_id":"6197b9e6649d77c5436b4295","condition":"full-information","relevant_dimensions":["antennae","legs"],"bee_group":{"antennae":"B","wings":"X","pattern":"X","legs":"F"},"bonus":0.11999999999999998},{"rt":3365.7000000476837,"stimulus":"bees-with-color/bee-B1SM.svg","response":1,"trial_type":"image-button-response","trial_index":29,"time_elapsed":144119,"internal_node_id":"0.0-4.0-0.9","subject_id":"600edc6aacc6285957bd1cd6","study_id":"6197b3f67c2b5cd3b6d9596a","session_id":"6197b9e6649d77c5436b4295","condition":"full-information","relevant_dimensions":["antennae","legs"],"bee_group":{"antennae":"B","wings":"X","pattern":"X","legs":"F"},"action":"avoid","summary":"bad-avoid","bonus":0.11999999999999998},{"rt":1067.4000000953674,"stimulus":"\n                    <p><b>Action: <em>avoid</em></b></p>\n                    <p>This is the bee that you just saw.</p>\n                    <img src=\"bees-with-color/bee-B1SM.svg\" width=\"200\">\n                    <p><span class=\"redText\">Bad choice,</span> the bee was friendly.<br>Your bonus pay is unchanged, and remains at $0.38.</p>\n            ","response":0,"trial_type":"html-button-response","trial_index":30,"time_elapsed":145187,"internal_node_id":"0.0-4.0-1.9","subject_id":"600edc6aacc6285957bd1cd6","study_id":"6197b3f67c2b5cd3b6d9596a","session_id":"6197b9e6649d77c5436b4295","condition":"full-information","relevant_dimensions":["antennae","legs"],"bee_group":{"antennae":"B","wings":"X","pattern":"X","legs":"F"},"bonus":0.11999999999999998},{"rt":2302,"stimulus":"bees-with-color/bee-A2SF.svg","response":0,"trial_type":"image-button-response","trial_index":31,"time_elapsed":147491,"internal_node_id":"0.0-4.0-0.10","subject_id":"600edc6aacc6285957bd1cd6","study_id":"6197b3f67c2b5cd3b6d9596a","session_id":"6197b9e6649d77c5436b4295","condition":"full-information","relevant_dimensions":["antennae","legs"],"bee_group":{"antennae":"B","wings":"X","pattern":"X","legs":"F"},"action":"harvest","summary":"good-harvest","bonus":0.11999999999999998},{"rt":1982.2999999523163,"stimulus":"\n                    <p><b>Action: <em>harvest</em></b></p>\n                    <p>This is the bee that you just saw.</p>\n                    <img src=\"bees-with-color/bee-A2SF.svg\" width=\"200\">\n                    <p><span class=\"greenText\"><b>Successful harvest!</b></span><br>Your pay has increased by $0.02. Your bonus pay is now $0.40.</p>\n            ","response":0,"trial_type":"html-button-response","trial_index":32,"time_elapsed":149475,"internal_node_id":"0.0-4.0-1.10","subject_id":"600edc6aacc6285957bd1cd6","study_id":"6197b3f67c2b5cd3b6d9596a","session_id":"6197b9e6649d77c5436b4295","condition":"full-information","relevant_dimensions":["antennae","legs"],"bee_group":{"antennae":"B","wings":"X","pattern":"X","legs":"F"},"bonus":0.11999999999999998},{"rt":4973.100000143051,"stimulus":"bees-with-color/bee-B1DF.svg","response":1,"trial_type":"image-button-response","trial_index":33,"time_elapsed":154449,"internal_node_id":"0.0-4.0-0.11","subject_id":"600edc6aacc6285957bd1cd6","study_id":"6197b3f67c2b5cd3b6d9596a","session_id":"6197b9e6649d77c5436b4295","condition":"full-information","relevant_dimensions":["antennae","legs"],"bee_group":{"antennae":"B","wings":"X","pattern":"X","legs":"F"},"action":"avoid","summary":"good-avoid","bonus":0.11999999999999998},{"rt":1380.7999999523163,"stimulus":"\n                    <p><b>Action: <em>avoid</em></b></p>\n                    <p>This is the bee that you just saw.</p>\n                    <img src=\"bees-with-color/bee-B1DF.svg\" width=\"200\">\n                    <p><span class=\"greenText\">Good choice!</span>  This bee would have stung you.<br>Your bonus pay is unchanged, and remains at $0.40.</p>\n            ","response":0,"trial_type":"html-button-response","trial_index":34,"time_elapsed":155831,"internal_node_id":"0.0-4.0-1.11","subject_id":"600edc6aacc6285957bd1cd6","study_id":"6197b3f67c2b5cd3b6d9596a","session_id":"6197b9e6649d77c5436b4295","condition":"full-information","relevant_dimensions":["antennae","legs"],"bee_group":{"antennae":"B","wings":"X","pattern":"X","legs":"F"},"bonus":0.11999999999999998},{"rt":1466.7000000476837,"stimulus":"bees-with-color/bee-B2SM.svg","response":0,"trial_type":"image-button-response","trial_index":35,"time_elapsed":157300,"internal_node_id":"0.0-4.0-0.12","subject_id":"600edc6aacc6285957bd1cd6","study_id":"6197b3f67c2b5cd3b6d9596a","session_id":"6197b9e6649d77c5436b4295","condition":"full-information","relevant_dimensions":["antennae","legs"],"bee_group":{"antennae":"B","wings":"X","pattern":"X","legs":"F"},"action":"harvest","summary":"good-harvest","bonus":0.11999999999999998},{"rt":1286.5999999046326,"stimulus":"\n                    <p><b>Action: <em>harvest</em></b></p>\n                    <p>This is the bee that you just saw.</p>\n                    <img src=\"bees-with-color/bee-B2SM.svg\" width=\"200\">\n                    <p><span class=\"greenText\"><b>Successful harvest!</b></span><br>Your pay has increased by $0.02. Your bonus pay is now $0.42.</p>\n            ","response":0,"trial_type":"html-button-response","trial_index":36,"time_elapsed":158587,"internal_node_id":"0.0-4.0-1.12","subject_id":"600edc6aacc6285957bd1cd6","study_id":"6197b3f67c2b5cd3b6d9596a","session_id":"6197b9e6649d77c5436b4295","condition":"full-information","relevant_dimensions":["antennae","legs"],"bee_group":{"antennae":"B","wings":"X","pattern":"X","legs":"F"},"bonus":0.11999999999999998},{"rt":2598.0999999046326,"stimulus":"bees-with-color/bee-A1SM.svg","response":1,"trial_type":"image-button-response","trial_index":37,"time_elapsed":161187,"internal_node_id":"0.0-4.0-0.13","subject_id":"600edc6aacc6285957bd1cd6","study_id":"6197b3f67c2b5cd3b6d9596a","session_id":"6197b9e6649d77c5436b4295","condition":"full-information","relevant_dimensions":["antennae","legs"],"bee_group":{"antennae":"B","wings":"X","pattern":"X","legs":"F"},"action":"avoid","summary":"bad-avoid","bonus":0.11999999999999998},{"rt":1450.7999999523163,"stimulus":"\n                    <p><b>Action: <em>avoid</em></b></p>\n                    <p>This is the bee that you just saw.</p>\n                    <img src=\"bees-with-color/bee-A1SM.svg\" width=\"200\">\n                    <p><span class=\"redText\">Bad choice,</span> the bee was friendly.<br>Your bonus pay is unchanged, and remains at $0.42.</p>\n            ","response":0,"trial_type":"html-button-response","trial_index":38,"time_elapsed":162639,"internal_node_id":"0.0-4.0-1.13","subject_id":"600edc6aacc6285957bd1cd6","study_id":"6197b3f67c2b5cd3b6d9596a","session_id":"6197b9e6649d77c5436b4295","condition":"full-information","relevant_dimensions":["antennae","legs"],"bee_group":{"antennae":"B","wings":"X","pattern":"X","legs":"F"},"bonus":0.11999999999999998},{"rt":1579.4000000953674,"stimulus":"bees-with-color/bee-B2SF.svg","response":0,"trial_type":"image-button-response","trial_index":39,"time_elapsed":164220,"internal_node_id":"0.0-4.0-0.14","subject_id":"600edc6aacc6285957bd1cd6","study_id":"6197b3f67c2b5cd3b6d9596a","session_id":"6197b9e6649d77c5436b4295","condition":"full-information","relevant_dimensions":["antennae","legs"],"bee_group":{"antennae":"B","wings":"X","pattern":"X","legs":"F"},"action":"harvest","summary":"bad-harvest","bonus":0.11999999999999998},{"rt":1333.9000000953674,"stimulus":"\n                    <p><b>Action: <em>harvest</em></b></p>\n                    <p>This is the bee that you just saw.</p>\n                    <img src=\"bees-with-color/bee-B2SF.svg\" width=\"200\">\n                    <p><span class=\"redText\">Bad choice, the bee was angry.</span><br><b>You have been stung!</b><br>Your pay has been decreased by $0.10. Your bonus pay is now $0.32.</p>\n            ","response":0,"trial_type":"html-button-response","trial_index":40,"time_elapsed":165555,"internal_node_id":"0.0-4.0-1.14","subject_id":"600edc6aacc6285957bd1cd6","study_id":"6197b3f67c2b5cd3b6d9596a","session_id":"6197b9e6649d77c5436b4295","condition":"full-information","relevant_dimensions":["antennae","legs"],"bee_group":{"antennae":"B","wings":"X","pattern":"X","legs":"F"},"bonus":0.11999999999999998},{"rt":2038.2000000476837,"stimulus":"bees-with-color/bee-A2SM.svg","response":0,"trial_type":"image-button-response","trial_index":41,"time_elapsed":167595,"internal_node_id":"0.0-4.0-0.15","subject_id":"600edc6aacc6285957bd1cd6","study_id":"6197b3f67c2b5cd3b6d9596a","session_id":"6197b9e6649d77c5436b4295","condition":"full-information","relevant_dimensions":["antennae","legs"],"bee_group":{"antennae":"B","wings":"X","pattern":"X","legs":"F"},"action":"harvest","summary":"good-harvest","bonus":0.11999999999999998},{"rt":1020.5999999046326,"stimulus":"\n                    <p><b>Action: <em>harvest</em></b></p>\n                    <p>This is the bee that you just saw.</p>\n                    <img src=\"bees-with-color/bee-A2SM.svg\" width=\"200\">\n                    <p><span class=\"greenText\"><b>Successful harvest!</b></span><br>Your pay has increased by $0.02. Your bonus pay is now $0.34.</p>\n            ","response":0,"trial_type":"html-button-response","trial_index":42,"time_elapsed":168617,"internal_node_id":"0.0-4.0-1.15","subject_id":"600edc6aacc6285957bd1cd6","study_id":"6197b3f67c2b5cd3b6d9596a","session_id":"6197b9e6649d77c5436b4295","condition":"full-information","relevant_dimensions":["antennae","legs"],"bee_group":{"antennae":"B","wings":"X","pattern":"X","legs":"F"},"bonus":0.11999999999999998},{"rt":2629.100000143051,"stimulus":"bees-with-color/bee-A1SM.svg","response":0,"trial_type":"image-button-response","trial_index":43,"time_elapsed":171248,"internal_node_id":"0.0-4.0-0.16","subject_id":"600edc6aacc6285957bd1cd6","study_id":"6197b3f67c2b5cd3b6d9596a","session_id":"6197b9e6649d77c5436b4295","condition":"full-information","relevant_dimensions":["antennae","legs"],"bee_group":{"antennae":"B","wings":"X","pattern":"X","legs":"F"},"action":"harvest","summary":"good-harvest","bonus":0.11999999999999998},{"rt":1031.6000001430511,"stimulus":"\n                    <p><b>Action: <em>harvest</em></b></p>\n                    <p>This is the bee that you just saw.</p>\n                    <img src=\"bees-with-color/bee-A1SM.svg\" width=\"200\">\n                    <p><span class=\"greenText\"><b>Successful harvest!</b></span><br>Your pay has increased by $0.02. Your bonus pay is now $0.36.</p>\n            ","response":0,"trial_type":"html-button-response","trial_index":44,"time_elapsed":172281,"internal_node_id":"0.0-4.0-1.16","subject_id":"600edc6aacc6285957bd1cd6","study_id":"6197b3f67c2b5cd3b6d9596a","session_id":"6197b9e6649d77c5436b4295","condition":"full-information","relevant_dimensions":["antennae","legs"],"bee_group":{"antennae":"B","wings":"X","pattern":"X","legs":"F"},"bonus":0.11999999999999998},{"rt":2346.5999999046326,"stimulus":"bees-with-color/bee-A2DM.svg","response":0,"trial_type":"image-button-response","trial_index":45,"time_elapsed":174629,"internal_node_id":"0.0-4.0-0.17","subject_id":"600edc6aacc6285957bd1cd6","study_id":"6197b3f67c2b5cd3b6d9596a","session_id":"6197b9e6649d77c5436b4295","condition":"full-information","relevant_dimensions":["antennae","legs"],"bee_group":{"antennae":"B","wings":"X","pattern":"X","legs":"F"},"action":"harvest","summary":"good-harvest","bonus":0.11999999999999998},{"rt":1161.7000000476837,"stimulus":"\n                    <p><b>Action: <em>harvest</em></b></p>\n                    <p>This is the bee that you just saw.</p>\n                    <img src=\"bees-with-color/bee-A2DM.svg\" width=\"200\">\n                    <p><span class=\"greenText\"><b>Successful harvest!</b></span><br>Your pay has increased by $0.02. Your bonus pay is now $0.38.</p>\n            ","response":0,"trial_type":"html-button-response","trial_index":46,"time_elapsed":175792,"internal_node_id":"0.0-4.0-1.17","subject_id":"600edc6aacc6285957bd1cd6","study_id":"6197b3f67c2b5cd3b6d9596a","session_id":"6197b9e6649d77c5436b4295","condition":"full-information","relevant_dimensions":["antennae","legs"],"bee_group":{"antennae":"B","wings":"X","pattern":"X","legs":"F"},"bonus":0.11999999999999998},{"rt":1689.1999998092651,"stimulus":"bees-with-color/bee-A1DM.svg","response":0,"trial_type":"image-button-response","trial_index":47,"time_elapsed":177483,"internal_node_id":"0.0-4.0-0.18","subject_id":"600edc6aacc6285957bd1cd6","study_id":"6197b3f67c2b5cd3b6d9596a","session_id":"6197b9e6649d77c5436b4295","condition":"full-information","relevant_dimensions":["antennae","legs"],"bee_group":{"antennae":"B","wings":"X","pattern":"X","legs":"F"},"action":"harvest","summary":"good-harvest","bonus":0.11999999999999998},{"rt":954.4000000953674,"stimulus":"\n                    <p><b>Action: <em>harvest</em></b></p>\n                    <p>This is the bee that you just saw.</p>\n                    <img src=\"bees-with-color/bee-A1DM.svg\" width=\"200\">\n                    <p><span class=\"greenText\"><b>Successful harvest!</b></span><br>Your pay has increased by $0.02. Your bonus pay is now $0.40.</p>\n            ","response":0,"trial_type":"html-button-response","trial_index":48,"time_elapsed":178439,"internal_node_id":"0.0-4.0-1.18","subject_id":"600edc6aacc6285957bd1cd6","study_id":"6197b3f67c2b5cd3b6d9596a","session_id":"6197b9e6649d77c5436b4295","condition":"full-information","relevant_dimensions":["antennae","legs"],"bee_group":{"antennae":"B","wings":"X","pattern":"X","legs":"F"},"bonus":0.11999999999999998},{"rt":1624.5999999046326,"stimulus":"bees-with-color/bee-B2SM.svg","response":0,"trial_type":"image-button-response","trial_index":49,"time_elapsed":180065,"internal_node_id":"0.0-4.0-0.19","subject_id":"600edc6aacc6285957bd1cd6","study_id":"6197b3f67c2b5cd3b6d9596a","session_id":"6197b9e6649d77c5436b4295","condition":"full-information","relevant_dimensions":["antennae","legs"],"bee_group":{"antennae":"B","wings":"X","pattern":"X","legs":"F"},"action":"harvest","summary":"good-harvest","bonus":0.11999999999999998},{"rt":957.2999999523163,"stimulus":"\n                    <p><b>Action: <em>harvest</em></b></p>\n                    <p>This is the bee that you just saw.</p>\n                    <img src=\"bees-with-color/bee-B2SM.svg\" width=\"200\">\n                    <p><span class=\"greenText\"><b>Successful harvest!</b></span><br>Your pay has increased by $0.02. Your bonus pay is now $0.42.</p>\n            ","response":0,"trial_type":"html-button-response","trial_index":50,"time_elapsed":181024,"internal_node_id":"0.0-4.0-1.19","subject_id":"600edc6aacc6285957bd1cd6","study_id":"6197b3f67c2b5cd3b6d9596a","session_id":"6197b9e6649d77c5436b4295","condition":"full-information","relevant_dimensions":["antennae","legs"],"bee_group":{"antennae":"B","wings":"X","pattern":"X","legs":"F"},"bonus":0.11999999999999998},{"rt":1285.4000000953674,"stimulus":"bees-with-color/bee-B2SF.svg","response":0,"trial_type":"image-button-response","trial_index":51,"time_elapsed":182310,"internal_node_id":"0.0-4.0-0.20","subject_id":"600edc6aacc6285957bd1cd6","study_id":"6197b3f67c2b5cd3b6d9596a","session_id":"6197b9e6649d77c5436b4295","condition":"full-information","relevant_dimensions":["antennae","legs"],"bee_group":{"antennae":"B","wings":"X","pattern":"X","legs":"F"},"action":"harvest","summary":"bad-harvest","bonus":0.11999999999999998},{"rt":956.2999999523163,"stimulus":"\n                    <p><b>Action: <em>harvest</em></b></p>\n                    <p>This is the bee that you just saw.</p>\n                    <img src=\"bees-with-color/bee-B2SF.svg\" width=\"200\">\n                    <p><span class=\"redText\">Bad choice, the bee was angry.</span><br><b>You have been stung!</b><br>Your pay has been decreased by $0.10. Your bonus pay is now $0.32.</p>\n            ","response":0,"trial_type":"html-button-response","trial_index":52,"time_elapsed":183268,"internal_node_id":"0.0-4.0-1.20","subject_id":"600edc6aacc6285957bd1cd6","study_id":"6197b3f67c2b5cd3b6d9596a","session_id":"6197b9e6649d77c5436b4295","condition":"full-information","relevant_dimensions":["antennae","legs"],"bee_group":{"antennae":"B","wings":"X","pattern":"X","legs":"F"},"bonus":0.11999999999999998},{"rt":1409,"stimulus":"bees-with-color/bee-A2DF.svg","response":0,"trial_type":"image-button-response","trial_index":53,"time_elapsed":184678,"internal_node_id":"0.0-4.0-0.21","subject_id":"600edc6aacc6285957bd1cd6","study_id":"6197b3f67c2b5cd3b6d9596a","session_id":"6197b9e6649d77c5436b4295","condition":"full-information","relevant_dimensions":["antennae","legs"],"bee_group":{"antennae":"B","wings":"X","pattern":"X","legs":"F"},"action":"harvest","summary":"good-harvest","bonus":0.11999999999999998},{"rt":1333,"stimulus":"\n                    <p><b>Action: <em>harvest</em></b></p>\n                    <p>This is the bee that you just saw.</p>\n                    <img src=\"bees-with-color/bee-A2DF.svg\" width=\"200\">\n                    <p><span class=\"greenText\"><b>Successful harvest!</b></span><br>Your pay has increased by $0.02. Your bonus pay is now $0.34.</p>\n            ","response":0,"trial_type":"html-button-response","trial_index":54,"time_elapsed":186013,"internal_node_id":"0.0-4.0-1.21","subject_id":"600edc6aacc6285957bd1cd6","study_id":"6197b3f67c2b5cd3b6d9596a","session_id":"6197b9e6649d77c5436b4295","condition":"full-information","relevant_dimensions":["antennae","legs"],"bee_group":{"antennae":"B","wings":"X","pattern":"X","legs":"F"},"bonus":0.11999999999999998},{"rt":1159.7000000476837,"stimulus":"bees-with-color/bee-B2DM.svg","response":0,"trial_type":"image-button-response","trial_index":55,"time_elapsed":187174,"internal_node_id":"0.0-4.0-0.22","subject_id":"600edc6aacc6285957bd1cd6","study_id":"6197b3f67c2b5cd3b6d9596a","session_id":"6197b9e6649d77c5436b4295","condition":"full-information","relevant_dimensions":["antennae","legs"],"bee_group":{"antennae":"B","wings":"X","pattern":"X","legs":"F"},"action":"harvest","summary":"good-harvest","bonus":0.11999999999999998},{"rt":942.5,"stimulus":"\n                    <p><b>Action: <em>harvest</em></b></p>\n                    <p>This is the bee that you just saw.</p>\n                    <img src=\"bees-with-color/bee-B2DM.svg\" width=\"200\">\n                    <p><span class=\"greenText\"><b>Successful harvest!</b></span><br>Your pay has increased by $0.02. Your bonus pay is now $0.36.</p>\n            ","response":0,"trial_type":"html-button-response","trial_index":56,"time_elapsed":188118,"internal_node_id":"0.0-4.0-1.22","subject_id":"600edc6aacc6285957bd1cd6","study_id":"6197b3f67c2b5cd3b6d9596a","session_id":"6197b9e6649d77c5436b4295","condition":"full-information","relevant_dimensions":["antennae","legs"],"bee_group":{"antennae":"B","wings":"X","pattern":"X","legs":"F"},"bonus":0.11999999999999998},{"rt":1795,"stimulus":"bees-with-color/bee-B1DF.svg","response":0,"trial_type":"image-button-response","trial_index":57,"time_elapsed":189915,"internal_node_id":"0.0-4.0-0.23","subject_id":"600edc6aacc6285957bd1cd6","study_id":"6197b3f67c2b5cd3b6d9596a","session_id":"6197b9e6649d77c5436b4295","condition":"full-information","relevant_dimensions":["antennae","legs"],"bee_group":{"antennae":"B","wings":"X","pattern":"X","legs":"F"},"action":"harvest","summary":"bad-harvest","bonus":0.11999999999999998},{"rt":865.5,"stimulus":"\n                    <p><b>Action: <em>harvest</em></b></p>\n                    <p>This is the bee that you just saw.</p>\n                    <img src=\"bees-with-color/bee-B1DF.svg\" width=\"200\">\n                    <p><span class=\"redText\">Bad choice, the bee was angry.</span><br><b>You have been stung!</b><br>Your pay has been decreased by $0.10. Your bonus pay is now $0.26.</p>\n            ","response":0,"trial_type":"html-button-response","trial_index":58,"time_elapsed":190782,"internal_node_id":"0.0-4.0-1.23","subject_id":"600edc6aacc6285957bd1cd6","study_id":"6197b3f67c2b5cd3b6d9596a","session_id":"6197b9e6649d77c5436b4295","condition":"full-information","relevant_dimensions":["antennae","legs"],"bee_group":{"antennae":"B","wings":"X","pattern":"X","legs":"F"},"bonus":0.11999999999999998},{"rt":1080.8000001907349,"stimulus":"bees-with-color/bee-A2SM.svg","response":0,"trial_type":"image-button-response","trial_index":59,"time_elapsed":191864,"internal_node_id":"0.0-4.0-0.24","subject_id":"600edc6aacc6285957bd1cd6","study_id":"6197b3f67c2b5cd3b6d9596a","session_id":"6197b9e6649d77c5436b4295","condition":"full-information","relevant_dimensions":["antennae","legs"],"bee_group":{"antennae":"B","wings":"X","pattern":"X","legs":"F"},"action":"harvest","summary":"good-harvest","bonus":0.11999999999999998},{"rt":878,"stimulus":"\n                    <p><b>Action: <em>harvest</em></b></p>\n                    <p>This is the bee that you just saw.</p>\n                    <img src=\"bees-with-color/bee-A2SM.svg\" width=\"200\">\n                    <p><span class=\"greenText\"><b>Successful harvest!</b></span><br>Your pay has increased by $0.02. Your bonus pay is now $0.28.</p>\n            ","response":0,"trial_type":"html-button-response","trial_index":60,"time_elapsed":192743,"internal_node_id":"0.0-4.0-1.24","subject_id":"600edc6aacc6285957bd1cd6","study_id":"6197b3f67c2b5cd3b6d9596a","session_id":"6197b9e6649d77c5436b4295","condition":"full-information","relevant_dimensions":["antennae","legs"],"bee_group":{"antennae":"B","wings":"X","pattern":"X","legs":"F"},"bonus":0.11999999999999998},{"rt":1903.2999999523163,"stimulus":"bees-with-color/bee-B1SF.svg","response":0,"trial_type":"image-button-response","trial_index":61,"time_elapsed":194648,"internal_node_id":"0.0-4.0-0.25","subject_id":"600edc6aacc6285957bd1cd6","study_id":"6197b3f67c2b5cd3b6d9596a","session_id":"6197b9e6649d77c5436b4295","condition":"full-information","relevant_dimensions":["antennae","legs"],"bee_group":{"antennae":"B","wings":"X","pattern":"X","legs":"F"},"action":"harvest","summary":"bad-harvest","bonus":0.11999999999999998},{"rt":816.5,"stimulus":"\n                    <p><b>Action: <em>harvest</em></b></p>\n                    <p>This is the bee that you just saw.</p>\n                    <img src=\"bees-with-color/bee-B1SF.svg\" width=\"200\">\n                    <p><span class=\"redText\">Bad choice, the bee was angry.</span><br><b>You have been stung!</b><br>Your pay has been decreased by $0.10. Your bonus pay is now $0.18.</p>\n            ","response":0,"trial_type":"html-button-response","trial_index":62,"time_elapsed":195466,"internal_node_id":"0.0-4.0-1.25","subject_id":"600edc6aacc6285957bd1cd6","study_id":"6197b3f67c2b5cd3b6d9596a","session_id":"6197b9e6649d77c5436b4295","condition":"full-information","relevant_dimensions":["antennae","legs"],"bee_group":{"antennae":"B","wings":"X","pattern":"X","legs":"F"},"bonus":0.11999999999999998},{"rt":1403.0999999046326,"stimulus":"bees-with-color/bee-A1SF.svg","response":0,"trial_type":"image-button-response","trial_index":63,"time_elapsed":196870,"internal_node_id":"0.0-4.0-0.26","subject_id":"600edc6aacc6285957bd1cd6","study_id":"6197b3f67c2b5cd3b6d9596a","session_id":"6197b9e6649d77c5436b4295","condition":"full-information","relevant_dimensions":["antennae","legs"],"bee_group":{"antennae":"B","wings":"X","pattern":"X","legs":"F"},"action":"harvest","summary":"good-harvest","bonus":0.11999999999999998},{"rt":804.4000000953674,"stimulus":"\n                    <p><b>Action: <em>harvest</em></b></p>\n                    <p>This is the bee that you just saw.</p>\n                    <img src=\"bees-with-color/bee-A1SF.svg\" width=\"200\">\n                    <p><span class=\"greenText\"><b>Successful harvest!</b></span><br>Your pay has increased by $0.02. Your bonus pay is now $0.20.</p>\n            ","response":0,"trial_type":"html-button-response","trial_index":64,"time_elapsed":197676,"internal_node_id":"0.0-4.0-1.26","subject_id":"600edc6aacc6285957bd1cd6","study_id":"6197b3f67c2b5cd3b6d9596a","session_id":"6197b9e6649d77c5436b4295","condition":"full-information","relevant_dimensions":["antennae","legs"],"bee_group":{"antennae":"B","wings":"X","pattern":"X","legs":"F"},"bonus":0.11999999999999998},{"rt":1498.5999999046326,"stimulus":"bees-with-color/bee-B2DF.svg","response":0,"trial_type":"image-button-response","trial_index":65,"time_elapsed":199177,"internal_node_id":"0.0-4.0-0.27","subject_id":"600edc6aacc6285957bd1cd6","study_id":"6197b3f67c2b5cd3b6d9596a","session_id":"6197b9e6649d77c5436b4295","condition":"full-information","relevant_dimensions":["antennae","legs"],"bee_group":{"antennae":"B","wings":"X","pattern":"X","legs":"F"},"action":"harvest","summary":"bad-harvest","bonus":0.11999999999999998},{"rt":1416.6999998092651,"stimulus":"\n                    <p><b>Action: <em>harvest</em></b></p>\n                    <p>This is the bee that you just saw.</p>\n                    <img src=\"bees-with-color/bee-B2DF.svg\" width=\"200\">\n                    <p><span class=\"redText\">Bad choice, the bee was angry.</span><br><b>You have been stung!</b><br>Your pay has been decreased by $0.10. Your bonus pay is now $0.10.</p>\n            ","response":0,"trial_type":"html-button-response","trial_index":66,"time_elapsed":200595,"internal_node_id":"0.0-4.0-1.27","subject_id":"600edc6aacc6285957bd1cd6","study_id":"6197b3f67c2b5cd3b6d9596a","session_id":"6197b9e6649d77c5436b4295","condition":"full-information","relevant_dimensions":["antennae","legs"],"bee_group":{"antennae":"B","wings":"X","pattern":"X","legs":"F"},"bonus":0.11999999999999998},{"rt":1797.2999999523163,"stimulus":"bees-with-color/bee-B1SM.svg","response":1,"trial_type":"image-button-response","trial_index":67,"time_elapsed":202394,"internal_node_id":"0.0-4.0-0.28","subject_id":"600edc6aacc6285957bd1cd6","study_id":"6197b3f67c2b5cd3b6d9596a","session_id":"6197b9e6649d77c5436b4295","condition":"full-information","relevant_dimensions":["antennae","legs"],"bee_group":{"antennae":"B","wings":"X","pattern":"X","legs":"F"},"action":"avoid","summary":"bad-avoid","bonus":0.11999999999999998},{"rt":832.7999999523163,"stimulus":"\n                    <p><b>Action: <em>avoid</em></b></p>\n                    <p>This is the bee that you just saw.</p>\n                    <img src=\"bees-with-color/bee-B1SM.svg\" width=\"200\">\n                    <p><span class=\"redText\">Bad choice,</span> the bee was friendly.<br>Your bonus pay is unchanged, and remains at $0.10.</p>\n            ","response":0,"trial_type":"html-button-response","trial_index":68,"time_elapsed":203228,"internal_node_id":"0.0-4.0-1.28","subject_id":"600edc6aacc6285957bd1cd6","study_id":"6197b3f67c2b5cd3b6d9596a","session_id":"6197b9e6649d77c5436b4295","condition":"full-information","relevant_dimensions":["antennae","legs"],"bee_group":{"antennae":"B","wings":"X","pattern":"X","legs":"F"},"bonus":0.11999999999999998},{"rt":2569,"stimulus":"bees-with-color/bee-A1DF.svg","response":1,"trial_type":"image-button-response","trial_index":69,"time_elapsed":205798,"internal_node_id":"0.0-4.0-0.29","subject_id":"600edc6aacc6285957bd1cd6","study_id":"6197b3f67c2b5cd3b6d9596a","session_id":"6197b9e6649d77c5436b4295","condition":"full-information","relevant_dimensions":["antennae","legs"],"bee_group":{"antennae":"B","wings":"X","pattern":"X","legs":"F"},"action":"avoid","summary":"bad-avoid","bonus":0.11999999999999998},{"rt":788.7000000476837,"stimulus":"\n                    <p><b>Action: <em>avoid</em></b></p>\n                    <p>This is the bee that you just saw.</p>\n                    <img src=\"bees-with-color/bee-A1DF.svg\" width=\"200\">\n                    <p><span class=\"redText\">Bad choice,</span> the bee was friendly.<br>Your bonus pay is unchanged, and remains at $0.10.</p>\n            ","response":0,"trial_type":"html-button-response","trial_index":70,"time_elapsed":206588,"internal_node_id":"0.0-4.0-1.29","subject_id":"600edc6aacc6285957bd1cd6","study_id":"6197b3f67c2b5cd3b6d9596a","session_id":"6197b9e6649d77c5436b4295","condition":"full-information","relevant_dimensions":["antennae","legs"],"bee_group":{"antennae":"B","wings":"X","pattern":"X","legs":"F"},"bonus":0.11999999999999998},{"rt":1176.9000000953674,"stimulus":"bees-with-color/bee-B1DM.svg","response":0,"trial_type":"image-button-response","trial_index":71,"time_elapsed":207766,"internal_node_id":"0.0-4.0-0.30","subject_id":"600edc6aacc6285957bd1cd6","study_id":"6197b3f67c2b5cd3b6d9596a","session_id":"6197b9e6649d77c5436b4295","condition":"full-information","relevant_dimensions":["antennae","legs"],"bee_group":{"antennae":"B","wings":"X","pattern":"X","legs":"F"},"action":"harvest","summary":"good-harvest","bonus":0.11999999999999998},{"rt":759.1999998092651,"stimulus":"\n                    <p><b>Action: <em>harvest</em></b></p>\n                    <p>This is the bee that you just saw.</p>\n                    <img src=\"bees-with-color/bee-B1DM.svg\" width=\"200\">\n                    <p><span class=\"greenText\"><b>Successful harvest!</b></span><br>Your pay has increased by $0.02. Your bonus pay is now $0.12.</p>\n            ","response":0,"trial_type":"html-button-response","trial_index":72,"time_elapsed":208527,"internal_node_id":"0.0-4.0-1.30","subject_id":"600edc6aacc6285957bd1cd6","study_id":"6197b3f67c2b5cd3b6d9596a","session_id":"6197b9e6649d77c5436b4295","condition":"full-information","relevant_dimensions":["antennae","legs"],"bee_group":{"antennae":"B","wings":"X","pattern":"X","legs":"F"},"bonus":0.11999999999999998},{"rt":2086.7999999523163,"stimulus":"bees-with-color/bee-A2SF.svg","response":1,"trial_type":"image-button-response","trial_index":73,"time_elapsed":210615,"internal_node_id":"0.0-4.0-0.31","subject_id":"600edc6aacc6285957bd1cd6","study_id":"6197b3f67c2b5cd3b6d9596a","session_id":"6197b9e6649d77c5436b4295","condition":"full-information","relevant_dimensions":["antennae","legs"],"bee_group":{"antennae":"B","wings":"X","pattern":"X","legs":"F"},"action":"avoid","summary":"bad-avoid","bonus":0.11999999999999998},{"rt":1272.4000000953674,"stimulus":"\n                    <p><b>Action: <em>avoid</em></b></p>\n                    <p>This is the bee that you just saw.</p>\n                    <img src=\"bees-with-color/bee-A2SF.svg\" width=\"200\">\n                    <p><span class=\"redText\">Bad choice,</span> the bee was friendly.<br>Your bonus pay is unchanged, and remains at $0.12.</p>\n            ","response":0,"trial_type":"html-button-response","trial_index":74,"time_elapsed":211888,"internal_node_id":"0.0-4.0-1.31","subject_id":"600edc6aacc6285957bd1cd6","study_id":"6197b3f67c2b5cd3b6d9596a","session_id":"6197b9e6649d77c5436b4295","condition":"full-information","relevant_dimensions":["antennae","legs"],"bee_group":{"antennae":"B","wings":"X","pattern":"X","legs":"F"},"bonus":0.11999999999999998},{"rt":1345.9000000953674,"stimulus":"bees-with-color/bee-B1DF.svg","response":0,"trial_type":"image-button-response","trial_index":75,"time_elapsed":213236,"internal_node_id":"0.0-4.0-0.32","subject_id":"600edc6aacc6285957bd1cd6","study_id":"6197b3f67c2b5cd3b6d9596a","session_id":"6197b9e6649d77c5436b4295","condition":"full-information","relevant_dimensions":["antennae","legs"],"bee_group":{"antennae":"B","wings":"X","pattern":"X","legs":"F"},"action":"harvest","summary":"bad-harvest","bonus":0.11999999999999998},{"rt":1286,"stimulus":"\n                    <p><b>Action: <em>harvest</em></b></p>\n                    <p>This is the bee that you just saw.</p>\n                    <img src=\"bees-with-color/bee-B1DF.svg\" width=\"200\">\n                    <p><span class=\"redText\">Bad choice, the bee was angry.</span><br><b>You have been stung!</b><br>Your pay has been decreased by $0.10. Your bonus pay is now $0.02.</p>\n            ","response":0,"trial_type":"html-button-response","trial_index":76,"time_elapsed":214523,"internal_node_id":"0.0-4.0-1.32","subject_id":"600edc6aacc6285957bd1cd6","study_id":"6197b3f67c2b5cd3b6d9596a","session_id":"6197b9e6649d77c5436b4295","condition":"full-information","relevant_dimensions":["antennae","legs"],"bee_group":{"antennae":"B","wings":"X","pattern":"X","legs":"F"},"bonus":0.11999999999999998},{"rt":975.7999999523163,"stimulus":"bees-with-color/bee-A2SM.svg","response":0,"trial_type":"image-button-response","trial_index":77,"time_elapsed":215500,"internal_node_id":"0.0-4.0-0.33","subject_id":"600edc6aacc6285957bd1cd6","study_id":"6197b3f67c2b5cd3b6d9596a","session_id":"6197b9e6649d77c5436b4295","condition":"full-information","relevant_dimensions":["antennae","legs"],"bee_group":{"antennae":"B","wings":"X","pattern":"X","legs":"F"},"action":"harvest","summary":"good-harvest","bonus":0.11999999999999998},{"rt":866.7999999523163,"stimulus":"\n                    <p><b>Action: <em>harvest</em></b></p>\n                    <p>This is the bee that you just saw.</p>\n                    <img src=\"bees-with-color/bee-A2SM.svg\" width=\"200\">\n                    <p><span class=\"greenText\"><b>Successful harvest!</b></span><br>Your pay has increased by $0.02. Your bonus pay is now $0.04.</p>\n            ","response":0,"trial_type":"html-button-response","trial_index":78,"time_elapsed":216368,"internal_node_id":"0.0-4.0-1.33","subject_id":"600edc6aacc6285957bd1cd6","study_id":"6197b3f67c2b5cd3b6d9596a","session_id":"6197b9e6649d77c5436b4295","condition":"full-information","relevant_dimensions":["antennae","legs"],"bee_group":{"antennae":"B","wings":"X","pattern":"X","legs":"F"},"bonus":0.11999999999999998},{"rt":1560.2000000476837,"stimulus":"bees-with-color/bee-A2DM.svg","response":0,"trial_type":"image-button-response","trial_index":79,"time_elapsed":217929,"internal_node_id":"0.0-4.0-0.34","subject_id":"600edc6aacc6285957bd1cd6","study_id":"6197b3f67c2b5cd3b6d9596a","session_id":"6197b9e6649d77c5436b4295","condition":"full-information","relevant_dimensions":["antennae","legs"],"bee_group":{"antennae":"B","wings":"X","pattern":"X","legs":"F"},"action":"harvest","summary":"good-harvest","bonus":0.11999999999999998},{"rt":760.5,"stimulus":"\n                    <p><b>Action: <em>harvest</em></b></p>\n                    <p>This is the bee that you just saw.</p>\n                    <img src=\"bees-with-color/bee-A2DM.svg\" width=\"200\">\n                    <p><span class=\"greenText\"><b>Successful harvest!</b></span><br>Your pay has increased by $0.02. Your bonus pay is now $0.06.</p>\n            ","response":0,"trial_type":"html-button-response","trial_index":80,"time_elapsed":218691,"internal_node_id":"0.0-4.0-1.34","subject_id":"600edc6aacc6285957bd1cd6","study_id":"6197b3f67c2b5cd3b6d9596a","session_id":"6197b9e6649d77c5436b4295","condition":"full-information","relevant_dimensions":["antennae","legs"],"bee_group":{"antennae":"B","wings":"X","pattern":"X","legs":"F"},"bonus":0.11999999999999998},{"rt":2261.4000000953674,"stimulus":"bees-with-color/bee-A1DM.svg","response":0,"trial_type":"image-button-response","trial_index":81,"time_elapsed":220953,"internal_node_id":"0.0-4.0-0.35","subject_id":"600edc6aacc6285957bd1cd6","study_id":"6197b3f67c2b5cd3b6d9596a","session_id":"6197b9e6649d77c5436b4295","condition":"full-information","relevant_dimensions":["antennae","legs"],"bee_group":{"antennae":"B","wings":"X","pattern":"X","legs":"F"},"action":"harvest","summary":"good-harvest","bonus":0.11999999999999998},{"rt":2159.5,"stimulus":"\n                    <p><b>Action: <em>harvest</em></b></p>\n                    <p>This is the bee that you just saw.</p>\n                    <img src=\"bees-with-color/bee-A1DM.svg\" width=\"200\">\n                    <p><span class=\"greenText\"><b>Successful harvest!</b></span><br>Your pay has increased by $0.02. Your bonus pay is now $0.08.</p>\n            ","response":0,"trial_type":"html-button-response","trial_index":82,"time_elapsed":223114,"internal_node_id":"0.0-4.0-1.35","subject_id":"600edc6aacc6285957bd1cd6","study_id":"6197b3f67c2b5cd3b6d9596a","session_id":"6197b9e6649d77c5436b4295","condition":"full-information","relevant_dimensions":["antennae","legs"],"bee_group":{"antennae":"B","wings":"X","pattern":"X","legs":"F"},"bonus":0.11999999999999998},{"rt":1434.5,"stimulus":"bees-with-color/bee-B2SF.svg","response":0,"trial_type":"image-button-response","trial_index":83,"time_elapsed":224550,"internal_node_id":"0.0-4.0-0.36","subject_id":"600edc6aacc6285957bd1cd6","study_id":"6197b3f67c2b5cd3b6d9596a","session_id":"6197b9e6649d77c5436b4295","condition":"full-information","relevant_dimensions":["antennae","legs"],"bee_group":{"antennae":"B","wings":"X","pattern":"X","legs":"F"},"action":"harvest","summary":"bad-harvest","bonus":0.11999999999999998},{"rt":1551.0999999046326,"stimulus":"\n                    <p><b>Action: <em>harvest</em></b></p>\n                    <p>This is the bee that you just saw.</p>\n                    <img src=\"bees-with-color/bee-B2SF.svg\" width=\"200\">\n                    <p><span class=\"redText\">Bad choice, the bee was angry.</span><br><b>You have been stung!</b><br>Your pay has been decreased by $0.10. Your bonus pay is now $0.00.</p>\n            ","response":0,"trial_type":"html-button-response","trial_index":84,"time_elapsed":226103,"internal_node_id":"0.0-4.0-1.36","subject_id":"600edc6aacc6285957bd1cd6","study_id":"6197b3f67c2b5cd3b6d9596a","session_id":"6197b9e6649d77c5436b4295","condition":"full-information","relevant_dimensions":["antennae","legs"],"bee_group":{"antennae":"B","wings":"X","pattern":"X","legs":"F"},"bonus":0.11999999999999998},{"rt":2413.5,"stimulus":"bees-with-color/bee-B2DM.svg","response":0,"trial_type":"image-button-response","trial_index":85,"time_elapsed":228518,"internal_node_id":"0.0-4.0-0.37","subject_id":"600edc6aacc6285957bd1cd6","study_id":"6197b3f67c2b5cd3b6d9596a","session_id":"6197b9e6649d77c5436b4295","condition":"full-information","relevant_dimensions":["antennae","legs"],"bee_group":{"antennae":"B","wings":"X","pattern":"X","legs":"F"},"action":"harvest","summary":"good-harvest","bonus":0.11999999999999998},{"rt":787.6000001430511,"stimulus":"\n                    <p><b>Action: <em>harvest</em></b></p>\n                    <p>This is the bee that you just saw.</p>\n                    <img src=\"bees-with-color/bee-B2DM.svg\" width=\"200\">\n                    <p><span class=\"greenText\"><b>Successful harvest!</b></span><br>Your pay has increased by $0.02. Your bonus pay is now $0.02.</p>\n            ","response":0,"trial_type":"html-button-response","trial_index":86,"time_elapsed":229307,"internal_node_id":"0.0-4.0-1.37","subject_id":"600edc6aacc6285957bd1cd6","study_id":"6197b3f67c2b5cd3b6d9596a","session_id":"6197b9e6649d77c5436b4295","condition":"full-information","relevant_dimensions":["antennae","legs"],"bee_group":{"antennae":"B","wings":"X","pattern":"X","legs":"F"},"bonus":0.11999999999999998},{"rt":1720.7999999523163,"stimulus":"bees-with-color/bee-A2DF.svg","response":0,"trial_type":"image-button-response","trial_index":87,"time_elapsed":231029,"internal_node_id":"0.0-4.0-0.38","subject_id":"600edc6aacc6285957bd1cd6","study_id":"6197b3f67c2b5cd3b6d9596a","session_id":"6197b9e6649d77c5436b4295","condition":"full-information","relevant_dimensions":["antennae","legs"],"bee_group":{"antennae":"B","wings":"X","pattern":"X","legs":"F"},"action":"harvest","summary":"good-harvest","bonus":0.11999999999999998},{"rt":1312.3999998569489,"stimulus":"\n                    <p><b>Action: <em>harvest</em></b></p>\n                    <p>This is the bee that you just saw.</p>\n                    <img src=\"bees-with-color/bee-A2DF.svg\" width=\"200\">\n                    <p><span class=\"greenText\"><b>Successful harvest!</b></span><br>Your pay has increased by $0.02. Your bonus pay is now $0.04.</p>\n            ","response":0,"trial_type":"html-button-response","trial_index":88,"time_elapsed":232343,"internal_node_id":"0.0-4.0-1.38","subject_id":"600edc6aacc6285957bd1cd6","study_id":"6197b3f67c2b5cd3b6d9596a","session_id":"6197b9e6649d77c5436b4295","condition":"full-information","relevant_dimensions":["antennae","legs"],"bee_group":{"antennae":"B","wings":"X","pattern":"X","legs":"F"},"bonus":0.11999999999999998},{"rt":1266.5,"stimulus":"bees-with-color/bee-A1SF.svg","response":1,"trial_type":"image-button-response","trial_index":89,"time_elapsed":233611,"internal_node_id":"0.0-4.0-0.39","subject_id":"600edc6aacc6285957bd1cd6","study_id":"6197b3f67c2b5cd3b6d9596a","session_id":"6197b9e6649d77c5436b4295","condition":"full-information","relevant_dimensions":["antennae","legs"],"bee_group":{"antennae":"B","wings":"X","pattern":"X","legs":"F"},"action":"avoid","summary":"bad-avoid","bonus":0.11999999999999998},{"rt":853.0999999046326,"stimulus":"\n                    <p><b>Action: <em>avoid</em></b></p>\n                    <p>This is the bee that you just saw.</p>\n                    <img src=\"bees-with-color/bee-A1SF.svg\" width=\"200\">\n                    <p><span class=\"redText\">Bad choice,</span> the bee was friendly.<br>Your bonus pay is unchanged, and remains at $0.04.</p>\n            ","response":0,"trial_type":"html-button-response","trial_index":90,"time_elapsed":234466,"internal_node_id":"0.0-4.0-1.39","subject_id":"600edc6aacc6285957bd1cd6","study_id":"6197b3f67c2b5cd3b6d9596a","session_id":"6197b9e6649d77c5436b4295","condition":"full-information","relevant_dimensions":["antennae","legs"],"bee_group":{"antennae":"B","wings":"X","pattern":"X","legs":"F"},"bonus":0.11999999999999998},{"rt":1422,"stimulus":"bees-with-color/bee-A1SM.svg","response":1,"trial_type":"image-button-response","trial_index":91,"time_elapsed":235889,"internal_node_id":"0.0-4.0-0.40","subject_id":"600edc6aacc6285957bd1cd6","study_id":"6197b3f67c2b5cd3b6d9596a","session_id":"6197b9e6649d77c5436b4295","condition":"full-information","relevant_dimensions":["antennae","legs"],"bee_group":{"antennae":"B","wings":"X","pattern":"X","legs":"F"},"action":"avoid","summary":"bad-avoid","bonus":0.11999999999999998},{"rt":740.7999999523163,"stimulus":"\n                    <p><b>Action: <em>avoid</em></b></p>\n                    <p>This is the bee that you just saw.</p>\n                    <img src=\"bees-with-color/bee-A1SM.svg\" width=\"200\">\n                    <p><span class=\"redText\">Bad choice,</span> the bee was friendly.<br>Your bonus pay is unchanged, and remains at $0.04.</p>\n            ","response":0,"trial_type":"html-button-response","trial_index":92,"time_elapsed":236631,"internal_node_id":"0.0-4.0-1.40","subject_id":"600edc6aacc6285957bd1cd6","study_id":"6197b3f67c2b5cd3b6d9596a","session_id":"6197b9e6649d77c5436b4295","condition":"full-information","relevant_dimensions":["antennae","legs"],"bee_group":{"antennae":"B","wings":"X","pattern":"X","legs":"F"},"bonus":0.11999999999999998},{"rt":1177.0999999046326,"stimulus":"bees-with-color/bee-A1DF.svg","response":1,"trial_type":"image-button-response","trial_index":93,"time_elapsed":237810,"internal_node_id":"0.0-4.0-0.41","subject_id":"600edc6aacc6285957bd1cd6","study_id":"6197b3f67c2b5cd3b6d9596a","session_id":"6197b9e6649d77c5436b4295","condition":"full-information","relevant_dimensions":["antennae","legs"],"bee_group":{"antennae":"B","wings":"X","pattern":"X","legs":"F"},"action":"avoid","summary":"bad-avoid","bonus":0.11999999999999998},{"rt":773.5,"stimulus":"\n                    <p><b>Action: <em>avoid</em></b></p>\n                    <p>This is the bee that you just saw.</p>\n                    <img src=\"bees-with-color/bee-A1DF.svg\" width=\"200\">\n                    <p><span class=\"redText\">Bad choice,</span> the bee was friendly.<br>Your bonus pay is unchanged, and remains at $0.04.</p>\n            ","response":0,"trial_type":"html-button-response","trial_index":94,"time_elapsed":238584,"internal_node_id":"0.0-4.0-1.41","subject_id":"600edc6aacc6285957bd1cd6","study_id":"6197b3f67c2b5cd3b6d9596a","session_id":"6197b9e6649d77c5436b4295","condition":"full-information","relevant_dimensions":["antennae","legs"],"bee_group":{"antennae":"B","wings":"X","pattern":"X","legs":"F"},"bonus":0.11999999999999998},{"rt":1099.9000000953674,"stimulus":"bees-with-color/bee-B2DF.svg","response":0,"trial_type":"image-button-response","trial_index":95,"time_elapsed":239686,"internal_node_id":"0.0-4.0-0.42","subject_id":"600edc6aacc6285957bd1cd6","study_id":"6197b3f67c2b5cd3b6d9596a","session_id":"6197b9e6649d77c5436b4295","condition":"full-information","relevant_dimensions":["antennae","legs"],"bee_group":{"antennae":"B","wings":"X","pattern":"X","legs":"F"},"action":"harvest","summary":"bad-harvest","bonus":0.11999999999999998},{"rt":1360.9000000953674,"stimulus":"\n                    <p><b>Action: <em>harvest</em></b></p>\n                    <p>This is the bee that you just saw.</p>\n                    <img src=\"bees-with-color/bee-B2DF.svg\" width=\"200\">\n                    <p><span class=\"redText\">Bad choice, the bee was angry.</span><br><b>You have been stung!</b><br>Your pay has been decreased by $0.10. Your bonus pay is now $0.00.</p>\n            ","response":0,"trial_type":"html-button-response","trial_index":96,"time_elapsed":241048,"internal_node_id":"0.0-4.0-1.42","subject_id":"600edc6aacc6285957bd1cd6","study_id":"6197b3f67c2b5cd3b6d9596a","session_id":"6197b9e6649d77c5436b4295","condition":"full-information","relevant_dimensions":["antennae","legs"],"bee_group":{"antennae":"B","wings":"X","pattern":"X","legs":"F"},"bonus":0.11999999999999998},{"rt":1626.5999999046326,"stimulus":"bees-with-color/bee-B1SF.svg","response":0,"trial_type":"image-button-response","trial_index":97,"time_elapsed":242676,"internal_node_id":"0.0-4.0-0.43","subject_id":"600edc6aacc6285957bd1cd6","study_id":"6197b3f67c2b5cd3b6d9596a","session_id":"6197b9e6649d77c5436b4295","condition":"full-information","relevant_dimensions":["antennae","legs"],"bee_group":{"antennae":"B","wings":"X","pattern":"X","legs":"F"},"action":"harvest","summary":"bad-harvest","bonus":0.11999999999999998},{"rt":883.7000000476837,"stimulus":"\n                    <p><b>Action: <em>harvest</em></b></p>\n                    <p>This is the bee that you just saw.</p>\n                    <img src=\"bees-with-color/bee-B1SF.svg\" width=\"200\">\n                    <p><span class=\"redText\">Bad choice, the bee was angry.</span><br><b>You have been stung!</b><br>Your pay has been decreased by $0.10. Your bonus pay is now $0.00.</p>\n            ","response":0,"trial_type":"html-button-response","trial_index":98,"time_elapsed":243561,"internal_node_id":"0.0-4.0-1.43","subject_id":"600edc6aacc6285957bd1cd6","study_id":"6197b3f67c2b5cd3b6d9596a","session_id":"6197b9e6649d77c5436b4295","condition":"full-information","relevant_dimensions":["antennae","legs"],"bee_group":{"antennae":"B","wings":"X","pattern":"X","legs":"F"},"bonus":0.11999999999999998},{"rt":992.2999999523163,"stimulus":"bees-with-color/bee-B1SM.svg","response":0,"trial_type":"image-button-response","trial_index":99,"time_elapsed":244555,"internal_node_id":"0.0-4.0-0.44","subject_id":"600edc6aacc6285957bd1cd6","study_id":"6197b3f67c2b5cd3b6d9596a","session_id":"6197b9e6649d77c5436b4295","condition":"full-information","relevant_dimensions":["antennae","legs"],"bee_group":{"antennae":"B","wings":"X","pattern":"X","legs":"F"},"action":"harvest","summary":"good-harvest","bonus":0.11999999999999998},{"rt":772.7000000476837,"stimulus":"\n                    <p><b>Action: <em>harvest</em></b></p>\n                    <p>This is the bee that you just saw.</p>\n                    <img src=\"bees-with-color/bee-B1SM.svg\" width=\"200\">\n                    <p><span class=\"greenText\"><b>Successful harvest!</b></span><br>Your pay has increased by $0.02. Your bonus pay is now $0.02.</p>\n            ","response":0,"trial_type":"html-button-response","trial_index":100,"time_elapsed":245329,"internal_node_id":"0.0-4.0-1.44","subject_id":"600edc6aacc6285957bd1cd6","study_id":"6197b3f67c2b5cd3b6d9596a","session_id":"6197b9e6649d77c5436b4295","condition":"full-information","relevant_dimensions":["antennae","legs"],"bee_group":{"antennae":"B","wings":"X","pattern":"X","legs":"F"},"bonus":0.11999999999999998},{"rt":1672.2000000476837,"stimulus":"bees-with-color/bee-B1DM.svg","response":0,"trial_type":"image-button-response","trial_index":101,"time_elapsed":247002,"internal_node_id":"0.0-4.0-0.45","subject_id":"600edc6aacc6285957bd1cd6","study_id":"6197b3f67c2b5cd3b6d9596a","session_id":"6197b9e6649d77c5436b4295","condition":"full-information","relevant_dimensions":["antennae","legs"],"bee_group":{"antennae":"B","wings":"X","pattern":"X","legs":"F"},"action":"harvest","summary":"good-harvest","bonus":0.11999999999999998},{"rt":1264.8999998569489,"stimulus":"\n                    <p><b>Action: <em>harvest</em></b></p>\n                    <p>This is the bee that you just saw.</p>\n                    <img src=\"bees-with-color/bee-B1DM.svg\" width=\"200\">\n                    <p><span class=\"greenText\"><b>Successful harvest!</b></span><br>Your pay has increased by $0.02. Your bonus pay is now $0.04.</p>\n            ","response":0,"trial_type":"html-button-response","trial_index":102,"time_elapsed":248268,"internal_node_id":"0.0-4.0-1.45","subject_id":"600edc6aacc6285957bd1cd6","study_id":"6197b3f67c2b5cd3b6d9596a","session_id":"6197b9e6649d77c5436b4295","condition":"full-information","relevant_dimensions":["antennae","legs"],"bee_group":{"antennae":"B","wings":"X","pattern":"X","legs":"F"},"bonus":0.11999999999999998},{"rt":1378.2999999523163,"stimulus":"bees-with-color/bee-A2SF.svg","response":0,"trial_type":"image-button-response","trial_index":103,"time_elapsed":249648,"internal_node_id":"0.0-4.0-0.46","subject_id":"600edc6aacc6285957bd1cd6","study_id":"6197b3f67c2b5cd3b6d9596a","session_id":"6197b9e6649d77c5436b4295","condition":"full-information","relevant_dimensions":["antennae","legs"],"bee_group":{"antennae":"B","wings":"X","pattern":"X","legs":"F"},"action":"harvest","summary":"good-harvest","bonus":0.11999999999999998},{"rt":899.0999999046326,"stimulus":"\n                    <p><b>Action: <em>harvest</em></b></p>\n                    <p>This is the bee that you just saw.</p>\n                    <img src=\"bees-with-color/bee-A2SF.svg\" width=\"200\">\n                    <p><span class=\"greenText\"><b>Successful harvest!</b></span><br>Your pay has increased by $0.02. Your bonus pay is now $0.06.</p>\n            ","response":0,"trial_type":"html-button-response","trial_index":104,"time_elapsed":250549,"internal_node_id":"0.0-4.0-1.46","subject_id":"600edc6aacc6285957bd1cd6","study_id":"6197b3f67c2b5cd3b6d9596a","session_id":"6197b9e6649d77c5436b4295","condition":"full-information","relevant_dimensions":["antennae","legs"],"bee_group":{"antennae":"B","wings":"X","pattern":"X","legs":"F"},"bonus":0.11999999999999998},{"rt":1146.0999999046326,"stimulus":"bees-with-color/bee-B2SM.svg","response":0,"trial_type":"image-button-response","trial_index":105,"time_elapsed":251696,"internal_node_id":"0.0-4.0-0.47","subject_id":"600edc6aacc6285957bd1cd6","study_id":"6197b3f67c2b5cd3b6d9596a","session_id":"6197b9e6649d77c5436b4295","condition":"full-information","relevant_dimensions":["antennae","legs"],"bee_group":{"antennae":"B","wings":"X","pattern":"X","legs":"F"},"action":"harvest","summary":"good-harvest","bonus":0.11999999999999998},{"rt":973.2999999523163,"stimulus":"\n                    <p><b>Action: <em>harvest</em></b></p>\n                    <p>This is the bee that you just saw.</p>\n                    <img src=\"bees-with-color/bee-B2SM.svg\" width=\"200\">\n                    <p><span class=\"greenText\"><b>Successful harvest!</b></span><br>Your pay has increased by $0.02. Your bonus pay is now $0.08.</p>\n            ","response":0,"trial_type":"html-button-response","trial_index":106,"time_elapsed":252671,"internal_node_id":"0.0-4.0-1.47","subject_id":"600edc6aacc6285957bd1cd6","study_id":"6197b3f67c2b5cd3b6d9596a","session_id":"6197b9e6649d77c5436b4295","condition":"full-information","relevant_dimensions":["antennae","legs"],"bee_group":{"antennae":"B","wings":"X","pattern":"X","legs":"F"},"bonus":0.11999999999999998},{"rt":1670.5,"stimulus":"bees-with-color/bee-B1DM.svg","response":0,"trial_type":"image-button-response","trial_index":107,"time_elapsed":254343,"internal_node_id":"0.0-4.0-0.48","subject_id":"600edc6aacc6285957bd1cd6","study_id":"6197b3f67c2b5cd3b6d9596a","session_id":"6197b9e6649d77c5436b4295","condition":"full-information","relevant_dimensions":["antennae","legs"],"bee_group":{"antennae":"B","wings":"X","pattern":"X","legs":"F"},"action":"harvest","summary":"good-harvest","bonus":0.11999999999999998},{"rt":958.7000000476837,"stimulus":"\n                    <p><b>Action: <em>harvest</em></b></p>\n                    <p>This is the bee that you just saw.</p>\n                    <img src=\"bees-with-color/bee-B1DM.svg\" width=\"200\">\n                    <p><span class=\"greenText\"><b>Successful harvest!</b></span><br>Your pay has increased by $0.02. Your bonus pay is now $0.10.</p>\n            ","response":0,"trial_type":"html-button-response","trial_index":108,"time_elapsed":255303,"internal_node_id":"0.0-4.0-1.48","subject_id":"600edc6aacc6285957bd1cd6","study_id":"6197b3f67c2b5cd3b6d9596a","session_id":"6197b9e6649d77c5436b4295","condition":"full-information","relevant_dimensions":["antennae","legs"],"bee_group":{"antennae":"B","wings":"X","pattern":"X","legs":"F"},"bonus":0.11999999999999998},{"rt":2438.7999999523163,"stimulus":"bees-with-color/bee-B1DF.svg","response":0,"trial_type":"image-button-response","trial_index":109,"time_elapsed":257743,"internal_node_id":"0.0-4.0-0.49","subject_id":"600edc6aacc6285957bd1cd6","study_id":"6197b3f67c2b5cd3b6d9596a","session_id":"6197b9e6649d77c5436b4295","condition":"full-information","relevant_dimensions":["antennae","legs"],"bee_group":{"antennae":"B","wings":"X","pattern":"X","legs":"F"},"action":"harvest","summary":"bad-harvest","bonus":0.11999999999999998},{"rt":849.4000000953674,"stimulus":"\n                    <p><b>Action: <em>harvest</em></b></p>\n                    <p>This is the bee that you just saw.</p>\n                    <img src=\"bees-with-color/bee-B1DF.svg\" width=\"200\">\n                    <p><span class=\"redText\">Bad choice, the bee was angry.</span><br><b>You have been stung!</b><br>Your pay has been decreased by $0.10. Your bonus pay is now $0.00.</p>\n            ","response":0,"trial_type":"html-button-response","trial_index":110,"time_elapsed":258594,"internal_node_id":"0.0-4.0-1.49","subject_id":"600edc6aacc6285957bd1cd6","study_id":"6197b3f67c2b5cd3b6d9596a","session_id":"6197b9e6649d77c5436b4295","condition":"full-information","relevant_dimensions":["antennae","legs"],"bee_group":{"antennae":"B","wings":"X","pattern":"X","legs":"F"},"bonus":0.11999999999999998},{"rt":1020.9000000953674,"stimulus":"bees-with-color/bee-A2SM.svg","response":0,"trial_type":"image-button-response","trial_index":111,"time_elapsed":259617,"internal_node_id":"0.0-4.0-0.50","subject_id":"600edc6aacc6285957bd1cd6","study_id":"6197b3f67c2b5cd3b6d9596a","session_id":"6197b9e6649d77c5436b4295","condition":"full-information","relevant_dimensions":["antennae","legs"],"bee_group":{"antennae":"B","wings":"X","pattern":"X","legs":"F"},"action":"harvest","summary":"good-harvest","bonus":0.11999999999999998},{"rt":1003,"stimulus":"\n                    <p><b>Action: <em>harvest</em></b></p>\n                    <p>This is the bee that you just saw.</p>\n                    <img src=\"bees-with-color/bee-A2SM.svg\" width=\"200\">\n                    <p><span class=\"greenText\"><b>Successful harvest!</b></span><br>Your pay has increased by $0.02. Your bonus pay is now $0.02.</p>\n            ","response":0,"trial_type":"html-button-response","trial_index":112,"time_elapsed":260621,"internal_node_id":"0.0-4.0-1.50","subject_id":"600edc6aacc6285957bd1cd6","study_id":"6197b3f67c2b5cd3b6d9596a","session_id":"6197b9e6649d77c5436b4295","condition":"full-information","relevant_dimensions":["antennae","legs"],"bee_group":{"antennae":"B","wings":"X","pattern":"X","legs":"F"},"bonus":0.11999999999999998},{"rt":4259.299999952316,"stimulus":"bees-with-color/bee-B1SM.svg","response":0,"trial_type":"image-button-response","trial_index":113,"time_elapsed":264882,"internal_node_id":"0.0-4.0-0.51","subject_id":"600edc6aacc6285957bd1cd6","study_id":"6197b3f67c2b5cd3b6d9596a","session_id":"6197b9e6649d77c5436b4295","condition":"full-information","relevant_dimensions":["antennae","legs"],"bee_group":{"antennae":"B","wings":"X","pattern":"X","legs":"F"},"action":"harvest","summary":"good-harvest","bonus":0.11999999999999998},{"rt":1700.3000001907349,"stimulus":"\n                    <p><b>Action: <em>harvest</em></b></p>\n                    <p>This is the bee that you just saw.</p>\n                    <img src=\"bees-with-color/bee-B1SM.svg\" width=\"200\">\n                    <p><span class=\"greenText\"><b>Successful harvest!</b></span><br>Your pay has increased by $0.02. Your bonus pay is now $0.04.</p>\n            ","response":0,"trial_type":"html-button-response","trial_index":114,"time_elapsed":266584,"internal_node_id":"0.0-4.0-1.51","subject_id":"600edc6aacc6285957bd1cd6","study_id":"6197b3f67c2b5cd3b6d9596a","session_id":"6197b9e6649d77c5436b4295","condition":"full-information","relevant_dimensions":["antennae","legs"],"bee_group":{"antennae":"B","wings":"X","pattern":"X","legs":"F"},"bonus":0.11999999999999998},{"rt":1650.2000000476837,"stimulus":"bees-with-color/bee-B2SF.svg","response":0,"trial_type":"image-button-response","trial_index":115,"time_elapsed":268236,"internal_node_id":"0.0-4.0-0.52","subject_id":"600edc6aacc6285957bd1cd6","study_id":"6197b3f67c2b5cd3b6d9596a","session_id":"6197b9e6649d77c5436b4295","condition":"full-information","relevant_dimensions":["antennae","legs"],"bee_group":{"antennae":"B","wings":"X","pattern":"X","legs":"F"},"action":"harvest","summary":"bad-harvest","bonus":0.11999999999999998},{"rt":1234.9000000953674,"stimulus":"\n                    <p><b>Action: <em>harvest</em></b></p>\n                    <p>This is the bee that you just saw.</p>\n                    <img src=\"bees-with-color/bee-B2SF.svg\" width=\"200\">\n                    <p><span class=\"redText\">Bad choice, the bee was angry.</span><br><b>You have been stung!</b><br>Your pay has been decreased by $0.10. Your bonus pay is now $0.00.</p>\n            ","response":0,"trial_type":"html-button-response","trial_index":116,"time_elapsed":269472,"internal_node_id":"0.0-4.0-1.52","subject_id":"600edc6aacc6285957bd1cd6","study_id":"6197b3f67c2b5cd3b6d9596a","session_id":"6197b9e6649d77c5436b4295","condition":"full-information","relevant_dimensions":["antennae","legs"],"bee_group":{"antennae":"B","wings":"X","pattern":"X","legs":"F"},"bonus":0.11999999999999998},{"rt":3373.5,"stimulus":"bees-with-color/bee-A1DM.svg","response":0,"trial_type":"image-button-response","trial_index":117,"time_elapsed":272847,"internal_node_id":"0.0-4.0-0.53","subject_id":"600edc6aacc6285957bd1cd6","study_id":"6197b3f67c2b5cd3b6d9596a","session_id":"6197b9e6649d77c5436b4295","condition":"full-information","relevant_dimensions":["antennae","legs"],"bee_group":{"antennae":"B","wings":"X","pattern":"X","legs":"F"},"action":"harvest","summary":"good-harvest","bonus":0.11999999999999998},{"rt":1035.1999998092651,"stimulus":"\n                    <p><b>Action: <em>harvest</em></b></p>\n                    <p>This is the bee that you just saw.</p>\n                    <img src=\"bees-with-color/bee-A1DM.svg\" width=\"200\">\n                    <p><span class=\"greenText\"><b>Successful harvest!</b></span><br>Your pay has increased by $0.02. Your bonus pay is now $0.02.</p>\n            ","response":0,"trial_type":"html-button-response","trial_index":118,"time_elapsed":273884,"internal_node_id":"0.0-4.0-1.53","subject_id":"600edc6aacc6285957bd1cd6","study_id":"6197b3f67c2b5cd3b6d9596a","session_id":"6197b9e6649d77c5436b4295","condition":"full-information","relevant_dimensions":["antennae","legs"],"bee_group":{"antennae":"B","wings":"X","pattern":"X","legs":"F"},"bonus":0.11999999999999998},{"rt":1358.5,"stimulus":"bees-with-color/bee-B2SM.svg","response":0,"trial_type":"image-button-response","trial_index":119,"time_elapsed":275244,"internal_node_id":"0.0-4.0-0.54","subject_id":"600edc6aacc6285957bd1cd6","study_id":"6197b3f67c2b5cd3b6d9596a","session_id":"6197b9e6649d77c5436b4295","condition":"full-information","relevant_dimensions":["antennae","legs"],"bee_group":{"antennae":"B","wings":"X","pattern":"X","legs":"F"},"action":"harvest","summary":"good-harvest","bonus":0.11999999999999998},{"rt":1558,"stimulus":"\n                    <p><b>Action: <em>harvest</em></b></p>\n                    <p>This is the bee that you just saw.</p>\n                    <img src=\"bees-with-color/bee-B2SM.svg\" width=\"200\">\n                    <p><span class=\"greenText\"><b>Successful harvest!</b></span><br>Your pay has increased by $0.02. Your bonus pay is now $0.04.</p>\n            ","response":0,"trial_type":"html-button-response","trial_index":120,"time_elapsed":276804,"internal_node_id":"0.0-4.0-1.54","subject_id":"600edc6aacc6285957bd1cd6","study_id":"6197b3f67c2b5cd3b6d9596a","session_id":"6197b9e6649d77c5436b4295","condition":"full-information","relevant_dimensions":["antennae","legs"],"bee_group":{"antennae":"B","wings":"X","pattern":"X","legs":"F"},"bonus":0.11999999999999998},{"rt":1850.2000000476837,"stimulus":"bees-with-color/bee-B2DM.svg","response":0,"trial_type":"image-button-response","trial_index":121,"time_elapsed":278655,"internal_node_id":"0.0-4.0-0.55","subject_id":"600edc6aacc6285957bd1cd6","study_id":"6197b3f67c2b5cd3b6d9596a","session_id":"6197b9e6649d77c5436b4295","condition":"full-information","relevant_dimensions":["antennae","legs"],"bee_group":{"antennae":"B","wings":"X","pattern":"X","legs":"F"},"action":"harvest","summary":"good-harvest","bonus":0.11999999999999998},{"rt":1781.7000000476837,"stimulus":"\n                    <p><b>Action: <em>harvest</em></b></p>\n                    <p>This is the bee that you just saw.</p>\n                    <img src=\"bees-with-color/bee-B2DM.svg\" width=\"200\">\n                    <p><span class=\"greenText\"><b>Successful harvest!</b></span><br>Your pay has increased by $0.02. Your bonus pay is now $0.06.</p>\n            ","response":0,"trial_type":"html-button-response","trial_index":122,"time_elapsed":280438,"internal_node_id":"0.0-4.0-1.55","subject_id":"600edc6aacc6285957bd1cd6","study_id":"6197b3f67c2b5cd3b6d9596a","session_id":"6197b9e6649d77c5436b4295","condition":"full-information","relevant_dimensions":["antennae","legs"],"bee_group":{"antennae":"B","wings":"X","pattern":"X","legs":"F"},"bonus":0.11999999999999998},{"rt":3780.5999999046326,"stimulus":"bees-with-color/bee-B1SF.svg","response":1,"trial_type":"image-button-response","trial_index":123,"time_elapsed":284221,"internal_node_id":"0.0-4.0-0.56","subject_id":"600edc6aacc6285957bd1cd6","study_id":"6197b3f67c2b5cd3b6d9596a","session_id":"6197b9e6649d77c5436b4295","condition":"full-information","relevant_dimensions":["antennae","legs"],"bee_group":{"antennae":"B","wings":"X","pattern":"X","legs":"F"},"action":"avoid","summary":"good-avoid","bonus":0.11999999999999998},{"rt":1697.0999999046326,"stimulus":"\n                    <p><b>Action: <em>avoid</em></b></p>\n                    <p>This is the bee that you just saw.</p>\n                    <img src=\"bees-with-color/bee-B1SF.svg\" width=\"200\">\n                    <p><span class=\"greenText\">Good choice!</span>  This bee would have stung you.<br>Your bonus pay is unchanged, and remains at $0.06.</p>\n            ","response":0,"trial_type":"html-button-response","trial_index":124,"time_elapsed":285919,"internal_node_id":"0.0-4.0-1.56","subject_id":"600edc6aacc6285957bd1cd6","study_id":"6197b3f67c2b5cd3b6d9596a","session_id":"6197b9e6649d77c5436b4295","condition":"full-information","relevant_dimensions":["antennae","legs"],"bee_group":{"antennae":"B","wings":"X","pattern":"X","legs":"F"},"bonus":0.11999999999999998},{"rt":2422,"stimulus":"bees-with-color/bee-A2DF.svg","response":0,"trial_type":"image-button-response","trial_index":125,"time_elapsed":288343,"internal_node_id":"0.0-4.0-0.57","subject_id":"600edc6aacc6285957bd1cd6","study_id":"6197b3f67c2b5cd3b6d9596a","session_id":"6197b9e6649d77c5436b4295","condition":"full-information","relevant_dimensions":["antennae","legs"],"bee_group":{"antennae":"B","wings":"X","pattern":"X","legs":"F"},"action":"harvest","summary":"good-harvest","bonus":0.11999999999999998},{"rt":2272.2000000476837,"stimulus":"\n                    <p><b>Action: <em>harvest</em></b></p>\n                    <p>This is the bee that you just saw.</p>\n                    <img src=\"bees-with-color/bee-A2DF.svg\" width=\"200\">\n                    <p><span class=\"greenText\"><b>Successful harvest!</b></span><br>Your pay has increased by $0.02. Your bonus pay is now $0.08.</p>\n            ","response":0,"trial_type":"html-button-response","trial_index":126,"time_elapsed":290617,"internal_node_id":"0.0-4.0-1.57","subject_id":"600edc6aacc6285957bd1cd6","study_id":"6197b3f67c2b5cd3b6d9596a","session_id":"6197b9e6649d77c5436b4295","condition":"full-information","relevant_dimensions":["antennae","legs"],"bee_group":{"antennae":"B","wings":"X","pattern":"X","legs":"F"},"bonus":0.11999999999999998},{"rt":2126.899999856949,"stimulus":"bees-with-color/bee-A1SM.svg","response":0,"trial_type":"image-button-response","trial_index":127,"time_elapsed":292745,"internal_node_id":"0.0-4.0-0.58","subject_id":"600edc6aacc6285957bd1cd6","study_id":"6197b3f67c2b5cd3b6d9596a","session_id":"6197b9e6649d77c5436b4295","condition":"full-information","relevant_dimensions":["antennae","legs"],"bee_group":{"antennae":"B","wings":"X","pattern":"X","legs":"F"},"action":"harvest","summary":"good-harvest","bonus":0.11999999999999998},{"rt":1374.4000000953674,"stimulus":"\n                    <p><b>Action: <em>harvest</em></b></p>\n                    <p>This is the bee that you just saw.</p>\n                    <img src=\"bees-with-color/bee-A1SM.svg\" width=\"200\">\n                    <p><span class=\"greenText\"><b>Successful harvest!</b></span><br>Your pay has increased by $0.02. Your bonus pay is now $0.10.</p>\n            ","response":0,"trial_type":"html-button-response","trial_index":128,"time_elapsed":294121,"internal_node_id":"0.0-4.0-1.58","subject_id":"600edc6aacc6285957bd1cd6","study_id":"6197b3f67c2b5cd3b6d9596a","session_id":"6197b9e6649d77c5436b4295","condition":"full-information","relevant_dimensions":["antennae","legs"],"bee_group":{"antennae":"B","wings":"X","pattern":"X","legs":"F"},"bonus":0.11999999999999998},{"rt":2280.7999999523163,"stimulus":"bees-with-color/bee-B2DF.svg","response":0,"trial_type":"image-button-response","trial_index":129,"time_elapsed":296403,"internal_node_id":"0.0-4.0-0.59","subject_id":"600edc6aacc6285957bd1cd6","study_id":"6197b3f67c2b5cd3b6d9596a","session_id":"6197b9e6649d77c5436b4295","condition":"full-information","relevant_dimensions":["antennae","legs"],"bee_group":{"antennae":"B","wings":"X","pattern":"X","legs":"F"},"action":"harvest","summary":"bad-harvest","bonus":0.11999999999999998},{"rt":1623.7000000476837,"stimulus":"\n                    <p><b>Action: <em>harvest</em></b></p>\n                    <p>This is the bee that you just saw.</p>\n                    <img src=\"bees-with-color/bee-B2DF.svg\" width=\"200\">\n                    <p><span class=\"redText\">Bad choice, the bee was angry.</span><br><b>You have been stung!</b><br>Your pay has been decreased by $0.10. Your bonus pay is now $0.00.</p>\n            ","response":0,"trial_type":"html-button-response","trial_index":130,"time_elapsed":298028,"internal_node_id":"0.0-4.0-1.59","subject_id":"600edc6aacc6285957bd1cd6","study_id":"6197b3f67c2b5cd3b6d9596a","session_id":"6197b9e6649d77c5436b4295","condition":"full-information","relevant_dimensions":["antennae","legs"],"bee_group":{"antennae":"B","wings":"X","pattern":"X","legs":"F"},"bonus":0.11999999999999998},{"rt":1656.0999999046326,"stimulus":"bees-with-color/bee-A2SF.svg","response":0,"trial_type":"image-button-response","trial_index":131,"time_elapsed":299686,"internal_node_id":"0.0-4.0-0.60","subject_id":"600edc6aacc6285957bd1cd6","study_id":"6197b3f67c2b5cd3b6d9596a","session_id":"6197b9e6649d77c5436b4295","condition":"full-information","relevant_dimensions":["antennae","legs"],"bee_group":{"antennae":"B","wings":"X","pattern":"X","legs":"F"},"action":"harvest","summary":"good-harvest","bonus":0.11999999999999998},{"rt":1654.7000000476837,"stimulus":"\n                    <p><b>Action: <em>harvest</em></b></p>\n                    <p>This is the bee that you just saw.</p>\n                    <img src=\"bees-with-color/bee-A2SF.svg\" width=\"200\">\n                    <p><span class=\"greenText\"><b>Successful harvest!</b></span><br>Your pay has increased by $0.02. Your bonus pay is now $0.02.</p>\n            ","response":0,"trial_type":"html-button-response","trial_index":132,"time_elapsed":301342,"internal_node_id":"0.0-4.0-1.60","subject_id":"600edc6aacc6285957bd1cd6","study_id":"6197b3f67c2b5cd3b6d9596a","session_id":"6197b9e6649d77c5436b4295","condition":"full-information","relevant_dimensions":["antennae","legs"],"bee_group":{"antennae":"B","wings":"X","pattern":"X","legs":"F"},"bonus":0.11999999999999998},{"rt":2151.5,"stimulus":"bees-with-color/bee-A2DM.svg","response":0,"trial_type":"image-button-response","trial_index":133,"time_elapsed":303494,"internal_node_id":"0.0-4.0-0.61","subject_id":"600edc6aacc6285957bd1cd6","study_id":"6197b3f67c2b5cd3b6d9596a","session_id":"6197b9e6649d77c5436b4295","condition":"full-information","relevant_dimensions":["antennae","legs"],"bee_group":{"antennae":"B","wings":"X","pattern":"X","legs":"F"},"action":"harvest","summary":"good-harvest","bonus":0.11999999999999998},{"rt":1192.4000000953674,"stimulus":"\n                    <p><b>Action: <em>harvest</em></b></p>\n                    <p>This is the bee that you just saw.</p>\n                    <img src=\"bees-with-color/bee-A2DM.svg\" width=\"200\">\n                    <p><span class=\"greenText\"><b>Successful harvest!</b></span><br>Your pay has increased by $0.02. Your bonus pay is now $0.04.</p>\n            ","response":0,"trial_type":"html-button-response","trial_index":134,"time_elapsed":304688,"internal_node_id":"0.0-4.0-1.61","subject_id":"600edc6aacc6285957bd1cd6","study_id":"6197b3f67c2b5cd3b6d9596a","session_id":"6197b9e6649d77c5436b4295","condition":"full-information","relevant_dimensions":["antennae","legs"],"bee_group":{"antennae":"B","wings":"X","pattern":"X","legs":"F"},"bonus":0.11999999999999998},{"rt":2454.2000000476837,"stimulus":"bees-with-color/bee-A1SF.svg","response":0,"trial_type":"image-button-response","trial_index":135,"time_elapsed":307144,"internal_node_id":"0.0-4.0-0.62","subject_id":"600edc6aacc6285957bd1cd6","study_id":"6197b3f67c2b5cd3b6d9596a","session_id":"6197b9e6649d77c5436b4295","condition":"full-information","relevant_dimensions":["antennae","legs"],"bee_group":{"antennae":"B","wings":"X","pattern":"X","legs":"F"},"action":"harvest","summary":"good-harvest","bonus":0.11999999999999998},{"rt":1175.5999999046326,"stimulus":"\n                    <p><b>Action: <em>harvest</em></b></p>\n                    <p>This is the bee that you just saw.</p>\n                    <img src=\"bees-with-color/bee-A1SF.svg\" width=\"200\">\n                    <p><span class=\"greenText\"><b>Successful harvest!</b></span><br>Your pay has increased by $0.02. Your bonus pay is now $0.06.</p>\n            ","response":0,"trial_type":"html-button-response","trial_index":136,"time_elapsed":308321,"internal_node_id":"0.0-4.0-1.62","subject_id":"600edc6aacc6285957bd1cd6","study_id":"6197b3f67c2b5cd3b6d9596a","session_id":"6197b9e6649d77c5436b4295","condition":"full-information","relevant_dimensions":["antennae","legs"],"bee_group":{"antennae":"B","wings":"X","pattern":"X","legs":"F"},"bonus":0.11999999999999998},{"rt":2396.9000000953674,"stimulus":"bees-with-color/bee-A1DF.svg","response":0,"trial_type":"image-button-response","trial_index":137,"time_elapsed":310719,"internal_node_id":"0.0-4.0-0.63","subject_id":"600edc6aacc6285957bd1cd6","study_id":"6197b3f67c2b5cd3b6d9596a","session_id":"6197b9e6649d77c5436b4295","condition":"full-information","relevant_dimensions":["antennae","legs"],"bee_group":{"antennae":"B","wings":"X","pattern":"X","legs":"F"},"action":"harvest","summary":"good-harvest","bonus":0.11999999999999998},{"rt":879.4000000953674,"stimulus":"\n                    <p><b>Action: <em>harvest</em></b></p>\n                    <p>This is the bee that you just saw.</p>\n                    <img src=\"bees-with-color/bee-A1DF.svg\" width=\"200\">\n                    <p><span class=\"greenText\"><b>Successful harvest!</b></span><br>Your pay has increased by $0.02. Your bonus pay is now $0.08.</p>\n            ","response":0,"trial_type":"html-button-response","trial_index":138,"time_elapsed":311600,"internal_node_id":"0.0-4.0-1.63","subject_id":"600edc6aacc6285957bd1cd6","study_id":"6197b3f67c2b5cd3b6d9596a","session_id":"6197b9e6649d77c5436b4295","condition":"full-information","relevant_dimensions":["antennae","legs"],"bee_group":{"antennae":"B","wings":"X","pattern":"X","legs":"F"},"bonus":0.11999999999999998},{"rt":1645.2999999523163,"stimulus":"You have completed the first part of this experiment.<br><br>You will now begin a shorter second part, in which you will receive no feedback.<br>The same rules regarding bonus pay apply.<br><br>Press any key to begin.","response":" ","trial_type":"html-keyboard-response","trial_index":139,"time_elapsed":313246,"internal_node_id":"0.0-5.0","subject_id":"600edc6aacc6285957bd1cd6","study_id":"6197b3f67c2b5cd3b6d9596a","session_id":"6197b9e6649d77c5436b4295","condition":"full-information","relevant_dimensions":["antennae","legs"],"bee_group":{"antennae":"B","wings":"X","pattern":"X","legs":"F"},"bonus":0.11999999999999998},{"rt":3249.100000143051,"stimulus":"bees-with-color/bee-B2SM.svg","response":0,"trial_type":"image-button-response","trial_index":140,"time_elapsed":316504,"internal_node_id":"0.0-6.0-0.0","subject_id":"600edc6aacc6285957bd1cd6","study_id":"6197b3f67c2b5cd3b6d9596a","session_id":"6197b9e6649d77c5436b4295","condition":"full-information","relevant_dimensions":["antennae","legs"],"bee_group":{"antennae":"B","wings":"X","pattern":"X","legs":"F"},"bonus":0.11999999999999998},{"rt":4049,"stimulus":"bees-with-color/bee-B1DF.svg","response":1,"trial_type":"image-button-response","trial_index":141,"time_elapsed":320555,"internal_node_id":"0.0-6.0-0.1","subject_id":"600edc6aacc6285957bd1cd6","study_id":"6197b3f67c2b5cd3b6d9596a","session_id":"6197b9e6649d77c5436b4295","condition":"full-information","relevant_dimensions":["antennae","legs"],"bee_group":{"antennae":"B","wings":"X","pattern":"X","legs":"F"},"bonus":0.11999999999999998},{"rt":1586.9000000953674,"stimulus":"bees-with-color/bee-A1DM.svg","response":0,"trial_type":"image-button-response","trial_index":142,"time_elapsed":322144,"internal_node_id":"0.0-6.0-0.2","subject_id":"600edc6aacc6285957bd1cd6","study_id":"6197b3f67c2b5cd3b6d9596a","session_id":"6197b9e6649d77c5436b4295","condition":"full-information","relevant_dimensions":["antennae","legs"],"bee_group":{"antennae":"B","wings":"X","pattern":"X","legs":"F"},"bonus":0.11999999999999998},{"rt":1126.2999999523163,"stimulus":"bees-with-color/bee-A2SM.svg","response":0,"trial_type":"image-button-response","trial_index":143,"time_elapsed":323272,"internal_node_id":"0.0-6.0-0.3","subject_id":"600edc6aacc6285957bd1cd6","study_id":"6197b3f67c2b5cd3b6d9596a","session_id":"6197b9e6649d77c5436b4295","condition":"full-information","relevant_dimensions":["antennae","legs"],"bee_group":{"antennae":"B","wings":"X","pattern":"X","legs":"F"},"bonus":0.11999999999999998},{"rt":1145.2999999523163,"stimulus":"bees-with-color/bee-A2DF.svg","response":0,"trial_type":"image-button-response","trial_index":144,"time_elapsed":324419,"internal_node_id":"0.0-6.0-0.4","subject_id":"600edc6aacc6285957bd1cd6","study_id":"6197b3f67c2b5cd3b6d9596a","session_id":"6197b9e6649d77c5436b4295","condition":"full-information","relevant_dimensions":["antennae","legs"],"bee_group":{"antennae":"B","wings":"X","pattern":"X","legs":"F"},"bonus":0.11999999999999998},{"rt":2008.7999999523163,"stimulus":"bees-with-color/bee-A1SF.svg","response":0,"trial_type":"image-button-response","trial_index":145,"time_elapsed":326430,"internal_node_id":"0.0-6.0-0.5","subject_id":"600edc6aacc6285957bd1cd6","study_id":"6197b3f67c2b5cd3b6d9596a","session_id":"6197b9e6649d77c5436b4295","condition":"full-information","relevant_dimensions":["antennae","legs"],"bee_group":{"antennae":"B","wings":"X","pattern":"X","legs":"F"},"bonus":0.11999999999999998},{"rt":1049.8999998569489,"stimulus":"bees-with-color/bee-B2SF.svg","response":0,"trial_type":"image-button-response","trial_index":146,"time_elapsed":327482,"internal_node_id":"0.0-6.0-0.6","subject_id":"600edc6aacc6285957bd1cd6","study_id":"6197b3f67c2b5cd3b6d9596a","session_id":"6197b9e6649d77c5436b4295","condition":"full-information","relevant_dimensions":["antennae","legs"],"bee_group":{"antennae":"B","wings":"X","pattern":"X","legs":"F"},"bonus":0.11999999999999998},{"rt":1390.5999999046326,"stimulus":"bees-with-color/bee-A2DM.svg","response":0,"trial_type":"image-button-response","trial_index":147,"time_elapsed":328874,"internal_node_id":"0.0-6.0-0.7","subject_id":"600edc6aacc6285957bd1cd6","study_id":"6197b3f67c2b5cd3b6d9596a","session_id":"6197b9e6649d77c5436b4295","condition":"full-information","relevant_dimensions":["antennae","legs"],"bee_group":{"antennae":"B","wings":"X","pattern":"X","legs":"F"},"bonus":0.11999999999999998},{"rt":1330.3000001907349,"stimulus":"bees-with-color/bee-B1SF.svg","response":1,"trial_type":"image-button-response","trial_index":148,"time_elapsed":330206,"internal_node_id":"0.0-6.0-0.8","subject_id":"600edc6aacc6285957bd1cd6","study_id":"6197b3f67c2b5cd3b6d9596a","session_id":"6197b9e6649d77c5436b4295","condition":"full-information","relevant_dimensions":["antennae","legs"],"bee_group":{"antennae":"B","wings":"X","pattern":"X","legs":"F"},"bonus":0.11999999999999998},{"rt":1499.7000000476837,"stimulus":"bees-with-color/bee-A2SF.svg","response":0,"trial_type":"image-button-response","trial_index":149,"time_elapsed":331708,"internal_node_id":"0.0-6.0-0.9","subject_id":"600edc6aacc6285957bd1cd6","study_id":"6197b3f67c2b5cd3b6d9596a","session_id":"6197b9e6649d77c5436b4295","condition":"full-information","relevant_dimensions":["antennae","legs"],"bee_group":{"antennae":"B","wings":"X","pattern":"X","legs":"F"},"bonus":0.11999999999999998},{"rt":2996.600000143051,"stimulus":"bees-with-color/bee-B1SM.svg","response":1,"trial_type":"image-button-response","trial_index":150,"time_elapsed":334706,"internal_node_id":"0.0-6.0-0.10","subject_id":"600edc6aacc6285957bd1cd6","study_id":"6197b3f67c2b5cd3b6d9596a","session_id":"6197b9e6649d77c5436b4295","condition":"full-information","relevant_dimensions":["antennae","legs"],"bee_group":{"antennae":"B","wings":"X","pattern":"X","legs":"F"},"bonus":0.11999999999999998},{"rt":1312.5,"stimulus":"bees-with-color/bee-A1SM.svg","response":0,"trial_type":"image-button-response","trial_index":151,"time_elapsed":336020,"internal_node_id":"0.0-6.0-0.11","subject_id":"600edc6aacc6285957bd1cd6","study_id":"6197b3f67c2b5cd3b6d9596a","session_id":"6197b9e6649d77c5436b4295","condition":"full-information","relevant_dimensions":["antennae","legs"],"bee_group":{"antennae":"B","wings":"X","pattern":"X","legs":"F"},"bonus":0.11999999999999998},{"rt":910.4000000953674,"stimulus":"bees-with-color/bee-B1DM.svg","response":0,"trial_type":"image-button-response","trial_index":152,"time_elapsed":336932,"internal_node_id":"0.0-6.0-0.12","subject_id":"600edc6aacc6285957bd1cd6","study_id":"6197b3f67c2b5cd3b6d9596a","session_id":"6197b9e6649d77c5436b4295","condition":"full-information","relevant_dimensions":["antennae","legs"],"bee_group":{"antennae":"B","wings":"X","pattern":"X","legs":"F"},"bonus":0.11999999999999998},{"rt":941.5,"stimulus":"bees-with-color/bee-A1DF.svg","response":0,"trial_type":"image-button-response","trial_index":153,"time_elapsed":337876,"internal_node_id":"0.0-6.0-0.13","subject_id":"600edc6aacc6285957bd1cd6","study_id":"6197b3f67c2b5cd3b6d9596a","session_id":"6197b9e6649d77c5436b4295","condition":"full-information","relevant_dimensions":["antennae","legs"],"bee_group":{"antennae":"B","wings":"X","pattern":"X","legs":"F"},"bonus":0.11999999999999998},{"rt":831.7000000476837,"stimulus":"bees-with-color/bee-B2DM.svg","response":0,"trial_type":"image-button-response","trial_index":154,"time_elapsed":338709,"internal_node_id":"0.0-6