[{"success":true,"trial_type":"fullscreen","trial_index":0,"time_elapsed":2763,"internal_node_id":"0.0-0.0","subject_id":"61477af04f922bba4fab7ba6","study_id":"6197b3f67c2b5cd3b6d9596a","session_id":"619be788d38ef20e51546309","condition":"full-information","relevant_dimensions":["pattern","legs"],"bee_group":{"antennae":"X","wings":"X","pattern":"D","legs":"M"},"bonus":0.9600000000000007},{"success":true,"timeout":false,"failed_images":[],"failed_audio":[],"failed_video":[],"trial_type":"preload","trial_index":1,"time_elapsed":4221,"internal_node_id":"0.0-1.0","subject_id":"61477af04f922bba4fab7ba6","study_id":"6197b3f67c2b5cd3b6d9596a","session_id":"619be788d38ef20e51546309","condition":"full-information","relevant_dimensions":["pattern","legs"],"bee_group":{"antennae":"X","wings":"X","pattern":"D","legs":"M"},"bonus":0.9600000000000007},{"rt":8071,"stimulus":"Welcome! Press any key to begin.","response":" ","trial_type":"html-keyboard-response","trial_index":2,"time_elapsed":12294,"internal_node_id":"0.0-2.0","subject_id":"61477af04f922bba4fab7ba6","study_id":"6197b3f67c2b5cd3b6d9596a","session_id":"619be788d38ef20e51546309","condition":"full-information","relevant_dimensions":["pattern","legs"],"bee_group":{"antennae":"X","wings":"X","pattern":"D","legs":"M"},"bonus":0.9600000000000007},{"view_history":[{"page_index":0,"viewing_time":904},{"page_index":1,"viewing_time":1192},{"page_index":2,"viewing_time":611},{"page_index":3,"viewing_time":882},{"page_index":4,"viewing_time":482},{"page_index":5,"viewing_time":703},{"page_index":6,"viewing_time":462},{"page_index":7,"viewing_time":2141},{"page_index":8,"viewing_time":961},{"page_index":9,"viewing_time":1453},{"page_index":10,"viewing_time":823},{"page_index":11,"viewing_time":1101},{"page_index":12,"viewing_time":1002},{"page_index":13,"viewing_time":512},{"page_index":14,"viewing_time":422}],"rt":13651,"trial_type":"instructions","trial_index":3,"time_elapsed":25945,"internal_node_id":"0.0-3.0-0.0","subject_id":"61477af04f922bba4fab7ba6","study_id":"6197b3f67c2b5cd3b6d9596a","session_id":"619be788d38ef20e51546309","condition":"full-information","relevant_dimensions":["pattern","legs"],"bee_group":{"antennae":"X","wings":"X","pattern":"D","legs":"M"},"bonus":0.9600000000000007},{"rt":6749,"response":{"Q0":["Two or six legs","Stripes or spots on body","Single or double wings","Antennae or no antennae"]},"question_order":[0],"trial_type":"survey-multi-select","trial_index":4,"time_elapsed":32696,"internal_node_id":"0.0-3.0-1.0","subject_id":"61477af04f922bba4fab7ba6","study_id":"6197b3f67c2b5cd3b6d9596a","session_id":"619be788d38ef20e51546309","condition":"full-information","relevant_dimensions":["pattern","legs"],"bee_group":{"antennae":"X","wings":"X","pattern":"D","legs":"M"},"correct":true,"bonus":0.9600000000000007},{"rt":7605,"response":{"Q1":"No.","Q2":"Based on the four features of the bee.","Q3":"You do not learn if it was friendly or dangerous, and do not alter your bonus."},"question_order":[0,1,2],"trial_type":"survey-multi-choice","trial_index":5,"time_elapsed":40303,"internal_node_id":"0.0-3.0-2.0","subject_id":"61477af04f922bba4fab7ba6","study_id":"6197b3f67c2b5cd3b6d9596a","session_id":"619be788d38ef20e51546309","condition":"full-information","relevant_dimensions":["pattern","legs"],"bee_group":{"antennae":"X","wings":"X","pattern":"D","legs":"M"},"correct":false,"bonus":0.9600000000000007},{"rt":5051,"stimulus":"<p>You did not answer all comprehension questions correctly.<br>Press <b>continue</b> to review the instructions again.</p>","response":0,"trial_type":"html-button-response","trial_index":6,"time_elapsed":45355,"internal_node_id":"0.0-3.0-3.0","subject_id":"61477af04f922bba4fab7ba6","study_id":"6197b3f67c2b5cd3b6d9596a","session_id":"619be788d38ef20e51546309","condition":"full-information","relevant_dimensions":["pattern","legs"],"bee_group":{"antennae":"X","wings":"X","pattern":"D","legs":"M"},"bonus":0.9600000000000007},{"view_history":[{"page_index":0,"viewing_time":2750},{"page_index":1,"viewing_time":1432},{"page_index":2,"viewing_time":1417},{"page_index":3,"viewing_time":2491},{"page_index":4,"viewing_time":12052},{"page_index":5,"viewing_time":2342},{"page_index":6,"viewing_time":602},{"page_index":7,"viewing_time":902},{"page_index":8,"viewing_time":212},{"page_index":9,"viewing_time":212},{"page_index":10,"viewing_time":373},{"page_index":11,"viewing_time":601},{"page_index":12,"viewing_time":713},{"page_index":13,"viewing_time":851},{"page_index":14,"viewing_time":812}],"rt":27762,"trial_type":"instructions","trial_index":7,"time_elapsed":73119,"internal_node_id":"0.0-3.0-4.0-0.0","subject_id":"61477af04f922bba4fab7ba6","study_id":"6197b3f67c2b5cd3b6d9596a","session_id":"619be788d38ef20e51546309","condition":"full-information","relevant_dimensions":["pattern","legs"],"bee_group":{"antennae":"X","wings":"X","pattern":"D","legs":"M"},"bonus":0.9600000000000007},{"rt":4113,"response":{"Q0":["Two or six legs","Stripes or spots on body","Single or double wings","Antennae or no antennae"]},"question_order":[0],"trial_type":"survey-multi-select","trial_index":8,"time_elapsed":77234,"internal_node_id":"0.0-3.0-4.0-1.0","subject_id":"61477af04f922bba4fab7ba6","study_id":"6197b3f67c2b5cd3b6d9596a","session_id":"619be788d38ef20e51546309","condition":"full-information","relevant_dimensions":["pattern","legs"],"bee_group":{"antennae":"X","wings":"X","pattern":"D","legs":"M"},"correct":true,"bonus":0.9600000000000007},{"rt":11515,"response":{"Q1":"No.","Q2":"Based on the four features of the bee.","Q3":"You learn if it was friendly or dangerous, but do not alter your bonus."},"question_order":[0,1,2],"trial_type":"survey-multi-choice","trial_index":9,"time_elapsed":88751,"internal_node_id":"0.0-3.0-4.0-2.0","subject_id":"61477af04f922bba4fab7ba6","study_id":"6197b3f67c2b5cd3b6d9596a","session_id":"619be788d38ef20e51546309","condition":"full-information","relevant_dimensions":["pattern","legs"],"bee_group":{"antennae":"X","wings":"X","pattern":"D","legs":"M"},"correct":true,"bonus":0.9600000000000007},{"rt":1300,"stimulus":"<p>Congrats, you got everything right<br>When you're ready, click the button below to continue to the experiment.</p>","response":0,"trial_type":"html-button-response","trial_index":10,"time_elapsed":90053,"internal_node_id":"0.0-3.0-4.0-3.0","subject_id":"61477af04f922bba4fab7ba6","study_id":"6197b3f67c2b5cd3b6d9596a","session_id":"619be788d38ef20e51546309","condition":"full-information","relevant_dimensions":["pattern","legs"],"bee_group":{"antennae":"X","wings":"X","pattern":"D","legs":"M"},"bonus":0.9600000000000007},{"rt":2969,"stimulus":"bees-with-color/bee-A1SF.svg","response":0,"trial_type":"image-button-response","trial_index":11,"time_elapsed":93025,"internal_node_id":"0.0-4.0-0.0","subject_id":"61477af04f922bba4fab7ba6","study_id":"6197b3f67c2b5cd3b6d9596a","session_id":"619be788d38ef20e51546309","condition":"full-information","relevant_dimensions":["pattern","legs"],"bee_group":{"antennae":"X","wings":"X","pattern":"D","legs":"M"},"action":"harvest","summary":"good-harvest","bonus":0.9600000000000007},{"rt":669,"stimulus":"\n                    <p><b>Action: <em>harvest</em></b></p>\n                    <p>This is the bee that you just saw.</p>\n                    <img src=\"bees-with-color/bee-A1SF.svg\" width=\"200\">\n                    <p><span class=\"greenText\"><b>Successful harvest!</b></span><br>Your pay has increased by $0.02. Your bonus pay is now $0.56.</p>\n            ","response":0,"trial_type":"html-button-response","trial_index":12,"time_elapsed":93697,"internal_node_id":"0.0-4.0-1.0","subject_id":"61477af04f922bba4fab7ba6","study_id":"6197b3f67c2b5cd3b6d9596a","session_id":"619be788d38ef20e51546309","condition":"full-information","relevant_dimensions":["pattern","legs"],"bee_group":{"antennae":"X","wings":"X","pattern":"D","legs":"M"},"bonus":0.9600000000000007},{"rt":7751,"stimulus":"bees-with-color/bee-A2SM.svg","response":1,"trial_type":"image-button-response","trial_index":13,"time_elapsed":101448,"internal_node_id":"0.0-4.0-0.1","subject_id":"61477af04f922bba4fab7ba6","study_id":"6197b3f67c2b5cd3b6d9596a","session_id":"619be788d38ef20e51546309","condition":"full-information","relevant_dimensions":["pattern","legs"],"bee_group":{"antennae":"X","wings":"X","pattern":"D","legs":"M"},"action":"avoid","summary":"bad-avoid","bonus":0.9600000000000007},{"rt":16761,"stimulus":"\n                    <p><b>Action: <em>avoid</em></b></p>\n                    <p>This is the bee that you just saw.</p>\n                    <img src=\"bees-with-color/bee-A2SM.svg\" width=\"200\">\n                    <p><span class=\"redText\">Bad choice,</span> the bee was friendly.<br>Your bonus pay is unchanged, and remains at $0.56.</p>\n            ","response":0,"trial_type":"html-button-response","trial_index":14,"time_elapsed":118210,"internal_node_id":"0.0-4.0-1.1","subject_id":"61477af04f922bba4fab7ba6","study_id":"6197b3f67c2b5cd3b6d9596a","session_id":"619be788d38ef20e51546309","condition":"full-information","relevant_dimensions":["pattern","legs"],"bee_group":{"antennae":"X","wings":"X","pattern":"D","legs":"M"},"bonus":0.9600000000000007},{"rt":992,"stimulus":"bees-with-color/bee-B2SM.svg","response":0,"trial_type":"image-button-response","trial_index":15,"time_elapsed":119203,"internal_node_id":"0.0-4.0-0.2","subject_id":"61477af04f922bba4fab7ba6","study_id":"6197b3f67c2b5cd3b6d9596a","session_id":"619be788d38ef20e51546309","condition":"full-information","relevant_dimensions":["pattern","legs"],"bee_group":{"antennae":"X","wings":"X","pattern":"D","legs":"M"},"action":"harvest","summary":"good-harvest","bonus":0.9600000000000007},{"rt":680,"stimulus":"\n                    <p><b>Action: <em>harvest</em></b></p>\n                    <p>This is the bee that you just saw.</p>\n                    <img src=\"bees-with-color/bee-B2SM.svg\" width=\"200\">\n                    <p><span class=\"greenText\"><b>Successful harvest!</b></span><br>Your pay has increased by $0.02. Your bonus pay is now $0.58.</p>\n            ","response":0,"trial_type":"html-button-response","trial_index":16,"time_elapsed":119885,"internal_node_id":"0.0-4.0-1.2","subject_id":"61477af04f922bba4fab7ba6","study_id":"6197b3f67c2b5cd3b6d9596a","session_id":"619be788d38ef20e51546309","condition":"full-information","relevant_dimensions":["pattern","legs"],"bee_group":{"antennae":"X","wings":"X","pattern":"D","legs":"M"},"bonus":0.9600000000000007},{"rt":420,"stimulus":"bees-with-color/bee-B2DM.svg","response":0,"trial_type":"image-button-response","trial_index":17,"time_elapsed":120307,"internal_node_id":"0.0-4.0-0.3","subject_id":"61477af04f922bba4fab7ba6","study_id":"6197b3f67c2b5cd3b6d9596a","session_id":"619be788d38ef20e51546309","condition":"full-information","relevant_dimensions":["pattern","legs"],"bee_group":{"antennae":"X","wings":"X","pattern":"D","legs":"M"},"action":"harvest","summary":"bad-harvest","bonus":0.9600000000000007},{"rt":4970,"stimulus":"\n                    <p><b>Action: <em>harvest</em></b></p>\n                    <p>This is the bee that you just saw.</p>\n                    <img src=\"bees-with-color/bee-B2DM.svg\" width=\"200\">\n                    <p><span class=\"redText\">Bad choice, the bee was angry.</span><br><b>You have been stung!</b><br>Your pay has been decreased by $0.10. Your bonus pay is now $0.48.</p>\n            ","response":0,"trial_type":"html-button-response","trial_index":18,"time_elapsed":125279,"internal_node_id":"0.0-4.0-1.3","subject_id":"61477af04f922bba4fab7ba6","study_id":"6197b3f67c2b5cd3b6d9596a","session_id":"619be788d38ef20e51546309","condition":"full-information","relevant_dimensions":["pattern","legs"],"bee_group":{"antennae":"X","wings":"X","pattern":"D","legs":"M"},"bonus":0.9600000000000007},{"rt":581,"stimulus":"bees-with-color/bee-A2SF.svg","response":0,"trial_type":"image-button-response","trial_index":19,"time_elapsed":125860,"internal_node_id":"0.0-4.0-0.4","subject_id":"61477af04f922bba4fab7ba6","study_id":"6197b3f67c2b5cd3b6d9596a","session_id":"619be788d38ef20e51546309","condition":"full-information","relevant_dimensions":["pattern","legs"],"bee_group":{"antennae":"X","wings":"X","pattern":"D","legs":"M"},"action":"harvest","summary":"good-harvest","bonus":0.9600000000000007},{"rt":641,"stimulus":"\n                    <p><b>Action: <em>harvest</em></b></p>\n                    <p>This is the bee that you just saw.</p>\n                    <img src=\"bees-with-color/bee-A2SF.svg\" width=\"200\">\n                    <p><span class=\"greenText\"><b>Successful harvest!</b></span><br>Your pay has increased by $0.02. Your bonus pay is now $0.50.</p>\n            ","response":0,"trial_type":"html-button-response","trial_index":20,"time_elapsed":126502,"internal_node_id":"0.0-4.0-1.4","subject_id":"61477af04f922bba4fab7ba6","study_id":"6197b3f67c2b5cd3b6d9596a","session_id":"619be788d38ef20e51546309","condition":"full-information","relevant_dimensions":["pattern","legs"],"bee_group":{"antennae":"X","wings":"X","pattern":"D","legs":"M"},"bonus":0.9600000000000007},{"rt":401,"stimulus":"bees-with-color/bee-B1DM.svg","response":0,"trial_type":"image-button-response","trial_index":21,"time_elapsed":126904,"internal_node_id":"0.0-4.0-0.5","subject_id":"61477af04f922bba4fab7ba6","study_id":"6197b3f67c2b5cd3b6d9596a","session_id":"619be788d38ef20e51546309","condition":"full-information","relevant_dimensions":["pattern","legs"],"bee_group":{"antennae":"X","wings":"X","pattern":"D","legs":"M"},"action":"harvest","summary":"bad-harvest","bonus":0.9600000000000007},{"rt":3370,"stimulus":"\n                    <p><b>Action: <em>harvest</em></b></p>\n                    <p>This is the bee that you just saw.</p>\n                    <img src=\"bees-with-color/bee-B1DM.svg\" width=\"200\">\n                    <p><span class=\"redText\">Bad choice, the bee was angry.</span><br><b>You have been stung!</b><br>Your pay has been decreased by $0.10. Your bonus pay is now $0.40.</p>\n            ","response":0,"trial_type":"html-button-response","trial_index":22,"time_elapsed":130276,"internal_node_id":"0.0-4.0-1.5","subject_id":"61477af04f922bba4fab7ba6","study_id":"6197b3f67c2b5cd3b6d9596a","session_id":"619be788d38ef20e51546309","condition":"full-information","relevant_dimensions":["pattern","legs"],"bee_group":{"antennae":"X","wings":"X","pattern":"D","legs":"M"},"bonus":0.9600000000000007},{"rt":431,"stimulus":"bees-with-color/bee-B2DF.svg","response":0,"trial_type":"image-button-response","trial_index":23,"time_elapsed":130708,"internal_node_id":"0.0-4.0-0.6","subject_id":"61477af04f922bba4fab7ba6","study_id":"6197b3f67c2b5cd3b6d9596a","session_id":"619be788d38ef20e51546309","condition":"full-information","relevant_dimensions":["pattern","legs"],"bee_group":{"antennae":"X","wings":"X","pattern":"D","legs":"M"},"action":"harvest","summary":"good-harvest","bonus":0.9600000000000007},{"rt":521,"stimulus":"\n                    <p><b>Action: <em>harvest</em></b></p>\n                    <p>This is the bee that you just saw.</p>\n                    <img src=\"bees-with-color/bee-B2DF.svg\" width=\"200\">\n                    <p><span class=\"greenText\"><b>Successful harvest!</b></span><br>Your pay has increased by $0.02. Your bonus pay is now $0.42.</p>\n            ","response":0,"trial_type":"html-button-response","trial_index":24,"time_elapsed":131231,"internal_node_id":"0.0-4.0-1.6","subject_id":"61477af04f922bba4fab7ba6","study_id":"6197b3f67c2b5cd3b6d9596a","session_id":"619be788d38ef20e51546309","condition":"full-information","relevant_dimensions":["pattern","legs"],"bee_group":{"antennae":"X","wings":"X","pattern":"D","legs":"M"},"bonus":0.9600000000000007},{"rt":392,"stimulus":"bees-with-color/bee-B2SF.svg","response":0,"trial_type":"image-button-response","trial_index":25,"time_elapsed":131623,"internal_node_id":"0.0-4.0-0.7","subject_id":"61477af04f922bba4fab7ba6","study_id":"6197b3f67c2b5cd3b6d9596a","session_id":"619be788d38ef20e51546309","condition":"full-information","relevant_dimensions":["pattern","legs"],"bee_group":{"antennae":"X","wings":"X","pattern":"D","legs":"M"},"action":"harvest","summary":"good-harvest","bonus":0.9600000000000007},{"rt":430,"stimulus":"\n                    <p><b>Action: <em>harvest</em></b></p>\n                    <p>This is the bee that you just saw.</p>\n                    <img src=\"bees-with-color/bee-B2SF.svg\" width=\"200\">\n                    <p><span class=\"greenText\"><b>Successful harvest!</b></span><br>Your pay has increased by $0.02. Your bonus pay is now $0.44.</p>\n            ","response":0,"trial_type":"html-button-response","trial_index":26,"time_elapsed":132054,"internal_node_id":"0.0-4.0-1.7","subject_id":"61477af04f922bba4fab7ba6","study_id":"6197b3f67c2b5cd3b6d9596a","session_id":"619be788d38ef20e51546309","condition":"full-information","relevant_dimensions":["pattern","legs"],"bee_group":{"antennae":"X","wings":"X","pattern":"D","legs":"M"},"bonus":0.9600000000000007},{"rt":382,"stimulus":"bees-with-color/bee-A2DM.svg","response":0,"trial_type":"image-button-response","trial_index":27,"time_elapsed":132437,"internal_node_id":"0.0-4.0-0.8","subject_id":"61477af04f922bba4fab7ba6","study_id":"6197b3f67c2b5cd3b6d9596a","session_id":"619be788d38ef20e51546309","condition":"full-information","relevant_dimensions":["pattern","legs"],"bee_group":{"antennae":"X","wings":"X","pattern":"D","legs":"M"},"action":"harvest","summary":"bad-harvest","bonus":0.9600000000000007},{"rt":19822,"stimulus":"\n                    <p><b>Action: <em>harvest</em></b></p>\n                    <p>This is the bee that you just saw.</p>\n                    <img src=\"bees-with-color/bee-A2DM.svg\" width=\"200\">\n                    <p><span class=\"redText\">Bad choice, the bee was angry.</span><br><b>You have been stung!</b><br>Your pay has been decreased by $0.10. Your bonus pay is now $0.34.</p>\n            ","response":0,"trial_type":"html-button-response","trial_index":28,"time_elapsed":152260,"internal_node_id":"0.0-4.0-1.8","subject_id":"61477af04f922bba4fab7ba6","study_id":"6197b3f67c2b5cd3b6d9596a","session_id":"619be788d38ef20e51546309","condition":"full-information","relevant_dimensions":["pattern","legs"],"bee_group":{"antennae":"X","wings":"X","pattern":"D","legs":"M"},"bonus":0.9600000000000007},{"rt":2631,"stimulus":"bees-with-color/bee-B1SM.svg","response":0,"trial_type":"image-button-response","trial_index":29,"time_elapsed":154893,"internal_node_id":"0.0-4.0-0.9","subject_id":"61477af04f922bba4fab7ba6","study_id":"6197b3f67c2b5cd3b6d9596a","session_id":"619be788d38ef20e51546309","condition":"full-information","relevant_dimensions":["pattern","legs"],"bee_group":{"antennae":"X","wings":"X","pattern":"D","legs":"M"},"action":"harvest","summary":"good-harvest","bonus":0.9600000000000007},{"rt":631,"stimulus":"\n                    <p><b>Action: <em>harvest</em></b></p>\n                    <p>This is the bee that you just saw.</p>\n                    <img src=\"bees-with-color/bee-B1SM.svg\" width=\"200\">\n                    <p><span class=\"greenText\"><b>Successful harvest!</b></span><br>Your pay has increased by $0.02. Your bonus pay is now $0.36.</p>\n            ","response":0,"trial_type":"html-button-response","trial_index":30,"time_elapsed":155525,"internal_node_id":"0.0-4.0-1.9","subject_id":"61477af04f922bba4fab7ba6","study_id":"6197b3f67c2b5cd3b6d9596a","session_id":"619be788d38ef20e51546309","condition":"full-information","relevant_dimensions":["pattern","legs"],"bee_group":{"antennae":"X","wings":"X","pattern":"D","legs":"M"},"bonus":0.9600000000000007},{"rt":3592,"stimulus":"bees-with-color/bee-A1DF.svg","response":0,"trial_type":"image-button-response","trial_index":31,"time_elapsed":159118,"internal_node_id":"0.0-4.0-0.10","subject_id":"61477af04f922bba4fab7ba6","study_id":"6197b3f67c2b5cd3b6d9596a","session_id":"619be788d38ef20e51546309","condition":"full-information","relevant_dimensions":["pattern","legs"],"bee_group":{"antennae":"X","wings":"X","pattern":"D","legs":"M"},"action":"harvest","summary":"good-harvest","bonus":0.9600000000000007},{"rt":540,"stimulus":"\n                    <p><b>Action: <em>harvest</em></b></p>\n                    <p>This is the bee that you just saw.</p>\n                    <img src=\"bees-with-color/bee-A1DF.svg\" width=\"200\">\n                    <p><span class=\"greenText\"><b>Successful harvest!</b></span><br>Your pay has increased by $0.02. Your bonus pay is now $0.38.</p>\n            ","response":0,"trial_type":"html-button-response","trial_index":32,"time_elapsed":159660,"internal_node_id":"0.0-4.0-1.10","subject_id":"61477af04f922bba4fab7ba6","study_id":"6197b3f67c2b5cd3b6d9596a","session_id":"619be788d38ef20e51546309","condition":"full-information","relevant_dimensions":["pattern","legs"],"bee_group":{"antennae":"X","wings":"X","pattern":"D","legs":"M"},"bonus":0.9600000000000007},{"rt":2721,"stimulus":"bees-with-color/bee-B1DF.svg","response":0,"trial_type":"image-button-response","trial_index":33,"time_elapsed":162383,"internal_node_id":"0.0-4.0-0.11","subject_id":"61477af04f922bba4fab7ba6","study_id":"6197b3f67c2b5cd3b6d9596a","session_id":"619be788d38ef20e51546309","condition":"full-information","relevant_dimensions":["pattern","legs"],"bee_group":{"antennae":"X","wings":"X","pattern":"D","legs":"M"},"action":"harvest","summary":"good-harvest","bonus":0.9600000000000007},{"rt":521,"stimulus":"\n                    <p><b>Action: <em>harvest</em></b></p>\n                    <p>This is the bee that you just saw.</p>\n                    <img src=\"bees-with-color/bee-B1DF.svg\" width=\"200\">\n                    <p><span class=\"greenText\"><b>Successful harvest!</b></span><br>Your pay has increased by $0.02. Your bonus pay is now $0.40.</p>\n            ","response":0,"trial_type":"html-button-response","trial_index":34,"time_elapsed":162905,"internal_node_id":"0.0-4.0-1.11","subject_id":"61477af04f922bba4fab7ba6","study_id":"6197b3f67c2b5cd3b6d9596a","session_id":"619be788d38ef20e51546309","condition":"full-information","relevant_dimensions":["pattern","legs"],"bee_group":{"antennae":"X","wings":"X","pattern":"D","legs":"M"},"bonus":0.9600000000000007},{"rt":2040,"stimulus":"bees-with-color/bee-A1SM.svg","response":0,"trial_type":"image-button-response","trial_index":35,"time_elapsed":164946,"internal_node_id":"0.0-4.0-0.12","subject_id":"61477af04f922bba4fab7ba6","study_id":"6197b3f67c2b5cd3b6d9596a","session_id":"619be788d38ef20e51546309","condition":"full-information","relevant_dimensions":["pattern","legs"],"bee_group":{"antennae":"X","wings":"X","pattern":"D","legs":"M"},"action":"harvest","summary":"good-harvest","bonus":0.9600000000000007},{"rt":550,"stimulus":"\n                    <p><b>Action: <em>harvest</em></b></p>\n                    <p>This is the bee that you just saw.</p>\n                    <img src=\"bees-with-color/bee-A1SM.svg\" width=\"200\">\n                    <p><span class=\"greenText\"><b>Successful harvest!</b></span><br>Your pay has increased by $0.02. Your bonus pay is now $0.42.</p>\n            ","response":0,"trial_type":"html-button-response","trial_index":36,"time_elapsed":165499,"internal_node_id":"0.0-4.0-1.12","subject_id":"61477af04f922bba4fab7ba6","study_id":"6197b3f67c2b5cd3b6d9596a","session_id":"619be788d38ef20e51546309","condition":"full-information","relevant_dimensions":["pattern","legs"],"bee_group":{"antennae":"X","wings":"X","pattern":"D","legs":"M"},"bonus":0.9600000000000007},{"rt":1842,"stimulus":"bees-with-color/bee-B1SF.svg","response":0,"trial_type":"image-button-response","trial_index":37,"time_elapsed":167341,"internal_node_id":"0.0-4.0-0.13","subject_id":"61477af04f922bba4fab7ba6","study_id":"6197b3f67c2b5cd3b6d9596a","session_id":"619be788d38ef20e51546309","condition":"full-information","relevant_dimensions":["pattern","legs"],"bee_group":{"antennae":"X","wings":"X","pattern":"D","legs":"M"},"action":"harvest","summary":"good-harvest","bonus":0.9600000000000007},{"rt":832,"stimulus":"\n                    <p><b>Action: <em>harvest</em></b></p>\n                    <p>This is the bee that you just saw.</p>\n                    <img src=\"bees-with-color/bee-B1SF.svg\" width=\"200\">\n                    <p><span class=\"greenText\"><b>Successful harvest!</b></span><br>Your pay has increased by $0.02. Your bonus pay is now $0.44.</p>\n            ","response":0,"trial_type":"html-button-response","trial_index":38,"time_elapsed":168174,"internal_node_id":"0.0-4.0-1.13","subject_id":"61477af04f922bba4fab7ba6","study_id":"6197b3f67c2b5cd3b6d9596a","session_id":"619be788d38ef20e51546309","condition":"full-information","relevant_dimensions":["pattern","legs"],"bee_group":{"antennae":"X","wings":"X","pattern":"D","legs":"M"},"bonus":0.9600000000000007},{"rt":620,"stimulus":"bees-with-color/bee-A2DF.svg","response":0,"trial_type":"image-button-response","trial_index":39,"time_elapsed":168796,"internal_node_id":"0.0-4.0-0.14","subject_id":"61477af04f922bba4fab7ba6","study_id":"6197b3f67c2b5cd3b6d9596a","session_id":"619be788d38ef20e51546309","condition":"full-information","relevant_dimensions":["pattern","legs"],"bee_group":{"antennae":"X","wings":"X","pattern":"D","legs":"M"},"action":"harvest","summary":"good-harvest","bonus":0.9600000000000007},{"rt":480,"stimulus":"\n                    <p><b>Action: <em>harvest</em></b></p>\n                    <p>This is the bee that you just saw.</p>\n                    <img src=\"bees-with-color/bee-A2DF.svg\" width=\"200\">\n                    <p><span class=\"greenText\"><b>Successful harvest!</b></span><br>Your pay has increased by $0.02. Your bonus pay is now $0.46.</p>\n            ","response":0,"trial_type":"html-button-response","trial_index":40,"time_elapsed":169279,"internal_node_id":"0.0-4.0-1.14","subject_id":"61477af04f922bba4fab7ba6","study_id":"6197b3f67c2b5cd3b6d9596a","session_id":"619be788d38ef20e51546309","condition":"full-information","relevant_dimensions":["pattern","legs"],"bee_group":{"antennae":"X","wings":"X","pattern":"D","legs":"M"},"bonus":0.9600000000000007},{"rt":3131,"stimulus":"bees-with-color/bee-A1DM.svg","response":1,"trial_type":"image-button-response","trial_index":41,"time_elapsed":172410,"internal_node_id":"0.0-4.0-0.15","subject_id":"61477af04f922bba4fab7ba6","study_id":"6197b3f67c2b5cd3b6d9596a","session_id":"619be788d38ef20e51546309","condition":"full-information","relevant_dimensions":["pattern","legs"],"bee_group":{"antennae":"X","wings":"X","pattern":"D","legs":"M"},"action":"avoid","summary":"good-avoid","bonus":0.9600000000000007},{"rt":1712,"stimulus":"\n                    <p><b>Action: <em>avoid</em></b></p>\n                    <p>This is the bee that you just saw.</p>\n                    <img src=\"bees-with-color/bee-A1DM.svg\" width=\"200\">\n                    <p><span class=\"greenText\">Good choice!</span>  This bee would have stung you.<br>Your bonus pay is unchanged, and remains at $0.46.</p>\n            ","response":0,"trial_type":"html-button-response","trial_index":42,"time_elapsed":174122,"internal_node_id":"0.0-4.0-1.15","subject_id":"61477af04f922bba4fab7ba6","study_id":"6197b3f67c2b5cd3b6d9596a","session_id":"619be788d38ef20e51546309","condition":"full-information","relevant_dimensions":["pattern","legs"],"bee_group":{"antennae":"X","wings":"X","pattern":"D","legs":"M"},"bonus":0.9600000000000007},{"rt":2341,"stimulus":"bees-with-color/bee-A2DM.svg","response":1,"trial_type":"image-button-response","trial_index":43,"time_elapsed":176465,"internal_node_id":"0.0-4.0-0.16","subject_id":"61477af04f922bba4fab7ba6","study_id":"6197b3f67c2b5cd3b6d9596a","session_id":"619be788d38ef20e51546309","condition":"full-information","relevant_dimensions":["pattern","legs"],"bee_group":{"antennae":"X","wings":"X","pattern":"D","legs":"M"},"action":"avoid","summary":"good-avoid","bonus":0.9600000000000007},{"rt":571,"stimulus":"\n                    <p><b>Action: <em>avoid</em></b></p>\n                    <p>This is the bee that you just saw.</p>\n                    <img src=\"bees-with-color/bee-A2DM.svg\" width=\"200\">\n                    <p><span class=\"greenText\">Good choice!</span>  This bee would have stung you.<br>Your bonus pay is unchanged, and remains at $0.46.</p>\n            ","response":0,"trial_type":"html-button-response","trial_index":44,"time_elapsed":177037,"internal_node_id":"0.0-4.0-1.16","subject_id":"61477af04f922bba4fab7ba6","study_id":"6197b3f67c2b5cd3b6d9596a","session_id":"619be788d38ef20e51546309","condition":"full-information","relevant_dimensions":["pattern","legs"],"bee_group":{"antennae":"X","wings":"X","pattern":"D","legs":"M"},"bonus":0.9600000000000007},{"rt":1851,"stimulus":"bees-with-color/bee-B2DF.svg","response":0,"trial_type":"image-button-response","trial_index":45,"time_elapsed":178889,"internal_node_id":"0.0-4.0-0.17","subject_id":"61477af04f922bba4fab7ba6","study_id":"6197b3f67c2b5cd3b6d9596a","session_id":"619be788d38ef20e51546309","condition":"full-information","relevant_dimensions":["pattern","legs"],"bee_group":{"antennae":"X","wings":"X","pattern":"D","legs":"M"},"action":"harvest","summary":"good-harvest","bonus":0.9600000000000007},{"rt":562,"stimulus":"\n                    <p><b>Action: <em>harvest</em></b></p>\n                    <p>This is the bee that you just saw.</p>\n                    <img src=\"bees-with-color/bee-B2DF.svg\" width=\"200\">\n                    <p><span class=\"greenText\"><b>Successful harvest!</b></span><br>Your pay has increased by $0.02. Your bonus pay is now $0.48.</p>\n            ","response":0,"trial_type":"html-button-response","trial_index":46,"time_elapsed":179451,"internal_node_id":"0.0-4.0-1.17","subject_id":"61477af04f922bba4fab7ba6","study_id":"6197b3f67c2b5cd3b6d9596a","session_id":"619be788d38ef20e51546309","condition":"full-information","relevant_dimensions":["pattern","legs"],"bee_group":{"antennae":"X","wings":"X","pattern":"D","legs":"M"},"bonus":0.9600000000000007},{"rt":2081,"stimulus":"bees-with-color/bee-B2SM.svg","response":0,"trial_type":"image-button-response","trial_index":47,"time_elapsed":181533,"internal_node_id":"0.0-4.0-0.18","subject_id":"61477af04f922bba4fab7ba6","study_id":"6197b3f67c2b5cd3b6d9596a","session_id":"619be788d38ef20e51546309","condition":"full-information","relevant_dimensions":["pattern","legs"],"bee_group":{"antennae":"X","wings":"X","pattern":"D","legs":"M"},"action":"harvest","summary":"good-harvest","bonus":0.9600000000000007},{"rt":582,"stimulus":"\n                    <p><b>Action: <em>harvest</em></b></p>\n                    <p>This is the bee that you just saw.</p>\n                    <img src=\"bees-with-color/bee-B2SM.svg\" width=\"200\">\n                    <p><span class=\"greenText\"><b>Successful harvest!</b></span><br>Your pay has increased by $0.02. Your bonus pay is now $0.50.</p>\n            ","response":0,"trial_type":"html-button-response","trial_index":48,"time_elapsed":182115,"internal_node_id":"0.0-4.0-1.18","subject_id":"61477af04f922bba4fab7ba6","study_id":"6197b3f67c2b5cd3b6d9596a","session_id":"619be788d38ef20e51546309","condition":"full-information","relevant_dimensions":["pattern","legs"],"bee_group":{"antennae":"X","wings":"X","pattern":"D","legs":"M"},"bonus":0.9600000000000007},{"rt":3520,"stimulus":"bees-with-color/bee-B1SF.svg","response":0,"trial_type":"image-button-response","trial_index":49,"time_elapsed":185637,"internal_node_id":"0.0-4.0-0.19","subject_id":"61477af04f922bba4fab7ba6","study_id":"6197b3f67c2b5cd3b6d9596a","session_id":"619be788d38ef20e51546309","condition":"full-information","relevant_dimensions":["pattern","legs"],"bee_group":{"antennae":"X","wings":"X","pattern":"D","legs":"M"},"action":"harvest","summary":"good-harvest","bonus":0.9600000000000007},{"rt":512,"stimulus":"\n                    <p><b>Action: <em>harvest</em></b></p>\n                    <p>This is the bee that you just saw.</p>\n                    <img src=\"bees-with-color/bee-B1SF.svg\" width=\"200\">\n                    <p><span class=\"greenText\"><b>Successful harvest!</b></span><br>Your pay has increased by $0.02. Your bonus pay is now $0.52.</p>\n            ","response":0,"trial_type":"html-button-response","trial_index":50,"time_elapsed":186148,"internal_node_id":"0.0-4.0-1.19","subject_id":"61477af04f922bba4fab7ba6","study_id":"6197b3f67c2b5cd3b6d9596a","session_id":"619be788d38ef20e51546309","condition":"full-information","relevant_dimensions":["pattern","legs"],"bee_group":{"antennae":"X","wings":"X","pattern":"D","legs":"M"},"bonus":0.9600000000000007},{"rt":1871,"stimulus":"bees-with-color/bee-B2DM.svg","response":1,"trial_type":"image-button-response","trial_index":51,"time_elapsed":188021,"internal_node_id":"0.0-4.0-0.20","subject_id":"61477af04f922bba4fab7ba6","study_id":"6197b3f67c2b5cd3b6d9596a","session_id":"619be788d38ef20e51546309","condition":"full-information","relevant_dimensions":["pattern","legs"],"bee_group":{"antennae":"X","wings":"X","pattern":"D","legs":"M"},"action":"avoid","summary":"good-avoid","bonus":0.9600000000000007},{"rt":663,"stimulus":"\n                    <p><b>Action: <em>avoid</em></b></p>\n                    <p>This is the bee that you just saw.</p>\n                    <img src=\"bees-with-color/bee-B2DM.svg\" width=\"200\">\n                    <p><span class=\"greenText\">Good choice!</span>  This bee would have stung you.<br>Your bonus pay is unchanged, and remains at $0.52.</p>\n            ","response":0,"trial_type":"html-button-response","trial_index":52,"time_elapsed":188684,"internal_node_id":"0.0-4.0-1.20","subject_id":"61477af04f922bba4fab7ba6","study_id":"6197b3f67c2b5cd3b6d9596a","session_id":"619be788d38ef20e51546309","condition":"full-information","relevant_dimensions":["pattern","legs"],"bee_group":{"antennae":"X","wings":"X","pattern":"D","legs":"M"},"bonus":0.9600000000000007},{"rt":2341,"stimulus":"bees-with-color/bee-A1DF.svg","response":0,"trial_type":"image-button-response","trial_index":53,"time_elapsed":191027,"internal_node_id":"0.0-4.0-0.21","subject_id":"61477af04f922bba4fab7ba6","study_id":"6197b3f67c2b5cd3b6d9596a","session_id":"619be788d38ef20e51546309","condition":"full-information","relevant_dimensions":["pattern","legs"],"bee_group":{"antennae":"X","wings":"X","pattern":"D","legs":"M"},"action":"harvest","summary":"good-harvest","bonus":0.9600000000000007},{"rt":451,"stimulus":"\n                    <p><b>Action: <em>harvest</em></b></p>\n                    <p>This is the bee that you just saw.</p>\n                    <img src=\"bees-with-color/bee-A1DF.svg\" width=\"200\">\n                    <p><span class=\"greenText\"><b>Successful harvest!</b></span><br>Your pay has increased by $0.02. Your bonus pay is now $0.54.</p>\n            ","response":0,"trial_type":"html-button-response","trial_index":54,"time_elapsed":191478,"internal_node_id":"0.0-4.0-1.21","subject_id":"61477af04f922bba4fab7ba6","study_id":"6197b3f67c2b5cd3b6d9596a","session_id":"619be788d38ef20e51546309","condition":"full-information","relevant_dimensions":["pattern","legs"],"bee_group":{"antennae":"X","wings":"X","pattern":"D","legs":"M"},"bonus":0.9600000000000007},{"rt":1821,"stimulus":"bees-with-color/bee-B1SM.svg","response":0,"trial_type":"image-button-response","trial_index":55,"time_elapsed":193300,"internal_node_id":"0.0-4.0-0.22","subject_id":"61477af04f922bba4fab7ba6","study_id":"6197b3f67c2b5cd3b6d9596a","session_id":"619be788d38ef20e51546309","condition":"full-information","relevant_dimensions":["pattern","legs"],"bee_group":{"antennae":"X","wings":"X","pattern":"D","legs":"M"},"action":"harvest","summary":"good-harvest","bonus":0.9600000000000007},{"rt":411,"stimulus":"\n                    <p><b>Action: <em>harvest</em></b></p>\n                    <p>This is the bee that you just saw.</p>\n                    <img src=\"bees-with-color/bee-B1SM.svg\" width=\"200\">\n                    <p><span class=\"greenText\"><b>Successful harvest!</b></span><br>Your pay has increased by $0.02. Your bonus pay is now $0.56.</p>\n            ","response":0,"trial_type":"html-button-response","trial_index":56,"time_elapsed":193712,"internal_node_id":"0.0-4.0-1.22","subject_id":"61477af04f922bba4fab7ba6","study_id":"6197b3f67c2b5cd3b6d9596a","session_id":"619be788d38ef20e51546309","condition":"full-information","relevant_dimensions":["pattern","legs"],"bee_group":{"antennae":"X","wings":"X","pattern":"D","legs":"M"},"bonus":0.9600000000000007},{"rt":511,"stimulus":"bees-with-color/bee-B2SF.svg","response":0,"trial_type":"image-button-response","trial_index":57,"time_elapsed":194224,"internal_node_id":"0.0-4.0-0.23","subject_id":"61477af04f922bba4fab7ba6","study_id":"6197b3f67c2b5cd3b6d9596a","session_id":"619be788d38ef20e51546309","condition":"full-information","relevant_dimensions":["pattern","legs"],"bee_group":{"antennae":"X","wings":"X","pattern":"D","legs":"M"},"action":"harvest","summary":"good-harvest","bonus":0.9600000000000007},{"rt":432,"stimulus":"\n                    <p><b>Action: <em>harvest</em></b></p>\n                    <p>This is the bee that you just saw.</p>\n                    <img src=\"bees-with-color/bee-B2SF.svg\" width=\"200\">\n                    <p><span class=\"greenText\"><b>Successful harvest!</b></span><br>Your pay has increased by $0.02. Your bonus pay is now $0.58.</p>\n            ","response":0,"trial_type":"html-button-response","trial_index":58,"time_elapsed":194657,"internal_node_id":"0.0-4.0-1.23","subject_id":"61477af04f922bba4fab7ba6","study_id":"6197b3f67c2b5cd3b6d9596a","session_id":"619be788d38ef20e51546309","condition":"full-information","relevant_dimensions":["pattern","legs"],"bee_group":{"antennae":"X","wings":"X","pattern":"D","legs":"M"},"bonus":0.9600000000000007},{"rt":1109,"stimulus":"bees-with-color/bee-A2DF.svg","response":0,"trial_type":"image-button-response","trial_index":59,"time_elapsed":195768,"internal_node_id":"0.0-4.0-0.24","subject_id":"61477af04f922bba4fab7ba6","study_id":"6197b3f67c2b5cd3b6d9596a","session_id":"619be788d38ef20e51546309","condition":"full-information","relevant_dimensions":["pattern","legs"],"bee_group":{"antennae":"X","wings":"X","pattern":"D","legs":"M"},"action":"harvest","summary":"good-harvest","bonus":0.9600000000000007},{"rt":362,"stimulus":"\n                    <p><b>Action: <em>harvest</em></b></p>\n                    <p>This is the bee that you just saw.</p>\n                    <img src=\"bees-with-color/bee-A2DF.svg\" width=\"200\">\n                    <p><span class=\"greenText\"><b>Successful harvest!</b></span><br>Your pay has increased by $0.02. Your bonus pay is now $0.60.</p>\n            ","response":0,"trial_type":"html-button-response","trial_index":60,"time_elapsed":196131,"internal_node_id":"0.0-4.0-1.24","subject_id":"61477af04f922bba4fab7ba6","study_id":"6197b3f67c2b5cd3b6d9596a","session_id":"619be788d38ef20e51546309","condition":"full-information","relevant_dimensions":["pattern","legs"],"bee_group":{"antennae":"X","wings":"X","pattern":"D","legs":"M"},"bonus":0.9600000000000007},{"rt":570,"stimulus":"bees-with-color/bee-B1DF.svg","response":0,"trial_type":"image-button-response","trial_index":61,"time_elapsed":196703,"internal_node_id":"0.0-4.0-0.25","subject_id":"61477af04f922bba4fab7ba6","study_id":"6197b3f67c2b5cd3b6d9596a","session_id":"619be788d38ef20e51546309","condition":"full-information","relevant_dimensions":["pattern","legs"],"bee_group":{"antennae":"X","wings":"X","pattern":"D","legs":"M"},"action":"harvest","summary":"good-harvest","bonus":0.9600000000000007},{"rt":551,"stimulus":"\n                    <p><b>Action: <em>harvest</em></b></p>\n                    <p>This is the bee that you just saw.</p>\n                    <img src=\"bees-with-color/bee-B1DF.svg\" width=\"200\">\n                    <p><span class=\"greenText\"><b>Successful harvest!</b></span><br>Your pay has increased by $0.02. Your bonus pay is now $0.62.</p>\n            ","response":0,"trial_type":"html-button-response","trial_index":62,"time_elapsed":197255,"internal_node_id":"0.0-4.0-1.25","subject_id":"61477af04f922bba4fab7ba6","study_id":"6197b3f67c2b5cd3b6d9596a","session_id":"619be788d38ef20e51546309","condition":"full-information","relevant_dimensions":["pattern","legs"],"bee_group":{"antennae":"X","wings":"X","pattern":"D","legs":"M"},"bonus":0.9600000000000007},{"rt":1140,"stimulus":"bees-with-color/bee-A1SF.svg","response":0,"trial_type":"image-button-response","trial_index":63,"time_elapsed":198397,"internal_node_id":"0.0-4.0-0.26","subject_id":"61477af04f922bba4fab7ba6","study_id":"6197b3f67c2b5cd3b6d9596a","session_id":"619be788d38ef20e51546309","condition":"full-information","relevant_dimensions":["pattern","legs"],"bee_group":{"antennae":"X","wings":"X","pattern":"D","legs":"M"},"action":"harvest","summary":"good-harvest","bonus":0.9600000000000007},{"rt":441,"stimulus":"\n                    <p><b>Action: <em>harvest</em></b></p>\n                    <p>This is the bee that you just saw.</p>\n                    <img src=\"bees-with-color/bee-A1SF.svg\" width=\"200\">\n                    <p><span class=\"greenText\"><b>Successful harvest!</b></span><br>Your pay has increased by $0.02. Your bonus pay is now $0.64.</p>\n            ","response":0,"trial_type":"html-button-response","trial_index":64,"time_elapsed":198839,"internal_node_id":"0.0-4.0-1.26","subject_id":"61477af04f922bba4fab7ba6","study_id":"6197b3f67c2b5cd3b6d9596a","session_id":"619be788d38ef20e51546309","condition":"full-information","relevant_dimensions":["pattern","legs"],"bee_group":{"antennae":"X","wings":"X","pattern":"D","legs":"M"},"bonus":0.9600000000000007},{"rt":752,"stimulus":"bees-with-color/bee-A2SF.svg","response":0,"trial_type":"image-button-response","trial_index":65,"time_elapsed":199590,"internal_node_id":"0.0-4.0-0.27","subject_id":"61477af04f922bba4fab7ba6","study_id":"6197b3f67c2b5cd3b6d9596a","session_id":"619be788d38ef20e51546309","condition":"full-information","relevant_dimensions":["pattern","legs"],"bee_group":{"antennae":"X","wings":"X","pattern":"D","legs":"M"},"action":"harvest","summary":"good-harvest","bonus":0.9600000000000007},{"rt":421,"stimulus":"\n                    <p><b>Action: <em>harvest</em></b></p>\n                    <p>This is the bee that you just saw.</p>\n                    <img src=\"bees-with-color/bee-A2SF.svg\" width=\"200\">\n                    <p><span class=\"greenText\"><b>Successful harvest!</b></span><br>Your pay has increased by $0.02. Your bonus pay is now $0.66.</p>\n            ","response":0,"trial_type":"html-button-response","trial_index":66,"time_elapsed":200013,"internal_node_id":"0.0-4.0-1.27","subject_id":"61477af04f922bba4fab7ba6","study_id":"6197b3f67c2b5cd3b6d9596a","session_id":"619be788d38ef20e51546309","condition":"full-information","relevant_dimensions":["pattern","legs"],"bee_group":{"antennae":"X","wings":"X","pattern":"D","legs":"M"},"bonus":0.9600000000000007},{"rt":911,"stimulus":"bees-with-color/bee-A2SM.svg","response":0,"trial_type":"image-button-response","trial_index":67,"time_elapsed":200924,"internal_node_id":"0.0-4.0-0.28","subject_id":"61477af04f922bba4fab7ba6","study_id":"6197b3f67c2b5cd3b6d9596a","session_id":"619be788d38ef20e51546309","condition":"full-information","relevant_dimensions":["pattern","legs"],"bee_group":{"antennae":"X","wings":"X","pattern":"D","legs":"M"},"action":"harvest","summary":"good-harvest","bonus":0.9600000000000007},{"rt":381,"stimulus":"\n                    <p><b>Action: <em>harvest</em></b></p>\n                    <p>This is the bee that you just saw.</p>\n                    <img src=\"bees-with-color/bee-A2SM.svg\" width=\"200\">\n                    <p><span class=\"greenText\"><b>Successful harvest!</b></span><br>Your pay has increased by $0.02. Your bonus pay is now $0.68.</p>\n            ","response":0,"trial_type":"html-button-response","trial_index":68,"time_elapsed":201307,"internal_node_id":"0.0-4.0-1.28","subject_id":"61477af04f922bba4fab7ba6","study_id":"6197b3f67c2b5cd3b6d9596a","session_id":"619be788d38ef20e51546309","condition":"full-information","relevant_dimensions":["pattern","legs"],"bee_group":{"antennae":"X","wings":"X","pattern":"D","legs":"M"},"bonus":0.9600000000000007},{"rt":2231,"stimulus":"bees-with-color/bee-B1DM.svg","response":1,"trial_type":"image-button-response","trial_index":69,"time_elapsed":203538,"internal_node_id":"0.0-4.0-0.29","subject_id":"61477af04f922bba4fab7ba6","study_id":"6197b3f67c2b5cd3b6d9596a","session_id":"619be788d38ef20e51546309","condition":"full-information","relevant_dimensions":["pattern","legs"],"bee_group":{"antennae":"X","wings":"X","pattern":"D","legs":"M"},"action":"avoid","summary":"good-avoid","bonus":0.9600000000000007},{"rt":511,"stimulus":"\n                    <p><b>Action: <em>avoid</em></b></p>\n                    <p>This is the bee that you just saw.</p>\n                    <img src=\"bees-with-color/bee-B1DM.svg\" width=\"200\">\n                    <p><span class=\"greenText\">Good choice!</span>  This bee would have stung you.<br>Your bonus pay is unchanged, and remains at $0.68.</p>\n            ","response":0,"trial_type":"html-button-response","trial_index":70,"time_elapsed":204051,"internal_node_id":"0.0-4.0-1.29","subject_id":"61477af04f922bba4fab7ba6","study_id":"6197b3f67c2b5cd3b6d9596a","session_id":"619be788d38ef20e51546309","condition":"full-information","relevant_dimensions":["pattern","legs"],"bee_group":{"antennae":"X","wings":"X","pattern":"D","legs":"M"},"bonus":0.9600000000000007},{"rt":1741,"stimulus":"bees-with-color/bee-A1SM.svg","response":0,"trial_type":"image-button-response","trial_index":71,"time_elapsed":205792,"internal_node_id":"0.0-4.0-0.30","subject_id":"61477af04f922bba4fab7ba6","study_id":"6197b3f67c2b5cd3b6d9596a","session_id":"619be788d38ef20e51546309","condition":"full-information","relevant_dimensions":["pattern","legs"],"bee_group":{"antennae":"X","wings":"X","pattern":"D","legs":"M"},"action":"harvest","summary":"good-harvest","bonus":0.9600000000000007},{"rt":419,"stimulus":"\n                    <p><b>Action: <em>harvest</em></b></p>\n                    <p>This is the bee that you just saw.</p>\n                    <img src=\"bees-with-color/bee-A1SM.svg\" width=\"200\">\n                    <p><span class=\"greenText\"><b>Successful harvest!</b></span><br>Your pay has increased by $0.02. Your bonus pay is now $0.70.</p>\n            ","response":0,"trial_type":"html-button-response","trial_index":72,"time_elapsed":206214,"internal_node_id":"0.0-4.0-1.30","subject_id":"61477af04f922bba4fab7ba6","study_id":"6197b3f67c2b5cd3b6d9596a","session_id":"619be788d38ef20e51546309","condition":"full-information","relevant_dimensions":["pattern","legs"],"bee_group":{"antennae":"X","wings":"X","pattern":"D","legs":"M"},"bonus":0.9600000000000007},{"rt":1751,"stimulus":"bees-with-color/bee-A1DM.svg","response":1,"trial_type":"image-button-response","trial_index":73,"time_elapsed":207967,"internal_node_id":"0.0-4.0-0.31","subject_id":"61477af04f922bba4fab7ba6","study_id":"6197b3f67c2b5cd3b6d9596a","session_id":"619be788d38ef20e51546309","condition":"full-information","relevant_dimensions":["pattern","legs"],"bee_group":{"antennae":"X","wings":"X","pattern":"D","legs":"M"},"action":"avoid","summary":"good-avoid","bonus":0.9600000000000007},{"rt":440,"stimulus":"\n                    <p><b>Action: <em>avoid</em></b></p>\n                    <p>This is the bee that you just saw.</p>\n                    <img src=\"bees-with-color/bee-A1DM.svg\" width=\"200\">\n                    <p><span class=\"greenText\">Good choice!</span>  This bee would have stung you.<br>Your bonus pay is unchanged, and remains at $0.70.</p>\n            ","response":0,"trial_type":"html-button-response","trial_index":74,"time_elapsed":208408,"internal_node_id":"0.0-4.0-1.31","subject_id":"61477af04f922bba4fab7ba6","study_id":"6197b3f67c2b5cd3b6d9596a","session_id":"619be788d38ef20e51546309","condition":"full-information","relevant_dimensions":["pattern","legs"],"bee_group":{"antennae":"X","wings":"X","pattern":"D","legs":"M"},"bonus":0.9600000000000007},{"rt":800,"stimulus":"bees-with-color/bee-A1SF.svg","response":0,"trial_type":"image-button-response","trial_index":75,"time_elapsed":209210,"internal_node_id":"0.0-4.0-0.32","subject_id":"61477af04f922bba4fab7ba6","study_id":"6197b3f67c2b5cd3b6d9596a","session_id":"619be788d38ef20e51546309","condition":"full-information","relevant_dimensions":["pattern","legs"],"bee_group":{"antennae":"X","wings":"X","pattern":"D","legs":"M"},"action":"harvest","summary":"good-harvest","bonus":0.9600000000000007},{"rt":411,"stimulus":"\n                    <p><b>Action: <em>harvest</em></b></p>\n                    <p>This is the bee that you just saw.</p>\n                    <img src=\"bees-with-color/bee-A1SF.svg\" width=\"200\">\n                    <p><span class=\"greenText\"><b>Successful harvest!</b></span><br>Your pay has increased by $0.02. Your bonus pay is now $0.72.</p>\n            ","response":0,"trial_type":"html-button-response","trial_index":76,"time_elapsed":209622,"internal_node_id":"0.0-4.0-1.32","subject_id":"61477af04f922bba4fab7ba6","study_id":"6197b3f67c2b5cd3b6d9596a","session_id":"619be788d38ef20e51546309","condition":"full-information","relevant_dimensions":["pattern","legs"],"bee_group":{"antennae":"X","wings":"X","pattern":"D","legs":"M"},"bonus":0.9600000000000007},{"rt":1900,"stimulus":"bees-with-color/bee-B1DF.svg","response":0,"trial_type":"image-button-response","trial_index":77,"time_elapsed":211525,"internal_node_id":"0.0-4.0-0.33","subject_id":"61477af04f922bba4fab7ba6","study_id":"6197b3f67c2b5cd3b6d9596a","session_id":"619be788d38ef20e51546309","condition":"full-information","relevant_dimensions":["pattern","legs"],"bee_group":{"antennae":"X","wings":"X","pattern":"D","legs":"M"},"action":"harvest","summary":"good-harvest","bonus":0.9600000000000007},{"rt":351,"stimulus":"\n                    <p><b>Action: <em>harvest</em></b></p>\n                    <p>This is the bee that you just saw.</p>\n                    <img src=\"bees-with-color/bee-B1DF.svg\" width=\"200\">\n                    <p><span class=\"greenText\"><b>Successful harvest!</b></span><br>Your pay has increased by $0.02. Your bonus pay is now $0.74.</p>\n            ","response":0,"trial_type":"html-button-response","trial_index":78,"time_elapsed":211877,"internal_node_id":"0.0-4.0-1.33","subject_id":"61477af04f922bba4fab7ba6","study_id":"6197b3f67c2b5cd3b6d9596a","session_id":"619be788d38ef20e51546309","condition":"full-information","relevant_dimensions":["pattern","legs"],"bee_group":{"antennae":"X","wings":"X","pattern":"D","legs":"M"},"bonus":0.9600000000000007},{"rt":1531,"stimulus":"bees-with-color/bee-B1DM.svg","response":1,"trial_type":"image-button-response","trial_index":79,"time_elapsed":213408,"internal_node_id":"0.0-4.0-0.34","subject_id":"61477af04f922bba4fab7ba6","study_id":"6197b3f67c2b5cd3b6d9596a","session_id":"619be788d38ef20e51546309","condition":"full-information","relevant_dimensions":["pattern","legs"],"bee_group":{"antennae":"X","wings":"X","pattern":"D","legs":"M"},"action":"avoid","summary":"good-avoid","bonus":0.9600000000000007},{"rt":461,"stimulus":"\n                    <p><b>Action: <em>avoid</em></b></p>\n                    <p>This is the bee that you just saw.</p>\n                    <img src=\"bees-with-color/bee-B1DM.svg\" width=\"200\">\n                    <p><span class=\"greenText\">Good choice!</span>  This bee would have stung you.<br>Your bonus pay is unchanged, and remains at $0.74.</p>\n            ","response":0,"trial_type":"html-button-response","trial_index":80,"time_elapsed":213870,"internal_node_id":"0.0-4.0-1.34","subject_id":"61477af04f922bba4fab7ba6","study_id":"6197b3f67c2b5cd3b6d9596a","session_id":"619be788d38ef20e51546309","condition":"full-information","relevant_dimensions":["pattern","legs"],"bee_group":{"antennae":"X","wings":"X","pattern":"D","legs":"M"},"bonus":0.9600000000000007},{"rt":1161,"stimulus":"bees-with-color/bee-B2SM.svg","response":0,"trial_type":"image-button-response","trial_index":81,"time_elapsed":215032,"internal_node_id":"0.0-4.0-0.35","subject_id":"61477af04f922bba4fab7ba6","study_id":"6197b3f67c2b5cd3b6d9596a","session_id":"619be788d38ef20e51546309","condition":"full-information","relevant_dimensions":["pattern","legs"],"bee_group":{"antennae":"X","wings":"X","pattern":"D","legs":"M"},"action":"harvest","summary":"good-harvest","bonus":0.9600000000000007},{"rt":461,"stimulus":"\n                    <p><b>Action: <em>harvest</em></b></p>\n                    <p>This is the bee that you just saw.</p>\n                    <img src=\"bees-with-color/bee-B2SM.svg\" width=\"200\">\n                    <p><span class=\"greenText\"><b>Successful harvest!</b></span><br>Your pay has increased by $0.02. Your bonus pay is now $0.76.</p>\n            ","response":0,"trial_type":"html-button-response","trial_index":82,"time_elapsed":215495,"internal_node_id":"0.0-4.0-1.35","subject_id":"61477af04f922bba4fab7ba6","study_id":"6197b3f67c2b5cd3b6d9596a","session_id":"619be788d38ef20e51546309","condition":"full-information","relevant_dimensions":["pattern","legs"],"bee_group":{"antennae":"X","wings":"X","pattern":"D","legs":"M"},"bonus":0.9600000000000007},{"rt":791,"stimulus":"bees-with-color/bee-A1DF.svg","response":0,"trial_type":"image-button-response","trial_index":83,"time_elapsed":216286,"internal_node_id":"0.0-4.0-0.36","subject_id":"61477af04f922bba4fab7ba6","study_id":"6197b3f67c2b5cd3b6d9596a","session_id":"619be788d38ef20e51546309","condition":"full-information","relevant_dimensions":["pattern","legs"],"bee_group":{"antennae":"X","wings":"X","pattern":"D","legs":"M"},"action":"harvest","summary":"good-harvest","bonus":0.9600000000000007},{"rt":371,"stimulus":"\n                    <p><b>Action: <em>harvest</em></b></p>\n                    <p>This is the bee that you just saw.</p>\n                    <img src=\"bees-with-color/bee-A1DF.svg\" width=\"200\">\n                    <p><span class=\"greenText\"><b>Successful harvest!</b></span><br>Your pay has increased by $0.02. Your bonus pay is now $0.78.</p>\n            ","response":0,"trial_type":"html-button-response","trial_index":84,"time_elapsed":216659,"internal_node_id":"0.0-4.0-1.36","subject_id":"61477af04f922bba4fab7ba6","study_id":"6197b3f67c2b5cd3b6d9596a","session_id":"619be788d38ef20e51546309","condition":"full-information","relevant_dimensions":["pattern","legs"],"bee_group":{"antennae":"X","wings":"X","pattern":"D","legs":"M"},"bonus":0.9600000000000007},{"rt":651,"stimulus":"bees-with-color/bee-A2SF.svg","response":0,"trial_type":"image-button-response","trial_index":85,"time_elapsed":217311,"internal_node_id":"0.0-4.0-0.37","subject_id":"61477af04f922bba4fab7ba6","study_id":"6197b3f67c2b5cd3b6d9596a","session_id":"619be788d38ef20e51546309","condition":"full-information","relevant_dimensions":["pattern","legs"],"bee_group":{"antennae":"X","wings":"X","pattern":"D","legs":"M"},"action":"harvest","summary":"good-harvest","bonus":0.9600000000000007},{"rt":662,"stimulus":"\n                    <p><b>Action: <em>harvest</em></b></p>\n                    <p>This is the bee that you just saw.</p>\n                    <img src=\"bees-with-color/bee-A2SF.svg\" width=\"200\">\n                    <p><span class=\"greenText\"><b>Successful harvest!</b></span><br>Your pay has increased by $0.02. Your bonus pay is now $0.80.</p>\n            ","response":0,"trial_type":"html-button-response","trial_index":86,"time_elapsed":217975,"internal_node_id":"0.0-4.0-1.37","subject_id":"61477af04f922bba4fab7ba6","study_id":"6197b3f67c2b5cd3b6d9596a","session_id":"619be788d38ef20e51546309","condition":"full-information","relevant_dimensions":["pattern","legs"],"bee_group":{"antennae":"X","wings":"X","pattern":"D","legs":"M"},"bonus":0.9600000000000007},{"rt":811,"stimulus":"bees-with-color/bee-B2DM.svg","response":1,"trial_type":"image-button-response","trial_index":87,"time_elapsed":218786,"internal_node_id":"0.0-4.0-0.38","subject_id":"61477af04f922bba4fab7ba6","study_id":"6197b3f67c2b5cd3b6d9596a","session_id":"619be788d38ef20e51546309","condition":"full-information","relevant_dimensions":["pattern","legs"],"bee_group":{"antennae":"X","wings":"X","pattern":"D","legs":"M"},"action":"avoid","summary":"good-avoid","bonus":0.9600000000000007},{"rt":421,"stimulus":"\n                    <p><b>Action: <em>avoid</em></b></p>\n                    <p>This is the bee that you just saw.</p>\n                    <img src=\"bees-with-color/bee-B2DM.svg\" width=\"200\">\n                    <p><span class=\"greenText\">Good choice!</span>  This bee would have stung you.<br>Your bonus pay is unchanged, and remains at $0.80.</p>\n            ","response":0,"trial_type":"html-button-response","trial_index":88,"time_elapsed":219208,"internal_node_id":"0.0-4.0-1.38","subject_id":"61477af04f922bba4fab7ba6","study_id":"6197b3f67c2b5cd3b6d9596a","session_id":"619be788d38ef20e51546309","condition":"full-information","relevant_dimensions":["pattern","legs"],"bee_group":{"antennae":"X","wings":"X","pattern":"D","legs":"M"},"bonus":0.9600000000000007},{"rt":721,"stimulus":"bees-with-color/bee-B1SF.svg","response":0,"trial_type":"image-button-response","trial_index":89,"time_elapsed":219931,"internal_node_id":"0.0-4.0-0.39","subject_id":"61477af04f922bba4fab7ba6","study_id":"6197b3f67c2b5cd3b6d9596a","session_id":"619be788d38ef20e51546309","condition":"full-information","relevant_dimensions":["pattern","legs"],"bee_group":{"antennae":"X","wings":"X","pattern":"D","legs":"M"},"action":"harvest","summary":"good-harvest","bonus":0.9600000000000007},{"rt":461,"stimulus":"\n                    <p><b>Action: <em>harvest</em></b></p>\n                    <p>This is the bee that you just saw.</p>\n                    <img src=\"bees-with-color/bee-B1SF.svg\" width=\"200\">\n                    <p><span class=\"greenText\"><b>Successful harvest!</b></span><br>Your pay has increased by $0.02. Your bonus pay is now $0.82.</p>\n            ","response":0,"trial_type":"html-button-response","trial_index":90,"time_elapsed":220392,"internal_node_id":"0.0-4.0-1.39","subject_id":"61477af04f922bba4fab7ba6","study_id":"6197b3f67c2b5cd3b6d9596a","session_id":"619be788d38ef20e51546309","condition":"full-information","relevant_dimensions":["pattern","legs"],"bee_group":{"antennae":"X","wings":"X","pattern":"D","legs":"M"},"bonus":0.9600000000000007},{"rt":1091,"stimulus":"bees-with-color/bee-A2DF.svg","response":0,"trial_type":"image-button-response","trial_index":91,"time_elapsed":221484,"internal_node_id":"0.0-4.0-0.40","subject_id":"61477af04f922bba4fab7ba6","study_id":"6197b3f67c2b5cd3b6d9596a","session_id":"619be788d38ef20e51546309","condition":"full-information","relevant_dimensions":["pattern","legs"],"bee_group":{"antennae":"X","wings":"X","pattern":"D","legs":"M"},"action":"harvest","summary":"good-harvest","bonus":0.9600000000000007},{"rt":361,"stimulus":"\n                    <p><b>Action: <em>harvest</em></b></p>\n                    <p>This is the bee that you just saw.</p>\n                    <img src=\"bees-with-color/bee-A2DF.svg\" width=\"200\">\n                    <p><span class=\"greenText\"><b>Successful harvest!</b></span><br>Your pay has increased by $0.02. Your bonus pay is now $0.84.</p>\n            ","response":0,"trial_type":"html-button-response","trial_index":92,"time_elapsed":221846,"internal_node_id":"0.0-4.0-1.40","subject_id":"61477af04f922bba4fab7ba6","study_id":"6197b3f67c2b5cd3b6d9596a","session_id":"619be788d38ef20e51546309","condition":"full-information","relevant_dimensions":["pattern","legs"],"bee_group":{"antennae":"X","wings":"X","pattern":"D","legs":"M"},"bonus":0.9600000000000007},{"rt":640,"stimulus":"bees-with-color/bee-B2DF.svg","response":0,"trial_type":"image-button-response","trial_index":93,"time_elapsed":222488,"internal_node_id":"0.0-4.0-0.41","subject_id":"61477af04f922bba4fab7ba6","study_id":"6197b3f67c2b5cd3b6d9596a","session_id":"619be788d38ef20e51546309","condition":"full-information","relevant_dimensions":["pattern","legs"],"bee_group":{"antennae":"X","wings":"X","pattern":"D","legs":"M"},"action":"harvest","summary":"good-harvest","bonus":0.9600000000000007},{"rt":401,"stimulus":"\n                    <p><b>Action: <em>harvest</em></b></p>\n                    <p>This is the bee that you just saw.</p>\n                    <img src=\"bees-with-color/bee-B2DF.svg\" width=\"200\">\n                    <p><span class=\"greenText\"><b>Successful harvest!</b></span><br>Your pay has increased by $0.02. Your bonus pay is now $0.86.</p>\n            ","response":0,"trial_type":"html-button-response","trial_index":94,"time_elapsed":222890,"internal_node_id":"0.0-4.0-1.41","subject_id":"61477af04f922bba4fab7ba6","study_id":"6197b3f67c2b5cd3b6d9596a","session_id":"619be788d38ef20e51546309","condition":"full-information","relevant_dimensions":["pattern","legs"],"bee_group":{"antennae":"X","wings":"X","pattern":"D","legs":"M"},"bonus":0.9600000000000007},{"rt":781,"stimulus":"bees-with-color/bee-A1DM.svg","response":1,"trial_type":"image-button-response","trial_index":95,"time_elapsed":223673,"internal_node_id":"0.0-4.0-0.42","subject_id":"61477af04f922bba4fab7ba6","study_id":"6197b3f67c2b5cd3b6d9596a","session_id":"619be788d38ef20e51546309","condition":"full-information","relevant_dimensions":["pattern","legs"],"bee_group":{"antennae":"X","wings":"X","pattern":"D","legs":"M"},"action":"avoid","summary":"good-avoid","bonus":0.9600000000000007},{"rt":401,"stimulus":"\n                    <p><b>Action: <em>avoid</em></b></p>\n                    <p>This is the bee that you just saw.</p>\n                    <img src=\"bees-with-color/bee-A1DM.svg\" width=\"200\">\n                    <p><span class=\"greenText\">Good choice!</span>  This bee would have stung you.<br>Your bonus pay is unchanged, and remains at $0.86.</p>\n            ","response":0,"trial_type":"html-button-response","trial_index":96,"time_elapsed":224075,"internal_node_id":"0.0-4.0-1.42","subject_id":"61477af04f922bba4fab7ba6","study_id":"6197b3f67c2b5cd3b6d9596a","session_id":"619be788d38ef20e51546309","condition":"full-information","relevant_dimensions":["pattern","legs"],"bee_group":{"antennae":"X","wings":"X","pattern":"D","legs":"M"},"bonus":0.9600000000000007},{"rt":731,"stimulus":"bees-with-color/bee-B1SM.svg","response":0,"trial_type":"image-button-response","trial_index":97,"time_elapsed":224806,"internal_node_id":"0.0-4.0-0.43","subject_id":"61477af04f922bba4fab7ba6","study_id":"6197b3f67c2b5cd3b6d9596a","session_id":"619be788d38ef20e51546309","condition":"full-information","relevant_dimensions":["pattern","legs"],"bee_group":{"antennae":"X","wings":"X","pattern":"D","legs":"M"},"action":"harvest","summary":"good-harvest","bonus":0.9600000000000007},{"rt":391,"stimulus":"\n                    <p><b>Action: <em>harvest</em></b></p>\n                    <p>This is the bee that you just saw.</p>\n                    <img src=\"bees-with-color/bee-B1SM.svg\" width=\"200\">\n                    <p><span class=\"greenText\"><b>Successful harvest!</b></span><br>Your pay has increased by $0.02. Your bonus pay is now $0.88.</p>\n            ","response":0,"trial_type":"html-button-response","trial_index":98,"time_elapsed":225199,"internal_node_id":"0.0-4.0-1.43","subject_id":"61477af04f922bba4fab7ba6","study_id":"6197b3f67c2b5cd3b6d9596a","session_id":"619be788d38ef20e51546309","condition":"full-information","relevant_dimensions":["pattern","legs"],"bee_group":{"antennae":"X","wings":"X","pattern":"D","legs":"M"},"bonus":0.9600000000000007},{"rt":1741,"stimulus":"bees-with-color/bee-A1SM.svg","response":0,"trial_type":"image-button-response","trial_index":99,"time_elapsed":226941,"internal_node_id":"0.0-4.0-0.44","subject_id":"61477af04f922bba4fab7ba6","study_id":"6197b3f67c2b5cd3b6d9596a","session_id":"619be788d38ef20e51546309","condition":"full-information","relevant_dimensions":["pattern","legs"],"bee_group":{"antennae":"X","wings":"X","pattern":"D","legs":"M"},"action":"harvest","summary":"good-harvest","bonus":0.9600000000000007},{"rt":892,"stimulus":"\n                    <p><b>Action: <em>harvest</em></b></p>\n                    <p>This is the bee that you just saw.</p>\n                    <img src=\"bees-with-color/bee-A1SM.svg\" width=\"200\">\n                    <p><span class=\"greenText\"><b>Successful harvest!</b></span><br>Your pay has increased by $0.02. Your bonus pay is now $0.90.</p>\n            ","response":0,"trial_type":"html-button-response","trial_index":100,"time_elapsed":227834,"internal_node_id":"0.0-4.0-1.44","subject_id":"61477af04f922bba4fab7ba6","study_id":"6197b3f67c2b5cd3b6d9596a","session_id":"619be788d38ef20e51546309","condition":"full-information","relevant_dimensions":["pattern","legs"],"bee_group":{"antennae":"X","wings":"X","pattern":"D","legs":"M"},"bonus":0.9600000000000007},{"rt":1111,"stimulus":"bees-with-color/bee-A2DM.svg","response":1,"trial_type":"image-button-response","trial_index":101,"time_elapsed":228946,"internal_node_id":"0.0-4.0-0.45","subject_id":"61477af04f922bba4fab7ba6","study_id":"6197b3f67c2b5cd3b6d9596a","session_id":"619be788d38ef20e51546309","condition":"full-information","relevant_dimensions":["pattern","legs"],"bee_group":{"antennae":"X","wings":"X","pattern":"D","legs":"M"},"action":"avoid","summary":"good-avoid","bonus":0.9600000000000007},{"rt":401,"stimulus":"\n                    <p><b>Action: <em>avoid</em></b></p>\n                    <p>This is the bee that you just saw.</p>\n                    <img src=\"bees-with-color/bee-A2DM.svg\" width=\"200\">\n                    <p><span class=\"greenText\">Good choice!</span>  This bee would have stung you.<br>Your bonus pay is unchanged, and remains at $0.90.</p>\n            ","response":0,"trial_type":"html-button-response","trial_index":102,"time_elapsed":229348,"internal_node_id":"0.0-4.0-1.45","subject_id":"61477af04f922bba4fab7ba6","study_id":"6197b3f67c2b5cd3b6d9596a","session_id":"619be788d38ef20e51546309","condition":"full-information","relevant_dimensions":["pattern","legs"],"bee_group":{"antennae":"X","wings":"X","pattern":"D","legs":"M"},"bonus":0.9600000000000007},{"rt":531,"stimulus":"bees-with-color/bee-B2SF.svg","response":0,"trial_type":"image-button-response","trial_index":103,"time_elapsed":229881,"internal_node_id":"0.0-4.0-0.46","subject_id":"61477af04f922bba4fab7ba6","study_id":"6197b3f67c2b5cd3b6d9596a","session_id":"619be788d38ef20e51546309","condition":"full-information","relevant_dimensions":["pattern","legs"],"bee_group":{"antennae":"X","wings":"X","pattern":"D","legs":"M"},"action":"harvest","summary":"good-harvest","bonus":0.9600000000000007},{"rt":381,"stimulus":"\n                    <p><b>Action: <em>harvest</em></b></p>\n                    <p>This is the bee that you just saw.</p>\n                    <img src=\"bees-with-color/bee-B2SF.svg\" width=\"200\">\n                    <p><span class=\"greenText\"><b>Successful harvest!</b></span><br>Your pay has increased by $0.02. Your bonus pay is now $0.92.</p>\n            ","response":0,"trial_type":"html-button-response","trial_index":104,"time_elapsed":230263,"internal_node_id":"0.0-4.0-1.46","subject_id":"61477af04f922bba4fab7ba6","study_id":"6197b3f67c2b5cd3b6d9596a","session_id":"619be788d38ef20e51546309","condition":"full-information","relevant_dimensions":["pattern","legs"],"bee_group":{"antennae":"X","wings":"X","pattern":"D","legs":"M"},"bonus":0.9600000000000007},{"rt":581,"stimulus":"bees-with-color/bee-A2SM.svg","response":0,"trial_type":"image-button-response","trial_index":105,"time_elapsed":230845,"internal_node_id":"0.0-4.0-0.47","subject_id":"61477af04f922bba4fab7ba6","study_id":"6197b3f67c2b5cd3b6d9596a","session_id":"619be788d38ef20e51546309","condition":"full-information","relevant_dimensions":["pattern","legs"],"bee_group":{"antennae":"X","wings":"X","pattern":"D","legs":"M"},"action":"harvest","summary":"good-harvest","bonus":0.9600000000000007},{"rt":793,"stimulus":"\n                    <p><b>Action: <em>harvest</em></b></p>\n                    <p>This is the bee that you just saw.</p>\n                    <img src=\"bees-with-color/bee-A2SM.svg\" width=\"200\">\n                    <p><span class=\"greenText\"><b>Successful harvest!</b></span><br>Your pay has increased by $0.02. Your bonus pay is now $0.94.</p>\n            ","response":0,"trial_type":"html-button-response","trial_index":106,"time_elapsed":231639,"internal_node_id":"0.0-4.0-1.47","subject_id":"61477af04f922bba4fab7ba6","study_id":"6197b3f67c2b5cd3b6d9596a","session_id":"619be788d38ef20e51546309","condition":"full-information","relevant_dimensions":["pattern","legs"],"bee_group":{"antennae":"X","wings":"X","pattern":"D","legs":"M"},"bonus":0.9600000000000007},{"rt":631,"stimulus":"bees-with-color/bee-B1DM.svg","response":1,"trial_type":"image-button-response","trial_index":107,"time_elapsed":232270,"internal_node_id":"0.0-4.0-0.48","subject_id":"61477af04f922bba4fab7ba6","study_id":"6197b3f67c2b5cd3b6d9596a","session_id":"619be788d38ef20e51546309","condition":"full-information","relevant_dimensions":["pattern","legs"],"bee_group":{"antennae":"X","wings":"X","pattern":"D","legs":"M"},"action":"avoid","summary":"good-avoid","bonus":0.9600000000000007},{"rt":411,"stimulus":"\n                    <p><b>Action: <em>avoid</em></b></p>\n                    <p>This is the bee that you just saw.</p>\n                    <img src=\"bees-with-color/bee-B1DM.svg\" width=\"200\">\n                    <p><span class=\"greenText\">Good choice!</span>  This bee would have stung you.<br>Your bonus pay is unchanged, and remains at $0.94.</p>\n            ","response":0,"trial_type":"html-button-response","trial_index":108,"time_elapsed":232683,"internal_node_id":"0.0-4.0-1.48","subject_id":"61477af04f922bba4fab7ba6","study_id":"6197b3f67c2b5cd3b6d9596a","session_id":"619be788d38ef20e51546309","condition":"full-information","relevant_dimensions":["pattern","legs"],"bee_group":{"antennae":"X","wings":"X","pattern":"D","legs":"M"},"bonus":0.9600000000000007},{"rt":1040,"stimulus":"bees-with-color/bee-A2DF.svg","response":0,"trial_type":"image-button-response","trial_index":109,"time_elapsed":233725,"internal_node_id":"0.0-4.0-0.49","subject_id":"61477af04f922bba4fab7ba6","study_id":"6197b3f67c2b5cd3b6d9596a","session_id":"619be788d38ef20e51546309","condition":"full-information","relevant_dimensions":["pattern","legs"],"bee_group":{"antennae":"X","wings":"X","pattern":"D","legs":"M"},"action":"harvest","summary":"good-harvest","bonus":0.9600000000000007},{"rt":381,"stimulus":"\n                    <p><b>Action: <em>harvest</em></b></p>\n                    <p>This is the bee that you just saw.</p>\n                    <img src=\"bees-with-color/bee-A2DF.svg\" width=\"200\">\n                    <p><span class=\"greenText\"><b>Successful harvest!</b></span><br>Your pay has increased by $0.02. Your bonus pay is now $0.96.</p>\n            ","response":0,"trial_type":"html-button-response","trial_index":110,"time_elapsed":234107,"internal_node_id":"0.0-4.0-1.49","subject_id":"61477af04f922bba4fab7ba6","study_id":"6197b3f67c2b5cd3b6d9596a","session_id":"619be788d38ef20e51546309","condition":"full-information","relevant_dimensions":["pattern","legs"],"bee_group":{"antennae":"X","wings":"X","pattern":"D","legs":"M"},"bonus":0.9600000000000007},{"rt":671,"stimulus":"bees-with-color/bee-A1SM.svg","response":0,"trial_type":"image-button-response","trial_index":111,"time_elapsed":234778,"internal_node_id":"0.0-4.0-0.50","subject_id":"61477af04f922bba4fab7ba6","study_id":"6197b3f67c2b5cd3b6d9596a","session_id":"619be788d38ef20e51546309","condition":"full-information","relevant_dimensions":["pattern","legs"],"bee_group":{"antennae":"X","wings":"X","pattern":"D","legs":"M"},"action":"harvest","summary":"good-harvest","bonus":0.9600000000000007},{"rt":381,"stimulus":"\n                    <p><b>Action: <em>harvest</em></b></p>\n                    <p>This is the bee that you just saw.</p>\n                    <img src=\"bees-with-color/bee-A1SM.svg\" width=\"200\">\n                    <p><span class=\"greenText\"><b>Successful harvest!</b></span><br>Your pay has increased by $0.02. Your bonus pay is now $0.98.</p>\n            ","response":0,"trial_type":"html-button-response","trial_index":112,"time_elapsed":235161,"internal_node_id":"0.0-4.0-1.50","subject_id":"61477af04f922bba4fab7ba6","study_id":"6197b3f67c2b5cd3b6d9596a","session_id":"619be788d38ef20e51546309","condition":"full-information","relevant_dimensions":["pattern","legs"],"bee_group":{"antennae":"X","wings":"X","pattern":"D","legs":"M"},"bonus":0.9600000000000007},{"rt":802,"stimulus":"bees-with-color/bee-A2DM.svg","response":1,"trial_type":"image-button-response","trial_index":113,"time_elapsed":235963,"internal_node_id":"0.0-4.0-0.51","subject_id":"61477af04f922bba4fab7ba6","study_id":"6197b3f67c2b5cd3b6d9596a","session_id":"619be788d38ef20e51546309","condition":"full-information","relevant_dimensions":["pattern","legs"],"bee_group":{"antennae":"X","wings":"X","pattern":"D","legs":"M"},"action":"avoid","summary":"good-avoid","bonus":0.9600000000000007},{"rt":379,"stimulus":"\n                    <p><b>Action: <em>avoid</em></b></p>\n                    <p>This is the bee that you just saw.</p>\n                    <img src=\"bees-with-color/bee-A2DM.svg\" width=\"200\">\n                    <p><span class=\"greenText\">Good choice!</span>  This bee would have stung you.<br>Your bonus pay is unchanged, and remains at $0.98.</p>\n            ","response":0,"trial_type":"html-button-response","trial_index":114,"time_elapsed":236344,"internal_node_id":"0.0-4.0-1.51","subject_id":"61477af04f922bba4fab7ba6","study_id":"6197b3f67c2b5cd3b6d9596a","session_id":"619be788d38ef20e51546309","condition":"full-information","relevant_dimensions":["pattern","legs"],"bee_group":{"antennae":"X","wings":"X","pattern":"D","legs":"M"},"bonus":0.9600000000000007},{"rt":491,"stimulus":"bees-with-color/bee-B2SM.svg","response":0,"trial_type":"image-button-response","trial_index":115,"time_elapsed":236836,"internal_node_id":"0.0-4.0-0.52","subject_id":"61477af04f922bba4fab7ba6","study_id":"6197b3f67c2b5cd3b6d9596a","session_id":"619be788d38ef20e51546309","condition":"full-information","relevant_dimensions":["pattern","legs"],"bee_group":{"antennae":"X","wings":"X","pattern":"D","legs":"M"},"action":"harvest","summary":"good-harvest","bonus":0.9600000000000007},{"rt":402,"stimulus":"\n                    <p><b>Action: <em>harvest</em></b></p>\n                    <p>This is the bee that you just saw.</p>\n                    <img src=\"bees-with-color/bee-B2SM.svg\" width=\"200\">\n                    <p><span class=\"greenText\"><b>Successful harvest!</b></span><br>Your pay has increased by $0.02. Your bonus pay is now $1.00.</p>\n            ","response":0,"trial_type":"html-button-response","trial_index":116,"time_elapsed":237239,"internal_node_id":"0.0-4.0-1.52","subject_id":"61477af04f922bba4fab7ba6","study_id":"6197b3f67c2b5cd3b6d9596a","session_id":"619be788d38ef20e51546309","condition":"full-information","relevant_dimensions":["pattern","legs"],"bee_group":{"antennae":"X","wings":"X","pattern":"D","legs":"M"},"bonus":0.9600000000000007},{"rt":611,"stimulus":"bees-with-color/bee-A2SF.svg","response":0,"trial_type":"image-button-response","trial_index":117,"time_elapsed":237850,"internal_node_id":"0.0-4.0-0.53","subject_id":"61477af04f922bba4fab7ba6","study_id":"6197b3f67c2b5cd3b6d9596a","session_id":"619be788d38ef20e51546309","condition":"full-information","relevant_dimensions":["pattern","legs"],"bee_group":{"antennae":"X","wings":"X","pattern":"D","legs":"M"},"action":"harvest","summary":"good-harvest","bonus":0.9600000000000007},{"rt":391,"stimulus":"\n                    <p><b>Action: <em>harvest</em></b></p>\n                    <p>This is the bee that you just saw.</p>\n                    <img src=\"bees-with-color/bee-A2SF.svg\" width=\"200\">\n                    <p><span class=\"greenText\"><b>Successful harvest!</b></span><br>Your pay has increased by $0.02. Your bonus pay is now $1.02.</p>\n            ","response":0,"trial_type":"html-button-response","trial_index":118,"time_elapsed":238242,"internal_node_id":"0.0-4.0-1.53","subject_id":"61477af04f922bba4fab7ba6","study_id":"6197b3f67c2b5cd3b6d9596a","session_id":"619be788d38ef20e51546309","condition":"full-information","relevant_dimensions":["pattern","legs"],"bee_group":{"antennae":"X","wings":"X","pattern":"D","legs":"M"},"bonus":0.9600000000000007},{"rt":541,"stimulus":"bees-with-color/bee-B1SF.svg","response":0,"trial_type":"image-button-response","trial_index":119,"time_elapsed":238784,"internal_node_id":"0.0-4.0-0.54","subject_id":"61477af04f922bba4fab7ba6","study_id":"6197b3f67c2b5cd3b6d9596a","session_id":"619be788d38ef20e51546309","condition":"full-information","relevant_dimensions":["pattern","legs"],"bee_group":{"antennae":"X","wings":"X","pattern":"D","legs":"M"},"action":"harvest","summary":"good-harvest","bonus":0.9600000000000007},{"rt":400,"stimulus":"\n                    <p><b>Action: <em>harvest</em></b></p>\n                    <p>This is the bee that you just saw.</p>\n                    <img src=\"bees-with-color/bee-B1SF.svg\" width=\"200\">\n                    <p><span class=\"greenText\"><b>Successful harvest!</b></span><br>Your pay has increased by $0.02. Your bonus pay is now $1.04.</p>\n            ","response":0,"trial_type":"html-button-response","trial_index":120,"time_elapsed":239187,"internal_node_id":"0.0-4.0-1.54","subject_id":"61477af04f922bba4fab7ba6","study_id":"6197b3f67c2b5cd3b6d9596a","session_id":"619be788d38ef20e51546309","condition":"full-information","relevant_dimensions":["pattern","legs"],"bee_group":{"antennae":"X","wings":"X","pattern":"D","legs":"M"},"bonus":0.9600000000000007},{"rt":871,"stimulus":"bees-with-color/bee-B2DF.svg","response":0,"trial_type":"image-button-response","trial_index":121,"time_elapsed":240059,"internal_node_id":"0.0-4.0-0.55","subject_id":"61477af04f922bba4fab7ba6","study_id":"6197b3f67c2b5cd3b6d9596a","session_id":"619be788d38ef20e51546309","condition":"full-information","relevant_dimensions":["pattern","legs"],"bee_group":{"antennae":"X","wings":"X","pattern":"D","legs":"M"},"action":"harvest","summary":"good-harvest","bonus":0.9600000000000007},{"rt":401,"stimulus":"\n                    <p><b>Action: <em>harvest</em></b></p>\n                    <p>This is the bee that you just saw.</p>\n                    <img src=\"bees-with-color/bee-B2DF.svg\" width=\"200\">\n                    <p><span class=\"greenText\"><b>Successful harvest!</b></span><br>Your pay has increased by $0.02. Your bonus pay is now $1.06.</p>\n            ","response":0,"trial_type":"html-button-response","trial_index":122,"time_elapsed":240461,"internal_node_id":"0.0-4.0-1.55","subject_id":"61477af04f922bba4fab7ba6","study_id":"6197b3f67c2b5cd3b6d9596a","session_id":"619be788d38ef20e51546309","condition":"full-information","relevant_dimensions":["pattern","legs"],"bee_group":{"antennae":"X","wings":"X","pattern":"D","legs":"M"},"bonus":0.9600000000000007},{"rt":970,"stimulus":"bees-with-color/bee-A1DM.svg","response":1,"trial_type":"image-button-response","trial_index":123,"time_elapsed":241432,"internal_node_id":"0.0-4.0-0.56","subject_id":"61477af04f922bba4fab7ba6","study_id":"6197b3f67c2b5cd3b6d9596a","session_id":"619be788d38ef20e51546309","condition":"full-information","relevant_dimensions":["pattern","legs"],"bee_group":{"antennae":"X","wings":"X","pattern":"D","legs":"M"},"action":"avoid","summary":"good-avoid","bonus":0.9600000000000007},{"rt":411,"stimulus":"\n                    <p><b>Action: <em>avoid</em></b></p>\n                    <p>This is the bee that you just saw.</p>\n                    <img src=\"bees-with-color/bee-A1DM.svg\" width=\"200\">\n                    <p><span class=\"greenText\">Good choice!</span>  This bee would have stung you.<br>Your bonus pay is unchanged, and remains at $1.06.</p>\n            ","response":0,"trial_type":"html-button-response","trial_index":124,"time_elapsed":241844,"internal_node_id":"0.0-4.0-1.56","subject_id":"61477af04f922bba4fab7ba6","study_id":"6197b3f67c2b5cd3b6d9596a","session_id":"619be788d38ef20e51546309","condition":"full-information","relevant_dimensions":["pattern","legs"],"bee_group":{"antennae":"X","wings":"X","pattern":"D","legs":"M"},"bonus":0.9600000000000007},{"rt":761,"stimulus":"bees-with-color/bee-B1SM.svg","response":0,"trial_type":"image-button-response","trial_index":125,"time_elapsed":242606,"internal_node_id":"0.0-4.0-0.57","subject_id":"61477af04f922bba4fab7ba6","study_id":"6197b3f67c2b5cd3b6d9596a","session_id":"619be788d38ef20e51546309","condition":"full-information","relevant_dimensions":["pattern","legs"],"bee_group":{"antennae":"X","wings":"X","pattern":"D","legs":"M"},"action":"harvest","summary":"good-harvest","bonus":0.9600000000000007},{"rt":441,"stimulus":"\n                    <p><b>Action: <em>harvest</em></b></p>\n                    <p>This is the bee that you just saw.</p>\n                    <img src=\"bees-with-color/bee-B1SM.svg\" width=\"200\">\n                    <p><span class=\"greenText\"><b>Successful harvest!</b></span><br>Your pay has increased by $0.02. Your bonus pay is now $1.08.</p>\n            ","response":0,"trial_type":"html-button-response","trial_index":126,"time_elapsed":243048,"internal_node_id":"0.0-4.0-1.57","subject_id":"61477af04f922bba4fab7ba6","study_id":"6197b3f67c2b5cd3b6d9596a","session_id":"619be788d38ef20e51546309","condition":"full-information","relevant_dimensions":["pattern","legs"],"bee_group":{"antennae":"X","wings":"X","pattern":"D","legs":"M"},"bonus":0.9600000000000007},{"rt":2811,"stimulus":"bees-with-color/bee-A2SM.svg","response":0,"trial_type":"image-button-response","trial_index":127,"time_elapsed":245861,"internal_node_id":"0.0-4.0-0.58","subject_id":"61477af04f922bba4fab7ba6","study_id":"6197b3f67c2b5cd3b6d9596a","session_id":"619be788d38ef20e51546309","condition":"full-information","relevant_dimensions":["pattern","legs"],"bee_group":{"antennae":"X","wings":"X","pattern":"D","legs":"M"},"action":"harvest","summary":"good-harvest","bonus":0.9600000000000007},{"rt":510,"stimulus":"\n                    <p><b>Action: <em>harvest</em></b></p>\n                    <p>This is the bee that you just saw.</p>\n                    <img src=\"bees-with-color/bee-A2SM.svg\" width=\"200\">\n                    <p><span class=\"greenText\"><b>Successful harvest!</b></span><br>Your pay has increased by $0.02. Your bonus pay is now $1.10.</p>\n            ","response":0,"trial_type":"html-button-response","trial_index":128,"time_elapsed":246372,"internal_node_id":"0.0-4.0-1.58","subject_id":"61477af04f922bba4fab7ba6","study_id":"6197b3f67c2b5cd3b6d9596a","session_id":"619be788d38ef20e51546309","condition":"full-information","relevant_dimensions":["pattern","legs"],"bee_group":{"antennae":"X","wings":"X","pattern":"D","legs":"M"},"bonus":0.9600000000000007},{"rt":551,"stimulus":"bees-with-color/bee-A1SF.svg","response":0,"trial_type":"image-button-response","trial_index":129,"time_elapsed":246924,"internal_node_id":"0.0-4.0-0.59","subject_id":"61477af04f922bba4fab7ba6","study_id":"6197b3f67c2b5cd3b6d9596a","session_id":"619be788d38ef20e51546309","condition":"full-information","relevant_dimensions":["pattern","legs"],"bee_group":{"antennae":"X","wings":"X","pattern":"D","legs":"M"},"action":"harvest","summary":"good-harvest","bonus":0.9600000000000007},{"rt":401,"stimulus":"\n                    <p><b>Action: <em>harvest</em></b></p>\n                    <p>This is the bee that you just saw.</p>\n                    <img src=\"bees-with-color/bee-A1SF.svg\" width=\"200\">\n                    <p><span class=\"greenText\"><b>Successful harvest!</b></span><br>Your pay has increased by $0.02. Your bonus pay is now $1.12.</p>\n            ","response":0,"trial_type":"html-button-response","trial_index":130,"time_elapsed":247327,"internal_node_id":"0.0-4.0-1.59","subject_id":"61477af04f922bba4fab7ba6","study_id":"6197b3f67c2b5cd3b6d9596a","session_id":"619be788d38ef20e51546309","condition":"full-information","relevant_dimensions":["pattern","legs"],"bee_group":{"antennae":"X","wings":"X","pattern":"D","legs":"M"},"bonus":0.9600000000000007},{"rt":550,"stimulus":"bees-with-color/bee-B2SF.svg","response":0,"trial_type":"image-button-response","trial_index":131,"time_elapsed":247878,"internal_node_id":"0.0-4.0-0.60","subject_id":"61477af04f922bba4fab7ba6","study_id":"6197b3f67c2b5cd3b6d9596a","session_id":"619be788d38ef20e51546309","condition":"full-information","relevant_dimensions":["pattern","legs"],"bee_group":{"antennae":"X","wings":"X","pattern":"D","legs":"M"},"action":"harvest","summary":"good-harvest","bonus":0.9600000000000007},{"rt":392,"stimulus":"\n                    <p><b>Action: <em>harvest</em></b></p>\n                    <p>This is the bee that you just saw.</p>\n                    <img src=\"bees-with-color/bee-B2SF.svg\" width=\"200\">\n                    <p><span class=\"greenText\"><b>Successful harvest!</b></span><br>Your pay has increased by $0.02. Your bonus pay is now $1.14.</p>\n            ","response":0,"trial_type":"html-button-response","trial_index":132,"time_elapsed":248271,"internal_node_id":"0.0-4.0-1.60","subject_id":"61477af04f922bba4fab7ba6","study_id":"6197b3f67c2b5cd3b6d9596a","session_id":"619be788d38ef20e51546309","condition":"full-information","relevant_dimensions":["pattern","legs"],"bee_group":{"antennae":"X","wings":"X","pattern":"D","legs":"M"},"bonus":0.9600000000000007},{"rt":582,"stimulus":"bees-with-color/bee-B1DF.svg","response":0,"trial_type":"image-button-response","trial_index":133,"time_elapsed":248853,"internal_node_id":"0.0-4.0-0.61","subject_id":"61477af04f922bba4fab7ba6","study_id":"6197b3f67c2b5cd3b6d9596a","session_id":"619be788d38ef20e51546309","condition":"full-information","relevant_dimensions":["pattern","legs"],"bee_group":{"antennae":"X","wings":"X","pattern":"D","legs":"M"},"action":"harvest","summary":"good-harvest","bonus":0.9600000000000007},{"rt":501,"stimulus":"\n                    <p><b>Action: <em>harvest</em></b></p>\n                    <p>This is the bee that you just saw.</p>\n                    <img src=\"bees-with-color/bee-B1DF.svg\" width=\"200\">\n                    <p><span class=\"greenText\"><b>Successful harvest!</b></span><br>Your pay has increased by $0.02. Your bonus pay is now $1.16.</p>\n            ","response":0,"trial_type":"html-button-response","trial_index":134,"time_elapsed":249355,"internal_node_id":"0.0-4.0-1.61","subject_id":"61477af04f922bba4fab7ba6","study_id":"6197b3f67c2b5cd3b6d9596a","session_id":"619be788d38ef20e51546309","condition":"full-information","relevant_dimensions":["pattern","legs"],"bee_group":{"antennae":"X","wings":"X","pattern":"D","legs":"M"},"bonus":0.9600000000000007},{"rt":552,"stimulus":"bees-with-color/bee-A1DF.svg","response":0,"trial_type":"image-button-response","trial_index":135,"time_elapsed":249906,"internal_node_id":"0.0-4.0-0.62","subject_id":"61477af04f922bba4fab7ba6","study_id":"6197b3f67c2b5cd3b6d9596a","session_id":"619be788d38ef20e51546309","condition":"full-information","relevant_dimensions":["pattern","legs"],"bee_group":{"antennae":"X","wings":"X","pattern":"D","legs":"M"},"action":"harvest","summary":"good-harvest","bonus":0.9600000000000007},{"rt":431,"stimulus":"\n                    <p><b>Action: <em>harvest</em></b></p>\n                    <p>This is the bee that you just saw.</p>\n                    <img src=\"bees-with-color/bee-A1DF.svg\" width=\"200\">\n                    <p><span class=\"greenText\"><b>Successful harvest!</b></span><br>Your pay has increased by $0.02. Your bonus pay is now $1.18.</p>\n            ","response":0,"trial_type":"html-button-response","trial_index":136,"time_elapsed":250338,"internal_node_id":"0.0-4.0-1.62","subject_id":"61477af04f922bba4fab7ba6","study_id":"6197b3f67c2b5cd3b6d9596a","session_id":"619be788d38ef20e51546309","condition":"full-information","relevant_dimensions":["pattern","legs"],"bee_group":{"antennae":"X","wings":"X","pattern":"D","legs":"M"},"bonus":0.9600000000000007},{"rt":761,"stimulus":"bees-with-color/bee-B2DM.svg","response":1,"trial_type":"image-button-response","trial_index":137,"time_elapsed":251100,"internal_node_id":"0.0-4.0-0.63","subject_id":"61477af04f922bba4fab7ba6","study_id":"6197b3f67c2b5cd3b6d9596a","session_id":"619be788d38ef20e51546309","condition":"full-information","relevant_dimensions":["pattern","legs"],"bee_group":{"antennae":"X","wings":"X","pattern":"D","legs":"M"},"action":"avoid","summary":"good-avoid","bonus":0.9600000000000007},{"rt":392,"stimulus":"\n                    <p><b>Action: <em>avoid</em></b></p>\n                    <p>This is the bee that you just saw.</p>\n                    <img src=\"bees-with-color/bee-B2DM.svg\" width=\"200\">\n                    <p><span class=\"greenText\">Good choice!</span>  This bee would have stung you.<br>Your bonus pay is unchanged, and remains at $1.18.</p>\n            ","response":0,"trial_type":"html-button-response","trial_index":138,"time_elapsed":251492,"internal_node_id":"0.0-4.0-1.63","subject_id":"61477af04f922bba4fab7ba6","study_id":"6197b3f67c2b5cd3b6d9596a","session_id":"619be788d38ef20e51546309","condition":"full-information","relevant_dimensions":["pattern","legs"],"bee_group":{"antennae":"X","wings":"X","pattern":"D","legs":"M"},"bonus":0.9600000000000007},{"rt":7527,"stimulus":"You have completed the first part of this experiment.<br><br>You will now begin a shorter second part, in which you will receive no feedback.<br>The same rules regarding bonus pay apply.<br><br>Press any key to begin.","response":" ","trial_type":"html-keyboard-response","trial_index":139,"time_elapsed":259020,"internal_node_id":"0.0-5.0","subject_id":"61477af04f922bba4fab7ba6","study_id":"6197b3f67c2b5cd3b6d9596a","session_id":"619be788d38ef20e51546309","condition":"full-information","relevant_dimensions":["pattern","legs"],"bee_group":{"antennae":"X","wings":"X","pattern":"D","legs":"M"},"bonus":0.9600000000000007},{"rt":28432,"stimulus":"bees-with-color/bee-B2SF.svg","response":0,"trial_type":"image-button-response","trial_index":140,"time_elapsed":287453,"internal_node_id":"0.0-6.0-0.0","subject_id":"61477af04f922bba4fab7ba6","study_id":"6197b3f67c2b5cd3b6d9596a","session_id":"619be788d38ef20e51546309","condition":"full-information","relevant_dimensions":["pattern","legs"],"bee_group":{"antennae":"X","wings":"X","pattern":"D","legs":"M"},"bonus":0.9600000000000007},{"rt":151,"stimulus":"bees-with-color/bee-B2SM.svg","response":0,"trial_type":"image-button-response","trial_index":141,"time_elapsed":287607,"internal_node_id":"0.0-6.0-0.1","subject_id":"61477af04f922bba4fab7ba6","study_id":"6197b3f67c2b5cd3b6d9596a","session_id":"619be788d38ef20e51546309","condition":"full-information","relevant_dimensions":["pattern","legs"],"bee_group":{"antennae":"X","wings":"X","pattern":"D","legs":"M"},"bonus":0.9600000000000007},{"rt":120,"stimulus":"bees-with-color/bee-A1DM.svg","response":0,"trial_type":"image-button-response","trial_index":142,"time_elapsed":287728,"internal_node_id":"0.0-6.0-0.2","subject_id":"61477af04f922bba4fab7ba6","study_id":"6197b3f67c2b5cd3b6d9596a","session_id":"619be788d38ef20e51546309","condition":"full-information","relevant_dimensions":["pattern","legs"],"bee_group":{"antennae":"X","wings":"X","pattern":"D","legs":"M"},"bonus":0.9600000000000007},{"rt":1065,"stimulus":"bees-with-color/bee-A1SM.svg","response":0,"trial_type":"image-button-response","trial_index":143,"time_elapsed":288794,"internal_node_id":"0.0-6.0-0.3","subject_id":"61477af04f922bba4fab7ba6","study_id":"6197b3f67c2b5cd3b6d9596a","session_id":"619be788d38ef20e51546309","condition":"full-information","relevant_dimensions":["pattern","legs"],"bee_group":{"antennae":"X","wings":"X","pattern":"D","legs":"M"},"bonus":0.9600000000000007},{"rt":311,"stimulus":"bees-with-color/bee-B2DF.svg","response":0,"trial_type":"image-button-response","trial_index":144,"time_elapsed":289107,"internal_node_id":"0.0-6.0-0.4","subject_id":"61477af04f922bba4fab7ba6","study_id":"6197b3f67c2b5cd3b6d9596a","session_id":"619be788d38ef20e51546309","condition":"full-information","relevant_dimensions":["pattern","legs"],"bee_group":{"antennae":"X","wings":"X","pattern":"D","legs":"M"},"bonus":0.9600000000000007},{"rt":120,"stimulus":"bees-with-color/bee-B1DF.svg","response":0,"trial_type":"image-button-response","trial_index":145,"time_elapsed":289229,"internal_node_id":"0.0-6.0-0.5","subject_id":"61477af04f922bba4fab7ba6","study_id":"6197b3f67c2b5cd3b6d9596a","session_id":"619be788d38ef20e51546309","condition":"full-information","relevant_dimensions":["pattern","legs"],"bee_group":{"antennae":"X","wings":"X","pattern":"D","legs":"M"},"bonus":0.9600000000000007},{"rt":120,"stimulus":"bees-with-color/bee-B2DM.svg","response":0,"trial_type":"image-button-response","trial_index":146,"time_elapsed":289351,"internal_node_id":"0.0-6.0-0.6","subject_id":"61477af04f922bba4fab7ba6","study_id":"6197b3f67c2b5cd3b6d9596a","session_id":"619be788d38ef20e51546309","condition":"full-information","relevant_dimensions":["pattern","legs"],"bee_group":{"antennae":"X","wings":"X","pattern":"D","legs":"M"},"bonus":0.9600000000000007},{"rt":1467,"stimulus":"bees-with-color/bee-B1SM.svg","response":0,"trial_type":"image-button-response","trial_index":147,"time_elapsed":290818,"internal_node_id":"0.0-6.0-0.7","subject_id":"61477af04f922bba4fab7ba6","study_id":"6197b3f67c2b5cd3b6d9596a","session_id":"619be788d38ef20e51546309","condition":"full-information","relevant_dimensions":["pattern","legs"],"bee_group":{"antennae":"X","wings":"X","pattern":"D","legs":"M"},"bonus":0.9600000000000007},{"rt":180,"stimulus":"bees-with-color/bee-A1SF.svg","response":0,"trial_type":"image-button-response","trial_index":148,"time_elapsed":291001,"internal_node_id":"0.0-6.0-0.8","subject_id":"61477af04f922bba4fab7ba6","study_id":"6197b3f67c2b5cd3b6d9596a","session_id":"619be788d38ef20e51546309","condition":"full-information","relevant_dimensions":["pattern","legs"],"bee_group":{"antennae":"X","wings":"X","pattern":"D","legs":"M"},"bonus":0.9600000000000007},{"rt":160,"stimulus":"bees-with-color/bee-B1DM.svg","response":0,"trial_type":"image-button-response","trial_index":149,"time_elapsed":291163,"internal_node_id":"0.0-6.0-0.9","subject_id":"61477af04f922bba4fab7ba6","study_id":"6197b3f67c2b5cd3b6d9596a","session_id":"619be788d38ef20e51546309","condition":"full-information","relevant_dimensions":["pattern","legs"],"bee_group":{"antennae":"X","wings":"X","pattern":"D","legs":"M"},"bonus":0.9600000000000007},{"rt":201,"stimulus":"bees-with-color/bee-A2DF.svg","response":0,"trial_type":"image-button-response","trial_index":150,"time_elapsed":291365,"internal_node_id":"0.0-6.0-0.10","subject_id":"61477af04f922bba4fab7ba6","study_id":"6197b3f67c2b5cd3b6d9596a","session_id":"619be788d38ef20e51546309","condition":"full-information","relevant_dimensions":["pattern","legs"],"bee_group":{"antennae":"X","wings":"X","pattern":"D","legs":"M"},"bonus":0.9600000000000007},{"rt":180,"stimulus":"bees-with-color/bee-A2SM.svg","response":0,"trial_type":"image-button-response","trial_index":151,"time_elapsed":291545,"internal_node_id":"0.0-6.0-0.11","subject_id":"61477af04f922bba4fab7ba6","study_id":"6197b3f67c2b5cd3b6d9596a","session_id":"619be788d38ef20e51546309","condition":"full-information","relevant_dimensions":["pattern","legs"],"bee_group":{"antennae":"X","wings":"X","pattern":"D","legs":"M"},"bonus":0.9600000000000007},{"rt":162,"stimulus":"bees-with-color/bee-A2DM.svg","response":1,"trial_type":"image-button-response","trial_index":152,"time_elapsed":291708,"internal_node_id":"0.0-6.0-0.12","subject_id":"61477af04f922bba4fab7ba6","study_id":"6197b3f67c2b5cd3b6d9596a","session_id":"619be788d38ef20e51546309","condition":"full-information","relevant_dimensions":["pattern","legs"],"bee_group":{"antennae":"X","wings":"X","pattern":"D","legs":"M"},"bonus":0.9600000000000007},{"rt":990,"stimulus":"bees-with-color/bee-A2SF.svg","response":0,"trial_type":"image-button-response","trial_index":153,"time_elapsed":292700,"internal_node_id":"0.0-6.0-0.13","subject_id":"61477af04f922bba4fab7ba6","study_id":"6197b3f67c2b5cd3b6d9596a","session_id":"619be788d38ef20e51546309","condition":"full-information","relevant_dimensions":["pattern","legs"],"bee_group":{"antennae":"X","wings":"X","pattern":"D","legs":"M"},"bonus":0.9600000000000007},{"rt":2132,"stimulus":"bees-with-color/bee-B1SF.svg","response":0,"trial_type":"image-button-response","trial_index":154,"time_elapsed":294832,"internal_node_id":"0.0-6.0-0.14","subject_id":"61477af04f922bba4fab7ba6","study_id":"6197b3f67c2b5cd3b6d9596a","session_id":"619be788d38ef20e51546309","condition":"full-information","relevant_dimensions":["pattern","legs"],"bee_group":{"antennae":"X","wings":"X","pattern":"D","legs":"M"},"bonus":0.9600000000000007},{"rt":170,"stimulus":"bees-with-color/bee-A1DF.svg","response":0,"trial_type":"image-button-response","trial_index":155,"time_elapsed":295004,"internal_node_id":"0.0-6.0-0.15","subject_id":"61477af04f922bba4fab7ba6","study_id":"6197b3f67c2b5cd3b6d9596a","session_id":"619be788d38ef20e51546309","condition":"full-information","relevant_dimensions":["pattern","legs"],"bee_group":{"antennae":"X","wings":"X","pattern":"D","legs":"M"},"bonus":0.9600000000000007},{"rt":171,"stimulus":"bees-with-color/bee-B2SM.svg","response":0,"trial_type":"image-button-response","trial_index":156,"time_elapsed":295176,"internal_node_id":"0.0-6.0-0.16","subject_id":"61477af04f922bba4fab7ba6","study_id":"6197b3f67c2b5cd3b6d9596a","session_id":"619be788d38ef20e51546309","condition":"full-information","relevant_dimensions":["pattern","legs"],"bee_group":{"antennae":"X","wings":"X","pattern":"D","legs":"M"},"bonus":0.9600000000000007},{"rt":201,"stimulus":"bees-with-color/bee-B2DM.svg","response":0,"trial_type":"image-button-response","trial_index":157,"time_elapsed":295378,"internal_node_id":"0.0-6.0-0.17","subject_id":"61477af04f922bba4fab7ba6","study_id":"6197b3f67c2b5cd3b6d9596a","session_id":"619be788d38ef20e51546309","condition":"full-information","relevant_dimensions":["pattern","legs"],"bee_group":{"antennae":"X","wings":"X","pattern":"D","legs":"M"},"bonus":0.9600000000000007},{"rt":181,"stimulus":"bees-with-color/bee-B1DM.svg","response":0,"trial_type":"image-button-response","trial_index":158,"time_elapsed":295560,"internal_node_id":"0.0-6.0-0.18","subject_id":"61477af04f922bba4fab7ba6","study_id":"6197b3f67c2b5cd3b6d9596a","session_id":"619be788d38ef20e51546309","condition":"full-information","relevant_dimensions":["pattern","legs"],"bee_group":{"antennae":"X","wings":"X","pattern":"D","legs":"M"},"bonus":0.9600000000000007},{"rt":171,"stimulus":"bees-with-color/bee-A2SM.svg","response":0,"trial_type":"image-button-response","trial_index":159,"time_elapsed":295732,"internal_node_id":"0.0-6.0-0.19","subject_id":"61477af04f922bba4fab7ba6","study_id":"6197b3f67c2b5cd3b6d9596a","session_id":"619be788d38ef20e51546309","condition":"full-information","relevant_dimensions":["pattern","legs"],"bee_group":{"antennae":"X","wings":"X","pattern":"D","legs":"M"},"bonus":0.9600000000000007},{"rt":171,"stimulus":"bees-with-color/bee-B2DF.svg","response":0,"trial_type":"image-button