[{"success":true,"trial_type":"fullscreen","trial_index":0,"time_elapsed":7461,"internal_node_id":"0.0-0.0","subject_id":"616c3cbc9f45e7120b08bad6","study_id":"6197b3f67c2b5cd3b6d9596a","session_id":"619be319c4ca94938202460b","condition":"full-information","relevant_dimensions":["wings","legs"],"bee_group":{"antennae":"X","wings":"2","pattern":"X","legs":"F"},"bonus":1.8000000000000012},{"success":true,"timeout":false,"failed_images":[],"failed_audio":[],"failed_video":[],"trial_type":"preload","trial_index":1,"time_elapsed":23157,"internal_node_id":"0.0-1.0","subject_id":"616c3cbc9f45e7120b08bad6","study_id":"6197b3f67c2b5cd3b6d9596a","session_id":"619be319c4ca94938202460b","condition":"full-information","relevant_dimensions":["wings","legs"],"bee_group":{"antennae":"X","wings":"2","pattern":"X","legs":"F"},"bonus":1.8000000000000012},{"rt":141160,"stimulus":"Welcome! Press any key to begin.","response":" ","trial_type":"html-keyboard-response","trial_index":2,"time_elapsed":164318,"internal_node_id":"0.0-2.0","subject_id":"616c3cbc9f45e7120b08bad6","study_id":"6197b3f67c2b5cd3b6d9596a","session_id":"619be319c4ca94938202460b","condition":"full-information","relevant_dimensions":["wings","legs"],"bee_group":{"antennae":"X","wings":"2","pattern":"X","legs":"F"},"bonus":1.8000000000000012},{"view_history":[{"page_index":0,"viewing_time":6435.400000002235},{"page_index":1,"viewing_time":15743.89999999851},{"page_index":2,"viewing_time":15559.699999999255},{"page_index":3,"viewing_time":19760.300000000745},{"page_index":4,"viewing_time":7822.900000002235},{"page_index":5,"viewing_time":10159.099999997765},{"page_index":6,"viewing_time":9685.10000000149},{"page_index":7,"viewing_time":5586.699999999255},{"page_index":8,"viewing_time":4562.5},{"page_index":9,"viewing_time":3262.5},{"page_index":10,"viewing_time":3000.199999999255},{"page_index":11,"viewing_time":3510.400000002235},{"page_index":12,"viewing_time":16083.89999999851},{"page_index":13,"viewing_time":1674},{"page_index":14,"viewing_time":1764.300000000745}],"rt":124611.20000000298,"trial_type":"instructions","trial_index":3,"time_elapsed":288930,"internal_node_id":"0.0-3.0-0.0","subject_id":"616c3cbc9f45e7120b08bad6","study_id":"6197b3f67c2b5cd3b6d9596a","session_id":"619be319c4ca94938202460b","condition":"full-information","relevant_dimensions":["wings","legs"],"bee_group":{"antennae":"X","wings":"2","pattern":"X","legs":"F"},"bonus":1.8000000000000012},{"rt":18121,"response":{"Q0":["Stripes or spots on body","Single or double wings","Antennae or no antennae"]},"question_order":[0],"trial_type":"survey-multi-select","trial_index":4,"time_elapsed":307055,"internal_node_id":"0.0-3.0-1.0","subject_id":"616c3cbc9f45e7120b08bad6","study_id":"6197b3f67c2b5cd3b6d9596a","session_id":"619be319c4ca94938202460b","condition":"full-information","relevant_dimensions":["wings","legs"],"bee_group":{"antennae":"X","wings":"2","pattern":"X","legs":"F"},"correct":false,"bonus":1.8000000000000012},{"rt":31102.39999999851,"response":{"Q1":"No.","Q2":"Based on the four features of the bee.","Q3":"You learn if it was friendly or dangerous, but do not alter your bonus."},"question_order":[0,1,2],"trial_type":"survey-multi-choice","trial_index":5,"time_elapsed":338162,"internal_node_id":"0.0-3.0-2.0","subject_id":"616c3cbc9f45e7120b08bad6","study_id":"6197b3f67c2b5cd3b6d9596a","session_id":"619be319c4ca94938202460b","condition":"full-information","relevant_dimensions":["wings","legs"],"bee_group":{"antennae":"X","wings":"2","pattern":"X","legs":"F"},"correct":true,"bonus":1.8000000000000012},{"rt":3313.400000002235,"stimulus":"<p>You did not answer all comprehension questions correctly.<br>Press <b>continue</b> to review the instructions again.</p>","response":0,"trial_type":"html-button-response","trial_index":6,"time_elapsed":341480,"internal_node_id":"0.0-3.0-3.0","subject_id":"616c3cbc9f45e7120b08bad6","study_id":"6197b3f67c2b5cd3b6d9596a","session_id":"619be319c4ca94938202460b","condition":"full-information","relevant_dimensions":["wings","legs"],"bee_group":{"antennae":"X","wings":"2","pattern":"X","legs":"F"},"bonus":1.8000000000000012},{"view_history":[{"page_index":0,"viewing_time":2924.800000000745},{"page_index":1,"viewing_time":2836.39999999851},{"page_index":2,"viewing_time":15825.800000000745},{"page_index":3,"viewing_time":12065.300000000745},{"page_index":4,"viewing_time":8875.099999997765},{"page_index":5,"viewing_time":2002.1000000014901},{"page_index":6,"viewing_time":1634.300000000745},{"page_index":7,"viewing_time":10295.29999999702},{"page_index":8,"viewing_time":6476.60000000149},{"page_index":9,"viewing_time":5822.699999999255},{"page_index":10,"viewing_time":3902.400000002235},{"page_index":11,"viewing_time":1106.0999999977648},{"page_index":12,"viewing_time":1746.4000000022352},{"page_index":13,"viewing_time":1618.0999999977648},{"page_index":14,"viewing_time":2294.199999999255}],"rt":79425.80000000075,"trial_type":"instructions","trial_index":7,"time_elapsed":420907,"internal_node_id":"0.0-3.0-4.0-0.0","subject_id":"616c3cbc9f45e7120b08bad6","study_id":"6197b3f67c2b5cd3b6d9596a","session_id":"619be319c4ca94938202460b","condition":"full-information","relevant_dimensions":["wings","legs"],"bee_group":{"antennae":"X","wings":"2","pattern":"X","legs":"F"},"bonus":1.8000000000000012},{"rt":22010.5,"response":{"Q0":["Two or six legs","Stripes or spots on body","Single or double wings","Antennae or no antennae"]},"question_order":[0],"trial_type":"survey-multi-select","trial_index":8,"time_elapsed":442920,"internal_node_id":"0.0-3.0-4.0-1.0","subject_id":"616c3cbc9f45e7120b08bad6","study_id":"6197b3f67c2b5cd3b6d9596a","session_id":"619be319c4ca94938202460b","condition":"full-information","relevant_dimensions":["wings","legs"],"bee_group":{"antennae":"X","wings":"2","pattern":"X","legs":"F"},"correct":true,"bonus":1.8000000000000012},{"rt":54798,"response":{"Q1":"No.","Q2":"Based on the four features of the bee.","Q3":"You learn if it was friendly or dangerous, but do not alter your bonus."},"question_order":[0,1,2],"trial_type":"survey-multi-choice","trial_index":9,"time_elapsed":497723,"internal_node_id":"0.0-3.0-4.0-2.0","subject_id":"616c3cbc9f45e7120b08bad6","study_id":"6197b3f67c2b5cd3b6d9596a","session_id":"619be319c4ca94938202460b","condition":"full-information","relevant_dimensions":["wings","legs"],"bee_group":{"antennae":"X","wings":"2","pattern":"X","legs":"F"},"correct":true,"bonus":1.8000000000000012},{"rt":2375.699999999255,"stimulus":"<p>Congrats, you got everything right<br>When you're ready, click the button below to continue to the experiment.</p>","response":0,"trial_type":"html-button-response","trial_index":10,"time_elapsed":500103,"internal_node_id":"0.0-3.0-4.0-3.0","subject_id":"616c3cbc9f45e7120b08bad6","study_id":"6197b3f67c2b5cd3b6d9596a","session_id":"619be319c4ca94938202460b","condition":"full-information","relevant_dimensions":["wings","legs"],"bee_group":{"antennae":"X","wings":"2","pattern":"X","legs":"F"},"bonus":1.8000000000000012},{"rt":32849.5,"stimulus":"bees-with-color/bee-B2DF.svg","response":0,"trial_type":"image-button-response","trial_index":11,"time_elapsed":532954,"internal_node_id":"0.0-4.0-0.0","subject_id":"616c3cbc9f45e7120b08bad6","study_id":"6197b3f67c2b5cd3b6d9596a","session_id":"619be319c4ca94938202460b","condition":"full-information","relevant_dimensions":["wings","legs"],"bee_group":{"antennae":"X","wings":"2","pattern":"X","legs":"F"},"action":"harvest","summary":"bad-harvest","bonus":1.8000000000000012},{"rt":10273,"stimulus":"\n                    <p><b>Action: <em>harvest</em></b></p>\n                    <p>This is the bee that you just saw.</p>\n                    <img src=\"bees-with-color/bee-B2DF.svg\" width=\"200\">\n                    <p><span class=\"redText\">Bad choice, the bee was angry.</span><br><b>You have been stung!</b><br>Your pay has been decreased by $0.10. Your bonus pay is now $0.44.</p>\n            ","response":0,"trial_type":"html-button-response","trial_index":12,"time_elapsed":543231,"internal_node_id":"0.0-4.0-1.0","subject_id":"616c3cbc9f45e7120b08bad6","study_id":"6197b3f67c2b5cd3b6d9596a","session_id":"619be319c4ca94938202460b","condition":"full-information","relevant_dimensions":["wings","legs"],"bee_group":{"antennae":"X","wings":"2","pattern":"X","legs":"F"},"bonus":1.8000000000000012},{"rt":11519.39999999851,"stimulus":"bees-with-color/bee-B1DM.svg","response":0,"trial_type":"image-button-response","trial_index":13,"time_elapsed":554753,"internal_node_id":"0.0-4.0-0.1","subject_id":"616c3cbc9f45e7120b08bad6","study_id":"6197b3f67c2b5cd3b6d9596a","session_id":"619be319c4ca94938202460b","condition":"full-information","relevant_dimensions":["wings","legs"],"bee_group":{"antennae":"X","wings":"2","pattern":"X","legs":"F"},"action":"harvest","summary":"good-harvest","bonus":1.8000000000000012},{"rt":8329.099999997765,"stimulus":"\n                    <p><b>Action: <em>harvest</em></b></p>\n                    <p>This is the bee that you just saw.</p>\n                    <img src=\"bees-with-color/bee-B1DM.svg\" width=\"200\">\n                    <p><span class=\"greenText\"><b>Successful harvest!</b></span><br>Your pay has increased by $0.02. Your bonus pay is now $0.46.</p>\n            ","response":0,"trial_type":"html-button-response","trial_index":14,"time_elapsed":563084,"internal_node_id":"0.0-4.0-1.1","subject_id":"616c3cbc9f45e7120b08bad6","study_id":"6197b3f67c2b5cd3b6d9596a","session_id":"619be319c4ca94938202460b","condition":"full-information","relevant_dimensions":["wings","legs"],"bee_group":{"antennae":"X","wings":"2","pattern":"X","legs":"F"},"bonus":1.8000000000000012},{"rt":16958,"stimulus":"bees-with-color/bee-A2SM.svg","response":1,"trial_type":"image-button-response","trial_index":15,"time_elapsed":580044,"internal_node_id":"0.0-4.0-0.2","subject_id":"616c3cbc9f45e7120b08bad6","study_id":"6197b3f67c2b5cd3b6d9596a","session_id":"619be319c4ca94938202460b","condition":"full-information","relevant_dimensions":["wings","legs"],"bee_group":{"antennae":"X","wings":"2","pattern":"X","legs":"F"},"action":"avoid","summary":"bad-avoid","bonus":1.8000000000000012},{"rt":18522.199999999255,"stimulus":"\n                    <p><b>Action: <em>avoid</em></b></p>\n                    <p>This is the bee that you just saw.</p>\n                    <img src=\"bees-with-color/bee-A2SM.svg\" width=\"200\">\n                    <p><span class=\"redText\">Bad choice,</span> the bee was friendly.<br>Your bonus pay is unchanged, and remains at $0.46.</p>\n            ","response":0,"trial_type":"html-button-response","trial_index":16,"time_elapsed":598568,"internal_node_id":"0.0-4.0-1.2","subject_id":"616c3cbc9f45e7120b08bad6","study_id":"6197b3f67c2b5cd3b6d9596a","session_id":"619be319c4ca94938202460b","condition":"full-information","relevant_dimensions":["wings","legs"],"bee_group":{"antennae":"X","wings":"2","pattern":"X","legs":"F"},"bonus":1.8000000000000012},{"rt":12129.5,"stimulus":"bees-with-color/bee-A1SF.svg","response":0,"trial_type":"image-button-response","trial_index":17,"time_elapsed":610699,"internal_node_id":"0.0-4.0-0.3","subject_id":"616c3cbc9f45e7120b08bad6","study_id":"6197b3f67c2b5cd3b6d9596a","session_id":"619be319c4ca94938202460b","condition":"full-information","relevant_dimensions":["wings","legs"],"bee_group":{"antennae":"X","wings":"2","pattern":"X","legs":"F"},"action":"harvest","summary":"good-harvest","bonus":1.8000000000000012},{"rt":12145.300000000745,"stimulus":"\n                    <p><b>Action: <em>harvest</em></b></p>\n                    <p>This is the bee that you just saw.</p>\n                    <img src=\"bees-with-color/bee-A1SF.svg\" width=\"200\">\n                    <p><span class=\"greenText\"><b>Successful harvest!</b></span><br>Your pay has increased by $0.02. Your bonus pay is now $0.48.</p>\n            ","response":0,"trial_type":"html-button-response","trial_index":18,"time_elapsed":622847,"internal_node_id":"0.0-4.0-1.3","subject_id":"616c3cbc9f45e7120b08bad6","study_id":"6197b3f67c2b5cd3b6d9596a","session_id":"619be319c4ca94938202460b","condition":"full-information","relevant_dimensions":["wings","legs"],"bee_group":{"antennae":"X","wings":"2","pattern":"X","legs":"F"},"bonus":1.8000000000000012},{"rt":13501.699999999255,"stimulus":"bees-with-color/bee-B2DM.svg","response":1,"trial_type":"image-button-response","trial_index":19,"time_elapsed":636350,"internal_node_id":"0.0-4.0-0.4","subject_id":"616c3cbc9f45e7120b08bad6","study_id":"6197b3f67c2b5cd3b6d9596a","session_id":"619be319c4ca94938202460b","condition":"full-information","relevant_dimensions":["wings","legs"],"bee_group":{"antennae":"X","wings":"2","pattern":"X","legs":"F"},"action":"avoid","summary":"bad-avoid","bonus":1.8000000000000012},{"rt":12481.39999999851,"stimulus":"\n                    <p><b>Action: <em>avoid</em></b></p>\n                    <p>This is the bee that you just saw.</p>\n                    <img src=\"bees-with-color/bee-B2DM.svg\" width=\"200\">\n                    <p><span class=\"redText\">Bad choice,</span> the bee was friendly.<br>Your bonus pay is unchanged, and remains at $0.48.</p>\n            ","response":0,"trial_type":"html-button-response","trial_index":20,"time_elapsed":648833,"internal_node_id":"0.0-4.0-1.4","subject_id":"616c3cbc9f45e7120b08bad6","study_id":"6197b3f67c2b5cd3b6d9596a","session_id":"619be319c4ca94938202460b","condition":"full-information","relevant_dimensions":["wings","legs"],"bee_group":{"antennae":"X","wings":"2","pattern":"X","legs":"F"},"bonus":1.8000000000000012},{"rt":21954.699999999255,"stimulus":"bees-with-color/bee-B1SM.svg","response":1,"trial_type":"image-button-response","trial_index":21,"time_elapsed":670790,"internal_node_id":"0.0-4.0-0.5","subject_id":"616c3cbc9f45e7120b08bad6","study_id":"6197b3f67c2b5cd3b6d9596a","session_id":"619be319c4ca94938202460b","condition":"full-information","relevant_dimensions":["wings","legs"],"bee_group":{"antennae":"X","wings":"2","pattern":"X","legs":"F"},"action":"avoid","summary":"bad-avoid","bonus":1.8000000000000012},{"rt":7846.89999999851,"stimulus":"\n                    <p><b>Action: <em>avoid</em></b></p>\n                    <p>This is the bee that you just saw.</p>\n                    <img src=\"bees-with-color/bee-B1SM.svg\" width=\"200\">\n                    <p><span class=\"redText\">Bad choice,</span> the bee was friendly.<br>Your bonus pay is unchanged, and remains at $0.48.</p>\n            ","response":0,"trial_type":"html-button-response","trial_index":22,"time_elapsed":678639,"internal_node_id":"0.0-4.0-1.5","subject_id":"616c3cbc9f45e7120b08bad6","study_id":"6197b3f67c2b5cd3b6d9596a","session_id":"619be319c4ca94938202460b","condition":"full-information","relevant_dimensions":["wings","legs"],"bee_group":{"antennae":"X","wings":"2","pattern":"X","legs":"F"},"bonus":1.8000000000000012},{"rt":18706.10000000149,"stimulus":"bees-with-color/bee-A1DF.svg","response":1,"trial_type":"image-button-response","trial_index":23,"time_elapsed":697347,"internal_node_id":"0.0-4.0-0.6","subject_id":"616c3cbc9f45e7120b08bad6","study_id":"6197b3f67c2b5cd3b6d9596a","session_id":"619be319c4ca94938202460b","condition":"full-information","relevant_dimensions":["wings","legs"],"bee_group":{"antennae":"X","wings":"2","pattern":"X","legs":"F"},"action":"avoid","summary":"bad-avoid","bonus":1.8000000000000012},{"rt":9314.89999999851,"stimulus":"\n                    <p><b>Action: <em>avoid</em></b></p>\n                    <p>This is the bee that you just saw.</p>\n                    <img src=\"bees-with-color/bee-A1DF.svg\" width=\"200\">\n                    <p><span class=\"redText\">Bad choice,</span> the bee was friendly.<br>Your bonus pay is unchanged, and remains at $0.48.</p>\n            ","response":0,"trial_type":"html-button-response","trial_index":24,"time_elapsed":706664,"internal_node_id":"0.0-4.0-1.6","subject_id":"616c3cbc9f45e7120b08bad6","study_id":"6197b3f67c2b5cd3b6d9596a","session_id":"619be319c4ca94938202460b","condition":"full-information","relevant_dimensions":["wings","legs"],"bee_group":{"antennae":"X","wings":"2","pattern":"X","legs":"F"},"bonus":1.8000000000000012},{"rt":17610.10000000149,"stimulus":"bees-with-color/bee-A2DF.svg","response":1,"trial_type":"image-button-response","trial_index":25,"time_elapsed":724276,"internal_node_id":"0.0-4.0-0.7","subject_id":"616c3cbc9f45e7120b08bad6","study_id":"6197b3f67c2b5cd3b6d9596a","session_id":"619be319c4ca94938202460b","condition":"full-information","relevant_dimensions":["wings","legs"],"bee_group":{"antennae":"X","wings":"2","pattern":"X","legs":"F"},"action":"avoid","summary":"good-avoid","bonus":1.8000000000000012},{"rt":11277.300000000745,"stimulus":"\n                    <p><b>Action: <em>avoid</em></b></p>\n                    <p>This is the bee that you just saw.</p>\n                    <img src=\"bees-with-color/bee-A2DF.svg\" width=\"200\">\n                    <p><span class=\"greenText\">Good choice!</span>  This bee would have stung you.<br>Your bonus pay is unchanged, and remains at $0.48.</p>\n            ","response":0,"trial_type":"html-button-response","trial_index":26,"time_elapsed":735555,"internal_node_id":"0.0-4.0-1.7","subject_id":"616c3cbc9f45e7120b08bad6","study_id":"6197b3f67c2b5cd3b6d9596a","session_id":"619be319c4ca94938202460b","condition":"full-information","relevant_dimensions":["wings","legs"],"bee_group":{"antennae":"X","wings":"2","pattern":"X","legs":"F"},"bonus":1.8000000000000012},{"rt":23412.699999999255,"stimulus":"bees-with-color/bee-B2SF.svg","response":1,"trial_type":"image-button-response","trial_index":27,"time_elapsed":758970,"internal_node_id":"0.0-4.0-0.8","subject_id":"616c3cbc9f45e7120b08bad6","study_id":"6197b3f67c2b5cd3b6d9596a","session_id":"619be319c4ca94938202460b","condition":"full-information","relevant_dimensions":["wings","legs"],"bee_group":{"antennae":"X","wings":"2","pattern":"X","legs":"F"},"action":"avoid","summary":"good-avoid","bonus":1.8000000000000012},{"rt":6452.800000000745,"stimulus":"\n                    <p><b>Action: <em>avoid</em></b></p>\n                    <p>This is the bee that you just saw.</p>\n                    <img src=\"bees-with-color/bee-B2SF.svg\" width=\"200\">\n                    <p><span class=\"greenText\">Good choice!</span>  This bee would have stung you.<br>Your bonus pay is unchanged, and remains at $0.48.</p>\n            ","response":0,"trial_type":"html-button-response","trial_index":28,"time_elapsed":765425,"internal_node_id":"0.0-4.0-1.8","subject_id":"616c3cbc9f45e7120b08bad6","study_id":"6197b3f67c2b5cd3b6d9596a","session_id":"619be319c4ca94938202460b","condition":"full-information","relevant_dimensions":["wings","legs"],"bee_group":{"antennae":"X","wings":"2","pattern":"X","legs":"F"},"bonus":1.8000000000000012},{"rt":7565.10000000149,"stimulus":"bees-with-color/bee-B1DF.svg","response":0,"trial_type":"image-button-response","trial_index":29,"time_elapsed":772992,"internal_node_id":"0.0-4.0-0.9","subject_id":"616c3cbc9f45e7120b08bad6","study_id":"6197b3f67c2b5cd3b6d9596a","session_id":"619be319c4ca94938202460b","condition":"full-information","relevant_dimensions":["wings","legs"],"bee_group":{"antennae":"X","wings":"2","pattern":"X","legs":"F"},"action":"harvest","summary":"good-harvest","bonus":1.8000000000000012},{"rt":1712.0999999977648,"stimulus":"\n                    <p><b>Action: <em>harvest</em></b></p>\n                    <p>This is the bee that you just saw.</p>\n                    <img src=\"bees-with-color/bee-B1DF.svg\" width=\"200\">\n                    <p><span class=\"greenText\"><b>Successful harvest!</b></span><br>Your pay has increased by $0.02. Your bonus pay is now $0.50.</p>\n            ","response":0,"trial_type":"html-button-response","trial_index":30,"time_elapsed":774706,"internal_node_id":"0.0-4.0-1.9","subject_id":"616c3cbc9f45e7120b08bad6","study_id":"6197b3f67c2b5cd3b6d9596a","session_id":"619be319c4ca94938202460b","condition":"full-information","relevant_dimensions":["wings","legs"],"bee_group":{"antennae":"X","wings":"2","pattern":"X","legs":"F"},"bonus":1.8000000000000012},{"rt":5264.79999999702,"stimulus":"bees-with-color/bee-A2SF.svg","response":1,"trial_type":"image-button-response","trial_index":31,"time_elapsed":779973,"internal_node_id":"0.0-4.0-0.10","subject_id":"616c3cbc9f45e7120b08bad6","study_id":"6197b3f67c2b5cd3b6d9596a","session_id":"619be319c4ca94938202460b","condition":"full-information","relevant_dimensions":["wings","legs"],"bee_group":{"antennae":"X","wings":"2","pattern":"X","legs":"F"},"action":"avoid","summary":"good-avoid","bonus":1.8000000000000012},{"rt":1064.2000000029802,"stimulus":"\n                    <p><b>Action: <em>avoid</em></b></p>\n                    <p>This is the bee that you just saw.</p>\n                    <img src=\"bees-with-color/bee-A2SF.svg\" width=\"200\">\n                    <p><span class=\"greenText\">Good choice!</span>  This bee would have stung you.<br>Your bonus pay is unchanged, and remains at $0.50.</p>\n            ","response":0,"trial_type":"html-button-response","trial_index":32,"time_elapsed":781039,"internal_node_id":"0.0-4.0-1.10","subject_id":"616c3cbc9f45e7120b08bad6","study_id":"6197b3f67c2b5cd3b6d9596a","session_id":"619be319c4ca94938202460b","condition":"full-information","relevant_dimensions":["wings","legs"],"bee_group":{"antennae":"X","wings":"2","pattern":"X","legs":"F"},"bonus":1.8000000000000012},{"rt":6810.89999999851,"stimulus":"bees-with-color/bee-A2DM.svg","response":0,"trial_type":"image-button-response","trial_index":33,"time_elapsed":787851,"internal_node_id":"0.0-4.0-0.11","subject_id":"616c3cbc9f45e7120b08bad6","study_id":"6197b3f67c2b5cd3b6d9596a","session_id":"619be319c4ca94938202460b","condition":"full-information","relevant_dimensions":["wings","legs"],"bee_group":{"antennae":"X","wings":"2","pattern":"X","legs":"F"},"action":"harvest","summary":"good-harvest","bonus":1.8000000000000012},{"rt":1480.199999999255,"stimulus":"\n                    <p><b>Action: <em>harvest</em></b></p>\n                    <p>This is the bee that you just saw.</p>\n                    <img src=\"bees-with-color/bee-A2DM.svg\" width=\"200\">\n                    <p><span class=\"greenText\"><b>Successful harvest!</b></span><br>Your pay has increased by $0.02. Your bonus pay is now $0.52.</p>\n            ","response":0,"trial_type":"html-button-response","trial_index":34,"time_elapsed":789334,"internal_node_id":"0.0-4.0-1.11","subject_id":"616c3cbc9f45e7120b08bad6","study_id":"6197b3f67c2b5cd3b6d9596a","session_id":"619be319c4ca94938202460b","condition":"full-information","relevant_dimensions":["wings","legs"],"bee_group":{"antennae":"X","wings":"2","pattern":"X","legs":"F"},"bonus":1.8000000000000012},{"rt":4952.70000000298,"stimulus":"bees-with-color/bee-B1SF.svg","response":0,"trial_type":"image-button-response","trial_index":35,"time_elapsed":794289,"internal_node_id":"0.0-4.0-0.12","subject_id":"616c3cbc9f45e7120b08bad6","study_id":"6197b3f67c2b5cd3b6d9596a","session_id":"619be319c4ca94938202460b","condition":"full-information","relevant_dimensions":["wings","legs"],"bee_group":{"antennae":"X","wings":"2","pattern":"X","legs":"F"},"action":"harvest","summary":"good-harvest","bonus":1.8000000000000012},{"rt":1264.199999999255,"stimulus":"\n                    <p><b>Action: <em>harvest</em></b></p>\n                    <p>This is the bee that you just saw.</p>\n                    <img src=\"bees-with-color/bee-B1SF.svg\" width=\"200\">\n                    <p><span class=\"greenText\"><b>Successful harvest!</b></span><br>Your pay has increased by $0.02. Your bonus pay is now $0.54.</p>\n            ","response":0,"trial_type":"html-button-response","trial_index":36,"time_elapsed":795555,"internal_node_id":"0.0-4.0-1.12","subject_id":"616c3cbc9f45e7120b08bad6","study_id":"6197b3f67c2b5cd3b6d9596a","session_id":"619be319c4ca94938202460b","condition":"full-information","relevant_dimensions":["wings","legs"],"bee_group":{"antennae":"X","wings":"2","pattern":"X","legs":"F"},"bonus":1.8000000000000012},{"rt":7045.10000000149,"stimulus":"bees-with-color/bee-A1DM.svg","response":0,"trial_type":"image-button-response","trial_index":37,"time_elapsed":802601,"internal_node_id":"0.0-4.0-0.13","subject_id":"616c3cbc9f45e7120b08bad6","study_id":"6197b3f67c2b5cd3b6d9596a","session_id":"619be319c4ca94938202460b","condition":"full-information","relevant_dimensions":["wings","legs"],"bee_group":{"antennae":"X","wings":"2","pattern":"X","legs":"F"},"action":"harvest","summary":"good-harvest","bonus":1.8000000000000012},{"rt":832.4000000022352,"stimulus":"\n                    <p><b>Action: <em>harvest</em></b></p>\n                    <p>This is the bee that you just saw.</p>\n                    <img src=\"bees-with-color/bee-A1DM.svg\" width=\"200\">\n                    <p><span class=\"greenText\"><b>Successful harvest!</b></span><br>Your pay has increased by $0.02. Your bonus pay is now $0.56.</p>\n            ","response":0,"trial_type":"html-button-response","trial_index":38,"time_elapsed":803435,"internal_node_id":"0.0-4.0-1.13","subject_id":"616c3cbc9f45e7120b08bad6","study_id":"6197b3f67c2b5cd3b6d9596a","session_id":"619be319c4ca94938202460b","condition":"full-information","relevant_dimensions":["wings","legs"],"bee_group":{"antennae":"X","wings":"2","pattern":"X","legs":"F"},"bonus":1.8000000000000012},{"rt":1784.6000000014901,"stimulus":"bees-with-color/bee-A1SM.svg","response":0,"trial_type":"image-button-response","trial_index":39,"time_elapsed":805222,"internal_node_id":"0.0-4.0-0.14","subject_id":"616c3cbc9f45e7120b08bad6","study_id":"6197b3f67c2b5cd3b6d9596a","session_id":"619be319c4ca94938202460b","condition":"full-information","relevant_dimensions":["wings","legs"],"bee_group":{"antennae":"X","wings":"2","pattern":"X","legs":"F"},"action":"harvest","summary":"good-harvest","bonus":1.8000000000000012},{"rt":960.5,"stimulus":"\n                    <p><b>Action: <em>harvest</em></b></p>\n                    <p>This is the bee that you just saw.</p>\n                    <img src=\"bees-with-color/bee-A1SM.svg\" width=\"200\">\n                    <p><span class=\"greenText\"><b>Successful harvest!</b></span><br>Your pay has increased by $0.02. Your bonus pay is now $0.58.</p>\n            ","response":0,"trial_type":"html-button-response","trial_index":40,"time_elapsed":806184,"internal_node_id":"0.0-4.0-1.14","subject_id":"616c3cbc9f45e7120b08bad6","study_id":"6197b3f67c2b5cd3b6d9596a","session_id":"619be319c4ca94938202460b","condition":"full-information","relevant_dimensions":["wings","legs"],"bee_group":{"antennae":"X","wings":"2","pattern":"X","legs":"F"},"bonus":1.8000000000000012},{"rt":11381.900000002235,"stimulus":"bees-with-color/bee-B2SM.svg","response":0,"trial_type":"image-button-response","trial_index":41,"time_elapsed":817567,"internal_node_id":"0.0-4.0-0.15","subject_id":"616c3cbc9f45e7120b08bad6","study_id":"6197b3f67c2b5cd3b6d9596a","session_id":"619be319c4ca94938202460b","condition":"full-information","relevant_dimensions":["wings","legs"],"bee_group":{"antennae":"X","wings":"2","pattern":"X","legs":"F"},"action":"harvest","summary":"good-harvest","bonus":1.8000000000000012},{"rt":1064.5,"stimulus":"\n                    <p><b>Action: <em>harvest</em></b></p>\n                    <p>This is the bee that you just saw.</p>\n                    <img src=\"bees-with-color/bee-B2SM.svg\" width=\"200\">\n                    <p><span class=\"greenText\"><b>Successful harvest!</b></span><br>Your pay has increased by $0.02. Your bonus pay is now $0.60.</p>\n            ","response":0,"trial_type":"html-button-response","trial_index":42,"time_elapsed":818633,"internal_node_id":"0.0-4.0-1.15","subject_id":"616c3cbc9f45e7120b08bad6","study_id":"6197b3f67c2b5cd3b6d9596a","session_id":"619be319c4ca94938202460b","condition":"full-information","relevant_dimensions":["wings","legs"],"bee_group":{"antennae":"X","wings":"2","pattern":"X","legs":"F"},"bonus":1.8000000000000012},{"rt":1496.6000000014901,"stimulus":"bees-with-color/bee-A2SM.svg","response":0,"trial_type":"image-button-response","trial_index":43,"time_elapsed":820131,"internal_node_id":"0.0-4.0-0.16","subject_id":"616c3cbc9f45e7120b08bad6","study_id":"6197b3f67c2b5cd3b6d9596a","session_id":"619be319c4ca94938202460b","condition":"full-information","relevant_dimensions":["wings","legs"],"bee_group":{"antennae":"X","wings":"2","pattern":"X","legs":"F"},"action":"harvest","summary":"good-harvest","bonus":1.8000000000000012},{"rt":1206.6000000014901,"stimulus":"\n                    <p><b>Action: <em>harvest</em></b></p>\n                    <p>This is the bee that you just saw.</p>\n                    <img src=\"bees-with-color/bee-A2SM.svg\" width=\"200\">\n                    <p><span class=\"greenText\"><b>Successful harvest!</b></span><br>Your pay has increased by $0.02. Your bonus pay is now $0.62.</p>\n            ","response":0,"trial_type":"html-button-response","trial_index":44,"time_elapsed":821340,"internal_node_id":"0.0-4.0-1.16","subject_id":"616c3cbc9f45e7120b08bad6","study_id":"6197b3f67c2b5cd3b6d9596a","session_id":"619be319c4ca94938202460b","condition":"full-information","relevant_dimensions":["wings","legs"],"bee_group":{"antennae":"X","wings":"2","pattern":"X","legs":"F"},"bonus":1.8000000000000012},{"rt":7967.699999999255,"stimulus":"bees-with-color/bee-A1DF.svg","response":0,"trial_type":"image-button-response","trial_index":45,"time_elapsed":829309,"internal_node_id":"0.0-4.0-0.17","subject_id":"616c3cbc9f45e7120b08bad6","study_id":"6197b3f67c2b5cd3b6d9596a","session_id":"619be319c4ca94938202460b","condition":"full-information","relevant_dimensions":["wings","legs"],"bee_group":{"antennae":"X","wings":"2","pattern":"X","legs":"F"},"action":"harvest","summary":"good-harvest","bonus":1.8000000000000012},{"rt":880.3999999985099,"stimulus":"\n                    <p><b>Action: <em>harvest</em></b></p>\n                    <p>This is the bee that you just saw.</p>\n                    <img src=\"bees-with-color/bee-A1DF.svg\" width=\"200\">\n                    <p><span class=\"greenText\"><b>Successful harvest!</b></span><br>Your pay has increased by $0.02. Your bonus pay is now $0.64.</p>\n            ","response":0,"trial_type":"html-button-response","trial_index":46,"time_elapsed":830190,"internal_node_id":"0.0-4.0-1.17","subject_id":"616c3cbc9f45e7120b08bad6","study_id":"6197b3f67c2b5cd3b6d9596a","session_id":"619be319c4ca94938202460b","condition":"full-information","relevant_dimensions":["wings","legs"],"bee_group":{"antennae":"X","wings":"2","pattern":"X","legs":"F"},"bonus":1.8000000000000012},{"rt":6275.199999999255,"stimulus":"bees-with-color/bee-B1SF.svg","response":0,"trial_type":"image-button-response","trial_index":47,"time_elapsed":836467,"internal_node_id":"0.0-4.0-0.18","subject_id":"616c3cbc9f45e7120b08bad6","study_id":"6197b3f67c2b5cd3b6d9596a","session_id":"619be319c4ca94938202460b","condition":"full-information","relevant_dimensions":["wings","legs"],"bee_group":{"antennae":"X","wings":"2","pattern":"X","legs":"F"},"action":"harvest","summary":"good-harvest","bonus":1.8000000000000012},{"rt":750.7000000029802,"stimulus":"\n                    <p><b>Action: <em>harvest</em></b></p>\n                    <p>This is the bee that you just saw.</p>\n                    <img src=\"bees-with-color/bee-B1SF.svg\" width=\"200\">\n                    <p><span class=\"greenText\"><b>Successful harvest!</b></span><br>Your pay has increased by $0.02. Your bonus pay is now $0.66.</p>\n            ","response":0,"trial_type":"html-button-response","trial_index":48,"time_elapsed":837221,"internal_node_id":"0.0-4.0-1.18","subject_id":"616c3cbc9f45e7120b08bad6","study_id":"6197b3f67c2b5cd3b6d9596a","session_id":"619be319c4ca94938202460b","condition":"full-information","relevant_dimensions":["wings","legs"],"bee_group":{"antennae":"X","wings":"2","pattern":"X","legs":"F"},"bonus":1.8000000000000012},{"rt":3804.5,"stimulus":"bees-with-color/bee-A2SF.svg","response":1,"trial_type":"image-button-response","trial_index":49,"time_elapsed":841028,"internal_node_id":"0.0-4.0-0.19","subject_id":"616c3cbc9f45e7120b08bad6","study_id":"6197b3f67c2b5cd3b6d9596a","session_id":"619be319c4ca94938202460b","condition":"full-information","relevant_dimensions":["wings","legs"],"bee_group":{"antennae":"X","wings":"2","pattern":"X","legs":"F"},"action":"avoid","summary":"good-avoid","bonus":1.8000000000000012},{"rt":1270,"stimulus":"\n                    <p><b>Action: <em>avoid</em></b></p>\n                    <p>This is the bee that you just saw.</p>\n                    <img src=\"bees-with-color/bee-A2SF.svg\" width=\"200\">\n                    <p><span class=\"greenText\">Good choice!</span>  This bee would have stung you.<br>Your bonus pay is unchanged, and remains at $0.66.</p>\n            ","response":0,"trial_type":"html-button-response","trial_index":50,"time_elapsed":842300,"internal_node_id":"0.0-4.0-1.19","subject_id":"616c3cbc9f45e7120b08bad6","study_id":"6197b3f67c2b5cd3b6d9596a","session_id":"619be319c4ca94938202460b","condition":"full-information","relevant_dimensions":["wings","legs"],"bee_group":{"antennae":"X","wings":"2","pattern":"X","legs":"F"},"bonus":1.8000000000000012},{"rt":1730.5999999977648,"stimulus":"bees-with-color/bee-A1SM.svg","response":0,"trial_type":"image-button-response","trial_index":51,"time_elapsed":844032,"internal_node_id":"0.0-4.0-0.20","subject_id":"616c3cbc9f45e7120b08bad6","study_id":"6197b3f67c2b5cd3b6d9596a","session_id":"619be319c4ca94938202460b","condition":"full-information","relevant_dimensions":["wings","legs"],"bee_group":{"antennae":"X","wings":"2","pattern":"X","legs":"F"},"action":"harvest","summary":"good-harvest","bonus":1.8000000000000012},{"rt":798.3000000007451,"stimulus":"\n                    <p><b>Action: <em>harvest</em></b></p>\n                    <p>This is the bee that you just saw.</p>\n                    <img src=\"bees-with-color/bee-A1SM.svg\" width=\"200\">\n                    <p><span class=\"greenText\"><b>Successful harvest!</b></span><br>Your pay has increased by $0.02. Your bonus pay is now $0.68.</p>\n            ","response":0,"trial_type":"html-button-response","trial_index":52,"time_elapsed":844832,"internal_node_id":"0.0-4.0-1.20","subject_id":"616c3cbc9f45e7120b08bad6","study_id":"6197b3f67c2b5cd3b6d9596a","session_id":"619be319c4ca94938202460b","condition":"full-information","relevant_dimensions":["wings","legs"],"bee_group":{"antennae":"X","wings":"2","pattern":"X","legs":"F"},"bonus":1.8000000000000012},{"rt":1408.6000000014901,"stimulus":"bees-with-color/bee-B1SM.svg","response":0,"trial_type":"image-button-response","trial_index":53,"time_elapsed":846242,"internal_node_id":"0.0-4.0-0.21","subject_id":"616c3cbc9f45e7120b08bad6","study_id":"6197b3f67c2b5cd3b6d9596a","session_id":"619be319c4ca94938202460b","condition":"full-information","relevant_dimensions":["wings","legs"],"bee_group":{"antennae":"X","wings":"2","pattern":"X","legs":"F"},"action":"harvest","summary":"good-harvest","bonus":1.8000000000000012},{"rt":702.3000000007451,"stimulus":"\n                    <p><b>Action: <em>harvest</em></b></p>\n                    <p>This is the bee that you just saw.</p>\n                    <img src=\"bees-with-color/bee-B1SM.svg\" width=\"200\">\n                    <p><span class=\"greenText\"><b>Successful harvest!</b></span><br>Your pay has increased by $0.02. Your bonus pay is now $0.70.</p>\n            ","response":0,"trial_type":"html-button-response","trial_index":54,"time_elapsed":846946,"internal_node_id":"0.0-4.0-1.21","subject_id":"616c3cbc9f45e7120b08bad6","study_id":"6197b3f67c2b5cd3b6d9596a","session_id":"619be319c4ca94938202460b","condition":"full-information","relevant_dimensions":["wings","legs"],"bee_group":{"antennae":"X","wings":"2","pattern":"X","legs":"F"},"bonus":1.8000000000000012},{"rt":1224.800000000745,"stimulus":"bees-with-color/bee-B2SF.svg","response":1,"trial_type":"image-button-response","trial_index":55,"time_elapsed":848173,"internal_node_id":"0.0-4.0-0.22","subject_id":"616c3cbc9f45e7120b08bad6","study_id":"6197b3f67c2b5cd3b6d9596a","session_id":"619be319c4ca94938202460b","condition":"full-information","relevant_dimensions":["wings","legs"],"bee_group":{"antennae":"X","wings":"2","pattern":"X","legs":"F"},"action":"avoid","summary":"good-avoid","bonus":1.8000000000000012},{"rt":1280.199999999255,"stimulus":"\n                    <p><b>Action: <em>avoid</em></b></p>\n                    <p>This is the bee that you just saw.</p>\n                    <img src=\"bees-with-color/bee-B2SF.svg\" width=\"200\">\n                    <p><span class=\"greenText\">Good choice!</span>  This bee would have stung you.<br>Your bonus pay is unchanged, and remains at $0.70.</p>\n            ","response":0,"trial_type":"html-button-response","trial_index":56,"time_elapsed":849455,"internal_node_id":"0.0-4.0-1.22","subject_id":"616c3cbc9f45e7120b08bad6","study_id":"6197b3f67c2b5cd3b6d9596a","session_id":"619be319c4ca94938202460b","condition":"full-information","relevant_dimensions":["wings","legs"],"bee_group":{"antennae":"X","wings":"2","pattern":"X","legs":"F"},"bonus":1.8000000000000012},{"rt":1296.800000000745,"stimulus":"bees-with-color/bee-B2DM.svg","response":0,"trial_type":"image-button-response","trial_index":57,"time_elapsed":850753,"internal_node_id":"0.0-4.0-0.23","subject_id":"616c3cbc9f45e7120b08bad6","study_id":"6197b3f67c2b5cd3b6d9596a","session_id":"619be319c4ca94938202460b","condition":"full-information","relevant_dimensions":["wings","legs"],"bee_group":{"antennae":"X","wings":"2","pattern":"X","legs":"F"},"action":"harvest","summary":"good-harvest","bonus":1.8000000000000012},{"rt":654.2000000029802,"stimulus":"\n                    <p><b>Action: <em>harvest</em></b></p>\n                    <p>This is the bee that you just saw.</p>\n                    <img src=\"bees-with-color/bee-B2DM.svg\" width=\"200\">\n                    <p><span class=\"greenText\"><b>Successful harvest!</b></span><br>Your pay has increased by $0.02. Your bonus pay is now $0.72.</p>\n            ","response":0,"trial_type":"html-button-response","trial_index":58,"time_elapsed":851409,"internal_node_id":"0.0-4.0-1.23","subject_id":"616c3cbc9f45e7120b08bad6","study_id":"6197b3f67c2b5cd3b6d9596a","session_id":"619be319c4ca94938202460b","condition":"full-information","relevant_dimensions":["wings","legs"],"bee_group":{"antennae":"X","wings":"2","pattern":"X","legs":"F"},"bonus":1.8000000000000012},{"rt":2531.199999999255,"stimulus":"bees-with-color/bee-B2DF.svg","response":1,"trial_type":"image-button-response","trial_index":59,"time_elapsed":853942,"internal_node_id":"0.0-4.0-0.24","subject_id":"616c3cbc9f45e7120b08bad6","study_id":"6197b3f67c2b5cd3b6d9596a","session_id":"619be319c4ca94938202460b","condition":"full-information","relevant_dimensions":["wings","legs"],"bee_group":{"antennae":"X","wings":"2","pattern":"X","legs":"F"},"action":"avoid","summary":"good-avoid","bonus":1.8000000000000012},{"rt":2039.800000000745,"stimulus":"\n                    <p><b>Action: <em>avoid</em></b></p>\n                    <p>This is the bee that you just saw.</p>\n                    <img src=\"bees-with-color/bee-B2DF.svg\" width=\"200\">\n                    <p><span class=\"greenText\">Good choice!</span>  This bee would have stung you.<br>Your bonus pay is unchanged, and remains at $0.72.</p>\n            ","response":0,"trial_type":"html-button-response","trial_index":60,"time_elapsed":855983,"internal_node_id":"0.0-4.0-1.24","subject_id":"616c3cbc9f45e7120b08bad6","study_id":"6197b3f67c2b5cd3b6d9596a","session_id":"619be319c4ca94938202460b","condition":"full-information","relevant_dimensions":["wings","legs"],"bee_group":{"antennae":"X","wings":"2","pattern":"X","legs":"F"},"bonus":1.8000000000000012},{"rt":1072.6000000014901,"stimulus":"bees-with-color/bee-A1DM.svg","response":0,"trial_type":"image-button-response","trial_index":61,"time_elapsed":857057,"internal_node_id":"0.0-4.0-0.25","subject_id":"616c3cbc9f45e7120b08bad6","study_id":"6197b3f67c2b5cd3b6d9596a","session_id":"619be319c4ca94938202460b","condition":"full-information","relevant_dimensions":["wings","legs"],"bee_group":{"antennae":"X","wings":"2","pattern":"X","legs":"F"},"action":"harvest","summary":"good-harvest","bonus":1.8000000000000012},{"rt":782.2999999970198,"stimulus":"\n                    <p><b>Action: <em>harvest</em></b></p>\n                    <p>This is the bee that you just saw.</p>\n                    <img src=\"bees-with-color/bee-A1DM.svg\" width=\"200\">\n                    <p><span class=\"greenText\"><b>Successful harvest!</b></span><br>Your pay has increased by $0.02. Your bonus pay is now $0.74.</p>\n            ","response":0,"trial_type":"html-button-response","trial_index":62,"time_elapsed":857841,"internal_node_id":"0.0-4.0-1.25","subject_id":"616c3cbc9f45e7120b08bad6","study_id":"6197b3f67c2b5cd3b6d9596a","session_id":"619be319c4ca94938202460b","condition":"full-information","relevant_dimensions":["wings","legs"],"bee_group":{"antennae":"X","wings":"2","pattern":"X","legs":"F"},"bonus":1.8000000000000012},{"rt":984.5,"stimulus":"bees-with-color/bee-B1DM.svg","response":0,"trial_type":"image-button-response","trial_index":63,"time_elapsed":858827,"internal_node_id":"0.0-4.0-0.26","subject_id":"616c3cbc9f45e7120b08bad6","study_id":"6197b3f67c2b5cd3b6d9596a","session_id":"619be319c4ca94938202460b","condition":"full-information","relevant_dimensions":["wings","legs"],"bee_group":{"antennae":"X","wings":"2","pattern":"X","legs":"F"},"action":"harvest","summary":"good-harvest","bonus":1.8000000000000012},{"rt":766.1999999992549,"stimulus":"\n                    <p><b>Action: <em>harvest</em></b></p>\n                    <p>This is the bee that you just saw.</p>\n                    <img src=\"bees-with-color/bee-B1DM.svg\" width=\"200\">\n                    <p><span class=\"greenText\"><b>Successful harvest!</b></span><br>Your pay has increased by $0.02. Your bonus pay is now $0.76.</p>\n            ","response":0,"trial_type":"html-button-response","trial_index":64,"time_elapsed":859595,"internal_node_id":"0.0-4.0-1.26","subject_id":"616c3cbc9f45e7120b08bad6","study_id":"6197b3f67c2b5cd3b6d9596a","session_id":"619be319c4ca94938202460b","condition":"full-information","relevant_dimensions":["wings","legs"],"bee_group":{"antennae":"X","wings":"2","pattern":"X","legs":"F"},"bonus":1.8000000000000012},{"rt":2346.800000000745,"stimulus":"bees-with-color/bee-B1DF.svg","response":0,"trial_type":"image-button-response","trial_index":65,"time_elapsed":861943,"internal_node_id":"0.0-4.0-0.27","subject_id":"616c3cbc9f45e7120b08bad6","study_id":"6197b3f67c2b5cd3b6d9596a","session_id":"619be319c4ca94938202460b","condition":"full-information","relevant_dimensions":["wings","legs"],"bee_group":{"antennae":"X","wings":"2","pattern":"X","legs":"F"},"action":"harvest","summary":"good-harvest","bonus":1.8000000000000012},{"rt":966.2999999970198,"stimulus":"\n                    <p><b>Action: <em>harvest</em></b></p>\n                    <p>This is the bee that you just saw.</p>\n                    <img src=\"bees-with-color/bee-B1DF.svg\" width=\"200\">\n                    <p><span class=\"greenText\"><b>Successful harvest!</b></span><br>Your pay has increased by $0.02. Your bonus pay is now $0.78.</p>\n            ","response":0,"trial_type":"html-button-response","trial_index":66,"time_elapsed":862912,"internal_node_id":"0.0-4.0-1.27","subject_id":"616c3cbc9f45e7120b08bad6","study_id":"6197b3f67c2b5cd3b6d9596a","session_id":"619be319c4ca94938202460b","condition":"full-information","relevant_dimensions":["wings","legs"],"bee_group":{"antennae":"X","wings":"2","pattern":"X","legs":"F"},"bonus":1.8000000000000012},{"rt":1984.5999999977648,"stimulus":"bees-with-color/bee-B2SM.svg","response":0,"trial_type":"image-button-response","trial_index":67,"time_elapsed":864898,"internal_node_id":"0.0-4.0-0.28","subject_id":"616c3cbc9f45e7120b08bad6","study_id":"6197b3f67c2b5cd3b6d9596a","session_id":"619be319c4ca94938202460b","condition":"full-information","relevant_dimensions":["wings","legs"],"bee_group":{"antennae":"X","wings":"2","pattern":"X","legs":"F"},"action":"harvest","summary":"good-harvest","bonus":1.8000000000000012},{"rt":776.3000000007451,"stimulus":"\n                    <p><b>Action: <em>harvest</em></b></p>\n                    <p>This is the bee that you just saw.</p>\n                    <img src=\"bees-with-color/bee-B2SM.svg\" width=\"200\">\n                    <p><span class=\"greenText\"><b>Successful harvest!</b></span><br>Your pay has increased by $0.02. Your bonus pay is now $0.80.</p>\n            ","response":0,"trial_type":"html-button-response","trial_index":68,"time_elapsed":865676,"internal_node_id":"0.0-4.0-1.28","subject_id":"616c3cbc9f45e7120b08bad6","study_id":"6197b3f67c2b5cd3b6d9596a","session_id":"619be319c4ca94938202460b","condition":"full-information","relevant_dimensions":["wings","legs"],"bee_group":{"antennae":"X","wings":"2","pattern":"X","legs":"F"},"bonus":1.8000000000000012},{"rt":1528.7999999970198,"stimulus":"bees-with-color/bee-A2DF.svg","response":1,"trial_type":"image-button-response","trial_index":69,"time_elapsed":867206,"internal_node_id":"0.0-4.0-0.29","subject_id":"616c3cbc9f45e7120b08bad6","study_id":"6197b3f67c2b5cd3b6d9596a","session_id":"619be319c4ca94938202460b","condition":"full-information","relevant_dimensions":["wings","legs"],"bee_group":{"antennae":"X","wings":"2","pattern":"X","legs":"F"},"action":"avoid","summary":"good-avoid","bonus":1.8000000000000012},{"rt":766.1000000014901,"stimulus":"\n                    <p><b>Action: <em>avoid</em></b></p>\n                    <p>This is the bee that you just saw.</p>\n                    <img src=\"bees-with-color/bee-A2DF.svg\" width=\"200\">\n                    <p><span class=\"greenText\">Good choice!</span>  This bee would have stung you.<br>Your bonus pay is unchanged, and remains at $0.80.</p>\n            ","response":0,"trial_type":"html-button-response","trial_index":70,"time_elapsed":867974,"internal_node_id":"0.0-4.0-1.29","subject_id":"616c3cbc9f45e7120b08bad6","study_id":"6197b3f67c2b5cd3b6d9596a","session_id":"619be319c4ca94938202460b","condition":"full-information","relevant_dimensions":["wings","legs"],"bee_group":{"antennae":"X","wings":"2","pattern":"X","legs":"F"},"bonus":1.8000000000000012},{"rt":880.3999999985099,"stimulus":"bees-with-color/bee-A2DM.svg","response":0,"trial_type":"image-button-response","trial_index":71,"time_elapsed":868856,"internal_node_id":"0.0-4.0-0.30","subject_id":"616c3cbc9f45e7120b08bad6","study_id":"6197b3f67c2b5cd3b6d9596a","session_id":"619be319c4ca94938202460b","condition":"full-information","relevant_dimensions":["wings","legs"],"bee_group":{"antennae":"X","wings":"2","pattern":"X","legs":"F"},"action":"harvest","summary":"good-harvest","bonus":1.8000000000000012},{"rt":574.0999999977648,"stimulus":"\n                    <p><b>Action: <em>harvest</em></b></p>\n                    <p>This is the bee that you just saw.</p>\n                    <img src=\"bees-with-color/bee-A2DM.svg\" width=\"200\">\n                    <p><span class=\"greenText\"><b>Successful harvest!</b></span><br>Your pay has increased by $0.02. Your bonus pay is now $0.82.</p>\n            ","response":0,"trial_type":"html-button-response","trial_index":72,"time_elapsed":869432,"internal_node_id":"0.0-4.0-1.30","subject_id":"616c3cbc9f45e7120b08bad6","study_id":"6197b3f67c2b5cd3b6d9596a","session_id":"619be319c4ca94938202460b","condition":"full-information","relevant_dimensions":["wings","legs"],"bee_group":{"antennae":"X","wings":"2","pattern":"X","legs":"F"},"bonus":1.8000000000000012},{"rt":1536.8999999985099,"stimulus":"bees-with-color/bee-A1SF.svg","response":0,"trial_type":"image-button-response","trial_index":73,"time_elapsed":870971,"internal_node_id":"0.0-4.0-0.31","subject_id":"616c3cbc9f45e7120b08bad6","study_id":"6197b3f67c2b5cd3b6d9596a","session_id":"619be319c4ca94938202460b","condition":"full-information","relevant_dimensions":["wings","legs"],"bee_group":{"antennae":"X","wings":"2","pattern":"X","legs":"F"},"action":"harvest","summary":"good-harvest","bonus":1.8000000000000012},{"rt":751.7999999970198,"stimulus":"\n                    <p><b>Action: <em>harvest</em></b></p>\n                    <p>This is the bee that you just saw.</p>\n                    <img src=\"bees-with-color/bee-A1SF.svg\" width=\"200\">\n                    <p><span class=\"greenText\"><b>Successful harvest!</b></span><br>Your pay has increased by $0.02. Your bonus pay is now $0.84.</p>\n            ","response":0,"trial_type":"html-button-response","trial_index":74,"time_elapsed":871725,"internal_node_id":"0.0-4.0-1.31","subject_id":"616c3cbc9f45e7120b08bad6","study_id":"6197b3f67c2b5cd3b6d9596a","session_id":"619be319c4ca94938202460b","condition":"full-information","relevant_dimensions":["wings","legs"],"bee_group":{"antennae":"X","wings":"2","pattern":"X","legs":"F"},"bonus":1.8000000000000012},{"rt":1504.7000000029802,"stimulus":"bees-with-color/bee-A2DM.svg","response":0,"trial_type":"image-button-response","trial_index":75,"time_elapsed":873231,"internal_node_id":"0.0-4.0-0.32","subject_id":"616c3cbc9f45e7120b08bad6","study_id":"6197b3f67c2b5cd3b6d9596a","session_id":"619be319c4ca94938202460b","condition":"full-information","relevant_dimensions":["wings","legs"],"bee_group":{"antennae":"X","wings":"2","pattern":"X","legs":"F"},"action":"harvest","summary":"good-harvest","bonus":1.8000000000000012},{"rt":654.6000000014901,"stimulus":"\n                    <p><b>Action: <em>harvest</em></b></p>\n                    <p>This is the bee that you just saw.</p>\n                    <img src=\"bees-with-color/bee-A2DM.svg\" width=\"200\">\n                    <p><span class=\"greenText\"><b>Successful harvest!</b></span><br>Your pay has increased by $0.02. Your bonus pay is now $0.86.</p>\n            ","response":0,"trial_type":"html-button-response","trial_index":76,"time_elapsed":873887,"internal_node_id":"0.0-4.0-1.32","subject_id":"616c3cbc9f45e7120b08bad6","study_id":"6197b3f67c2b5cd3b6d9596a","session_id":"619be319c4ca94938202460b","condition":"full-information","relevant_dimensions":["wings","legs"],"bee_group":{"antennae":"X","wings":"2","pattern":"X","legs":"F"},"bonus":1.8000000000000012},{"rt":1120.800000000745,"stimulus":"bees-with-color/bee-B2SF.svg","response":1,"trial_type":"image-button-response","trial_index":77,"time_elapsed":875009,"internal_node_id":"0.0-4.0-0.33","subject_id":"616c3cbc9f45e7120b08bad6","study_id":"6197b3f67c2b5cd3b6d9596a","session_id":"619be319c4ca94938202460b","condition":"full-information","relevant_dimensions":["wings","legs"],"bee_group":{"antennae":"X","wings":"2","pattern":"X","legs":"F"},"action":"avoid","summary":"good-avoid","bonus":1.8000000000000012},{"rt":766.1999999992549,"stimulus":"\n                    <p><b>Action: <em>avoid</em></b></p>\n                    <p>This is the bee that you just saw.</p>\n                    <img src=\"bees-with-color/bee-B2SF.svg\" width=\"200\">\n                    <p><span class=\"greenText\">Good choice!</span>  This bee would have stung you.<br>Your bonus pay is unchanged, and remains at $0.86.</p>\n            ","response":0,"trial_type":"html-button-response","trial_index":78,"time_elapsed":875777,"internal_node_id":"0.0-4.0-1.33","subject_id":"616c3cbc9f45e7120b08bad6","study_id":"6197b3f67c2b5cd3b6d9596a","session_id":"619be319c4ca94938202460b","condition":"full-information","relevant_dimensions":["wings","legs"],"bee_group":{"antennae":"X","wings":"2","pattern":"X","legs":"F"},"bonus":1.8000000000000012},{"rt":984.8999999985099,"stimulus":"bees-with-color/bee-A2SM.svg","response":0,"trial_type":"image-button-response","trial_index":79,"time_elapsed":876763,"internal_node_id":"0.0-4.0-0.34","subject_id":"616c3cbc9f45e7120b08bad6","study_id":"6197b3f67c2b5cd3b6d9596a","session_id":"619be319c4ca94938202460b","condition":"full-information","relevant_dimensions":["wings","legs"],"bee_group":{"antennae":"X","wings":"2","pattern":"X","legs":"F"},"action":"harvest","summary":"good-harvest","bonus":1.8000000000000012},{"rt":638.6999999992549,"stimulus":"\n                    <p><b>Action: <em>harvest</em></b></p>\n                    <p>This is the bee that you just saw.</p>\n                    <img src=\"bees-with-color/bee-A2SM.svg\" width=\"200\">\n                    <p><span class=\"greenText\"><b>Successful harvest!</b></span><br>Your pay has increased by $0.02. Your bonus pay is now $0.88.</p>\n            ","response":0,"trial_type":"html-button-response","trial_index":80,"time_elapsed":877403,"internal_node_id":"0.0-4.0-1.34","subject_id":"616c3cbc9f45e7120b08bad6","study_id":"6197b3f67c2b5cd3b6d9596a","session_id":"619be319c4ca94938202460b","condition":"full-information","relevant_dimensions":["wings","legs"],"bee_group":{"antennae":"X","wings":"2","pattern":"X","legs":"F"},"bonus":1.8000000000000012},{"rt":992.4000000022352,"stimulus":"bees-with-color/bee-A1SM.svg","response":0,"trial_type":"image-button-response","trial_index":81,"time_elapsed":878397,"internal_node_id":"0.0-4.0-0.35","subject_id":"616c3cbc9f45e7120b08bad6","study_id":"6197b3f67c2b5cd3b6d9596a","session_id":"619be319c4ca94938202460b","condition":"full-information","relevant_dimensions":["wings","legs"],"bee_group":{"antennae":"X","wings":"2","pattern":"X","legs":"F"},"action":"harvest","summary":"good-harvest","bonus":1.8000000000000012},{"rt":590.3999999985099,"stimulus":"\n                    <p><b>Action: <em>harvest</em></b></p>\n                    <p>This is the bee that you just saw.</p>\n                    <img src=\"bees-with-color/bee-A1SM.svg\" width=\"200\">\n                    <p><span class=\"greenText\"><b>Successful harvest!</b></span><br>Your pay has increased by $0.02. Your bonus pay is now $0.90.</p>\n            ","response":0,"trial_type":"html-button-response","trial_index":82,"time_elapsed":878989,"internal_node_id":"0.0-4.0-1.35","subject_id":"616c3cbc9f45e7120b08bad6","study_id":"6197b3f67c2b5cd3b6d9596a","session_id":"619be319c4ca94938202460b","condition":"full-information","relevant_dimensions":["wings","legs"],"bee_group":{"antennae":"X","wings":"2","pattern":"X","legs":"F"},"bonus":1.8000000000000012},{"rt":1040.699999999255,"stimulus":"bees-with-color/bee-B2DM.svg","response":0,"trial_type":"image-button-response","trial_index":83,"time_elapsed":880031,"internal_node_id":"0.0-4.0-0.36","subject_id":"616c3cbc9f45e7120b08bad6","study_id":"6197b3f67c2b5cd3b6d9596a","session_id":"619be319c4ca94938202460b","condition":"full-information","relevant_dimensions":["wings","legs"],"bee_group":{"antennae":"X","wings":"2","pattern":"X","legs":"F"},"action":"harvest","summary":"good-harvest","bonus":1.8000000000000012},{"rt":606.2999999970198,"stimulus":"\n                    <p><b>Action: <em>harvest</em></b></p>\n                    <p>This is the bee that you just saw.</p>\n                    <img src=\"bees-with-color/bee-B2DM.svg\" width=\"200\">\n                    <p><span class=\"greenText\"><b>Successful harvest!</b></span><br>Your pay has increased by $0.02. Your bonus pay is now $0.92.</p>\n            ","response":0,"trial_type":"html-button-response","trial_index":84,"time_elapsed":880639,"internal_node_id":"0.0-4.0-1.36","subject_id":"616c3cbc9f45e7120b08bad6","study_id":"6197b3f67c2b5cd3b6d9596a","session_id":"619be319c4ca94938202460b","condition":"full-information","relevant_dimensions":["wings","legs"],"bee_group":{"antennae":"X","wings":"2","pattern":"X","legs":"F"},"bonus":1.8000000000000012},{"rt":3445,"stimulus":"bees-with-color/bee-A1SF.svg","response":0,"trial_type":"image-button-response","trial_index":85,"time_elapsed":884086,"internal_node_id":"0.0-4.0-0.37","subject_id":"616c3cbc9f45e7120b08bad6","study_id":"6197b3f67c2b5cd3b6d9596a","session_id":"619be319c4ca94938202460b","condition":"full-information","relevant_dimensions":["wings","legs"],"bee_group":{"antennae":"X","wings":"2","pattern":"X","legs":"F"},"action":"harvest","summary":"good-harvest","bonus":1.8000000000000012},{"rt":670.3999999985099,"stimulus":"\n                    <p><b>Action: <em>harvest</em></b></p>\n                    <p>This is the bee that you just saw.</p>\n                    <img src=\"bees-with-color/bee-A1SF.svg\" width=\"200\">\n                    <p><span class=\"greenText\"><b>Successful harvest!</b></span><br>Your pay has increased by $0.02. Your bonus pay is now $0.94.</p>\n            ","response":0,"trial_type":"html-button-response","trial_index":86,"time_elapsed":884758,"internal_node_id":"0.0-4.0-1.37","subject_id":"616c3cbc9f45e7120b08bad6","study_id":"6197b3f67c2b5cd3b6d9596a","session_id":"619be319c4ca94938202460b","condition":"full-information","relevant_dimensions":["wings","legs"],"bee_group":{"antennae":"X","wings":"2","pattern":"X","legs":"F"},"bonus":1.8000000000000012},{"rt":864.7000000029802,"stimulus":"bees-with-color/bee-B1DF.svg","response":0,"trial_type":"image-button-response","trial_index":87,"time_elapsed":885624,"internal_node_id":"0.0-4.0-0.38","subject_id":"616c3cbc9f45e7120b08bad6","study_id":"6197b3f67c2b5cd3b6d9596a","session_id":"619be319c4ca94938202460b","condition":"full-information","relevant_dimensions":["wings","legs"],"bee_group":{"antennae":"X","wings":"2","pattern":"X","legs":"F"},"action":"harvest","summary":"good-harvest","bonus":1.8000000000000012},{"rt":526.3999999985099,"stimulus":"\n                    <p><b>Action: <em>harvest</em></b></p>\n                    <p>This is the bee that you just saw.</p>\n                    <img src=\"bees-with-color/bee-B1DF.svg\" width=\"200\">\n                    <p><span class=\"greenText\"><b>Successful harvest!</b></span><br>Your pay has increased by $0.02. Your bonus pay is now $0.96.</p>\n            ","response":0,"trial_type":"html-button-response","trial_index":88,"time_elapsed":886152,"internal_node_id":"0.0-4.0-1.38","subject_id":"616c3cbc9f45e7120b08bad6","study_id":"6197b3f67c2b5cd3b6d9596a","session_id":"619be319c4ca94938202460b","condition":"full-information","relevant_dimensions":["wings","legs"],"bee_group":{"antennae":"X","wings":"2","pattern":"X","legs":"F"},"bonus":1.8000000000000012},{"rt":1728.699999999255,"stimulus":"bees-with-color/bee-A2DF.svg","response":1,"trial_type":"image-button-response","trial_index":89,"time_elapsed":887882,"internal_node_id":"0.0-4.0-0.39","subject_id":"616c3cbc9f45e7120b08bad6","study_id":"6197b3f67c2b5cd3b6d9596a","session_id":"619be319c4ca94938202460b","condition":"full-information","relevant_dimensions":["wings","legs"],"bee_group":{"antennae":"X","wings":"2","pattern":"X","legs":"F"},"action":"avoid","summary":"good-avoid","bonus":1.8000000000000012},{"rt":832.1000000014901,"stimulus":"\n                    <p><b>Action: <em>avoid</em></b></p>\n                    <p>This is the bee that you just saw.</p>\n                    <img src=\"bees-with-color/bee-A2DF.svg\" width=\"200\">\n                    <p><span class=\"greenText\">Good choice!</span>  This bee would have stung you.<br>Your bonus pay is unchanged, and remains at $0.96.</p>\n            ","response":0,"trial_type":"html-button-response","trial_index":90,"time_elapsed":888716,"internal_node_id":"0.0-4.0-1.39","subject_id":"616c3cbc9f45e7120b08bad6","study_id":"6197b3f67c2b5cd3b6d9596a","session_id":"619be319c4ca94938202460b","condition":"full-information","relevant_dimensions":["wings","legs"],"bee_group":{"antennae":"X","wings":"2","pattern":"X","legs":"F"},"bonus":1.8000000000000012},{"rt":1150.9000000022352,"stimulus":"bees-with-color/bee-B1SM.svg","response":0,"trial_type":"image-button-response","trial_index":91,"time_elapsed":889869,"internal_node_id":"0.0-4.0-0.40","subject_id":"616c3cbc9f45e7120b08bad6","study_id":"6197b3f67c2b5cd3b6d9596a","session_id":"619be319c4ca94938202460b","condition":"full-information","relevant_dimensions":["wings","legs"],"bee_group":{"antennae":"X","wings":"2","pattern":"X","legs":"F"},"action":"harvest","summary":"good-harvest","bonus":1.8000000000000012},{"rt":672.1999999992549,"stimulus":"\n                    <p><b>Action: <em>harvest</em></b></p>\n                    <p>This is the bee that you just saw.</p>\n                    <img src=\"bees-with-color/bee-B1SM.svg\" width=\"200\">\n                    <p><span class=\"greenText\"><b>Successful harvest!</b></span><br>Your pay has increased by $0.02. Your bonus pay is now $0.98.</p>\n            ","response":0,"trial_type":"html-button-response","trial_index":92,"time_elapsed":890543,"internal_node_id":"0.0-4.0-1.40","subject_id":"616c3cbc9f45e7120b08bad6","study_id":"6197b3f67c2b5cd3b6d9596a","session_id":"619be319c4ca94938202460b","condition":"full-information","relevant_dimensions":["wings","legs"],"bee_group":{"antennae":"X","wings":"2","pattern":"X","legs":"F"},"bonus":1.8000000000000012},{"rt":1344.800000000745,"stimulus":"bees-with-color/bee-B1SF.svg","response":0,"trial_type":"image-button-response","trial_index":93,"time_elapsed":891889,"internal_node_id":"0.0-4.0-0.41","subject_id":"616c3cbc9f45e7120b08bad6","study_id":"6197b3f67c2b5cd3b6d9596a","session_id":"619be319c4ca94938202460b","condition":"full-information","relevant_dimensions":["wings","legs"],"bee_group":{"antennae":"X","wings":"2","pattern":"X","legs":"F"},"action":"harvest","summary":"good-harvest","bonus":1.8000000000000012},{"rt":638.1999999992549,"stimulus":"\n                    <p><b>Action: <em>harvest</em></b></p>\n                    <p>This is the bee that you just saw.</p>\n                    <img src=\"bees-with-color/bee-B1SF.svg\" width=\"200\">\n                    <p><span class=\"greenText\"><b>Successful harvest!</b></span><br>Your pay has increased by $0.02. Your bonus pay is now $1.00.</p>\n            ","response":0,"trial_type":"html-button-response","trial_index":94,"time_elapsed":892529,"internal_node_id":"0.0-4.0-1.41","subject_id":"616c3cbc9f45e7120b08bad6","study_id":"6197b3f67c2b5cd3b6d9596a","session_id":"619be319c4ca94938202460b","condition":"full-information","relevant_dimensions":["wings","legs"],"bee_group":{"antennae":"X","wings":"2","pattern":"X","legs":"F"},"bonus":1.8000000000000012},{"rt":1632.800000000745,"stimulus":"bees-with-color/bee-B2SM.svg","response":0,"trial_type":"image-button-response","trial_index":95,"time_elapsed":894163,"internal_node_id":"0.0-4.0-0.42","subject_id":"616c3cbc9f45e7120b08bad6","study_id":"6197b3f67c2b5cd3b6d9596a","session_id":"619be319c4ca94938202460b","condition":"full-information","relevant_dimensions":["wings","legs"],"bee_group":{"antennae":"X","wings":"2","pattern":"X","legs":"F"},"action":"harvest","summary":"good-harvest","bonus":1.8000000000000012},{"rt":558.4000000022352,"stimulus":"\n                    <p><b>Action: <em>harvest</em></b></p>\n                    <p>This is the bee that you just saw.</p>\n                    <img src=\"bees-with-color/bee-B2SM.svg\" width=\"200\">\n                    <p><span class=\"greenText\"><b>Successful harvest!</b></span><br>Your pay has increased by $0.02. Your bonus pay is now $1.02.</p>\n            ","response":0,"trial_type":"html-button-response","trial_index":96,"time_elapsed":894723,"internal_node_id":"0.0-4.0-1.42","subject_id":"616c3cbc9f45e7120b08bad6","study_id":"6197b3f67c2b5cd3b6d9596a","session_id":"619be319c4ca94938202460b","condition":"full-information","relevant_dimensions":["wings","legs"],"bee_group":{"antennae":"X","wings":"2","pattern":"X","legs":"F"},"bonus":1.8000000000000012},{"rt":2258.900000002235,"stimulus":"bees-with-color/bee-B1DM.svg","response":0,"trial_type":"image-button-response","trial_index":97,"time_elapsed":896983,"internal_node_id":"0.0-4.0-0.43","subject_id":"616c3cbc9f45e7120b08bad6","study_id":"6197b3f67c2b5cd3b6d9596a","session_id":"619be319c4ca94938202460b","condition":"full-information","relevant_dimensions":["wings","legs"],"bee_group":{"antennae":"X","wings":"2","pattern":"X","legs":"F"},"action":"harvest","summary":"good-harvest","bonus":1.8000000000000012},{"rt":734.2999999970198,"stimulus":"\n                    <p><b>Action: <em>harvest</em></b></p>\n                    <p>This is the bee that you just saw.</p>\n                    <img src=\"bees-with-color/bee-B1DM.svg\" width=\"200\">\n                    <p><span class=\"greenText\"><b>Successful harvest!</b></span><br>Your pay has increased by $0.02. Your bonus pay is now $1.04.</p>\n            ","response":0,"trial_type":"html-button-response","trial_index":98,"time_elapsed":897720,"internal_node_id":"0.0-4.0-1.43","subject_id":"616c3cbc9f45e7120b08bad6","study_id":"6197b3f67c2b5cd3b6d9596a","session_id":"619be319c4ca94938202460b","condition":"full-information","relevant_dimensions":["wings","legs"],"bee_group":{"antennae":"X","wings":"2","pattern":"X","legs":"F"},"bonus":1.8000000000000012},{"rt":1096.3999999985099,"stimulus":"bees-with-color/bee-B2DF.svg","response":1,"trial_type":"image-button-response","trial_index":99,"time_elapsed":898818,"internal_node_id":"0.0-4.0-0.44","subject_id":"616c3cbc9f45e7120b08bad6","study_id":"6197b3f67c2b5cd3b6d9596a","session_id":"619be319c4ca94938202460b","condition":"full-information","relevant_dimensions":["wings","legs"],"bee_group":{"antennae":"X","wings":"2","pattern":"X","legs":"F"},"action":"avoid","summary":"good-avoid","bonus":1.8000000000000012},{"rt":686.4000000022352,"stimulus":"\n                    <p><b>Action: <em>avoid</em></b></p>\n                    <p>This is the bee that you just saw.</p>\n                    <img src=\"bees-with-color/bee-B2DF.svg\" width=\"200\">\n                    <p><span class=\"greenText\">Good choice!</span>  This bee would have stung you.<br>Your bonus pay is unchanged, and remains at $1.04.</p>\n            ","response":0,"trial_type":"html-button-response","trial_index":100,"time_elapsed":899506,"internal_node_id":"0.0-4.0-1.44","subject_id":"616c3cbc9f45e7120b08bad6","study_id":"6197b3f67c2b5cd3b6d9596a","session_id":"619be319c4ca94938202460b","condition":"full-information","relevant_dimensions":["wings","legs"],"bee_group":{"antennae":"X","wings":"2","pattern":"X","legs":"F"},"bonus":1.8000000000000012},{"rt":1360.699999999255,"stimulus":"bees-with-color/bee-A2SF.svg","response":1,"trial_type":"image-button-response","trial_index":101,"time_elapsed":900868,"internal_node_id":"0.0-4.0-0.45","subject_id":"616c3cbc9f45e7120b08bad6","study_id":"6197b3f67c2b5cd3b6d9596a","session_id":"619be319c4ca94938202460b","condition":"full-information","relevant_dimensions":["wings","legs"],"bee_group":{"antennae":"X","wings":"2","pattern":"X","legs":"F"},"action":"avoid","summary":"good-avoid","bonus":1.8000000000000012},{"rt":621.1999999992549,"stimulus":"\n                    <p><b>Action: <em>avoid</em></b></p>\n                    <p>This is the bee that you just saw.</p>\n                    <img src=\"bees-with-color/bee-A2SF.svg\" width=\"200\">\n                    <p><span class=\"greenText\">Good choice!</span>  This bee would have stung you.<br>Your bonus pay is unchanged, and remains at $1.04.</p>\n            ","response":0,"trial_type":"html-button-response","trial_index":102,"time_elapsed":901492,"internal_node_id":"0.0-4.0-1.45","subject_id":"616c3cbc9f45e7120b08bad6","study_id":"6197b3f67c2b5cd3b6d9596a","session_id":"619be319c4ca94938202460b","condition":"full-information","relevant_dimensions":["wings","legs"],"bee_group":{"antennae":"X","wings":"2","pattern":"X","legs":"F"},"bonus":1.8000000000000012},{"rt":1088.800000000745,"stimulus":"bees-with-color/bee-A1DM.svg","response":0,"trial_type":"image-button-response","trial_index":103,"time_elapsed":902582,"internal_node_id":"0.0-4.0-0.46","subject_id":"616c3cbc9f45e7120b08bad6","study_id":"6197b3f67c2b5cd3b6d9596a","session_id":"619be319c4ca94938202460b","condition":"full-information","relevant_dimensions":["wings","legs"],"bee_group":{"antennae":"X","wings":"2","pattern":"X","legs":"F"},"action":"harvest","summary":"good-harvest","bonus":1.8000000000000012},{"rt":622.2000000029802,"stimulus":"\n                    <p><b>Action: <em>harvest</em></b></p>\n                    <p>This is the bee that you just saw.</p>\n                    <img src=\"bees-with-color/bee-A1DM.svg\" width=\"200\">\n                    <p><span class=\"greenText\"><b>Successful harvest!</b></span><br>Your pay has increased by $0.02. Your bonus pay is now $1.06.</p>\n            ","response":0,"trial_type":"html-button-response","trial_index":104,"time_elapsed":903206,"internal_node_id":"0.0-4.0-1.46","subject_id":"616c3cbc9f45e7120b08bad6","study_id":"6197b3f67c2b5cd3b6d9596a","session_id":"619be319c4ca94938202460b","condition":"full-information","relevant_dimensions":["wings","legs"],"bee_group":{"antennae":"X","wings":"2","pattern":"X","legs":"F"},"bonus":1.8000000000000012},{"rt":1360.699999999255,"stimulus":"bees-with-color/bee-A1DF.svg","response":0,"trial_type":"image-button-response","trial_index":105,"time_elapsed":904568,"internal_node_id":"0.0-4.0-0.47","subject_id":"616c3cbc9f45e7120b08bad6","study_id":"6197b3f67c2b5cd3b6d9596a","session_id":"619be319c4ca94938202460b","condition":"full-information","relevant_dimensions":["wings","legs"],"bee_group":{"antennae":"X","wings":"2","pattern":"X","legs":"F"},"action":"harvest","summary":"good-harvest","bonus":1.8000000000000012},{"rt":608.1999999992549,"stimulus":"\n                    <p><b>Action: <em>harvest</em></b></p>\n                    <p>This is the bee that you just saw.</p>\n                    <img src=\"bees-with-color/bee-A1DF.svg\" width=\"200\">\n                    <p><span class=\"greenText\"><b>Successful harvest!</b></span><br>Your pay has increased by $0.02. Your bonus pay is now $1.08.</p>\n            ","response":0,"trial_type":"html-button-response","trial_index":106,"time_elapsed":905178,"internal_node_id":"0.0-4.0-1.47","subject_id":"616c3cbc9f45e7120b08bad6","study_id":"6197b3f67c2b5cd3b6d9596a","session_id":"619be319c4ca94938202460b","condition":"full-information","relevant_dimensions":["wings","legs"],"bee_group":{"antennae":"X","wings":"2","pattern":"X","legs":"F"},"bonus":1.8000000000000012},{"rt":1310.5999999977648,"stimulus":"bees-with-color/bee-A2SF.svg","response":1,"trial_type":"image-button-response","trial_index":107,"time_elapsed":906491,"internal_node_id":"0.0-4.0-0.48","subject_id":"616c3cbc9f45e7120b08bad6","study_id":"6197b3f67c2b5cd3b6d9596a","session_id":"619be319c4ca94938202460b","condition":"full-information","relevant_dimensions":["wings","legs"],"bee_group":{"antennae":"X","wings":"2","pattern":"X","legs":"F"},"action":"avoid","summary":"good-avoid","bonus":1.8000000000000012},{"rt":688.2000000029802,"stimulus":"\n                    <p><b>Action: <em>avoid</em></b></p>\n                    <p>This is the bee that you just saw.</p>\n                    <img src=\"bees-with-color/bee-A2SF.svg\" width=\"200\">\n                    <p><span class=\"greenText\">Good choice!</span>  This bee would have stung you.<br>Your bonus pay is unchanged, and remains at $1.08.</p>\n            ","response":0,"trial_type":"html-button-response","trial_index":108,"time_elapsed":907181,"internal_node_id":"0.0-4.0-1.48","subject_id":"616c3cbc9f45e7120b08bad6","study_id":"6197b3f67c2b5cd3b6d9596a","session_id":"619be319c4ca94938202460b","condition":"full-information","relevant_dimensions":["wings","legs"],"bee_group":{"antennae":"X","wings":"2","pattern":"X","legs":"F"},"bonus":1.8000000000000012},{"rt":1040.699999999255,"stimulus":"bees-with-color/bee-B1DM.svg","response":0,"trial_type":"image-button-response","trial_index":109,"time_elapsed":908223,"internal_node_id":"0.0-4.0-0.49","subject_id":"616c3cbc9f45e7120b08bad6","study_id":"6197b3f67c2b5cd3b6d9596a","session_id":"619be319c4ca94938202460b","condition":"full-information","relevant_dimensions":["wings","legs"],"bee_group":{"antennae":"X","wings":"2","pattern":"X","legs":"F"},"action":"harvest","summary":"good-harvest","bonus":1.8000000000000012},{"rt":678.0999999977648,"stimulus":"\n                    <p><b>Action: <em>harvest</em></b></p>\n                    <p>This is the bee that you just saw.</p>\n                    <img src=\"bees-with-color/bee-B1DM.svg\" width=\"200\">\n                    <p><span class=\"greenText\"><b>Successful harvest!</b></span><br>Your pay has increased by $0.02. Your bonus pay is now $1.10.</p>\n            ","response":0,"trial_type":"html-button-response","trial_index":110,"time_elapsed":908903,"internal_node_id":"0.0-4.0-1.49","subject_id":"616c3cbc9f45e7120b08bad6","study_id":"6197b3f67c2b5cd3b6d9596a","session_id":"619be319c4ca94938202460b","condition":"full-information","relevant_dimensions":["wings","legs"],"bee_group":{"antennae":"X","wings":"2","pattern":"X","legs":"F"},"bonus":1.8000000000000012},{"rt":1376.699999999255,"stimulus":"bees-with-color/bee-B1SM.svg","response":0,"trial_type":"image-button-response","trial_index":111,"time_elapsed":910281,"internal_node_id":"0.0-4.0-0.50","subject_id":"616c3cbc9f45e7120b08bad6","study_id":"6197b3f67c2b5cd3b6d9596a","session_id":"619be319c4ca94938202460b","condition":"full-information","relevant_dimensions":["wings","legs"],"bee_group":{"antennae":"X","wings":"2","pattern":"X","legs":"F"},"action":"harvest","summary":"good-harvest","bonus":1.8000000000000012},{"rt":478,"stimulus":"\n                    <p><b>Action: <em>harvest</em></b></p>\n                    <p>This is the bee that you just saw.</p>\n                    <img src=\"bees-with-color/bee-B1SM.svg\" width=\"200\">\n                    <p><span class=\"greenText\"><b>Successful harvest!</b></span><br>Your pay has increased by $0.02. Your bonus pay is now $1.12.</p>\n            ","response":0,"trial_type":"html-button-response","trial_index":112,"time_elapsed":910761,"internal_node_id":"0.0-4.0-1.50","subject_id":"616c3cbc9f45e7120b08bad6","study_id":"6197b3f67c2b5cd3b6d9596a","session_id":"619be319c4ca94938202460b","condition":"full-information","relevant_dimensions":["wings","legs"],"bee_group":{"antennae":"X","wings":"2","pattern":"X","legs":"F"},"bonus":1.8000000000000012},{"rt":2578.89999999851,"stimulus":"bees-with-color/bee-A2DF.svg","response":1,"trial_type":"image-button-response","trial_index":113,"time_elapsed":913341,"internal_node_id":"0.0-4.0-0.51","subject_id":"616c3cbc9f45e7120b08bad6","study_id":"6197b3f67c2b5cd3b6d9596a","session_id":"619be319c4ca94938202460b","condition":"full-information","relevant_dimensions":["wings","legs"],"bee_group":{"antennae":"X","wings":"2","pattern":"X","legs":"F"},"action":"avoid","summary":"good-avoid","bonus":1.8000000000000012},{"rt":574.4000000022352,"stimulus":"\n                    <p><b>Action: <em>avoid</em></b></p>\n                    <p>This is the bee that you just saw.</p>\n                    <img src=\"bees-with-color/bee-A2DF.svg\" width=\"200\">\n                    <p><span class=\"greenText\">Good choice!</span>  This bee would have stung you.<br>Your bonus pay is unchanged, and remains at $1.12.</p>\n            ","response":0,"trial_type":"html-button-response","trial_index":114,"time_elapsed":913917,"internal_node_id":"0.0-4.0-1.51","subject_id":"616c3cbc9f45e7120b08bad6","study_id":"6197b3f67c2b5cd3b6d9596a","session_id":"619be319c4ca94938202460b","condition":"full-information","relevant_dimensions":["wings","legs"],"bee_group":{"antennae":"X","wings":"2","pattern":"X","legs":"F"},"bonus":1.8000000000000012},{"rt":928.6999999992549,"stimulus":"bees-with-color/bee-B1SF.svg","response":0,"trial_type":"image-button-response","trial_index":115,"time_elapsed":914848,"internal_node_id":"0.0-4.0-0.52","subject_id":"616c3cbc9f45e7120b08bad6","study_id":"6197b3f67c2b5cd3b6d9596a","session_id":"619be319c4ca94938202460b","condition":"full-information","relevant_dimensions":["wings","legs"],"bee_group":{"antennae":"X","wings":"2","pattern":"X","legs":"F"},"action":"harvest","summary":"good-harvest","bonus":1.8000000000000012},{"rt":478.3999999985099,"stimulus":"\n                    <p><b>Action: <em>harvest</em></b></p>\n                    <p>This is the bee that you just saw.</p>\n                    <img src=\"bees-with-color/bee-B1SF.svg\" width=\"200\">\n                    <p><span class=\"greenText\"><b>Successful harvest!</b></span><br>Your pay has increased by $0.02. Your bonus pay is now $1.14.</p>\n            ","response":0,"trial_type":"html-button-response","trial_index":116,"time_elapsed":915328,"internal_node_id":"0.0-4.0-1.52","subject_id":"616c3cbc9f45e7120b08bad6","study_id":"6197b3f67c2b5cd3b6d9596a","session_id":"619be319c4ca94938202460b","condition":"full-information","relevant_dimensions":["wings","legs"],"bee_group":{"antennae":"X","wings":"2","pattern":"X","legs":"F"},"bonus":1.8000000000000012},{"rt":848.9000000022352,"stimulus":"bees-with-color/bee-A1SF.svg","response":0,"trial_type":"image-button-response","trial_index":117,"time_elapsed":916178,"internal_node_id":"0.0-4.0-0.53","subject_id":"616c3cbc9f45e7120b08bad6","study_id":"6197b3f67c2b5cd3b6d9596a","session_id":"619be319c4ca94938202460b","condition":"full-information","relevant_dimensions":["wings","legs"],"bee_group":{"antennae":"X","wings":"2","pattern":"X","legs":"F"},"action":"harvest","summary":"good-harvest","bonus":1.8000000000000012},{"rt":446.4000000022352,"stimulus":"\n                    <p><b>Action: <em>harvest</em></b></p>\n                    <p>This is the bee that you just saw.</p>\n                    <img src=\"bees-with-color/bee-A1SF.svg\" width=\"200\">\n                    <p><span class=\"greenText\"><b>Successful harvest!</b></span><br>Your pay has increased by $0.02. Your bonus pay is now $1.16.</p>\n            ","response":0,"trial_type":"html-button-response","trial_index":118,"time_elapsed":916626,"internal_node_id":"0.0-4.0-1.53","subject_id":"616c3cbc9f45e7120b08bad6","study_id":"6197b3f67c2b5cd3b6d9596a","session_id":"619be319c4ca94938202460b","condition":"full-information","relevant_dimensions":["wings","legs"],"bee_group":{"antennae":"X","wings":"2","pattern":"X","legs":"F"},"bonus":1.8000000000000012},{"rt":1088.8999999985099,"stimulus":"bees-with-color/bee-B2SM.svg","response":0,"trial_type":"image-button-response","trial_index":119,"time_elapsed":917716,"internal_node_id":"0.0-4.0-0.54","subject_id":"616c3cbc9f45e7120b08bad6","study_id":"6197b3f67c2b5cd3b6d9596a","session_id":"619be319c4ca94938202460b","condition":"full-information","relevant_dimensions":["wings","legs"],"bee_group":{"antennae":"X","wings":"2","pattern":"X","legs":"F"},"action":"harvest","summary":"good-harvest","bonus":1.8000000000000012},{"rt":558.5999999977648,"stimulus":"\n                    <p><b>Action: <em>harvest</em></b></p>\n                    <p>This is the bee that you just saw.</p>\n                    <img src=\"bees-with-color/bee-B2SM.svg\" width=\"200\">\n                    <p><span class=\"greenText\"><b>Successful harvest!</b></span><br>Your pay has increased by $0.02. Your bonus pay is now $1.18.</p>\n            ","response":0,"trial_type":"html-button-response","trial_index":120,"time_elapsed":918276,"internal_node_id":"0.0-4.0-1.54","subject_id":"616c3cbc9f45e7120b08bad6","study_id":"6197b3f67c2b5cd3b6d9596a","session_id":"619be319c4ca94938202460b","condition":"full-information","relevant_dimensions":["wings","legs"],"bee_group":{"antennae":"X","wings":"2","pattern":"X","legs":"F"},"bonus":1.8000000000000012},{"rt":4183,"stimulus":"bees-with-color/bee-A1SM.svg","response":0,"trial_type":"image-button-response","trial_index":121,"time_elapsed":922461,"internal_node_id":"0.0-4.0-0.55","subject_id":"616c3cbc9f45e7120b08bad6","study_id":"6197b3f67c2b5cd3b6d9596a","session_id":"619be319c4ca94938202460b","condition":"full-information","relevant_dimensions":["wings","legs"],"bee_group":{"antennae":"X","wings":"2","pattern":"X","legs":"F"},"action":"harvest","summary":"good-harvest","bonus":1.8000000000000012},{"rt":670.6000000014901,"stimulus":"\n                    <p><b>Action: <em>harvest</em></b></p>\n                    <p>This is the bee that you just saw.</p>\n                    <img src=\"bees-with-color/bee-A1SM.svg\" width=\"200\">\n                    <p><span class=\"greenText\"><b>Successful harvest!</b></span><br>Your pay has increased by $0.02. Your bonus pay is now $1.20.</p>\n            ","response":0,"trial_type":"html-button-response","trial_index":122,"time_elapsed":923133,"internal_node_id":"0.0-4.0-1.55","subject_id":"616c3cbc9f45e7120b08bad6","study_id":"6197b3f67c2b5cd3b6d9596a","session_id":"619be319c4ca94938202460b","condition":"full-information","relevant_dimensions":["wings","legs"],"bee_group":{"antennae":"X","wings":"2","pattern":"X","legs":"F"},"bonus":1.8000000000000012},{"rt":1008.5,"stimulus":"bees-with-color/bee-A2SM.svg","response":0,"trial_type":"image-button-response","trial_index":123,"time_elapsed":924143,"internal_node_id":"0.0-4.0-0.56","subject_id":"616c3cbc9f45e7120b08bad6","study_id":"6197b3f67c2b5cd3b6d9596a","session_id":"619be319c4ca94938202460b","condition":"full-information","relevant_dimensions":["wings","legs"],"bee_group":{"antennae":"X","wings":"2","pattern":"X","legs":"F"},"action":"harvest","summary":"good-harvest","bonus":1.8000000000000012},{"rt":606.5,"stimulus":"\n                    <p><b>Action: <em>harvest</em></b></p>\n                    <p>This is the bee that you just saw.</p>\n                    <img src=\"bees-with-color/bee-A2SM.svg\" width=\"200\">\n                    <p><span class=\"greenText\"><b>Successful harvest!</b></span><br>Your pay has increased by $0.02. Your bonus pay is now $1.22.</p>\n            ","response":0,"trial_type":"html-button-response","trial_index":124,"time_elapsed":924751,"internal_node_id":"0.0-4.0-1.56","subject_id":"616c3cbc9f45e7120b08bad6","study_id":"6197b3f67c2b5cd3b6d9596a","session_id":"619be319c4ca94938202460b","condition":"full-information","relevant_dimensions":["wings","legs"],"bee_group":{"antennae":"X","wings":"2","pattern":"X","legs":"F"},"bonus":1.8000000000000012},{"rt":912.8000000007451,"stimulus":"bees-with-color/bee-B2SF.svg","response":1,"trial_type":"image-button-response","trial_index":125,"time_elapsed":925665,"internal_node_id":"0.0-4.0-0.57","subject_id":"616c3cbc9f45e7120b08bad6","study_id":"6197b3f67c2b5cd3b6d9596a","session_id":"619be319c4ca94938202460b","condition":"full-information","relevant_dimensions":["wings","legs"],"bee_group":{"antennae":"X","wings":"2","pattern":"X","legs":"F"},"action":"avoid","summary":"good-avoid","bonus":1.8000000000000012},{"rt":558.2000000029802,"stimulus":"\n                    <p><b>Action: <em>avoid</em></b></p>\n                    <p>This is the bee that you just saw.</p>\n                    <img src=\"bees-with-color/bee-B2SF.svg\" width=\"200\">\n                    <p><span class=\"greenText\">Good choice!</span>  This bee would have stung you.<br>Your bonus pay is unchanged, and remains at $1.22.</p>\n            ","response":0,"trial_type":"html-button-response","trial_index":126,"time_elapsed":926225,"internal_node_id":"0.0-4.0-1.57","subject_id":"616c3cbc9f45e7120b08bad6","study_id":"6197b3f67c2b5cd3b6d9596a","session_id":"619be319c4ca94938202460b","condition":"full-information","relevant_dimensions":["wings","legs"],"bee_group":{"antennae":"X","wings":"2","pattern":"X","legs":"F"},"bonus":1.8000000000000012},{"rt":750.8000000007451,"stimulus":"bees-with-color/bee-A2DM.svg","response":0,"trial_type":"image-button-response","trial_index":127,"time_elapsed":926977,"internal_node_id":"0.0-4.0-0.58","subject_id":"616c3cbc9f45e7120b08bad6","study_id":"6197b3f67c2b5cd3b6d9596a","session_id":"619be319c4ca94938202460b","condition":"full-information","relevant_dimensions":["wings","legs"],"bee_group":{"antennae":"X","wings":"2","pattern":"X","legs":"F"},"action":"harvest","summary":"good-harvest","bonus":1.8000000000000012},{"rt":496.4000000022352,"stimulus":"\n                    <p><b>Action: <em>harvest</em></b></p>\n                    <p>This is the bee that you just saw.</p>\n                    <img src=\"bees-with-color/bee-A2DM.svg\" width=\"200\">\n                    <p><span class=\"greenText\"><b>Successful harvest!</b></span><br>Your pay has increased by $0.02. Your bonus pay is now $1.24.</p>\n            ","response":0,"trial_type":"html-button-response","trial_index":128,"time_elapsed":927475,"internal_node_id":"0.0-4.0-1.58","subject_id":"616c3cbc9f45e7120b08bad6","study_id":"6197b3f67c2b5cd3b6d9596a","session_id":"619be319c4ca94938202460b","condition":"full-information","relevant_dimensions":["wings","legs"],"bee_group":{"antennae":"X","wings":"2","pattern":"X","legs":"F"},"bonus":1.8000000000000012},{"rt":846.7999999970198,"stimulus":"bees-with-color/bee-B2DF.svg","response":1,"trial_type":"image-button-response","trial_index":129,"time_elapsed":928323,"internal_node_id":"0.0-4.0-0.59","subject_id":"616c3cbc9f45e7120b08bad6","study_id":"6197b3f67c2b5cd3b6d9596a","session_id":"619be319c4ca94938202460b","condition":"full-information","relevant_dimensions":["wings","legs"],"bee_group":{"antennae":"X","wings":"2","pattern":"X","legs":"F"},"action":"avoid","summary":"good-avoid","bonus":1.8000000000000012},{"rt":496.0999999977648,"stimulus":"\n                    <p><b>Action: <em>avoid</em></b></p>\n                    <p>This is the bee that you just saw.</p>\n                    <img src=\"bees-with-color/bee-B2DF.svg\" width=\"200\">\n                    <p><span class=\"greenText\">Good choice!</span>  This bee would have stung you.<br>Your bonus pay is unchanged, and remains at $1.24.</p>\n            ","response":0,"trial_type":"html-button-response","trial_index":130,"time_elapsed":928821,"internal_node_id":"0.0-4.0-1.59","subject_id":"616c3cbc9f45e7120b08bad6","study_id":"6197b3f67c2b5cd3b6d9596a","session_id":"619be319c4ca94938202460b","condition":"full-information","relevant_dimensions":["wings","legs"],"bee_group":{"antennae":"X","wings":"2","pattern":"X","legs":"F"},"bonus":1.8000000000000012},{"rt":974.8999999985099,"stimulus":"bees-with-color/bee-A1DF.svg","response":0,"trial_type":"image-button-response","trial_index":131,"time_elapsed":929798,"internal_node_id":"0.0-4.0-0.60","subject_id":"616c3cbc9f45e7120b08bad6","study_id":"6197b3f67c2b5cd3b6d9596a","session_id":"619be319c4ca94938202460b","condition":"full-information","relevant_dimensions":["wings","legs"],"bee_group":{"antennae":"X","wings":"2","pattern":"X","legs":"F"},"action":"harvest","summary":"good-harvest","bonus":1.8000000000000012},{"rt":496.1000000014901,"stimulus":"\n                    <p><b>Action: <em>harvest</em></b></p>\n                    <p>This is the bee that you just saw.</p>\n                    <img src=\"bees-with-color/bee-A1DF.svg\" width=\"200\">\n                    <p><span class=\"greenText\"><b>Successful harvest!</b></span><br>Your pay has increased by $0.02. Your bonus pay is now $1.26.</p>\n            ","response":0,"trial_type":"html-button-response","trial_index":132,"time_elapsed":930295,"internal_node_id":"0.0-4.0-1.60","subject_id":"616c3cbc9f45e7120b08bad6","study_id":"6197b3f67c2b5cd3b6d9596a","session_id":"619be319c4ca94938202460b","condition":"full-information","relevant_dimensions":["wings","legs"],"bee_group":{"antennae":"X","wings":"2","pattern":"X","legs":"F"},"bonus":1.8000000000000012},{"rt":1127,"stimulus":"bees-with-color/bee-B2DM.svg","response":0,"trial_type":"image-button-response","trial_index":133,"time_elapsed":931424,"internal_node_id":"0.0-4.0-0.61","subject_id":"616c3cbc9f45e7120b08bad6","study_id":"6197b3f67c2b5cd3b6d9596a","session_id":"619be319c4ca94938202460b","condition":"full-information","relevant_dimensions":["wings","legs"],"bee_group":{"antennae":"X","wings":"2","pattern":"X","legs":"F"},"action":"harvest","summary":"good-harvest","bonus":1.8000000000000012},{"rt":544.3999999985099,"stimulus":"\n                    <p><b>Action: <em>harvest</em></b></p>\n                    <p>This is the bee that you just saw.</p>\n                    <img src=\"bees-with-color/bee-B2DM.svg\" width=\"200\">\n                    <p><span class=\"greenText\"><b>Successful harvest!</b></span><br>Your pay has increased by $0.02. Your bonus pay is now $1.28.</p>\n            ","response":0,"trial_type":"html-button-response","trial_index":134,"time_elapsed":931970,"internal_node_id":"0.0-4.0-1.61","subject_id":"616c3cbc9f45e7120b08bad6","study_id":"6197b3f67c2b5cd3b6d9596a","session_id":"619be319c4ca94938202460b","condition":"full-information","relevant_dimensions":["wings","legs"],"bee_group":{"antennae":"X","wings":"2","pattern":"X","legs":"F"},"bonus":1.8000000000000012},{"rt":1070.699999999255,"stimulus":"bees-with-color/bee-A1DM.svg","response":0,"trial_type":"image-button-response","trial_index":135,"time_elapsed":933042,"internal_node_id":"0.0-4.0-0.62","subject_id":"616c3cbc9f45e7120b08bad6","study_id":"6197b3f67c2b5cd3b6d9596a","session_id":"619be319c4ca94938202460b","condition":"full-information","relevant_dimensions":["wings","legs"],"bee_group":{"antennae":"X","wings":"2","pattern":"X","legs":"F"},"action":"harvest","summary":"good-harvest","bonus":1.8000000000000012},{"rt":510.30000000074506,"stimulus":"\n                    <p><b>Action: <em>harvest</em></b></p>\n                    <p>This is the bee that you just saw.</p>\n                    <img src=\"bees-with-color/bee-A1DM.svg\" width=\"200\">\n                    <p><span class=\"greenText\"><b>Successful harvest!</b></span><br>Your pay has increased by $0.02. Your bonus pay is now $1.30.</p>\n            ","response":0,"trial_type":"html-button-response","trial_index":136,"time_elapsed":933554,"internal_node_id":"0.0-4.0-1.62","subject_id":"616c3cbc9f45e7120b08bad6","study_id":"6197b3f67c2b5cd3b6d9596a","session_id":"619be319c4ca94938202460b","condition":"full-information","relevant_dimensions":["wings","legs"],"bee_group":{"antennae":"X","wings":"2","pattern":"X","legs":"F"},"bonus":1.8000000000000012},{"rt":1682.9000000022352,"stimulus":"bees-with-color/bee-B1DF.svg","response":0,"trial_type":"image-button-response","trial_index":137,"time_elapsed":935238,"internal_node_id":"0.0-4.0-0.63","subject_id":"616c3cbc9f45e7120b08bad6","study_id":"6197b3f67c2b5cd3b6d9596a","session_id":"619be319c4ca94938202460b","condition":"full-information","relevant_dimensions":["wings","legs"],"bee_group":{"antennae":"X","wings":"2","pattern":"X","legs":"F"},"action":"harvest","summary":"good-harvest","bonus":1.8000000000000012},{"rt":462.1000000014901,"stimulus":"\n                    <p><b>Action: <em>harvest</em></b></p>\n                    <p>This is the bee that you just saw.</p>\n                    <img src=\"bees-with-color/bee-B1DF.svg\" width=\"200\">\n                    <p><span class=\"greenText\"><b>Successful harvest!</b></span><br>Your pay has increased by $0.02. Your bonus pay is now $1.32.</p>\n            ","response":0,"trial_type":"html-button-response","trial_index":138,"time_elapsed":935702,"internal_node_id":"0.0-4.0-1.63","subject_id":"616c3cbc9f45e7120b08bad6","study_id":"6197b3f67c2b5cd3b6d9596a","session_id":"619be319c4ca94938202460b","condition":"full-information","relevant_dimensions":["wings","legs"],"bee_group":{"antennae":"X","wings":"2","pattern":"X","legs":"F"},"bonus":1.8000000000000012},{"rt":12431.39999999851,"stimulus":"You have completed the first part of this experiment.<br><br>You will now begin a shorter second part, in which you will receive no feedback.<br>The same rules regarding bonus pay apply.<br><br>Press any key to begin.","response":" ","trial_type":"html-keyboard-response","trial_index":139,"time_elapsed":948136,"internal_node_id":"0.0-5.0","subject_id":"616c3cbc9f45e7120b08bad6","study_id":"6197b3f67c2b5cd3b6d9596a","session_id":"619be319c4ca94938202460b","condition":"full-information","relevant_dimensions":["wings","legs"],"bee_group":{"antennae":"X","wings":"2","pattern":"X","legs":"F"},"bonus":1.8000000000000012},{"rt":1355.300000000745,"stimulus":"bees-with-color/bee-A1DF.svg","response":0,"trial_type":"image-button-response","trial_index":140,"time_elapsed":949498,"internal_node_id":"0.0-6.0-0.0","subject_id":"616c3cbc9f45e7120b08bad6","study_id":"6197b3f67c2b5cd3b6d9596a","session_id":"619be319c4ca94938202460b","condition":"full-information","relevant_dimensions":["wings","legs"],"bee_group":{"antennae":"X","wings":"2","pattern":"X","legs":"F"},"bonus":1.8000000000000012},{"rt":2802,"stimulus":"bees-with-color/bee-B1DM.svg","response":0,"trial_type":"image-button-response","trial_index":141,"time_elapsed":952302,"internal_node_id":"0.0-6.0-0.1","subject_id":"616c3cbc9f45e7120b08bad6","study_id":"6197b3f67c2b5cd3b6d9596a","session_id":"619be319c4ca94938202460b","condition":"full-information","relevant_dimensions":["wings","legs"],"bee_group":{"antennae":"X","wings":"2","pattern":"X","legs":"F"},"bonus":1.8000000000000012},{"rt":1111.699999999255,"stimulus":"bees-with-color/bee-A2DM.svg","response":0,"trial_type":"image-button-response","trial_index":142,"time_elapsed":953416,"internal_node_id":"0.0-6.0-0.2","subject_id":"616c3cbc9f45e7120b08bad6","study_id":"6197b3f67c2b5cd3b6d9596a","session_id":"619be319c4ca94938202460b","condition":"full-information","relevant_dimensions":["wings","legs"],"bee_group":{"antennae":"X","wings":"2","pattern":"X","legs":"F"},"bonus":1.8000000000000012},{"rt":1400.1000000014901,"stimulus":"bees-with-color/bee-B2DM.svg","response":0,"trial_type":"image-button-response","trial_index":143,"time_elapsed":954818,"internal_node_id":"0.0-6.0-0.3","subject_id":"616c3cbc9f45e7120b08bad6","study_id":"6197b3f67c2b5cd3b6d9596a","session_id":"619be319c4ca94938202460b","condition":"full-information","relevant_dimensions":["wings","legs"],"bee_group":{"antennae":"X","wings":"2","pattern":"X","legs":"F"},"bonus":1.8000000000000012},{"rt":1008,"stimulus":"bees-with-color/bee-B2DF.svg","response":1,"trial_type":"image-button-response","trial_index":144,"time_elapsed":955829,"internal_node_id":"0.0-6.0-0.4","subject_id":"616c3cbc9f45e7120b08bad6","study_id":"6197b3f67c2b5cd3b6d9596a","session_id":"619be319c4ca94938202460b","condition":"full-information","relevant_dimensions":["wings","legs"],"bee_group":{"antennae":"X","wings":"2","pattern":"X","legs":"F"},"bonus":1.8000000000000012},{"rt":853.8999999985099,"stimulus":"bees-with-color/bee-B1DF.svg","response":0,"trial_type":"image-button-response","trial_index":145,"time_elapsed":956685,"internal_node_id":"0.0-6.0-0.5","subject_id":"616c3cbc9f45e7120b08bad6","study_id":"6197b3f67c2b5cd3b6d9596a","session_id":"619be319c4ca94938202460b","condition":"full-information","relevant_dimensions":["wings","legs"],"bee_group":{"antennae":"X","wings":"2","pattern":"X","legs":"F"},"bonus":1.8000000000000012},{"rt":687.8000000007451,"stimulus":"bees-with-color/bee-A2SM.svg","response":0,"trial_type":"image-button-response","trial_index":146,"time_elapsed":957375,"internal_node_id":"0.0-6.0-0.6","subject_id":"616c3cbc9f45e7120b08bad6","study_id":"6197b3f67c2b5cd3b6d9596a","session_id":"619be319c4ca94938202460b","condition":"full-information","relevant_dimensions":["wings","legs"],"bee_group":{"antennae":"X","wings":"2","pattern":"X","legs":"F"},"bonus":1.8000000000000012},{"rt":1624.1000000014901,"stimulus":"bees-with-color/bee-A2DF.svg","response":1,"trial_type":"image-button-response","trial_index":147,"time_elapsed":959001,"internal_node_id":"0.0-6.0-0.7","subject_id":"616c3cbc9f45e7120b08bad6","study_id":"6197b3f67c2b5cd3b6d9596a","session_id":"619be319c4ca94938202460b","condition":"full-information","relevant_dimensions":["wings","legs"],"bee_group":{"antennae":"X","wings":"2","pattern":"X","legs":"F"},"bonus":1.8000000000000012},{"rt":749.8000000007451,"stimulus":"bees-with-color/bee-A1SM.svg","response":0,"trial_type":"image-button-response","trial_index":148,"time_elapsed":959753,"internal_node_id":"0.0-6.0-0.8","subject_id":"616c3cbc9f45e7120b08bad6","study_id":"6197b3f67c2b5cd3b6d9596a","session_id":"619be319c4ca94938202460b","condition":"full-information","relevant_dimensions":["wings","legs"],"bee_group":{"antennae":"X","wings":"2","pattern":"X","legs":"F"},"bonus":1.8000000000000012},{"rt":743.9000000022352,"stimulus":"bees-with-color/bee-B1SM.svg","response":0,"trial_type":"image-button-response","trial_index":149,"time_elapsed":960499,"internal_node_id":"0.0-6.0-0.9","subject_id":"616c3cbc9f45e7120b08bad6","study_id":"6197b3f67c2b5cd3b6d9596a","session_id":"619be319c4ca94938202460b","condition":"full-information","relevant_dimensions":["wings","legs"],"bee_group":{"antennae":"X","wings":"2","pattern":"X","legs":"F"},"bonus":1.8000000000000012},{"rt":1062.199999999255,"stimulus":"bees-with-color/bee-A2SF.svg","response":1,"trial_type":"image-button-response","trial_index":150,"time_elapsed":961563,"internal_node_id":"0.0-6.0-0.10","subject_id":"616c3cbc9f45e7120b08bad6","study_id":"6197b3f67c2b5cd3b6d9596a","session_id":"619be319c4ca94938202460b","condition":"full-information","relevant_dimensions":["wings","legs"],"bee_group":{"antennae":"X","wings":"2","pattern":"X","legs":"F"},"bonus":1.8000000000000012},{"rt":848,"stimulus":"bees-with-color/bee-B2SM.svg","response":0,"trial_type":"image-button-response","trial_index":151,"time_elapsed":962413,"internal_node_id":"0.0-6.0-0.11","subject_id":"616c3cbc9f45e7120b08bad6","study_id":"6197b3f67c2b5cd3b6d9596a","session_id":"619be319c4ca94938202460b","condition":"full-information","relevant_dimensions":["wings","legs"],"bee_group":{"antennae":"X","wings":"2","pattern":"X","legs":"F"},"bonus":1.8000000000000012},{"rt":984.3000000007451,"stimulus":"bees-with-color/bee-A1DM.svg","response":0,"trial_type":"image-button-response","trial_index":152,"time_elapsed":963399,"internal_node_id":"0.0-6.0-0.12","subject_id":"616c3cbc9f45e7120b08bad6","study_id":"6197b3f67c2b5cd3b6d9596a","session_id":"619be319c4ca94938202460b","condition":"full-information","relevant_dimensions":["wings","legs"],"bee_group":{"antennae":"X","wings":"2","pattern":"X","legs":"F"},"bonus":1.8000000000000012},{"rt":918.1999999992549,"stimulus":"bees-with-color/bee-B2SF.svg","response":1,"trial_type":"image-button-response","trial_index":153,"time_elapsed":964319,"internal_node_id":"0.0-6.0-0.13","subject_id":"616c3cbc9f45e7120b08bad6","study_id":"6197b3f67c2b5cd3b6d9596a","session_id":"619be319c4ca94938202460b","condition":"full-information","relevant_dimensions":["wings","legs"],"bee_group":{"antennae":"X","wings":"2","pattern":"X","legs":"F"},"bonus":1.8000000000000012},{"rt":727.9000000022352,"stimulus":"bees-with-color/bee-B1SF.svg","response":0,"trial_type":"image-button-response","trial_index":154,"time_elapsed":965049,"internal_node_id":"0.0-6.0-0.14","subject_id":"616c3cbc9f45e7120b08bad6","study_id":"6197b3f67c2b5cd3b6d9596a","session_id":"619be319c4ca94938202460b","condition":"full-information","relevant_dimensions":["wings","legs"],"bee_group":{"antennae":"X","wings":"2","pattern":"X","legs":"F"},"bonus":1.8000000000000012},{"rt":694.0999999977648,"stimulus":"bees-with-color/bee-A1SF.svg","response":0,"trial_type":"image-button-response","trial_index":155,"time_elapsed":965745,"internal_node_id":"0.0-6.0-0.15","subject_id":"616c3cbc9f45e7120b08bad6","study_id":"6197b3f67c2b5cd3b6d9596a","session_id":"619be319c4ca94938202460b","condition":"full-information","relevant_dimensions":["wings","legs"],"bee_group":{"antennae":"X","wings":"2","pattern":"X","legs":"F"},"bonus":1.8000000000000012},{"rt":720.4000000022352,"stimulus":"bees-with-color/bee-A2SM.svg","response":0,"trial_type":"image-button-response","trial_index"