[{"success":true,"trial_type":"fullscreen","trial_index":0,"time_elapsed":13752,"internal_node_id":"0.0-0.0","subject_id":"5f2f19dc87147c2fb8cc3e79","study_id":"6197b3f67c2b5cd3b6d9596a","session_id":"6197b9f2f9a18877c21149bf","condition":"contingent","relevant_dimensions":["pattern","legs"],"bee_group":{"antennae":"X","wings":"X","pattern":"D","legs":"F"},"bonus":0.5800000000000008},{"success":true,"timeout":false,"failed_images":[],"failed_audio":[],"failed_video":[],"trial_type":"preload","trial_index":1,"time_elapsed":15094,"internal_node_id":"0.0-1.0","subject_id":"5f2f19dc87147c2fb8cc3e79","study_id":"6197b3f67c2b5cd3b6d9596a","session_id":"6197b9f2f9a18877c21149bf","condition":"contingent","relevant_dimensions":["pattern","legs"],"bee_group":{"antennae":"X","wings":"X","pattern":"D","legs":"F"},"bonus":0.5800000000000008},{"rt":10829.799999999814,"stimulus":"Welcome! Press any key to begin.","response":"arrowdown","trial_type":"html-keyboard-response","trial_index":2,"time_elapsed":25925,"internal_node_id":"0.0-2.0","subject_id":"5f2f19dc87147c2fb8cc3e79","study_id":"6197b3f67c2b5cd3b6d9596a","session_id":"6197b9f2f9a18877c21149bf","condition":"contingent","relevant_dimensions":["pattern","legs"],"bee_group":{"antennae":"X","wings":"X","pattern":"D","legs":"F"},"bonus":0.5800000000000008},{"view_history":[{"page_index":0,"viewing_time":4145.5999999996275},{"page_index":1,"viewing_time":7143.4000000003725},{"page_index":2,"viewing_time":6632.5999999996275},{"page_index":3,"viewing_time":18991.600000000093},{"page_index":4,"viewing_time":3528.100000000093},{"page_index":5,"viewing_time":4567.899999999907},{"page_index":6,"viewing_time":9160.100000000093},{"page_index":7,"viewing_time":21920},{"page_index":8,"viewing_time":13192},{"page_index":9,"viewing_time":9568.100000000093},{"page_index":10,"viewing_time":13408},{"page_index":11,"viewing_time":7087.699999999721},{"page_index":12,"viewing_time":5808.200000000186},{"page_index":13,"viewing_time":1223.7999999998137},{"page_index":14,"viewing_time":1024}],"rt":127401.59999999963,"trial_type":"instructions","trial_index":3,"time_elapsed":153327,"internal_node_id":"0.0-3.0-0.0","subject_id":"5f2f19dc87147c2fb8cc3e79","study_id":"6197b3f67c2b5cd3b6d9596a","session_id":"6197b9f2f9a18877c21149bf","condition":"contingent","relevant_dimensions":["pattern","legs"],"bee_group":{"antennae":"X","wings":"X","pattern":"D","legs":"F"},"bonus":0.5800000000000008},{"rt":13163.80000000028,"response":{"Q0":["Two or six legs","Stripes or spots on body","Single or double wings","Antennae or no antennae"]},"question_order":[0],"trial_type":"survey-multi-select","trial_index":4,"time_elapsed":166497,"internal_node_id":"0.0-3.0-1.0","subject_id":"5f2f19dc87147c2fb8cc3e79","study_id":"6197b3f67c2b5cd3b6d9596a","session_id":"6197b9f2f9a18877c21149bf","condition":"contingent","relevant_dimensions":["pattern","legs"],"bee_group":{"antennae":"X","wings":"X","pattern":"D","legs":"F"},"correct":true,"bonus":0.5800000000000008},{"rt":11769.299999999814,"response":{"Q1":"No.","Q2":"Based on the four features of the bee.","Q3":"You do not learn if it was friendly or dangerous, and do not alter your bonus."},"question_order":[0,1,2],"trial_type":"survey-multi-choice","trial_index":5,"time_elapsed":178275,"internal_node_id":"0.0-3.0-2.0","subject_id":"5f2f19dc87147c2fb8cc3e79","study_id":"6197b3f67c2b5cd3b6d9596a","session_id":"6197b9f2f9a18877c21149bf","condition":"contingent","relevant_dimensions":["pattern","legs"],"bee_group":{"antennae":"X","wings":"X","pattern":"D","legs":"F"},"correct":true,"bonus":0.5800000000000008},{"rt":1805.5,"stimulus":"<p>Congrats, you got everything right<br>When you're ready, click the button below to continue to the experiment.</p>","response":0,"trial_type":"html-button-response","trial_index":6,"time_elapsed":180088,"internal_node_id":"0.0-3.0-3.0","subject_id":"5f2f19dc87147c2fb8cc3e79","study_id":"6197b3f67c2b5cd3b6d9596a","session_id":"6197b9f2f9a18877c21149bf","condition":"contingent","relevant_dimensions":["pattern","legs"],"bee_group":{"antennae":"X","wings":"X","pattern":"D","legs":"F"},"bonus":0.5800000000000008},{"rt":31587.899999999907,"stimulus":"bees-with-color/bee-A2SF.svg","response":0,"trial_type":"image-button-response","trial_index":7,"time_elapsed":211680,"internal_node_id":"0.0-4.0-0.0","subject_id":"5f2f19dc87147c2fb8cc3e79","study_id":"6197b3f67c2b5cd3b6d9596a","session_id":"6197b9f2f9a18877c21149bf","condition":"contingent","relevant_dimensions":["pattern","legs"],"bee_group":{"antennae":"X","wings":"X","pattern":"D","legs":"F"},"action":"harvest","summary":"good-harvest","bonus":0.5800000000000008},{"rt":8131.0999999996275,"stimulus":"\n                    <p><b>Action: <em>harvest</em></b></p>\n                    <p>This is the bee that you just saw.</p>\n                    <img src=\"bees-with-color/bee-A2SF.svg\" width=\"200\">\n                    <p><span class=\"greenText\"><b>Successful harvest!</b></span><br>Your pay has increased by $0.02. Your bonus pay is now $0.56.</p>\n            ","response":0,"trial_type":"html-button-response","trial_index":8,"time_elapsed":219816,"internal_node_id":"0.0-4.0-1.0","subject_id":"5f2f19dc87147c2fb8cc3e79","study_id":"6197b3f67c2b5cd3b6d9596a","session_id":"6197b9f2f9a18877c21149bf","condition":"contingent","relevant_dimensions":["pattern","legs"],"bee_group":{"antennae":"X","wings":"X","pattern":"D","legs":"F"},"bonus":0.5800000000000008},{"rt":23755.599999999627,"stimulus":"bees-with-color/bee-A1DM.svg","response":0,"trial_type":"image-button-response","trial_index":9,"time_elapsed":243576,"internal_node_id":"0.0-4.0-0.1","subject_id":"5f2f19dc87147c2fb8cc3e79","study_id":"6197b3f67c2b5cd3b6d9596a","session_id":"6197b9f2f9a18877c21149bf","condition":"contingent","relevant_dimensions":["pattern","legs"],"bee_group":{"antennae":"X","wings":"X","pattern":"D","legs":"F"},"action":"harvest","summary":"good-harvest","bonus":0.5800000000000008},{"rt":1293.0999999996275,"stimulus":"\n                    <p><b>Action: <em>harvest</em></b></p>\n                    <p>This is the bee that you just saw.</p>\n                    <img src=\"bees-with-color/bee-A1DM.svg\" width=\"200\">\n                    <p><span class=\"greenText\"><b>Successful harvest!</b></span><br>Your pay has increased by $0.02. Your bonus pay is now $0.58.</p>\n            ","response":0,"trial_type":"html-button-response","trial_index":10,"time_elapsed":244873,"internal_node_id":"0.0-4.0-1.1","subject_id":"5f2f19dc87147c2fb8cc3e79","study_id":"6197b3f67c2b5cd3b6d9596a","session_id":"6197b9f2f9a18877c21149bf","condition":"contingent","relevant_dimensions":["pattern","legs"],"bee_group":{"antennae":"X","wings":"X","pattern":"D","legs":"F"},"bonus":0.5800000000000008},{"rt":9651,"stimulus":"bees-with-color/bee-B2SF.svg","response":0,"trial_type":"image-button-response","trial_index":11,"time_elapsed":254528,"internal_node_id":"0.0-4.0-0.2","subject_id":"5f2f19dc87147c2fb8cc3e79","study_id":"6197b3f67c2b5cd3b6d9596a","session_id":"6197b9f2f9a18877c21149bf","condition":"contingent","relevant_dimensions":["pattern","legs"],"bee_group":{"antennae":"X","wings":"X","pattern":"D","legs":"F"},"action":"harvest","summary":"good-harvest","bonus":0.5800000000000008},{"rt":7554.799999999814,"stimulus":"\n                    <p><b>Action: <em>harvest</em></b></p>\n                    <p>This is the bee that you just saw.</p>\n                    <img src=\"bees-with-color/bee-B2SF.svg\" width=\"200\">\n                    <p><span class=\"greenText\"><b>Successful harvest!</b></span><br>Your pay has increased by $0.02. Your bonus pay is now $0.60.</p>\n            ","response":0,"trial_type":"html-button-response","trial_index":12,"time_elapsed":262088,"internal_node_id":"0.0-4.0-1.2","subject_id":"5f2f19dc87147c2fb8cc3e79","study_id":"6197b3f67c2b5cd3b6d9596a","session_id":"6197b9f2f9a18877c21149bf","condition":"contingent","relevant_dimensions":["pattern","legs"],"bee_group":{"antennae":"X","wings":"X","pattern":"D","legs":"F"},"bonus":0.5800000000000008},{"rt":1700.5,"stimulus":"bees-with-color/bee-A2DF.svg","response":1,"trial_type":"image-button-response","trial_index":13,"time_elapsed":263792,"internal_node_id":"0.0-4.0-0.3","subject_id":"5f2f19dc87147c2fb8cc3e79","study_id":"6197b3f67c2b5cd3b6d9596a","session_id":"6197b9f2f9a18877c21149bf","condition":"contingent","relevant_dimensions":["pattern","legs"],"bee_group":{"antennae":"X","wings":"X","pattern":"D","legs":"F"},"action":"avoid","summary":"good-avoid","bonus":0.5800000000000008},{"rt":1845.8999999994412,"stimulus":"\n                    <p><b>Action: <em>avoid</em></b></p>\n                    <p>This is the bee that you just saw.</p>\n                    <img src=\"bees-with-color/bee-A2DF.svg\" width=\"200\">\n                    <p><br>Your bonus pay is unchanged, and remains at $0.60.</p>\n            ","response":0,"trial_type":"html-button-response","trial_index":14,"time_elapsed":265640,"internal_node_id":"0.0-4.0-1.3","subject_id":"5f2f19dc87147c2fb8cc3e79","study_id":"6197b3f67c2b5cd3b6d9596a","session_id":"6197b9f2f9a18877c21149bf","condition":"contingent","relevant_dimensions":["pattern","legs"],"bee_group":{"antennae":"X","wings":"X","pattern":"D","legs":"F"},"bonus":0.5800000000000008},{"rt":2133.5,"stimulus":"bees-with-color/bee-A1SF.svg","response":0,"trial_type":"image-button-response","trial_index":15,"time_elapsed":267776,"internal_node_id":"0.0-4.0-0.4","subject_id":"5f2f19dc87147c2fb8cc3e79","study_id":"6197b3f67c2b5cd3b6d9596a","session_id":"6197b9f2f9a18877c21149bf","condition":"contingent","relevant_dimensions":["pattern","legs"],"bee_group":{"antennae":"X","wings":"X","pattern":"D","legs":"F"},"action":"harvest","summary":"good-harvest","bonus":0.5800000000000008},{"rt":1701.5999999996275,"stimulus":"\n                    <p><b>Action: <em>harvest</em></b></p>\n                    <p>This is the bee that you just saw.</p>\n                    <img src=\"bees-with-color/bee-A1SF.svg\" width=\"200\">\n                    <p><span class=\"greenText\"><b>Successful harvest!</b></span><br>Your pay has increased by $0.02. Your bonus pay is now $0.62.</p>\n            ","response":0,"trial_type":"html-button-response","trial_index":16,"time_elapsed":269480,"internal_node_id":"0.0-4.0-1.4","subject_id":"5f2f19dc87147c2fb8cc3e79","study_id":"6197b3f67c2b5cd3b6d9596a","session_id":"6197b9f2f9a18877c21149bf","condition":"contingent","relevant_dimensions":["pattern","legs"],"bee_group":{"antennae":"X","wings":"X","pattern":"D","legs":"F"},"bonus":0.5800000000000008},{"rt":2861.5,"stimulus":"bees-with-color/bee-A1SM.svg","response":1,"trial_type":"image-button-response","trial_index":17,"time_elapsed":272344,"internal_node_id":"0.0-4.0-0.5","subject_id":"5f2f19dc87147c2fb8cc3e79","study_id":"6197b3f67c2b5cd3b6d9596a","session_id":"6197b9f2f9a18877c21149bf","condition":"contingent","relevant_dimensions":["pattern","legs"],"bee_group":{"antennae":"X","wings":"X","pattern":"D","legs":"F"},"action":"avoid","summary":"bad-avoid","bonus":0.5800000000000008},{"rt":717.7000000001863,"stimulus":"\n                    <p><b>Action: <em>avoid</em></b></p>\n                    <p>This is the bee that you just saw.</p>\n                    <img src=\"bees-with-color/bee-A1SM.svg\" width=\"200\">\n                    <p><br>Your bonus pay is unchanged, and remains at $0.62.</p>\n            ","response":0,"trial_type":"html-button-response","trial_index":18,"time_elapsed":273064,"internal_node_id":"0.0-4.0-1.5","subject_id":"5f2f19dc87147c2fb8cc3e79","study_id":"6197b3f67c2b5cd3b6d9596a","session_id":"6197b9f2f9a18877c21149bf","condition":"contingent","relevant_dimensions":["pattern","legs"],"bee_group":{"antennae":"X","wings":"X","pattern":"D","legs":"F"},"bonus":0.5800000000000008},{"rt":6117.5,"stimulus":"bees-with-color/bee-A1DF.svg","response":0,"trial_type":"image-button-response","trial_index":19,"time_elapsed":279184,"internal_node_id":"0.0-4.0-0.6","subject_id":"5f2f19dc87147c2fb8cc3e79","study_id":"6197b3f67c2b5cd3b6d9596a","session_id":"6197b9f2f9a18877c21149bf","condition":"contingent","relevant_dimensions":["pattern","legs"],"bee_group":{"antennae":"X","wings":"X","pattern":"D","legs":"F"},"action":"harvest","summary":"bad-harvest","bonus":0.5800000000000008},{"rt":14013.599999999627,"stimulus":"\n                    <p><b>Action: <em>harvest</em></b></p>\n                    <p>This is the bee that you just saw.</p>\n                    <img src=\"bees-with-color/bee-A1DF.svg\" width=\"200\">\n                    <p><span class=\"redText\">Bad choice, the bee was angry.</span><br><b>You have been stung!</b><br>Your pay has been decreased by $0.10. Your bonus pay is now $0.52.</p>\n            ","response":0,"trial_type":"html-button-response","trial_index":20,"time_elapsed":293200,"internal_node_id":"0.0-4.0-1.6","subject_id":"5f2f19dc87147c2fb8cc3e79","study_id":"6197b3f67c2b5cd3b6d9596a","session_id":"6197b9f2f9a18877c21149bf","condition":"contingent","relevant_dimensions":["pattern","legs"],"bee_group":{"antennae":"X","wings":"X","pattern":"D","legs":"F"},"bonus":0.5800000000000008},{"rt":1550.2999999998137,"stimulus":"bees-with-color/bee-B1DM.svg","response":0,"trial_type":"image-button-response","trial_index":21,"time_elapsed":294755,"internal_node_id":"0.0-4.0-0.7","subject_id":"5f2f19dc87147c2fb8cc3e79","study_id":"6197b3f67c2b5cd3b6d9596a","session_id":"6197b9f2f9a18877c21149bf","condition":"contingent","relevant_dimensions":["pattern","legs"],"bee_group":{"antennae":"X","wings":"X","pattern":"D","legs":"F"},"action":"harvest","summary":"good-harvest","bonus":0.5800000000000008},{"rt":881.6999999992549,"stimulus":"\n                    <p><b>Action: <em>harvest</em></b></p>\n                    <p>This is the bee that you just saw.</p>\n                    <img src=\"bees-with-color/bee-B1DM.svg\" width=\"200\">\n                    <p><span class=\"greenText\"><b>Successful harvest!</b></span><br>Your pay has increased by $0.02. Your bonus pay is now $0.54.</p>\n            ","response":0,"trial_type":"html-button-response","trial_index":22,"time_elapsed":295640,"internal_node_id":"0.0-4.0-1.7","subject_id":"5f2f19dc87147c2fb8cc3e79","study_id":"6197b3f67c2b5cd3b6d9596a","session_id":"6197b9f2f9a18877c21149bf","condition":"contingent","relevant_dimensions":["pattern","legs"],"bee_group":{"antennae":"X","wings":"X","pattern":"D","legs":"F"},"bonus":0.5800000000000008},{"rt":1645.2000000001863,"stimulus":"bees-with-color/bee-B2DF.svg","response":1,"trial_type":"image-button-response","trial_index":23,"time_elapsed":297287,"internal_node_id":"0.0-4.0-0.8","subject_id":"5f2f19dc87147c2fb8cc3e79","study_id":"6197b3f67c2b5cd3b6d9596a","session_id":"6197b9f2f9a18877c21149bf","condition":"contingent","relevant_dimensions":["pattern","legs"],"bee_group":{"antennae":"X","wings":"X","pattern":"D","legs":"F"},"action":"avoid","summary":"good-avoid","bonus":0.5800000000000008},{"rt":957.9000000003725,"stimulus":"\n                    <p><b>Action: <em>avoid</em></b></p>\n                    <p>This is the bee that you just saw.</p>\n                    <img src=\"bees-with-color/bee-B2DF.svg\" width=\"200\">\n                    <p><br>Your bonus pay is unchanged, and remains at $0.54.</p>\n            ","response":0,"trial_type":"html-button-response","trial_index":24,"time_elapsed":298248,"internal_node_id":"0.0-4.0-1.8","subject_id":"5f2f19dc87147c2fb8cc3e79","study_id":"6197b3f67c2b5cd3b6d9596a","session_id":"6197b9f2f9a18877c21149bf","condition":"contingent","relevant_dimensions":["pattern","legs"],"bee_group":{"antennae":"X","wings":"X","pattern":"D","legs":"F"},"bonus":0.5800000000000008},{"rt":1053.7999999998137,"stimulus":"bees-with-color/bee-B1SF.svg","response":0,"trial_type":"image-button-response","trial_index":25,"time_elapsed":299304,"internal_node_id":"0.0-4.0-0.9","subject_id":"5f2f19dc87147c2fb8cc3e79","study_id":"6197b3f67c2b5cd3b6d9596a","session_id":"6197b9f2f9a18877c21149bf","condition":"contingent","relevant_dimensions":["pattern","legs"],"bee_group":{"antennae":"X","wings":"X","pattern":"D","legs":"F"},"action":"harvest","summary":"good-harvest","bonus":0.5800000000000008},{"rt":813.2999999998137,"stimulus":"\n                    <p><b>Action: <em>harvest</em></b></p>\n                    <p>This is the bee that you just saw.</p>\n                    <img src=\"bees-with-color/bee-B1SF.svg\" width=\"200\">\n                    <p><span class=\"greenText\"><b>Successful harvest!</b></span><br>Your pay has increased by $0.02. Your bonus pay is now $0.56.</p>\n            ","response":0,"trial_type":"html-button-response","trial_index":26,"time_elapsed":300120,"internal_node_id":"0.0-4.0-1.9","subject_id":"5f2f19dc87147c2fb8cc3e79","study_id":"6197b3f67c2b5cd3b6d9596a","session_id":"6197b9f2f9a18877c21149bf","condition":"contingent","relevant_dimensions":["pattern","legs"],"bee_group":{"antennae":"X","wings":"X","pattern":"D","legs":"F"},"bonus":0.5800000000000008},{"rt":10319.099999999627,"stimulus":"bees-with-color/bee-A2DM.svg","response":1,"trial_type":"image-button-response","trial_index":27,"time_elapsed":310441,"internal_node_id":"0.0-4.0-0.10","subject_id":"5f2f19dc87147c2fb8cc3e79","study_id":"6197b3f67c2b5cd3b6d9596a","session_id":"6197b9f2f9a18877c21149bf","condition":"contingent","relevant_dimensions":["pattern","legs"],"bee_group":{"antennae":"X","wings":"X","pattern":"D","legs":"F"},"action":"avoid","summary":"bad-avoid","bonus":0.5800000000000008},{"rt":1291.6000000005588,"stimulus":"\n                    <p><b>Action: <em>avoid</em></b></p>\n                    <p>This is the bee that you just saw.</p>\n                    <img src=\"bees-with-color/bee-A2DM.svg\" width=\"200\">\n                    <p><br>Your bonus pay is unchanged, and remains at $0.56.</p>\n            ","response":0,"trial_type":"html-button-response","trial_index":28,"time_elapsed":311736,"internal_node_id":"0.0-4.0-1.10","subject_id":"5f2f19dc87147c2fb8cc3e79","study_id":"6197b3f67c2b5cd3b6d9596a","session_id":"6197b9f2f9a18877c21149bf","condition":"contingent","relevant_dimensions":["pattern","legs"],"bee_group":{"antennae":"X","wings":"X","pattern":"D","legs":"F"},"bonus":0.5800000000000008},{"rt":3861.7000000001863,"stimulus":"bees-with-color/bee-B1DF.svg","response":0,"trial_type":"image-button-response","trial_index":29,"time_elapsed":315600,"internal_node_id":"0.0-4.0-0.11","subject_id":"5f2f19dc87147c2fb8cc3e79","study_id":"6197b3f67c2b5cd3b6d9596a","session_id":"6197b9f2f9a18877c21149bf","condition":"contingent","relevant_dimensions":["pattern","legs"],"bee_group":{"antennae":"X","wings":"X","pattern":"D","legs":"F"},"action":"harvest","summary":"bad-harvest","bonus":0.5800000000000008},{"rt":1477.3999999994412,"stimulus":"\n                    <p><b>Action: <em>harvest</em></b></p>\n                    <p>This is the bee that you just saw.</p>\n                    <img src=\"bees-with-color/bee-B1DF.svg\" width=\"200\">\n                    <p><span class=\"redText\">Bad choice, the bee was angry.</span><br><b>You have been stung!</b><br>Your pay has been decreased by $0.10. Your bonus pay is now $0.46.</p>\n            ","response":0,"trial_type":"html-button-response","trial_index":30,"time_elapsed":317080,"internal_node_id":"0.0-4.0-1.11","subject_id":"5f2f19dc87147c2fb8cc3e79","study_id":"6197b3f67c2b5cd3b6d9596a","session_id":"6197b9f2f9a18877c21149bf","condition":"contingent","relevant_dimensions":["pattern","legs"],"bee_group":{"antennae":"X","wings":"X","pattern":"D","legs":"F"},"bonus":0.5800000000000008},{"rt":1821.6000000005588,"stimulus":"bees-with-color/bee-B2DM.svg","response":0,"trial_type":"image-button-response","trial_index":31,"time_elapsed":318904,"internal_node_id":"0.0-4.0-0.12","subject_id":"5f2f19dc87147c2fb8cc3e79","study_id":"6197b3f67c2b5cd3b6d9596a","session_id":"6197b9f2f9a18877c21149bf","condition":"contingent","relevant_dimensions":["pattern","legs"],"bee_group":{"antennae":"X","wings":"X","pattern":"D","legs":"F"},"action":"harvest","summary":"good-harvest","bonus":0.5800000000000008},{"rt":875.8000000007451,"stimulus":"\n                    <p><b>Action: <em>harvest</em></b></p>\n                    <p>This is the bee that you just saw.</p>\n                    <img src=\"bees-with-color/bee-B2DM.svg\" width=\"200\">\n                    <p><span class=\"greenText\"><b>Successful harvest!</b></span><br>Your pay has increased by $0.02. Your bonus pay is now $0.48.</p>\n            ","response":0,"trial_type":"html-button-response","trial_index":32,"time_elapsed":319784,"internal_node_id":"0.0-4.0-1.12","subject_id":"5f2f19dc87147c2fb8cc3e79","study_id":"6197b3f67c2b5cd3b6d9596a","session_id":"6197b9f2f9a18877c21149bf","condition":"contingent","relevant_dimensions":["pattern","legs"],"bee_group":{"antennae":"X","wings":"X","pattern":"D","legs":"F"},"bonus":0.5800000000000008},{"rt":1661.4000000003725,"stimulus":"bees-with-color/bee-B2SM.svg","response":0,"trial_type":"image-button-response","trial_index":33,"time_elapsed":321448,"internal_node_id":"0.0-4.0-0.13","subject_id":"5f2f19dc87147c2fb8cc3e79","study_id":"6197b3f67c2b5cd3b6d9596a","session_id":"6197b9f2f9a18877c21149bf","condition":"contingent","relevant_dimensions":["pattern","legs"],"bee_group":{"antennae":"X","wings":"X","pattern":"D","legs":"F"},"action":"harvest","summary":"good-harvest","bonus":0.5800000000000008},{"rt":1140.7000000001863,"stimulus":"\n                    <p><b>Action: <em>harvest</em></b></p>\n                    <p>This is the bee that you just saw.</p>\n                    <img src=\"bees-with-color/bee-B2SM.svg\" width=\"200\">\n                    <p><span class=\"greenText\"><b>Successful harvest!</b></span><br>Your pay has increased by $0.02. Your bonus pay is now $0.50.</p>\n            ","response":0,"trial_type":"html-button-response","trial_index":34,"time_elapsed":322592,"internal_node_id":"0.0-4.0-1.13","subject_id":"5f2f19dc87147c2fb8cc3e79","study_id":"6197b3f67c2b5cd3b6d9596a","session_id":"6197b9f2f9a18877c21149bf","condition":"contingent","relevant_dimensions":["pattern","legs"],"bee_group":{"antennae":"X","wings":"X","pattern":"D","legs":"F"},"bonus":0.5800000000000008},{"rt":2405.7000000001863,"stimulus":"bees-with-color/bee-A2SM.svg","response":1,"trial_type":"image-button-response","trial_index":35,"time_elapsed":325000,"internal_node_id":"0.0-4.0-0.14","subject_id":"5f2f19dc87147c2fb8cc3e79","study_id":"6197b3f67c2b5cd3b6d9596a","session_id":"6197b9f2f9a18877c21149bf","condition":"contingent","relevant_dimensions":["pattern","legs"],"bee_group":{"antennae":"X","wings":"X","pattern":"D","legs":"F"},"action":"avoid","summary":"bad-avoid","bonus":0.5800000000000008},{"rt":1253,"stimulus":"\n                    <p><b>Action: <em>avoid</em></b></p>\n                    <p>This is the bee that you just saw.</p>\n                    <img src=\"bees-with-color/bee-A2SM.svg\" width=\"200\">\n                    <p><br>Your bonus pay is unchanged, and remains at $0.50.</p>\n            ","response":0,"trial_type":"html-button-response","trial_index":36,"time_elapsed":326256,"internal_node_id":"0.0-4.0-1.14","subject_id":"5f2f19dc87147c2fb8cc3e79","study_id":"6197b3f67c2b5cd3b6d9596a","session_id":"6197b9f2f9a18877c21149bf","condition":"contingent","relevant_dimensions":["pattern","legs"],"bee_group":{"antennae":"X","wings":"X","pattern":"D","legs":"F"},"bonus":0.5800000000000008},{"rt":1710.2000000001863,"stimulus":"bees-with-color/bee-B1SM.svg","response":1,"trial_type":"image-button-response","trial_index":37,"time_elapsed":327968,"internal_node_id":"0.0-4.0-0.15","subject_id":"5f2f19dc87147c2fb8cc3e79","study_id":"6197b3f67c2b5cd3b6d9596a","session_id":"6197b9f2f9a18877c21149bf","condition":"contingent","relevant_dimensions":["pattern","legs"],"bee_group":{"antennae":"X","wings":"X","pattern":"D","legs":"F"},"action":"avoid","summary":"bad-avoid","bonus":0.5800000000000008},{"rt":660.5,"stimulus":"\n                    <p><b>Action: <em>avoid</em></b></p>\n                    <p>This is the bee that you just saw.</p>\n                    <img src=\"bees-with-color/bee-B1SM.svg\" width=\"200\">\n                    <p><br>Your bonus pay is unchanged, and remains at $0.50.</p>\n            ","response":0,"trial_type":"html-button-response","trial_index":38,"time_elapsed":328632,"internal_node_id":"0.0-4.0-1.15","subject_id":"5f2f19dc87147c2fb8cc3e79","study_id":"6197b3f67c2b5cd3b6d9596a","session_id":"6197b9f2f9a18877c21149bf","condition":"contingent","relevant_dimensions":["pattern","legs"],"bee_group":{"antennae":"X","wings":"X","pattern":"D","legs":"F"},"bonus":0.5800000000000008},{"rt":5630.0999999996275,"stimulus":"bees-with-color/bee-A2DM.svg","response":1,"trial_type":"image-button-response","trial_index":39,"time_elapsed":334264,"internal_node_id":"0.0-4.0-0.16","subject_id":"5f2f19dc87147c2fb8cc3e79","study_id":"6197b3f67c2b5cd3b6d9596a","session_id":"6197b9f2f9a18877c21149bf","condition":"contingent","relevant_dimensions":["pattern","legs"],"bee_group":{"antennae":"X","wings":"X","pattern":"D","legs":"F"},"action":"avoid","summary":"bad-avoid","bonus":0.5800000000000008},{"rt":741.0999999996275,"stimulus":"\n                    <p><b>Action: <em>avoid</em></b></p>\n                    <p>This is the bee that you just saw.</p>\n                    <img src=\"bees-with-color/bee-A2DM.svg\" width=\"200\">\n                    <p><br>Your bonus pay is unchanged, and remains at $0.50.</p>\n            ","response":0,"trial_type":"html-button-response","trial_index":40,"time_elapsed":335008,"internal_node_id":"0.0-4.0-1.16","subject_id":"5f2f19dc87147c2fb8cc3e79","study_id":"6197b3f67c2b5cd3b6d9596a","session_id":"6197b9f2f9a18877c21149bf","condition":"contingent","relevant_dimensions":["pattern","legs"],"bee_group":{"antennae":"X","wings":"X","pattern":"D","legs":"F"},"bonus":0.5800000000000008},{"rt":1405.2000000001863,"stimulus":"bees-with-color/bee-B1SF.svg","response":0,"trial_type":"image-button-response","trial_index":41,"time_elapsed":336416,"internal_node_id":"0.0-4.0-0.17","subject_id":"5f2f19dc87147c2fb8cc3e79","study_id":"6197b3f67c2b5cd3b6d9596a","session_id":"6197b9f2f9a18877c21149bf","condition":"contingent","relevant_dimensions":["pattern","legs"],"bee_group":{"antennae":"X","wings":"X","pattern":"D","legs":"F"},"action":"harvest","summary":"good-harvest","bonus":0.5800000000000008},{"rt":2108.4000000003725,"stimulus":"\n                    <p><b>Action: <em>harvest</em></b></p>\n                    <p>This is the bee that you just saw.</p>\n                    <img src=\"bees-with-color/bee-B1SF.svg\" width=\"200\">\n                    <p><span class=\"greenText\"><b>Successful harvest!</b></span><br>Your pay has increased by $0.02. Your bonus pay is now $0.52.</p>\n            ","response":0,"trial_type":"html-button-response","trial_index":42,"time_elapsed":338528,"internal_node_id":"0.0-4.0-1.17","subject_id":"5f2f19dc87147c2fb8cc3e79","study_id":"6197b3f67c2b5cd3b6d9596a","session_id":"6197b9f2f9a18877c21149bf","condition":"contingent","relevant_dimensions":["pattern","legs"],"bee_group":{"antennae":"X","wings":"X","pattern":"D","legs":"F"},"bonus":0.5800000000000008},{"rt":4309.399999999441,"stimulus":"bees-with-color/bee-B1DM.svg","response":1,"trial_type":"image-button-response","trial_index":43,"time_elapsed":342840,"internal_node_id":"0.0-4.0-0.18","subject_id":"5f2f19dc87147c2fb8cc3e79","study_id":"6197b3f67c2b5cd3b6d9596a","session_id":"6197b9f2f9a18877c21149bf","condition":"contingent","relevant_dimensions":["pattern","legs"],"bee_group":{"antennae":"X","wings":"X","pattern":"D","legs":"F"},"action":"avoid","summary":"bad-avoid","bonus":0.5800000000000008},{"rt":1108.2999999998137,"stimulus":"\n                    <p><b>Action: <em>avoid</em></b></p>\n                    <p>This is the bee that you just saw.</p>\n                    <img src=\"bees-with-color/bee-B1DM.svg\" width=\"200\">\n                    <p><br>Your bonus pay is unchanged, and remains at $0.52.</p>\n            ","response":0,"trial_type":"html-button-response","trial_index":44,"time_elapsed":343953,"internal_node_id":"0.0-4.0-1.18","subject_id":"5f2f19dc87147c2fb8cc3e79","study_id":"6197b3f67c2b5cd3b6d9596a","session_id":"6197b9f2f9a18877c21149bf","condition":"contingent","relevant_dimensions":["pattern","legs"],"bee_group":{"antennae":"X","wings":"X","pattern":"D","legs":"F"},"bonus":0.5800000000000008},{"rt":2675.7000000001863,"stimulus":"bees-with-color/bee-A2DF.svg","response":0,"trial_type":"image-button-response","trial_index":45,"time_elapsed":346631,"internal_node_id":"0.0-4.0-0.19","subject_id":"5f2f19dc87147c2fb8cc3e79","study_id":"6197b3f67c2b5cd3b6d9596a","session_id":"6197b9f2f9a18877c21149bf","condition":"contingent","relevant_dimensions":["pattern","legs"],"bee_group":{"antennae":"X","wings":"X","pattern":"D","legs":"F"},"action":"harvest","summary":"bad-harvest","bonus":0.5800000000000008},{"rt":2661.7000000001863,"stimulus":"\n                    <p><b>Action: <em>harvest</em></b></p>\n                    <p>This is the bee that you just saw.</p>\n                    <img src=\"bees-with-color/bee-A2DF.svg\" width=\"200\">\n                    <p><span class=\"redText\">Bad choice, the bee was angry.</span><br><b>You have been stung!</b><br>Your pay has been decreased by $0.10. Your bonus pay is now $0.42.</p>\n            ","response":0,"trial_type":"html-button-response","trial_index":46,"time_elapsed":349296,"internal_node_id":"0.0-4.0-1.19","subject_id":"5f2f19dc87147c2fb8cc3e79","study_id":"6197b3f67c2b5cd3b6d9596a","session_id":"6197b9f2f9a18877c21149bf","condition":"contingent","relevant_dimensions":["pattern","legs"],"bee_group":{"antennae":"X","wings":"X","pattern":"D","legs":"F"},"bonus":0.5800000000000008},{"rt":1109.7999999998137,"stimulus":"bees-with-color/bee-A1SF.svg","response":0,"trial_type":"image-button-response","trial_index":47,"time_elapsed":350408,"internal_node_id":"0.0-4.0-0.20","subject_id":"5f2f19dc87147c2fb8cc3e79","study_id":"6197b3f67c2b5cd3b6d9596a","session_id":"6197b9f2f9a18877c21149bf","condition":"contingent","relevant_dimensions":["pattern","legs"],"bee_group":{"antennae":"X","wings":"X","pattern":"D","legs":"F"},"action":"harvest","summary":"good-harvest","bonus":0.5800000000000008},{"rt":662,"stimulus":"\n                    <p><b>Action: <em>harvest</em></b></p>\n                    <p>This is the bee that you just saw.</p>\n                    <img src=\"bees-with-color/bee-A1SF.svg\" width=\"200\">\n                    <p><span class=\"greenText\"><b>Successful harvest!</b></span><br>Your pay has increased by $0.02. Your bonus pay is now $0.44.</p>\n            ","response":0,"trial_type":"html-button-response","trial_index":48,"time_elapsed":351073,"internal_node_id":"0.0-4.0-1.20","subject_id":"5f2f19dc87147c2fb8cc3e79","study_id":"6197b3f67c2b5cd3b6d9596a","session_id":"6197b9f2f9a18877c21149bf","condition":"contingent","relevant_dimensions":["pattern","legs"],"bee_group":{"antennae":"X","wings":"X","pattern":"D","legs":"F"},"bonus":0.5800000000000008},{"rt":1076.9000000003725,"stimulus":"bees-with-color/bee-A2SM.svg","response":1,"trial_type":"image-button-response","trial_index":49,"time_elapsed":352151,"internal_node_id":"0.0-4.0-0.21","subject_id":"5f2f19dc87147c2fb8cc3e79","study_id":"6197b3f67c2b5cd3b6d9596a","session_id":"6197b9f2f9a18877c21149bf","condition":"contingent","relevant_dimensions":["pattern","legs"],"bee_group":{"antennae":"X","wings":"X","pattern":"D","legs":"F"},"action":"avoid","summary":"bad-avoid","bonus":0.5800000000000008},{"rt":821.7000000001863,"stimulus":"\n                    <p><b>Action: <em>avoid</em></b></p>\n                    <p>This is the bee that you just saw.</p>\n                    <img src=\"bees-with-color/bee-A2SM.svg\" width=\"200\">\n                    <p><br>Your bonus pay is unchanged, and remains at $0.44.</p>\n            ","response":0,"trial_type":"html-button-response","trial_index":50,"time_elapsed":352975,"internal_node_id":"0.0-4.0-1.21","subject_id":"5f2f19dc87147c2fb8cc3e79","study_id":"6197b3f67c2b5cd3b6d9596a","session_id":"6197b9f2f9a18877c21149bf","condition":"contingent","relevant_dimensions":["pattern","legs"],"bee_group":{"antennae":"X","wings":"X","pattern":"D","legs":"F"},"bonus":0.5800000000000008},{"rt":1942.5,"stimulus":"bees-with-color/bee-B2SM.svg","response":0,"trial_type":"image-button-response","trial_index":51,"time_elapsed":354920,"internal_node_id":"0.0-4.0-0.22","subject_id":"5f2f19dc87147c2fb8cc3e79","study_id":"6197b3f67c2b5cd3b6d9596a","session_id":"6197b9f2f9a18877c21149bf","condition":"contingent","relevant_dimensions":["pattern","legs"],"bee_group":{"antennae":"X","wings":"X","pattern":"D","legs":"F"},"action":"harvest","summary":"good-harvest","bonus":0.5800000000000008},{"rt":629.3000000007451,"stimulus":"\n                    <p><b>Action: <em>harvest</em></b></p>\n                    <p>This is the bee that you just saw.</p>\n                    <img src=\"bees-with-color/bee-B2SM.svg\" width=\"200\">\n                    <p><span class=\"greenText\"><b>Successful harvest!</b></span><br>Your pay has increased by $0.02. Your bonus pay is now $0.46.</p>\n            ","response":0,"trial_type":"html-button-response","trial_index":52,"time_elapsed":355551,"internal_node_id":"0.0-4.0-1.22","subject_id":"5f2f19dc87147c2fb8cc3e79","study_id":"6197b3f67c2b5cd3b6d9596a","session_id":"6197b9f2f9a18877c21149bf","condition":"contingent","relevant_dimensions":["pattern","legs"],"bee_group":{"antennae":"X","wings":"X","pattern":"D","legs":"F"},"bonus":0.5800000000000008},{"rt":1582.2000000001863,"stimulus":"bees-with-color/bee-B1DF.svg","response":0,"trial_type":"image-button-response","trial_index":53,"time_elapsed":357135,"internal_node_id":"0.0-4.0-0.23","subject_id":"5f2f19dc87147c2fb8cc3e79","study_id":"6197b3f67c2b5cd3b6d9596a","session_id":"6197b9f2f9a18877c21149bf","condition":"contingent","relevant_dimensions":["pattern","legs"],"bee_group":{"antennae":"X","wings":"X","pattern":"D","legs":"F"},"action":"harvest","summary":"bad-harvest","bonus":0.5800000000000008},{"rt":661.7999999998137,"stimulus":"\n                    <p><b>Action: <em>harvest</em></b></p>\n                    <p>This is the bee that you just saw.</p>\n                    <img src=\"bees-with-color/bee-B1DF.svg\" width=\"200\">\n                    <p><span class=\"redText\">Bad choice, the bee was angry.</span><br><b>You have been stung!</b><br>Your pay has been decreased by $0.10. Your bonus pay is now $0.36.</p>\n            ","response":0,"trial_type":"html-button-response","trial_index":54,"time_elapsed":357800,"internal_node_id":"0.0-4.0-1.23","subject_id":"5f2f19dc87147c2fb8cc3e79","study_id":"6197b3f67c2b5cd3b6d9596a","session_id":"6197b9f2f9a18877c21149bf","condition":"contingent","relevant_dimensions":["pattern","legs"],"bee_group":{"antennae":"X","wings":"X","pattern":"D","legs":"F"},"bonus":0.5800000000000008},{"rt":1069.699999999255,"stimulus":"bees-with-color/bee-A1SM.svg","response":0,"trial_type":"image-button-response","trial_index":55,"time_elapsed":358872,"internal_node_id":"0.0-4.0-0.24","subject_id":"5f2f19dc87147c2fb8cc3e79","study_id":"6197b3f67c2b5cd3b6d9596a","session_id":"6197b9f2f9a18877c21149bf","condition":"contingent","relevant_dimensions":["pattern","legs"],"bee_group":{"antennae":"X","wings":"X","pattern":"D","legs":"F"},"action":"harvest","summary":"good-harvest","bonus":0.5800000000000008},{"rt":662,"stimulus":"\n                    <p><b>Action: <em>harvest</em></b></p>\n                    <p>This is the bee that you just saw.</p>\n                    <img src=\"bees-with-color/bee-A1SM.svg\" width=\"200\">\n                    <p><span class=\"greenText\"><b>Successful harvest!</b></span><br>Your pay has increased by $0.02. Your bonus pay is now $0.38.</p>\n            ","response":0,"trial_type":"html-button-response","trial_index":56,"time_elapsed":359536,"internal_node_id":"0.0-4.0-1.24","subject_id":"5f2f19dc87147c2fb8cc3e79","study_id":"6197b3f67c2b5cd3b6d9596a","session_id":"6197b9f2f9a18877c21149bf","condition":"contingent","relevant_dimensions":["pattern","legs"],"bee_group":{"antennae":"X","wings":"X","pattern":"D","legs":"F"},"bonus":0.5800000000000008},{"rt":1165.7999999998137,"stimulus":"bees-with-color/bee-B2DM.svg","response":0,"trial_type":"image-button-response","trial_index":57,"time_elapsed":360704,"internal_node_id":"0.0-4.0-0.25","subject_id":"5f2f19dc87147c2fb8cc3e79","study_id":"6197b3f67c2b5cd3b6d9596a","session_id":"6197b9f2f9a18877c21149bf","condition":"contingent","relevant_dimensions":["pattern","legs"],"bee_group":{"antennae":"X","wings":"X","pattern":"D","legs":"F"},"action":"harvest","summary":"good-harvest","bonus":0.5800000000000008},{"rt":835.7000000001863,"stimulus":"\n                    <p><b>Action: <em>harvest</em></b></p>\n                    <p>This is the bee that you just saw.</p>\n                    <img src=\"bees-with-color/bee-B2DM.svg\" width=\"200\">\n                    <p><span class=\"greenText\"><b>Successful harvest!</b></span><br>Your pay has increased by $0.02. Your bonus pay is now $0.40.</p>\n            ","response":0,"trial_type":"html-button-response","trial_index":58,"time_elapsed":361544,"internal_node_id":"0.0-4.0-1.25","subject_id":"5f2f19dc87147c2fb8cc3e79","study_id":"6197b3f67c2b5cd3b6d9596a","session_id":"6197b9f2f9a18877c21149bf","condition":"contingent","relevant_dimensions":["pattern","legs"],"bee_group":{"antennae":"X","wings":"X","pattern":"D","legs":"F"},"bonus":0.5800000000000008},{"rt":1021.6999999992549,"stimulus":"bees-with-color/bee-A2SF.svg","response":0,"trial_type":"image-button-response","trial_index":59,"time_elapsed":362568,"internal_node_id":"0.0-4.0-0.26","subject_id":"5f2f19dc87147c2fb8cc3e79","study_id":"6197b3f67c2b5cd3b6d9596a","session_id":"6197b9f2f9a18877c21149bf","condition":"contingent","relevant_dimensions":["pattern","legs"],"bee_group":{"antennae":"X","wings":"X","pattern":"D","legs":"F"},"action":"harvest","summary":"good-harvest","bonus":0.5800000000000008},{"rt":629.4000000003725,"stimulus":"\n                    <p><b>Action: <em>harvest</em></b></p>\n                    <p>This is the bee that you just saw.</p>\n                    <img src=\"bees-with-color/bee-A2SF.svg\" width=\"200\">\n                    <p><span class=\"greenText\"><b>Successful harvest!</b></span><br>Your pay has increased by $0.02. Your bonus pay is now $0.42.</p>\n            ","response":0,"trial_type":"html-button-response","trial_index":60,"time_elapsed":363200,"internal_node_id":"0.0-4.0-1.26","subject_id":"5f2f19dc87147c2fb8cc3e79","study_id":"6197b3f67c2b5cd3b6d9596a","session_id":"6197b9f2f9a18877c21149bf","condition":"contingent","relevant_dimensions":["pattern","legs"],"bee_group":{"antennae":"X","wings":"X","pattern":"D","legs":"F"},"bonus":0.5800000000000008},{"rt":2397.2999999998137,"stimulus":"bees-with-color/bee-B1SM.svg","response":1,"trial_type":"image-button-response","trial_index":61,"time_elapsed":365600,"internal_node_id":"0.0-4.0-0.27","subject_id":"5f2f19dc87147c2fb8cc3e79","study_id":"6197b3f67c2b5cd3b6d9596a","session_id":"6197b9f2f9a18877c21149bf","condition":"contingent","relevant_dimensions":["pattern","legs"],"bee_group":{"antennae":"X","wings":"X","pattern":"D","legs":"F"},"action":"avoid","summary":"bad-avoid","bonus":0.5800000000000008},{"rt":829.1000000005588,"stimulus":"\n                    <p><b>Action: <em>avoid</em></b></p>\n                    <p>This is the bee that you just saw.</p>\n                    <img src=\"bees-with-color/bee-B1SM.svg\" width=\"200\">\n                    <p><br>Your bonus pay is unchanged, and remains at $0.42.</p>\n            ","response":0,"trial_type":"html-button-response","trial_index":62,"time_elapsed":366432,"internal_node_id":"0.0-4.0-1.27","subject_id":"5f2f19dc87147c2fb8cc3e79","study_id":"6197b3f67c2b5cd3b6d9596a","session_id":"6197b9f2f9a18877c21149bf","condition":"contingent","relevant_dimensions":["pattern","legs"],"bee_group":{"antennae":"X","wings":"X","pattern":"D","legs":"F"},"bonus":0.5800000000000008},{"rt":1237.6000000005588,"stimulus":"bees-with-color/bee-B2DF.svg","response":1,"trial_type":"image-button-response","trial_index":63,"time_elapsed":367671,"internal_node_id":"0.0-4.0-0.28","subject_id":"5f2f19dc87147c2fb8cc3e79","study_id":"6197b3f67c2b5cd3b6d9596a","session_id":"6197b9f2f9a18877c21149bf","condition":"contingent","relevant_dimensions":["pattern","legs"],"bee_group":{"antennae":"X","wings":"X","pattern":"D","legs":"F"},"action":"avoid","summary":"good-avoid","bonus":0.5800000000000008},{"rt":526.1000000005588,"stimulus":"\n                    <p><b>Action: <em>avoid</em></b></p>\n                    <p>This is the bee that you just saw.</p>\n                    <img src=\"bees-with-color/bee-B2DF.svg\" width=\"200\">\n                    <p><br>Your bonus pay is unchanged, and remains at $0.42.</p>\n            ","response":0,"trial_type":"html-button-response","trial_index":64,"time_elapsed":368200,"internal_node_id":"0.0-4.0-1.28","subject_id":"5f2f19dc87147c2fb8cc3e79","study_id":"6197b3f67c2b5cd3b6d9596a","session_id":"6197b9f2f9a18877c21149bf","condition":"contingent","relevant_dimensions":["pattern","legs"],"bee_group":{"antennae":"X","wings":"X","pattern":"D","legs":"F"},"bonus":0.5800000000000008},{"rt":2132.9000000003725,"stimulus":"bees-with-color/bee-B2SF.svg","response":0,"trial_type":"image-button-response","trial_index":65,"time_elapsed":370336,"internal_node_id":"0.0-4.0-0.29","subject_id":"5f2f19dc87147c2fb8cc3e79","study_id":"6197b3f67c2b5cd3b6d9596a","session_id":"6197b9f2f9a18877c21149bf","condition":"contingent","relevant_dimensions":["pattern","legs"],"bee_group":{"antennae":"X","wings":"X","pattern":"D","legs":"F"},"action":"harvest","summary":"good-harvest","bonus":0.5800000000000008},{"rt":622,"stimulus":"\n                    <p><b>Action: <em>harvest</em></b></p>\n                    <p>This is the bee that you just saw.</p>\n                    <img src=\"bees-with-color/bee-B2SF.svg\" width=\"200\">\n                    <p><span class=\"greenText\"><b>Successful harvest!</b></span><br>Your pay has increased by $0.02. Your bonus pay is now $0.44.</p>\n            ","response":0,"trial_type":"html-button-response","trial_index":66,"time_elapsed":370960,"internal_node_id":"0.0-4.0-1.29","subject_id":"5f2f19dc87147c2fb8cc3e79","study_id":"6197b3f67c2b5cd3b6d9596a","session_id":"6197b9f2f9a18877c21149bf","condition":"contingent","relevant_dimensions":["pattern","legs"],"bee_group":{"antennae":"X","wings":"X","pattern":"D","legs":"F"},"bonus":0.5800000000000008},{"rt":1565.6000000005588,"stimulus":"bees-with-color/bee-A1DF.svg","response":0,"trial_type":"image-button-response","trial_index":67,"time_elapsed":372528,"internal_node_id":"0.0-4.0-0.30","subject_id":"5f2f19dc87147c2fb8cc3e79","study_id":"6197b3f67c2b5cd3b6d9596a","session_id":"6197b9f2f9a18877c21149bf","condition":"contingent","relevant_dimensions":["pattern","legs"],"bee_group":{"antennae":"X","wings":"X","pattern":"D","legs":"F"},"action":"harvest","summary":"bad-harvest","bonus":0.5800000000000008},{"rt":637.1999999992549,"stimulus":"\n                    <p><b>Action: <em>harvest</em></b></p>\n                    <p>This is the bee that you just saw.</p>\n                    <img src=\"bees-with-color/bee-A1DF.svg\" width=\"200\">\n                    <p><span class=\"redText\">Bad choice, the bee was angry.</span><br><b>You have been stung!</b><br>Your pay has been decreased by $0.10. Your bonus pay is now $0.34.</p>\n            ","response":0,"trial_type":"html-button-response","trial_index":68,"time_elapsed":373168,"internal_node_id":"0.0-4.0-1.30","subject_id":"5f2f19dc87147c2fb8cc3e79","study_id":"6197b3f67c2b5cd3b6d9596a","session_id":"6197b9f2f9a18877c21149bf","condition":"contingent","relevant_dimensions":["pattern","legs"],"bee_group":{"antennae":"X","wings":"X","pattern":"D","legs":"F"},"bonus":0.5800000000000008},{"rt":1133,"stimulus":"bees-with-color/bee-A1DM.svg","response":0,"trial_type":"image-button-response","trial_index":69,"time_elapsed":374304,"internal_node_id":"0.0-4.0-0.31","subject_id":"5f2f19dc87147c2fb8cc3e79","study_id":"6197b3f67c2b5cd3b6d9596a","session_id":"6197b9f2f9a18877c21149bf","condition":"contingent","relevant_dimensions":["pattern","legs"],"bee_group":{"antennae":"X","wings":"X","pattern":"D","legs":"F"},"action":"harvest","summary":"good-harvest","bonus":0.5800000000000008},{"rt":565.2000000001863,"stimulus":"\n                    <p><b>Action: <em>harvest</em></b></p>\n                    <p>This is the bee that you just saw.</p>\n                    <img src=\"bees-with-color/bee-A1DM.svg\" width=\"200\">\n                    <p><span class=\"greenText\"><b>Successful harvest!</b></span><br>Your pay has increased by $0.02. Your bonus pay is now $0.36.</p>\n            ","response":0,"trial_type":"html-button-response","trial_index":70,"time_elapsed":374872,"internal_node_id":"0.0-4.0-1.31","subject_id":"5f2f19dc87147c2fb8cc3e79","study_id":"6197b3f67c2b5cd3b6d9596a","session_id":"6197b9f2f9a18877c21149bf","condition":"contingent","relevant_dimensions":["pattern","legs"],"bee_group":{"antennae":"X","wings":"X","pattern":"D","legs":"F"},"bonus":0.5800000000000008},{"rt":1630,"stimulus":"bees-with-color/bee-B2SF.svg","response":0,"trial_type":"image-button-response","trial_index":71,"time_elapsed":376503,"internal_node_id":"0.0-4.0-0.32","subject_id":"5f2f19dc87147c2fb8cc3e79","study_id":"6197b3f67c2b5cd3b6d9596a","session_id":"6197b9f2f9a18877c21149bf","condition":"contingent","relevant_dimensions":["pattern","legs"],"bee_group":{"antennae":"X","wings":"X","pattern":"D","legs":"F"},"action":"harvest","summary":"good-harvest","bonus":0.5800000000000008},{"rt":549.2999999998137,"stimulus":"\n                    <p><b>Action: <em>harvest</em></b></p>\n                    <p>This is the bee that you just saw.</p>\n                    <img src=\"bees-with-color/bee-B2SF.svg\" width=\"200\">\n                    <p><span class=\"greenText\"><b>Successful harvest!</b></span><br>Your pay has increased by $0.02. Your bonus pay is now $0.38.</p>\n            ","response":0,"trial_type":"html-button-response","trial_index":72,"time_elapsed":377056,"internal_node_id":"0.0-4.0-1.32","subject_id":"5f2f19dc87147c2fb8cc3e79","study_id":"6197b3f67c2b5cd3b6d9596a","session_id":"6197b9f2f9a18877c21149bf","condition":"contingent","relevant_dimensions":["pattern","legs"],"bee_group":{"antennae":"X","wings":"X","pattern":"D","legs":"F"},"bonus":0.5800000000000008},{"rt":1782.2999999998137,"stimulus":"bees-with-color/bee-A1SM.svg","response":0,"trial_type":"image-button-response","trial_index":73,"time_elapsed":378840,"internal_node_id":"0.0-4.0-0.33","subject_id":"5f2f19dc87147c2fb8cc3e79","study_id":"6197b3f67c2b5cd3b6d9596a","session_id":"6197b9f2f9a18877c21149bf","condition":"contingent","relevant_dimensions":["pattern","legs"],"bee_group":{"antennae":"X","wings":"X","pattern":"D","legs":"F"},"action":"harvest","summary":"good-harvest","bonus":0.5800000000000008},{"rt":612.0999999996275,"stimulus":"\n                    <p><b>Action: <em>harvest</em></b></p>\n                    <p>This is the bee that you just saw.</p>\n                    <img src=\"bees-with-color/bee-A1SM.svg\" width=\"200\">\n                    <p><span class=\"greenText\"><b>Successful harvest!</b></span><br>Your pay has increased by $0.02. Your bonus pay is now $0.40.</p>\n            ","response":0,"trial_type":"html-button-response","trial_index":74,"time_elapsed":379456,"internal_node_id":"0.0-4.0-1.33","subject_id":"5f2f19dc87147c2fb8cc3e79","study_id":"6197b3f67c2b5cd3b6d9596a","session_id":"6197b9f2f9a18877c21149bf","condition":"contingent","relevant_dimensions":["pattern","legs"],"bee_group":{"antennae":"X","wings":"X","pattern":"D","legs":"F"},"bonus":0.5800000000000008},{"rt":2222.9000000003725,"stimulus":"bees-with-color/bee-A1DF.svg","response":1,"trial_type":"image-button-response","trial_index":75,"time_elapsed":381681,"internal_node_id":"0.0-4.0-0.34","subject_id":"5f2f19dc87147c2fb8cc3e79","study_id":"6197b3f67c2b5cd3b6d9596a","session_id":"6197b9f2f9a18877c21149bf","condition":"contingent","relevant_dimensions":["pattern","legs"],"bee_group":{"antennae":"X","wings":"X","pattern":"D","legs":"F"},"action":"avoid","summary":"good-avoid","bonus":0.5800000000000008},{"rt":660.6000000005588,"stimulus":"\n                    <p><b>Action: <em>avoid</em></b></p>\n                    <p>This is the bee that you just saw.</p>\n                    <img src=\"bees-with-color/bee-A1DF.svg\" width=\"200\">\n                    <p><br>Your bonus pay is unchanged, and remains at $0.40.</p>\n            ","response":0,"trial_type":"html-button-response","trial_index":76,"time_elapsed":382344,"internal_node_id":"0.0-4.0-1.34","subject_id":"5f2f19dc87147c2fb8cc3e79","study_id":"6197b3f67c2b5cd3b6d9596a","session_id":"6197b9f2f9a18877c21149bf","condition":"contingent","relevant_dimensions":["pattern","legs"],"bee_group":{"antennae":"X","wings":"X","pattern":"D","legs":"F"},"bonus":0.5800000000000008},{"rt":4884.9000000003725,"stimulus":"bees-with-color/bee-A2DM.svg","response":0,"trial_type":"image-button-response","trial_index":77,"time_elapsed":387232,"internal_node_id":"0.0-4.0-0.35","subject_id":"5f2f19dc87147c2fb8cc3e79","study_id":"6197b3f67c2b5cd3b6d9596a","session_id":"6197b9f2f9a18877c21149bf","condition":"contingent","relevant_dimensions":["pattern","legs"],"bee_group":{"antennae":"X","wings":"X","pattern":"D","legs":"F"},"action":"harvest","summary":"good-harvest","bonus":0.5800000000000008},{"rt":685.2000000001863,"stimulus":"\n                    <p><b>Action: <em>harvest</em></b></p>\n                    <p>This is the bee that you just saw.</p>\n                    <img src=\"bees-with-color/bee-A2DM.svg\" width=\"200\">\n                    <p><span class=\"greenText\"><b>Successful harvest!</b></span><br>Your pay has increased by $0.02. Your bonus pay is now $0.42.</p>\n            ","response":0,"trial_type":"html-button-response","trial_index":78,"time_elapsed":387920,"internal_node_id":"0.0-4.0-1.35","subject_id":"5f2f19dc87147c2fb8cc3e79","study_id":"6197b3f67c2b5cd3b6d9596a","session_id":"6197b9f2f9a18877c21149bf","condition":"contingent","relevant_dimensions":["pattern","legs"],"bee_group":{"antennae":"X","wings":"X","pattern":"D","legs":"F"},"bonus":0.5800000000000008},{"rt":1261.2000000001863,"stimulus":"bees-with-color/bee-A2SF.svg","response":1,"trial_type":"image-button-response","trial_index":79,"time_elapsed":389184,"internal_node_id":"0.0-4.0-0.36","subject_id":"5f2f19dc87147c2fb8cc3e79","study_id":"6197b3f67c2b5cd3b6d9596a","session_id":"6197b9f2f9a18877c21149bf","condition":"contingent","relevant_dimensions":["pattern","legs"],"bee_group":{"antennae":"X","wings":"X","pattern":"D","legs":"F"},"action":"avoid","summary":"bad-avoid","bonus":0.5800000000000008},{"rt":549.2000000001863,"stimulus":"\n                    <p><b>Action: <em>avoid</em></b></p>\n                    <p>This is the bee that you just saw.</p>\n                    <img src=\"bees-with-color/bee-A2SF.svg\" width=\"200\">\n                    <p><br>Your bonus pay is unchanged, and remains at $0.42.</p>\n            ","response":0,"trial_type":"html-button-response","trial_index":80,"time_elapsed":389736,"internal_node_id":"0.0-4.0-1.36","subject_id":"5f2f19dc87147c2fb8cc3e79","study_id":"6197b3f67c2b5cd3b6d9596a","session_id":"6197b9f2f9a18877c21149bf","condition":"contingent","relevant_dimensions":["pattern","legs"],"bee_group":{"antennae":"X","wings":"X","pattern":"D","legs":"F"},"bonus":0.5800000000000008},{"rt":1596,"stimulus":"bees-with-color/bee-B2DM.svg","response":0,"trial_type":"image-button-response","trial_index":81,"time_elapsed":391335,"internal_node_id":"0.0-4.0-0.37","subject_id":"5f2f19dc87147c2fb8cc3e79","study_id":"6197b3f67c2b5cd3b6d9596a","session_id":"6197b9f2f9a18877c21149bf","condition":"contingent","relevant_dimensions":["pattern","legs"],"bee_group":{"antennae":"X","wings":"X","pattern":"D","legs":"F"},"action":"harvest","summary":"good-harvest","bonus":0.5800000000000008},{"rt":837.3999999994412,"stimulus":"\n                    <p><b>Action: <em>harvest</em></b></p>\n                    <p>This is the bee that you just saw.</p>\n                    <img src=\"bees-with-color/bee-B2DM.svg\" width=\"200\">\n                    <p><span class=\"greenText\"><b>Successful harvest!</b></span><br>Your pay has increased by $0.02. Your bonus pay is now $0.44.</p>\n            ","response":0,"trial_type":"html-button-response","trial_index":82,"time_elapsed":392175,"internal_node_id":"0.0-4.0-1.37","subject_id":"5f2f19dc87147c2fb8cc3e79","study_id":"6197b3f67c2b5cd3b6d9596a","session_id":"6197b9f2f9a18877c21149bf","condition":"contingent","relevant_dimensions":["pattern","legs"],"bee_group":{"antennae":"X","wings":"X","pattern":"D","legs":"F"},"bonus":0.5800000000000008},{"rt":2430.0999999996275,"stimulus":"bees-with-color/bee-A2SM.svg","response":1,"trial_type":"image-button-response","trial_index":83,"time_elapsed":394608,"internal_node_id":"0.0-4.0-0.38","subject_id":"5f2f19dc87147c2fb8cc3e79","study_id":"6197b3f67c2b5cd3b6d9596a","session_id":"6197b9f2f9a18877c21149bf","condition":"contingent","relevant_dimensions":["pattern","legs"],"bee_group":{"antennae":"X","wings":"X","pattern":"D","legs":"F"},"action":"avoid","summary":"bad-avoid","bonus":0.5800000000000008},{"rt":525.6999999992549,"stimulus":"\n                    <p><b>Action: <em>avoid</em></b></p>\n                    <p>This is the bee that you just saw.</p>\n                    <img src=\"bees-with-color/bee-A2SM.svg\" width=\"200\">\n                    <p><br>Your bonus pay is unchanged, and remains at $0.44.</p>\n            ","response":0,"trial_type":"html-button-response","trial_index":84,"time_elapsed":395136,"internal_node_id":"0.0-4.0-1.38","subject_id":"5f2f19dc87147c2fb8cc3e79","study_id":"6197b3f67c2b5cd3b6d9596a","session_id":"6197b9f2f9a18877c21149bf","condition":"contingent","relevant_dimensions":["pattern","legs"],"bee_group":{"antennae":"X","wings":"X","pattern":"D","legs":"F"},"bonus":0.5800000000000008},{"rt":1422.1000000005588,"stimulus":"bees-with-color/bee-B2DF.svg","response":1,"trial_type":"image-button-response","trial_index":85,"time_elapsed":396559,"internal_node_id":"0.0-4.0-0.39","subject_id":"5f2f19dc87147c2fb8cc3e79","study_id":"6197b3f67c2b5cd3b6d9596a","session_id":"6197b9f2f9a18877c21149bf","condition":"contingent","relevant_dimensions":["pattern","legs"],"bee_group":{"antennae":"X","wings":"X","pattern":"D","legs":"F"},"action":"avoid","summary":"good-avoid","bonus":0.5800000000000008},{"rt":462.09999999962747,"stimulus":"\n                    <p><b>Action: <em>avoid</em></b></p>\n                    <p>This is the bee that you just saw.</p>\n                    <img src=\"bees-with-color/bee-B2DF.svg\" width=\"200\">\n                    <p><br>Your bonus pay is unchanged, and remains at $0.44.</p>\n            ","response":0,"trial_type":"html-button-response","trial_index":86,"time_elapsed":397024,"internal_node_id":"0.0-4.0-1.39","subject_id":"5f2f19dc87147c2fb8cc3e79","study_id":"6197b3f67c2b5cd3b6d9596a","session_id":"6197b9f2f9a18877c21149bf","condition":"contingent","relevant_dimensions":["pattern","legs"],"bee_group":{"antennae":"X","wings":"X","pattern":"D","legs":"F"},"bonus":0.5800000000000008},{"rt":1502.4000000003725,"stimulus":"bees-with-color/bee-A1DM.svg","response":0,"trial_type":"image-button-response","trial_index":87,"time_elapsed":398528,"internal_node_id":"0.0-4.0-0.40","subject_id":"5f2f19dc87147c2fb8cc3e79","study_id":"6197b3f67c2b5cd3b6d9596a","session_id":"6197b9f2f9a18877c21149bf","condition":"contingent","relevant_dimensions":["pattern","legs"],"bee_group":{"antennae":"X","wings":"X","pattern":"D","legs":"F"},"action":"harvest","summary":"good-harvest","bonus":0.5800000000000008},{"rt":556.2999999998137,"stimulus":"\n                    <p><b>Action: <em>harvest</em></b></p>\n                    <p>This is the bee that you just saw.</p>\n                    <img src=\"bees-with-color/bee-A1DM.svg\" width=\"200\">\n                    <p><span class=\"greenText\"><b>Successful harvest!</b></span><br>Your pay has increased by $0.02. Your bonus pay is now $0.46.</p>\n            ","response":0,"trial_type":"html-button-response","trial_index":88,"time_elapsed":399088,"internal_node_id":"0.0-4.0-1.40","subject_id":"5f2f19dc87147c2fb8cc3e79","study_id":"6197b3f67c2b5cd3b6d9596a","session_id":"6197b9f2f9a18877c21149bf","condition":"contingent","relevant_dimensions":["pattern","legs"],"bee_group":{"antennae":"X","wings":"X","pattern":"D","legs":"F"},"bonus":0.5800000000000008},{"rt":1693.7000000001863,"stimulus":"bees-with-color/bee-B1SM.svg","response":0,"trial_type":"image-button-response","trial_index":89,"time_elapsed":400783,"internal_node_id":"0.0-4.0-0.41","subject_id":"5f2f19dc87147c2fb8cc3e79","study_id":"6197b3f67c2b5cd3b6d9596a","session_id":"6197b9f2f9a18877c21149bf","condition":"contingent","relevant_dimensions":["pattern","legs"],"bee_group":{"antennae":"X","wings":"X","pattern":"D","legs":"F"},"action":"harvest","summary":"good-harvest","bonus":0.5800000000000008},{"rt":637.5,"stimulus":"\n                    <p><b>Action: <em>harvest</em></b></p>\n                    <p>This is the bee that you just saw.</p>\n                    <img src=\"bees-with-color/bee-B1SM.svg\" width=\"200\">\n                    <p><span class=\"greenText\"><b>Successful harvest!</b></span><br>Your pay has increased by $0.02. Your bonus pay is now $0.48.</p>\n            ","response":0,"trial_type":"html-button-response","trial_index":90,"time_elapsed":401423,"internal_node_id":"0.0-4.0-1.41","subject_id":"5f2f19dc87147c2fb8cc3e79","study_id":"6197b3f67c2b5cd3b6d9596a","session_id":"6197b9f2f9a18877c21149bf","condition":"contingent","relevant_dimensions":["pattern","legs"],"bee_group":{"antennae":"X","wings":"X","pattern":"D","legs":"F"},"bonus":0.5800000000000008},{"rt":2558.5,"stimulus":"bees-with-color/bee-B1SF.svg","response":0,"trial_type":"image-button-response","trial_index":91,"time_elapsed":403984,"internal_node_id":"0.0-4.0-0.42","subject_id":"5f2f19dc87147c2fb8cc3e79","study_id":"6197b3f67c2b5cd3b6d9596a","session_id":"6197b9f2f9a18877c21149bf","condition":"contingent","relevant_dimensions":["pattern","legs"],"bee_group":{"antennae":"X","wings":"X","pattern":"D","legs":"F"},"action":"harvest","summary":"good-harvest","bonus":0.5800000000000008},{"rt":1061.9000000003725,"stimulus":"\n                    <p><b>Action: <em>harvest</em></b></p>\n                    <p>This is the bee that you just saw.</p>\n                    <img src=\"bees-with-color/bee-B1SF.svg\" width=\"200\">\n                    <p><span class=\"greenText\"><b>Successful harvest!</b></span><br>Your pay has increased by $0.02. Your bonus pay is now $0.50.</p>\n            ","response":0,"trial_type":"html-button-response","trial_index":92,"time_elapsed":405048,"internal_node_id":"0.0-4.0-1.42","subject_id":"5f2f19dc87147c2fb8cc3e79","study_id":"6197b3f67c2b5cd3b6d9596a","session_id":"6197b9f2f9a18877c21149bf","condition":"contingent","relevant_dimensions":["pattern","legs"],"bee_group":{"antennae":"X","wings":"X","pattern":"D","legs":"F"},"bonus":0.5800000000000008},{"rt":941,"stimulus":"bees-with-color/bee-A1SF.svg","response":1,"trial_type":"image-button-response","trial_index":93,"time_elapsed":405991,"internal_node_id":"0.0-4.0-0.43","subject_id":"5f2f19dc87147c2fb8cc3e79","study_id":"6197b3f67c2b5cd3b6d9596a","session_id":"6197b9f2f9a18877c21149bf","condition":"contingent","relevant_dimensions":["pattern","legs"],"bee_group":{"antennae":"X","wings":"X","pattern":"D","legs":"F"},"action":"avoid","summary":"bad-avoid","bonus":0.5800000000000008},{"rt":933.7999999998137,"stimulus":"\n                    <p><b>Action: <em>avoid</em></b></p>\n                    <p>This is the bee that you just saw.</p>\n                    <img src=\"bees-with-color/bee-A1SF.svg\" width=\"200\">\n                    <p><br>Your bonus pay is unchanged, and remains at $0.50.</p>\n            ","response":0,"trial_type":"html-button-response","trial_index":94,"time_elapsed":406928,"internal_node_id":"0.0-4.0-1.43","subject_id":"5f2f19dc87147c2fb8cc3e79","study_id":"6197b3f67c2b5cd3b6d9596a","session_id":"6197b9f2f9a18877c21149bf","condition":"contingent","relevant_dimensions":["pattern","legs"],"bee_group":{"antennae":"X","wings":"X","pattern":"D","legs":"F"},"bonus":0.5800000000000008},{"rt":2213.7000000001863,"stimulus":"bees-with-color/bee-A2DF.svg","response":1,"trial_type":"image-button-response","trial_index":95,"time_elapsed":409144,"internal_node_id":"0.0-4.0-0.44","subject_id":"5f2f19dc87147c2fb8cc3e79","study_id":"6197b3f67c2b5cd3b6d9596a","session_id":"6197b9f2f9a18877c21149bf","condition":"contingent","relevant_dimensions":["pattern","legs"],"bee_group":{"antennae":"X","wings":"X","pattern":"D","legs":"F"},"action":"avoid","summary":"good-avoid","bonus":0.5800000000000008},{"rt":564.4000000003725,"stimulus":"\n                    <p><b>Action: <em>avoid</em></b></p>\n                    <p>This is the bee that you just saw.</p>\n                    <img src=\"bees-with-color/bee-A2DF.svg\" width=\"200\">\n                    <p><br>Your bonus pay is unchanged, and remains at $0.50.</p>\n            ","response":0,"trial_type":"html-button-response","trial_index":96,"time_elapsed":409712,"internal_node_id":"0.0-4.0-1.44","subject_id":"5f2f19dc87147c2fb8cc3e79","study_id":"6197b3f67c2b5cd3b6d9596a","session_id":"6197b9f2f9a18877c21149bf","condition":"contingent","relevant_dimensions":["pattern","legs"],"bee_group":{"antennae":"X","wings":"X","pattern":"D","legs":"F"},"bonus":0.5800000000000008},{"rt":2014.5,"stimulus":"bees-with-color/bee-B1DM.svg","response":1,"trial_type":"image-button-response","trial_index":97,"time_elapsed":411728,"internal_node_id":"0.0-4.0-0.45","subject_id":"5f2f19dc87147c2fb8cc3e79","study_id":"6197b3f67c2b5cd3b6d9596a","session_id":"6197b9f2f9a18877c21149bf","condition":"contingent","relevant_dimensions":["pattern","legs"],"bee_group":{"antennae":"X","wings":"X","pattern":"D","legs":"F"},"action":"avoid","summary":"bad-avoid","bonus":0.5800000000000008},{"rt":492.70000000018626,"stimulus":"\n                    <p><b>Action: <em>avoid</em></b></p>\n                    <p>This is the bee that you just saw.</p>\n                    <img src=\"bees-with-color/bee-B1DM.svg\" width=\"200\">\n                    <p><br>Your bonus pay is unchanged, and remains at $0.50.</p>\n            ","response":0,"trial_type":"html-button-response","trial_index":98,"time_elapsed":412224,"internal_node_id":"0.0-4.0-1.45","subject_id":"5f2f19dc87147c2fb8cc3e79","study_id":"6197b3f67c2b5cd3b6d9596a","session_id":"6197b9f2f9a18877c21149bf","condition":"contingent","relevant_dimensions":["pattern","legs"],"bee_group":{"antennae":"X","wings":"X","pattern":"D","legs":"F"},"bonus":0.5800000000000008},{"rt":1901.5999999996275,"stimulus":"bees-with-color/bee-B2SM.svg","response":1,"trial_type":"image-button-response","trial_index":99,"time_elapsed":414128,"internal_node_id":"0.0-4.0-0.46","subject_id":"5f2f19dc87147c2fb8cc3e79","study_id":"6197b3f67c2b5cd3b6d9596a","session_id":"6197b9f2f9a18877c21149bf","condition":"contingent","relevant_dimensions":["pattern","legs"],"bee_group":{"antennae":"X","wings":"X","pattern":"D","legs":"F"},"action":"avoid","summary":"bad-avoid","bonus":0.5800000000000008},{"rt":459.80000000074506,"stimulus":"\n                    <p><b>Action: <em>avoid</em></b></p>\n                    <p>This is the bee that you just saw.</p>\n                    <img src=\"bees-with-color/bee-B2SM.svg\" width=\"200\">\n                    <p><br>Your bonus pay is unchanged, and remains at $0.50.</p>\n            ","response":0,"trial_type":"html-button-response","trial_index":100,"time_elapsed":414592,"internal_node_id":"0.0-4.0-1.46","subject_id":"5f2f19dc87147c2fb8cc3e79","study_id":"6197b3f67c2b5cd3b6d9596a","session_id":"6197b9f2f9a18877c21149bf","condition":"contingent","relevant_dimensions":["pattern","legs"],"bee_group":{"antennae":"X","wings":"X","pattern":"D","legs":"F"},"bonus":0.5800000000000008},{"rt":2198,"stimulus":"bees-with-color/bee-B1DF.svg","response":0,"trial_type":"image-button-response","trial_index":101,"time_elapsed":416791,"internal_node_id":"0.0-4.0-0.47","subject_id":"5f2f19dc87147c2fb8cc3e79","study_id":"6197b3f67c2b5cd3b6d9596a","session_id":"6197b9f2f9a18877c21149bf","condition":"contingent","relevant_dimensions":["pattern","legs"],"bee_group":{"antennae":"X","wings":"X","pattern":"D","legs":"F"},"action":"harvest","summary":"bad-harvest","bonus":0.5800000000000008},{"rt":613.5,"stimulus":"\n                    <p><b>Action: <em>harvest</em></b></p>\n                    <p>This is the bee that you just saw.</p>\n                    <img src=\"bees-with-color/bee-B1DF.svg\" width=\"200\">\n                    <p><span class=\"redText\">Bad choice, the bee was angry.</span><br><b>You have been stung!</b><br>Your pay has been decreased by $0.10. Your bonus pay is now $0.40.</p>\n            ","response":0,"trial_type":"html-button-response","trial_index":102,"time_elapsed":417408,"internal_node_id":"0.0-4.0-1.47","subject_id":"5f2f19dc87147c2fb8cc3e79","study_id":"6197b3f67c2b5cd3b6d9596a","session_id":"6197b9f2f9a18877c21149bf","condition":"contingent","relevant_dimensions":["pattern","legs"],"bee_group":{"antennae":"X","wings":"X","pattern":"D","legs":"F"},"bonus":0.5800000000000008},{"rt":886.0999999996275,"stimulus":"bees-with-color/bee-B1SF.svg","response":0,"trial_type":"image-button-response","trial_index":103,"time_elapsed":418296,"internal_node_id":"0.0-4.0-0.48","subject_id":"5f2f19dc87147c2fb8cc3e79","study_id":"6197b3f67c2b5cd3b6d9596a","session_id":"6197b9f2f9a18877c21149bf","condition":"contingent","relevant_dimensions":["pattern","legs"],"bee_group":{"antennae":"X","wings":"X","pattern":"D","legs":"F"},"action":"harvest","summary":"good-harvest","bonus":0.5800000000000008},{"rt":540.7999999998137,"stimulus":"\n                    <p><b>Action: <em>harvest</em></b></p>\n                    <p>This is the bee that you just saw.</p>\n                    <img src=\"bees-with-color/bee-B1SF.svg\" width=\"200\">\n                    <p><span class=\"greenText\"><b>Successful harvest!</b></span><br>Your pay has increased by $0.02. Your bonus pay is now $0.42.</p>\n            ","response":0,"trial_type":"html-button-response","trial_index":104,"time_elapsed":418840,"internal_node_id":"0.0-4.0-1.48","subject_id":"5f2f19dc87147c2fb8cc3e79","study_id":"6197b3f67c2b5cd3b6d9596a","session_id":"6197b9f2f9a18877c21149bf","condition":"contingent","relevant_dimensions":["pattern","legs"],"bee_group":{"antennae":"X","wings":"X","pattern":"D","legs":"F"},"bonus":0.5800000000000008},{"rt":1182.199999999255,"stimulus":"bees-with-color/bee-B2DM.svg","response":0,"trial_type":"image-button-response","trial_index":105,"time_elapsed":420024,"internal_node_id":"0.0-4.0-0.49","subject_id":"5f2f19dc87147c2fb8cc3e79","study_id":"6197b3f67c2b5cd3b6d9596a","session_id":"6197b9f2f9a18877c21149bf","condition":"contingent","relevant_dimensions":["pattern","legs"],"bee_group":{"antennae":"X","wings":"X","pattern":"D","legs":"F"},"action":"harvest","summary":"good-harvest","bonus":0.5800000000000008},{"rt":604.7999999998137,"stimulus":"\n                    <p><b>Action: <em>harvest</em></b></p>\n                    <p>This is the bee that you just saw.</p>\n                    <img src=\"bees-with-color/bee-B2DM.svg\" width=\"200\">\n                    <p><span class=\"greenText\"><b>Successful harvest!</b></span><br>Your pay has increased by $0.02. Your bonus pay is now $0.44.</p>\n            ","response":0,"trial_type":"html-button-response","trial_index":106,"time_elapsed":420632,"internal_node_id":"0.0-4.0-1.49","subject_id":"5f2f19dc87147c2fb8cc3e79","study_id":"6197b3f67c2b5cd3b6d9596a","session_id":"6197b9f2f9a18877c21149bf","condition":"contingent","relevant_dimensions":["pattern","legs"],"bee_group":{"antennae":"X","wings":"X","pattern":"D","legs":"F"},"bonus":0.5800000000000008},{"rt":2054.2999999998137,"stimulus":"bees-with-color/bee-A2SM.svg","response":1,"trial_type":"image-button-response","trial_index":107,"time_elapsed":422688,"internal_node_id":"0.0-4.0-0.50","subject_id":"5f2f19dc87147c2fb8cc3e79","study_id":"6197b3f67c2b5cd3b6d9596a","session_id":"6197b9f2f9a18877c21149bf","condition":"contingent","relevant_dimensions":["pattern","legs"],"bee_group":{"antennae":"X","wings":"X","pattern":"D","legs":"F"},"action":"avoid","summary":"bad-avoid","bonus":0.5800000000000008},{"rt":501.29999999981374,"stimulus":"\n                    <p><b>Action: <em>avoid</em></b></p>\n                    <p>This is the bee that you just saw.</p>\n                    <img src=\"bees-with-color/bee-A2SM.svg\" width=\"200\">\n                    <p><br>Your bonus pay is unchanged, and remains at $0.44.</p>\n            ","response":0,"trial_type":"html-button-response","trial_index":108,"time_elapsed":423192,"internal_node_id":"0.0-4.0-1.50","subject_id":"5f2f19dc87147c2fb8cc3e79","study_id":"6197b3f67c2b5cd3b6d9596a","session_id":"6197b9f2f9a18877c21149bf","condition":"contingent","relevant_dimensions":["pattern","legs"],"bee_group":{"antennae":"X","wings":"X","pattern":"D","legs":"F"},"bonus":0.5800000000000008},{"rt":1077.2999999998137,"stimulus":"bees-with-color/bee-A1SM.svg","response":0,"trial_type":"image-button-response","trial_index":109,"time_elapsed":424272,"internal_node_id":"0.0-4.0-0.51","subject_id":"5f2f19dc87147c2fb8cc3e79","study_id":"6197b3f67c2b5cd3b6d9596a","session_id":"6197b9f2f9a18877c21149bf","condition":"contingent","relevant_dimensions":["pattern","legs"],"bee_group":{"antennae":"X","wings":"X","pattern":"D","legs":"F"},"action":"harvest","summary":"good-harvest","bonus":0.5800000000000008},{"rt":582.0999999996275,"stimulus":"\n                    <p><b>Action: <em>harvest</em></b></p>\n                    <p>This is the bee that you just saw.</p>\n                    <img src=\"bees-with-color/bee-A1SM.svg\" width=\"200\">\n                    <p><span class=\"greenText\"><b>Successful harvest!</b></span><br>Your pay has increased by $0.02. Your bonus pay is now $0.46.</p>\n            ","response":0,"trial_type":"html-button-response","trial_index":110,"time_elapsed":424856,"internal_node_id":"0.0-4.0-1.51","subject_id":"5f2f19dc87147c2fb8cc3e79","study_id":"6197b3f67c2b5cd3b6d9596a","session_id":"6197b9f2f9a18877c21149bf","condition":"contingent","relevant_dimensions":["pattern","legs"],"bee_group":{"antennae":"X","wings":"X","pattern":"D","legs":"F"},"bonus":0.5800000000000008},{"rt":1981.800000000745,"stimulus":"bees-with-color/bee-A2DF.svg","response":1,"trial_type":"image-button-response","trial_index":111,"time_elapsed":426840,"internal_node_id":"0.0-4.0-0.52","subject_id":"5f2f19dc87147c2fb8cc3e79","study_id":"6197b3f67c2b5cd3b6d9596a","session_id":"6197b9f2f9a18877c21149bf","condition":"contingent","relevant_dimensions":["pattern","legs"],"bee_group":{"antennae":"X","wings":"X","pattern":"D","legs":"F"},"action":"avoid","summary":"good-avoid","bonus":0.5800000000000008},{"rt":627,"stimulus":"\n                    <p><b>Action: <em>avoid</em></b></p>\n                    <p>This is the bee that you just saw.</p>\n                    <img src=\"bees-with-color/bee-A2DF.svg\" width=\"200\">\n                    <p><br>Your bonus pay is unchanged, and remains at $0.46.</p>\n            ","response":0,"trial_type":"html-button-response","trial_index":112,"time_elapsed":427472,"internal_node_id":"0.0-4.0-1.52","subject_id":"5f2f19dc87147c2fb8cc3e79","study_id":"6197b3f67c2b5cd3b6d9596a","session_id":"6197b9f2f9a18877c21149bf","condition":"contingent","relevant_dimensions":["pattern","legs"],"bee_group":{"antennae":"X","wings":"X","pattern":"D","legs":"F"},"bonus":0.5800000000000008},{"rt":3222.199999999255,"stimulus":"bees-with-color/bee-B1SM.svg","response":0,"trial_type":"image-button-response","trial_index":113,"time_elapsed":430696,"internal_node_id":"0.0-4.0-0.53","subject_id":"5f2f19dc87147c2fb8cc3e79","study_id":"6197b3f67c2b5cd3b6d9596a","session_id":"6197b9f2f9a18877c21149bf","condition":"contingent","relevant_dimensions":["pattern","legs"],"bee_group":{"antennae":"X","wings":"X","pattern":"D","legs":"F"},"action":"harvest","summary":"good-harvest","bonus":0.5800000000000008},{"rt":669.5,"stimulus":"\n                    <p><b>Action: <em>harvest</em></b></p>\n                    <p>This is the bee that you just saw.</p>\n                    <img src=\"bees-with-color/bee-B1SM.svg\" width=\"200\">\n                    <p><span class=\"greenText\"><b>Successful harvest!</b></span><br>Your pay has increased by $0.02. Your bonus pay is now $0.48.</p>\n            ","response":0,"trial_type":"html-button-response","trial_index":114,"time_elapsed":431368,"internal_node_id":"0.0-4.0-1.53","subject_id":"5f2f19dc87147c2fb8cc3e79","study_id":"6197b3f67c2b5cd3b6d9596a","session_id":"6197b9f2f9a18877c21149bf","condition":"contingent","relevant_dimensions":["pattern","legs"],"bee_group":{"antennae":"X","wings":"X","pattern":"D","legs":"F"},"bonus":0.5800000000000008},{"rt":965.6000000005588,"stimulus":"bees-with-color/bee-B2DF.svg","response":1,"trial_type":"image-button-response","trial_index":115,"time_elapsed":432336,"internal_node_id":"0.0-4.0-0.54","subject_id":"5f2f19dc87147c2fb8cc3e79","study_id":"6197b3f67c2b5cd3b6d9596a","session_id":"6197b9f2f9a18877c21149bf","condition":"contingent","relevant_dimensions":["pattern","legs"],"bee_group":{"antennae":"X","wings":"X","pattern":"D","legs":"F"},"action":"avoid","summary":"good-avoid","bonus":0.5800000000000008},{"rt":549.1999999992549,"stimulus":"\n                    <p><b>Action: <em>avoid</em></b></p>\n                    <p>This is the bee that you just saw.</p>\n                    <img src=\"bees-with-color/bee-B2DF.svg\" width=\"200\">\n                    <p><br>Your bonus pay is unchanged, and remains at $0.48.</p>\n            ","response":0,"trial_type":"html-button-response","trial_index":116,"time_elapsed":432888,"internal_node_id":"0.0-4.0-1.54","subject_id":"5f2f19dc87147c2fb8cc3e79","study_id":"6197b3f67c2b5cd3b6d9596a","session_id":"6197b9f2f9a18877c21149bf","condition":"contingent","relevant_dimensions":["pattern","legs"],"bee_group":{"antennae":"X","wings":"X","pattern":"D","legs":"F"},"bonus":0.5800000000000008},{"rt":16829.89999999944,"stimulus":"bees-with-color/bee-B1DM.svg","response":0,"trial_type":"image-button-response","trial_index":117,"time_elapsed":449720,"internal_node_id":"0.0-4.0-0.55","subject_id":"5f2f19dc87147c2fb8cc3e79","study_id":"6197b3f67c2b5cd3b6d9596a","session_id":"6197b9f2f9a18877c21149bf","condition":"contingent","relevant_dimensions":["pattern","legs"],"bee_group":{"antennae":"X","wings":"X","pattern":"D","legs":"F"},"action":"harvest","summary":"good-harvest","bonus":0.5800000000000008},{"rt":22533,"stimulus":"\n                    <p><b>Action: <em>harvest</em></b></p>\n                    <p>This is the bee that you just saw.</p>\n                    <img src=\"bees-with-color/bee-B1DM.svg\" width=\"200\">\n                    <p><span class=\"greenText\"><b>Successful harvest!</b></span><br>Your pay has increased by $0.02. Your bonus pay is now $0.50.</p>\n            ","response":0,"trial_type":"html-button-response","trial_index":118,"time_elapsed":472256,"internal_node_id":"0.0-4.0-1.55","subject_id":"5f2f19dc87147c2fb8cc3e79","study_id":"6197b3f67c2b5cd3b6d9596a","session_id":"6197b9f2f9a18877c21149bf","condition":"contingent","relevant_dimensions":["pattern","legs"],"bee_group":{"antennae":"X","wings":"X","pattern":"D","legs":"F"},"bonus":0.5800000000000008},{"rt":25132.799999999814,"stimulus":"bees-with-color/bee-B1DF.svg","response":0,"trial_type":"image-button-response","trial_index":119,"time_elapsed":497391,"internal_node_id":"0.0-4.0-0.56","subject_id":"5f2f19dc87147c2fb8cc3e79","study_id":"6197b3f67c2b5cd3b6d9596a","session_id":"6197b9f2f9a18877c21149bf","condition":"contingent","relevant_dimensions":["pattern","legs"],"bee_group":{"antennae":"X","wings":"X","pattern":"D","legs":"F"},"action":"harvest","summary":"bad-harvest","bonus":0.5800000000000008},{"rt":693.7999999998137,"stimulus":"\n                    <p><b>Action: <em>harvest</em></b></p>\n                    <p>This is the bee that you just saw.</p>\n                    <img src=\"bees-with-color/bee-B1DF.svg\" width=\"200\">\n                    <p><span class=\"redText\">Bad choice, the bee was angry.</span><br><b>You have been stung!</b><br>Your pay has been decreased by $0.10. Your bonus pay is now $0.40.</p>\n            ","response":0,"trial_type":"html-button-response","trial_index":120,"time_elapsed":498088,"internal_node_id":"0.0-4.0-1.56","subject_id":"5f2f19dc87147c2fb8cc3e79","study_id":"6197b3f67c2b5cd3b6d9596a","session_id":"6197b9f2f9a18877c21149bf","condition":"contingent","relevant_dimensions":["pattern","legs"],"bee_group":{"antennae":"X","wings":"X","pattern":"D","legs":"F"},"bonus":0.5800000000000008},{"rt":6932.799999999814,"stimulus":"bees-with-color/bee-A1SF.svg","response":0,"trial_type":"image-button-response","trial_index":121,"time_elapsed":505024,"internal_node_id":"0.0-4.0-0.57","subject_id":"5f2f19dc87147c2fb8cc3e79","study_id":"6197b3f67c2b5cd3b6d9596a","session_id":"6197b9f2f9a18877c21149bf","condition":"contingent","relevant_dimensions":["pattern","legs"],"bee_group":{"antennae":"X","wings":"X","pattern":"D","legs":"F"},"action":"harvest","summary":"good-harvest","bonus":0.5800000000000008},{"rt":654.1000000005588,"stimulus":"\n                    <p><b>Action: <em>harvest</em></b></p>\n                    <p>This is the bee that you just saw.</p>\n                    <img src=\"bees-with-color/bee-A1SF.svg\" width=\"200\">\n                    <p><span class=\"greenText\"><b>Successful harvest!</b></span><br>Your pay has increased by $0.02. Your bonus pay is now $0.42.</p>\n            ","response":0,"trial_type":"html-button-response","trial_index":122,"time_elapsed":505680,"internal_node_id":"0.0-4.0-1.57","subject_id":"5f2f19dc87147c2fb8cc3e79","study_id":"6197b3f67c2b5cd3b6d9596a","session_id":"6197b9f2f9a18877c21149bf","condition":"contingent","relevant_dimensions":["pattern","legs"],"bee_group":{"antennae":"X","wings":"X","pattern":"D","legs":"F"},"bonus":0.5800000000000008},{"rt":6045.5999999996275,"stimulus":"bees-with-color/bee-A1DM.svg","response":0,"trial_type":"image-button-response","trial_index":123,"time_elapsed":511728,"internal_node_id":"0.0-4.0-0.58","subject_id":"5f2f19dc87147c2fb8cc3e79","study_id":"6197b3f67c2b5cd3b6d9596a","session_id":"6197b9f2f9a18877c21149bf","condition":"contingent","relevant_dimensions":["pattern","legs"],"bee_group":{"antennae":"X","wings":"X","pattern":"D","legs":"F"},"action":"harvest","summary":"good-harvest","bonus":0.5800000000000008},{"rt":589.5,"stimulus":"\n                    <p><b>Action: <em>harvest</em></b></p>\n                    <p>This is the bee that you just saw.</p>\n                    <img src=\"bees-with-color/bee-A1DM.svg\" width=\"200\">\n                    <p><span class=\"greenText\"><b>Successful harvest!</b></span><br>Your pay has increased by $0.02. Your bonus pay is now $0.44.</p>\n            ","response":0,"trial_type":"html-button-response","trial_index":124,"time_elapsed":512320,"internal_node_id":"0.0-4.0-1.58","subject_id":"5f2f19dc87147c2fb8cc3e79","study_id":"6197b3f67c2b5cd3b6d9596a","session_id":"6197b9f2f9a18877c21149bf","condition":"contingent","relevant_dimensions":["pattern","legs"],"bee_group":{"antennae":"X","wings":"X","pattern":"D","legs":"F"},"bonus":0.5800000000000008},{"rt":3573.0999999996275,"stimulus":"bees-with-color/bee-B2SM.svg","response":0,"trial_type":"image-button-response","trial_index":125,"time_elapsed":515896,"internal_node_id":"0.0-4.0-0.59","subject_id":"5f2f19dc87147c2fb8cc3e79","study_id":"6197b3f67c2b5cd3b6d9596a","session_id":"6197b9f2f9a18877c21149bf","condition":"contingent","relevant_dimensions":["pattern","legs"],"bee_group":{"antennae":"X","wings":"X","pattern":"D","legs":"F"},"action":"harvest","summary":"good-harvest","bonus":0.5800000000000008},{"rt":933.3000000007451,"stimulus":"\n                    <p><b>Action: <em>harvest</em></b></p>\n                    <p>This is the bee that you just saw.</p>\n                    <img src=\"bees-with-color/bee-B2SM.svg\" width=\"200\">\n                    <p><span class=\"greenText\"><b>Successful harvest!</b></span><br>Your pay has increased by $0.02. Your bonus pay is now $0.46.</p>\n            ","response":0,"trial_type":"html-button-response","trial_index":126,"time_elapsed":516832,"internal_node_id":"0.0-4.0-1.59","subject_id":"5f2f19dc87147c2fb8cc3e79","study_id":"6197b3f67c2b5cd3b6d9596a","session_id":"6197b9f2f9a18877c21149bf","condition":"contingent","relevant_dimensions":["pattern","legs"],"bee_group":{"antennae":"X","wings":"X","pattern":"D","legs":"F"},"bonus":0.5800000000000008},{"rt":7557.600000000559,"stimulus":"bees-with-color/bee-A1DF.svg","response":1,"trial_type":"image-button-response","trial_index":127,"time_elapsed":524391,"internal_node_id":"0.0-4.0-0.60","subject_id":"5f2f19dc87147c2fb8cc3e79","study_id":"6197b3f67c2b5cd3b6d9596a","session_id":"6197b9f2f9a18877c21149bf","condition":"contingent","relevant_dimensions":["pattern","legs"],"bee_group":{"antennae":"X","wings":"X","pattern":"D","legs":"F"},"action":"avoid","summary":"good-avoid","bonus":0.5800000000000008},{"rt":765.7999999998137,"stimulus":"\n                    <p><b>Action: <em>avoid</em></b></p>\n                    <p>This is the bee that you just saw.</p>\n                    <img src=\"bees-with-color/bee-A1DF.svg\" width=\"200\">\n                    <p><br>Your bonus pay is unchanged, and remains at $0.46.</p>\n            ","response":0,"trial_type":"html-button-response","trial_index":128,"time_elapsed":525160,"internal_node_id":"0.0-4.0-1.60","subject_id":"5f2f19dc87147c2fb8cc3e79","study_id":"6197b3f67c2b5cd3b6d9596a","session_id":"6197b9f2f9a18877c21149bf","condition":"contingent","relevant_dimensions":["pattern","legs"],"bee_group":{"antennae":"X","wings":"X","pattern":"D","legs":"F"},"bonus":0.5800000000000008},{"rt":9141.600000000559,"stimulus":"bees-with-color/bee-A2DM.svg","response":1,"trial_type":"image-button-response","trial_index":129,"time_elapsed":534304,"internal_node_id":"0.0-4.0-0.61","subject_id":"5f2f19dc87147c2fb8cc3e79","study_id":"6197b3f67c2b5cd3b6d9596a","session_id":"6197b9f2f9a18877c21149bf","condition":"contingent","relevant_dimensions":["pattern","legs"],"bee_group":{"antennae":"X","wings":"X","pattern":"D","legs":"F"},"action":"avoid","summary":"bad-avoid","bonus":0.5800000000000008},{"rt":1229.5,"stimulus":"\n                    <p><b>Action: <em>avoid</em></b></p>\n                    <p>This is the bee that you just saw.</p>\n                    <img src=\"bees-with-color/bee-A2DM.svg\" width=\"200\">\n                    <p><br>Your bonus pay is unchanged, and remains at $0.46.</p>\n            ","response":0,"trial_type":"html-button-response","trial_index":130,"time_elapsed":535536,"internal_node_id":"0.0-4.0-1.61","subject_id":"5f2f19dc87147c2fb8cc3e79","study_id":"6197b3f67c2b5cd3b6d9596a","session_id":"6197b9f2f9a18877c21149bf","condition":"contingent","relevant_dimensions":["pattern","legs"],"bee_group":{"antennae":"X","wings":"X","pattern":"D","legs":"F"},"bonus":0.5800000000000008},{"rt":5133.200000000186,"stimulus":"bees-with-color/bee-B2SF.svg","response":1,"trial_type":"image-button-response","trial_index":131,"time_elapsed":540672,"internal_node_id":"0.0-4.0-0.62","subject_id":"5f2f19dc87147c2fb8cc3e79","study_id":"6197b3f67c2b5cd3b6d9596a","session_id":"6197b9f2f9a18877c21149bf","condition":"contingent","relevant_dimensions":["pattern","legs"],"bee_group":{"antennae":"X","wings":"X","pattern":"D","legs":"F"},"action":"avoid","summary":"bad-avoid","bonus":0.5800000000000008},{"rt":620.6000000005588,"stimulus":"\n                    <p><b>Action: <em>avoid</em></b></p>\n                    <p>This is the bee that you just saw.</p>\n                    <img src=\"bees-with-color/bee-B2SF.svg\" width=\"200\">\n                    <p><br>Your bonus pay is unchanged, and remains at $0.46.</p>\n            ","response":0,"trial_type":"html-button-response","trial_index":132,"time_elapsed":541296,"internal_node_id":"0.0-4.0-1.62","subject_id":"5f2f19dc87147c2fb8cc3e79","study_id":"6197b3f67c2b5cd3b6d9596a","session_id":"6197b9f2f9a18877c21149bf","condition":"contingent","relevant_dimensions":["pattern","legs"],"bee_group":{"antennae":"X","wings":"X","pattern":"D","legs":"F"},"bonus":0.5800000000000008},{"rt":6797.9000000003725,"stimulus":"bees-with-color/bee-A2SF.svg","response":0,"trial_type":"image-button-response","trial_index":133,"time_elapsed":548096,"internal_node_id":"0.0-4.0-0.63","subject_id":"5f2f19dc87147c2fb8cc3e79","study_id":"6197b3f67c2b5cd3b6d9596a","session_id":"6197b9f2f9a18877c21149bf","condition":"contingent","relevant_dimensions":["pattern","legs"],"bee_group":{"antennae":"X","wings":"X","pattern":"D","legs":"F"},"action":"harvest","summary":"good-harvest","bonus":0.5800000000000008},{"rt":860.5,"stimulus":"\n                    <p><b>Action: <em>harvest</em></b></p>\n                    <p>This is the bee that you just saw.</p>\n                    <img src=\"bees-with-color/bee-A2SF.svg\" width=\"200\">\n                    <p><span class=\"greenText\"><b>Successful harvest!</b></span><br>Your pay has increased by $0.02. Your bonus pay is now $0.48.</p>\n            ","response":0,"trial_type":"html-button-response","trial_index":134,"time_elapsed":548960,"internal_node_id":"0.0-4.0-1.63","subject_id":"5f2f19dc87147c2fb8cc3e79","study_id":"6197b3f67c2b5cd3b6d9596a","session_id":"6197b9f2f9a18877c21149bf","condition":"contingent","relevant_dimensions":["pattern","legs"],"bee_group":{"antennae":"X","wings":"X","pattern":"D","legs":"F"},"bonus":0.5800000000000008},{"rt":6578.5999999996275,"stimulus":"You have completed the first part of this experiment.<br><br>You will now begin a shorter second part, in which you will receive no feedback.<br>The same rules regarding bonus pay apply.<br><br>Press any key to begin.","response":"arrowright","trial_type":"html-keyboard-response","trial_index":135,"time_elapsed":555541,"internal_node_id":"0.0-5.0","subject_id":"5f2f19dc87147c2fb8cc3e79","study_id":"6197b3f67c2b5cd3b6d9596a","session_id":"6197b9f2f9a18877c21149bf","condition":"contingent","relevant_dimensions":["pattern","legs"],"bee_group":{"antennae":"X","wings":"X","pattern":"D","legs":"F"},"bonus":0.5800000000000008},{"rt":5455.799999999814,"stimulus":"bees-with-color/bee-A2SM.svg","response":1,"trial_type":"image-button-response","trial_index":136,"time_elapsed":561008,"internal_node_id":"0.0-6.0-0.0","subject_id":"5f2f19dc87147c2fb8cc3e79","study_id":"6197b3f67c2b5cd3b6d9596a","session_id":"6197b9f2f9a18877c21149bf","condition":"contingent","relevant_dimensions":["pattern","legs"],"bee_group":{"antennae":"X","wings":"X","pattern":"D","legs":"F"},"bonus":0.5800000000000008},{"rt":3763.2000000001863,"stimulus":"bees-with-color/bee-B2SM.svg","response":1,"trial_type":"image-button-response","trial_index":137,"time_elapsed":564776,"internal_node_id":"0.0-6.0-0.1","subject_id":"5f2f19dc87147c2fb8cc3e79","study_id":"6197b3f67c2b5cd3b6d9596a","session_id":"6197b9f2f9a18877c21149bf","condition":"contingent","relevant_dimensions":["pattern","legs"],"bee_group":{"antennae":"X","wings":"X","pattern":"D","legs":"F"},"bonus":0.5800000000000008},{"rt":6356.600000000559,"stimulus":"bees-with-color/bee-B1SF.svg","response":1,"trial_type":"image-button-response","trial_index":138,"time_elapsed":571136,"internal_node_id":"0.0-6.0-0.2","subject_id":"5f2f19dc87147c2fb8cc3e79","study_id":"6197b3f67c2b5cd3b6d9596a","session_id":"6197b9f2f9a18877c21149bf","condition":"contingent","relevant_dimensions":["pattern","legs"],"bee_group":{"antennae":"X","wings":"X","pattern":"D","legs":"F"},"bonus":0.5800000000000008},{"rt":1652.2000000001863,"stimulus":"bees-with-color/bee-B1DM.svg","response":1,"trial_type":"image-button-response","trial_index":139,"time_elapsed":572793,"internal_node_id":"0.0-6.0-0.3","subject_id":"5f2f19dc87147c2fb8cc3e79","study_id":"6197b3f67c2b5cd3b6d9596a","session_id":"6197b9f2f9a18877c21149bf","condition":"contingent","relevant_dimensions":["pattern","legs"],"bee_group":{"antennae":"X","wings":"X","pattern":"D","legs":"F"},"bonus":0.5800000000000008},{"rt":1499.5,"stimulus":"bees-with-color/bee-A1DF.svg","response":1,"trial_type":"image-button-response","trial_index":140,"time_elapsed":574296,"internal_node_id":"0.0-6.0-0.4","subject_id":"5f2f19dc87147c2fb8cc3e79","study_id":"6197b3f67c2b5cd3b6d9596a","session_id":"6197b9f2f9a18877c21149bf","condition":"contingent","relevant_dimensions":["pattern","legs"],"bee_group":{"antennae":"X","wings":"X","pattern":"D","legs":"F"},"bonus":0.5800000000000008},{"rt":3669,"stimulus":"bees-with-color/bee-A1SF.svg","response":1,"trial_type":"image-button-response","trial_index":141,"time_elapsed":577968,"internal_node_id":"0.0-6.0-0.5","subject_id":"5f2f19dc87147c2fb8cc3e79","study_id":"6197b3f67c2b5cd3b6d9596a","session_id":"6197b9f2f9a18877c21149bf","condition":"contingent","relevant_dimensions":["pattern","legs"],"bee_group":{"antennae":"X","wings":"X","pattern":"D","legs":"F"},"bonus":0.5800000000000008},{"rt":1099.7000000001863,"stimulus":"bees-with-color/bee-A1SM.svg","response":1,"trial_type":"image-button-response","trial_index":142,"time_elapsed":579072,"internal_node_id":"0.0-6.0-0.6","subject_id":"5f2f19dc87147c2fb8cc3e79","study_id":"6197b3f67c2b5cd3b6d9596a","session_id":"6197b9f2f9a18877c21149bf","condition":"contingent","relevant_dimensions":["pattern","legs"],"bee_group":{"antennae":"X","wings":"X","pattern":"D","legs":"F"},"bonus":0.5800000000000008},{"rt":685.0999999996275,"stimulus":"bees-with-color/bee-B2DF.svg","response":1,"trial_type":"image-button-response","trial_index":143,"time_elapsed":579760,"internal_node_id":"0.0-6.0-0.7","subject_id":"5f2f19dc87147c2fb8cc3e79","study_id":"6197b3f67c2b5cd3b6d9596a","session_id":"6197b9f2f9a18877c21149bf","condition":"contingent","relevant_dimensions":["pattern","legs"],"bee_group":{"antennae":"X","wings":"X","pattern":"D","legs":"F"},"bonus":0.5800000000000008},{"rt":652.5,"stimulus":"bees-with-color/bee-B2DM.svg","response":1,"trial_type":"image-button-response","trial_index":144,"time_elapsed":580416,"internal_node_id":"0.0-6.0-0.8","subject_id":"5f2f19dc87147c2fb8cc3e79","study_id":"6197b3f67c2b5cd3b6d9596a","session_id":"6197b9f2f9a18877c21149bf","condition":"contingent","relevant_dimensions":["pattern","legs"],"bee_group":{"antennae":"X","wings":"X","pattern":"D","legs":"F"},"bonus":0.5800000000000008},{"rt":508.40000000037253,"stimulus":"bees-with-color/bee-A1DM.svg","response":1,"trial_type":"image-button-response","trial_index":145,"time_elapsed":580928,"internal_node_id":"0.0-6.0-0.9","subject_id":"5f2f19dc87147c2fb8cc3e79","study_id":"6197b3f67c2b5cd3b6d9596a","session_id":"6197b9f2f9a18877c21149bf","condition":"contingent","relevant_dimensions":["pattern","legs"],"bee_group":{"antennae":"X","wings":"X","pattern":"D","legs":"F"},"bonus":0.5800000000000008},{"rt":452.90000000037253,"stimulus":"bees-with-color/bee-B1DF.svg","response":1,"trial_type":"image-button-response","trial_index":146,"time_elapsed":581384,"internal_node_id":"0.0-6.0-0.10","subject_id":"5f2f19dc87147c2fb8cc3e79","study_id":"6197b3f67c2b5cd3b6d9596a","session_id":"6197b9f2f9a18877c21149bf","condition":"contingent","relevant_dimensions":["pattern","legs"],"bee_group":{"antennae":"X","wings":"X","pattern":"D","legs":"F"},"bonus":0.5800000000000008},{"rt":1308.2999999998137,"stimulus":"bees-with-color/bee-A2DM.svg","response":1,"trial_type":"image-button-response","trial_index":147,"time_elapsed":582696,"internal_node_id":"0.0-6.0-0.11","subject_id":"5f2f19dc87147c2fb8cc3e79","study_id":"6197b3f67c2b5cd3b6d9596a","session_id":"6197b9f2f9a18877c21149bf","condition":"contingent","relevant_dimensions":["pattern","legs"],"bee_group":{"antennae":"X","wings":"X","pattern":"D","legs":"F"},"bonus":0.5800000000000008},{"rt":1141,"stimulus":"bees-with-color/bee-A2SF.svg","response":0,"trial_type":"image-button-response","trial_index":148,"time_elapsed":583840,"internal_node_id":"0.0-6.0-0.12","subject_id":"5f2f19dc87147c2fb8cc3e79","study_id":"6197b3f67c2b5cd3b6d9596a","session_id":"6197b9f2f9a18877c21149bf","condition":"contingent","relevant_dimensions":["pattern","legs"],"bee_group":{"antennae":"X","wings":"X","pattern":"D","legs":"F"},"bonus":0.5800000000000008},{"rt":1364.8999999994412,"stimulus":"bees-with-color/bee-A2DF.svg","response":1,"trial_type":"image-button-response","trial_index":149,"time_elapsed":585208,"internal_node_id":"0.0-6.0-0.13","subject_id":"5f2f19dc87147c2fb8cc3e79","study_id":"6197b3f67c2b5cd3b6d9596a","session_id":"6197b9f2f9a18877c21149bf","condition":"contingent","relevant_dimensions":["pattern","legs"],"bee_group":{"antennae":"X","wings":"X","pattern":"D","legs":"F"},"bonus":0.5800000000000008},{"rt":1109.0999999996275,"stimulus":"bees-with-color/bee-B1SM.svg","response":0,"trial_type":"image-button-response","trial_index":150,"time_elapsed":586320,"internal_node_id":"0.0-6.0-0.14","subject_id":"5f2f19dc87147c2fb8cc3e79","study_id":"6197b3f67c2b5cd3b6d9596a","session_id":"6197b9f2f9a18877c21149bf","condition":"contingent","relevant_dimensions":["pattern","legs"],"bee_group":{"antennae":"X","wings":"X","pattern":"D","legs":"F"},"bonus":0.5800000000000008},{"rt":1005.2000000001863,"stimulus":"bees-with-color/bee-B2SF.svg","response":1,"trial_type":"image-button-response","trial_index":151,"time_elapsed":587328,"internal_node_id":"0.0-6.0-0.15","subject_id":"5f2f19dc87147c2fb8cc3e79","study_id":"6197b3f67c2b5cd3b6d9596a","session_id":"6197b9f2f9a18877c21149bf","condition":"contingent","relevant_dimensions":["pattern","legs"],"bee_group":{"antennae":"X","wings":"X","pattern":"D","legs":"F"},"bonus":0.5800000000000008},{"rt":1557.5,"stimulus":"bees-with-color/bee-A1DM.svg","response":1,"trial_type":"image-button-response","trial_index":152,"time_elapsed":588888,"internal_node_id":"0.0-6.0-0.16","subject_id":"5f2f19dc87147c2fb8cc3e79","study_id":"6197b3f67c2b5cd3b6d9596a","session_id":"6197b9f2f9a18877c21149bf","condition":"contingent","relevant_dimensions":["pattern","legs"],"bee_group":{"antennae":"X","wings":"X","pattern":"D","legs":"F"},"bonus":0.5800000000000008},{"rt":677.2999999998137,"stimulus":"bees-with-color/bee-B2DM.svg","response":1,"trial_type":"image-button-response","trial_index":153,"time_elapsed":589568,"internal_node_id":"0.0-6.0-0.17","subject_id":"5f2f19dc87147c2fb8cc3e79","study_id":"6197b3f67c2b5cd3b6d9596a","session_id":"6197b9f2f9a18877c21149bf","condition":"contingent","relevant_dimensions":["pattern","legs"],"bee_group":{"antennae":"X","wings":"X","pattern":"D","legs":"F"},"bonus":0.5800000000000008},{"rt":621.3999999994412,"stimulus":"bees-with-color/bee-A1DF.svg","response":1,"trial_type":"image-button-response","trial_index":154,"time_elapsed":590192,"internal_node_id":"0.0-6.0-0.18","subject_id":"5f2f19dc87147c2fb8cc3e79","study_id":"6197b3f67c2b5cd3b6d9596a","session_id":"6197b9f2f9a18877c21149bf","condition":"contingent","relevant_dimensions":["pattern","legs"],"bee_group":{"antennae":"X","wings":"X","pattern":"D","legs":"F"},"bonus":0.5800000000000008},{"rt":1165.0999999996275,"stimulus":"bees-with-color/bee-A2SM.svg","response":0,"trial_type":"image-button-response","trial_index":155,"time_elapsed":591360,"internal_node_id":"0.0-6.0-0.19","subject_id":"5f2f19dc87147c2fb8cc3e79","study_id":"6197b3f67c2b5cd3b6d9596a","session_id":"6197b9f2f9a18877c21149bf","condition":"contingent","relevant_dimensions":["pattern","legs"],"bee_group":{"antennae":"X","wings":"X","pattern":"D","legs":"F"},"bonus":0.5800000000000008},{"rt":853.7999999998137,"stimulus":"bees-with-color/bee-A1SM.svg","response":1,"trial_type":"image-button-response","trial_index":156,"time_elapsed":592216,"internal_node_id":"0.0-6.0-0.20","subject_id":"5f2f19dc87147c2fb8cc3e79","study_id":"6197b3f67c2b5cd3b6d9596a","session_id":"6197b9f2f9a18877c21149bf","condition":"contingent","relevant_dimensions":["pattern","legs"],"bee_group":{"antennae":"X","wings":"X","pattern":"D","legs":"F"},"bonus":0.5800000000000008},{"rt":1117.2999999998137,"stimulus":"bees-with-color/bee-B1SM.svg","response":0,"trial_type":"image-button-response","trial_index":157,"time_elapsed":593336,"internal_node_id":"0.0-6.0-0.21","subject_id":"5f2f19dc87147c2fb8cc3e79","study_id":"6197b3f67c2b5cd3b6d9596a","session_id":"6197b9f2f9a18877c21149bf","condition":"contingent","relevant_dimensions":["pattern","legs"],"bee_group":{"antennae":"X","wings":"X","pattern":"D","legs":"F"},"bonus":0.5800000000000008},{"rt":533.7999999998137,"stimulus":"bees-with-color/bee-A2DM.svg","response":1,"trial_type":"image-button-response","trial_index":158,"time_elapsed":593872,"internal_node_id":"0.0-6.0-0.22","subject_id":"5f2f19dc87147c2fb8cc3e79","study_id":"6197b3f67c2b5cd3b6d9596a","session_id":"6197b9f2f9a18877c21149bf","condition":"contingent","relevant_dimensions":["pattern","legs"],"bee_group":{"antennae":"X","wings":"X","pattern":"D","legs":"F"},"bonus":0.5800000000000008},{"rt":484.79999999981374,"stimulus":"bees-with-color/bee-A2DF.svg","response":1,"trial_type":"image-button-response","trial_index":159,"time_elapsed":594360,"internal_node_id":"0.0-6.0-0.23","subject_id":"5f2f19dc87147c2fb8cc3e79","study_id":"6197b3f67c2b5cd3b6d9596a","session_id":"6197b9f2f9a18877c21149bf","condition":"contingent","relevant_dimensions":["pattern","legs"],"bee_group":{"antennae":"X","wings":"X","pattern":"D","legs":"F"},"bonus":0.5800000000000008},{"rt":453.6000000005588,"stimulus":"bees-with-color/bee-B2SF.svg","response":1,"trial_type":"image-button-response","trial_index":160,"time_elapsed":594816,"internal_node_id":"0.0-6.0-0.24","subject_id":"5f2f19dc87147c2fb8cc3e79","study_id":"6197b3f67c2b5cd3b6d9596a","session_id":"6197b9f2f9a18877c21149bf","condition":"contingent","relevant_dimensions":["pattern","legs"],"bee_group":{"antennae":"X","wings":"X","pattern":"D","legs":"F"},"bonus":0.5800000000000008},{"rt":701.2999999998137,"stimulus":"bees-with-color/bee-B2DF.svg","response":1,"trial_type":"image-button-response","trial_index":161,"time_elapsed":595520,"internal_node_id":"0.0-6.0-0.25","subject_id":"5f2f19dc87147c2fb8cc3e79","study_id":"6197b3f67c2b5cd3b6d9596a","session_id":"6197b9f2f9a18877c21149bf","condition":"contingent","relevant_dimensions":["pattern","legs"],"bee_group":{"antennae":"X","wings":"X","pattern":"D","legs":"F"},"bonus":0.5800000000000008},{"rt":597.6000000005588,"stimulus":"bees-with-color/bee-B1DF.svg","response":1,"trial_type":"image-button-response","trial_index":162,"time_elapsed":596120,"internal_node_id":"0.0-6.0-0.26","subject_id":"5f2f19dc87147c2fb8cc3e79","study_id":"6197b3f67c2b5cd3b6d9596a","session_id":"6197b9f2f9a18877c21149bf","condition":"contingent","relevant_dimensions":["pattern","legs"],"bee_group":{"antennae":"X","wings":"X","pattern":"D","legs":"F"},"bonus":0.5800000000000008},{"rt":1678.1000000005588,"stimulus":"bees-with-color/bee-B1DM.svg","response":1,"trial_type":"image-button-response","trial_index":163,"time_elapsed":597801,"internal_node_id":"0.0-6.0-0.27","subject_id":"5f2f19dc87147c2fb8cc