[{"success":true,"trial_type":"fullscreen","trial_index":0,"time_elapsed":15953,"internal_node_id":"0.0-0.0","subject_id":"5ff770a55da4c74077bd26ad","study_id":"6197b3f67c2b5cd3b6d9596a","session_id":"6197b9f20fffcf327b309611","condition":"full-information","relevant_dimensions":["pattern","legs"],"bee_group":{"antennae":"X","wings":"X","pattern":"S","legs":"M"},"bonus":0.08},{"success":true,"timeout":false,"failed_images":[],"failed_audio":[],"failed_video":[],"trial_type":"preload","trial_index":1,"time_elapsed":16418,"internal_node_id":"0.0-1.0","subject_id":"5ff770a55da4c74077bd26ad","study_id":"6197b3f67c2b5cd3b6d9596a","session_id":"6197b9f20fffcf327b309611","condition":"full-information","relevant_dimensions":["pattern","legs"],"bee_group":{"antennae":"X","wings":"X","pattern":"S","legs":"M"},"bonus":0.08},{"rt":1347.0999999940395,"stimulus":"Welcome! Press any key to begin.","response":" ","trial_type":"html-keyboard-response","trial_index":2,"time_elapsed":17766,"internal_node_id":"0.0-2.0","subject_id":"5ff770a55da4c74077bd26ad","study_id":"6197b3f67c2b5cd3b6d9596a","session_id":"6197b9f20fffcf327b309611","condition":"full-information","relevant_dimensions":["pattern","legs"],"bee_group":{"antennae":"X","wings":"X","pattern":"S","legs":"M"},"bonus":0.08},{"view_history":[{"page_index":0,"viewing_time":2273.2000000178814},{"page_index":1,"viewing_time":5195.9000000059605},{"page_index":2,"viewing_time":6852.0999999940395},{"page_index":3,"viewing_time":4235.9000000059605},{"page_index":4,"viewing_time":4139.899999976158},{"page_index":5,"viewing_time":5472.100000023842},{"page_index":6,"viewing_time":4919.899999976158},{"page_index":7,"viewing_time":2880.100000023842},{"page_index":8,"viewing_time":3755.899999976158},{"page_index":9,"viewing_time":3828.100000023842},{"page_index":10,"viewing_time":1844},{"page_index":11,"viewing_time":5460},{"page_index":12,"viewing_time":5844},{"page_index":13,"viewing_time":1019.8999999761581},{"page_index":14,"viewing_time":1200}],"rt":58921.20000001788,"trial_type":"instructions","trial_index":3,"time_elapsed":76687,"internal_node_id":"0.0-3.0-0.0","subject_id":"5ff770a55da4c74077bd26ad","study_id":"6197b3f67c2b5cd3b6d9596a","session_id":"6197b9f20fffcf327b309611","condition":"full-information","relevant_dimensions":["pattern","legs"],"bee_group":{"antennae":"X","wings":"X","pattern":"S","legs":"M"},"bonus":0.08},{"rt":10233.299999982119,"response":{"Q0":["Two or six legs","Stripes or spots on body","Single or double wings","Antennae or no antennae"]},"question_order":[0],"trial_type":"survey-multi-select","trial_index":4,"time_elapsed":86924,"internal_node_id":"0.0-3.0-1.0","subject_id":"5ff770a55da4c74077bd26ad","study_id":"6197b3f67c2b5cd3b6d9596a","session_id":"6197b9f20fffcf327b309611","condition":"full-information","relevant_dimensions":["pattern","legs"],"bee_group":{"antennae":"X","wings":"X","pattern":"S","legs":"M"},"correct":true,"bonus":0.08},{"rt":15250.40000000596,"response":{"Q1":"No.","Q2":"Based on the four features of the bee.","Q3":"You learn if it was friendly or dangerous, but do not alter your bonus."},"question_order":[0,1,2],"trial_type":"survey-multi-choice","trial_index":5,"time_elapsed":102176,"internal_node_id":"0.0-3.0-2.0","subject_id":"5ff770a55da4c74077bd26ad","study_id":"6197b3f67c2b5cd3b6d9596a","session_id":"6197b9f20fffcf327b309611","condition":"full-information","relevant_dimensions":["pattern","legs"],"bee_group":{"antennae":"X","wings":"X","pattern":"S","legs":"M"},"correct":true,"bonus":0.08},{"rt":1966.5,"stimulus":"<p>Congrats, you got everything right<br>When you're ready, click the button below to continue to the experiment.</p>","response":0,"trial_type":"html-button-response","trial_index":6,"time_elapsed":104143,"internal_node_id":"0.0-3.0-3.0","subject_id":"5ff770a55da4c74077bd26ad","study_id":"6197b3f67c2b5cd3b6d9596a","session_id":"6197b9f20fffcf327b309611","condition":"full-information","relevant_dimensions":["pattern","legs"],"bee_group":{"antennae":"X","wings":"X","pattern":"S","legs":"M"},"bonus":0.08},{"rt":5914.300000011921,"stimulus":"bees-with-color/bee-A2SM.svg","response":1,"trial_type":"image-button-response","trial_index":7,"time_elapsed":110059,"internal_node_id":"0.0-4.0-0.0","subject_id":"5ff770a55da4c74077bd26ad","study_id":"6197b3f67c2b5cd3b6d9596a","session_id":"6197b9f20fffcf327b309611","condition":"full-information","relevant_dimensions":["pattern","legs"],"bee_group":{"antennae":"X","wings":"X","pattern":"S","legs":"M"},"action":"avoid","summary":"good-avoid","bonus":0.08},{"rt":5962.199999988079,"stimulus":"\n                    <p><b>Action: <em>avoid</em></b></p>\n                    <p>This is the bee that you just saw.</p>\n                    <img src=\"bees-with-color/bee-A2SM.svg\" width=\"200\">\n                    <p><span class=\"greenText\">Good choice!</span>  This bee would have stung you.<br>Your bonus pay is unchanged, and remains at $0.54.</p>\n            ","response":0,"trial_type":"html-button-response","trial_index":8,"time_elapsed":116023,"internal_node_id":"0.0-4.0-1.0","subject_id":"5ff770a55da4c74077bd26ad","study_id":"6197b3f67c2b5cd3b6d9596a","session_id":"6197b9f20fffcf327b309611","condition":"full-information","relevant_dimensions":["pattern","legs"],"bee_group":{"antennae":"X","wings":"X","pattern":"S","legs":"M"},"bonus":0.08},{"rt":2038.5,"stimulus":"bees-with-color/bee-A1DF.svg","response":1,"trial_type":"image-button-response","trial_index":9,"time_elapsed":118063,"internal_node_id":"0.0-4.0-0.1","subject_id":"5ff770a55da4c74077bd26ad","study_id":"6197b3f67c2b5cd3b6d9596a","session_id":"6197b9f20fffcf327b309611","condition":"full-information","relevant_dimensions":["pattern","legs"],"bee_group":{"antennae":"X","wings":"X","pattern":"S","legs":"M"},"action":"avoid","summary":"bad-avoid","bonus":0.08},{"rt":6742.799999982119,"stimulus":"\n                    <p><b>Action: <em>avoid</em></b></p>\n                    <p>This is the bee that you just saw.</p>\n                    <img src=\"bees-with-color/bee-A1DF.svg\" width=\"200\">\n                    <p><span class=\"redText\">Bad choice,</span> the bee was friendly.<br>Your bonus pay is unchanged, and remains at $0.54.</p>\n            ","response":0,"trial_type":"html-button-response","trial_index":10,"time_elapsed":124807,"internal_node_id":"0.0-4.0-1.1","subject_id":"5ff770a55da4c74077bd26ad","study_id":"6197b3f67c2b5cd3b6d9596a","session_id":"6197b9f20fffcf327b309611","condition":"full-information","relevant_dimensions":["pattern","legs"],"bee_group":{"antennae":"X","wings":"X","pattern":"S","legs":"M"},"bonus":0.08},{"rt":2242.5,"stimulus":"bees-with-color/bee-A2DF.svg","response":1,"trial_type":"image-button-response","trial_index":11,"time_elapsed":127051,"internal_node_id":"0.0-4.0-0.2","subject_id":"5ff770a55da4c74077bd26ad","study_id":"6197b3f67c2b5cd3b6d9596a","session_id":"6197b9f20fffcf327b309611","condition":"full-information","relevant_dimensions":["pattern","legs"],"bee_group":{"antennae":"X","wings":"X","pattern":"S","legs":"M"},"action":"avoid","summary":"bad-avoid","bonus":0.08},{"rt":3346.899999976158,"stimulus":"\n                    <p><b>Action: <em>avoid</em></b></p>\n                    <p>This is the bee that you just saw.</p>\n                    <img src=\"bees-with-color/bee-A2DF.svg\" width=\"200\">\n                    <p><span class=\"redText\">Bad choice,</span> the bee was friendly.<br>Your bonus pay is unchanged, and remains at $0.54.</p>\n            ","response":0,"trial_type":"html-button-response","trial_index":12,"time_elapsed":130399,"internal_node_id":"0.0-4.0-1.2","subject_id":"5ff770a55da4c74077bd26ad","study_id":"6197b3f67c2b5cd3b6d9596a","session_id":"6197b9f20fffcf327b309611","condition":"full-information","relevant_dimensions":["pattern","legs"],"bee_group":{"antennae":"X","wings":"X","pattern":"S","legs":"M"},"bonus":0.08},{"rt":3118.7999999821186,"stimulus":"bees-with-color/bee-B1DF.svg","response":1,"trial_type":"image-button-response","trial_index":13,"time_elapsed":133519,"internal_node_id":"0.0-4.0-0.3","subject_id":"5ff770a55da4c74077bd26ad","study_id":"6197b3f67c2b5cd3b6d9596a","session_id":"6197b9f20fffcf327b309611","condition":"full-information","relevant_dimensions":["pattern","legs"],"bee_group":{"antennae":"X","wings":"X","pattern":"S","legs":"M"},"action":"avoid","summary":"bad-avoid","bonus":0.08},{"rt":2459,"stimulus":"\n                    <p><b>Action: <em>avoid</em></b></p>\n                    <p>This is the bee that you just saw.</p>\n                    <img src=\"bees-with-color/bee-B1DF.svg\" width=\"200\">\n                    <p><span class=\"redText\">Bad choice,</span> the bee was friendly.<br>Your bonus pay is unchanged, and remains at $0.54.</p>\n            ","response":0,"trial_type":"html-button-response","trial_index":14,"time_elapsed":135979,"internal_node_id":"0.0-4.0-1.3","subject_id":"5ff770a55da4c74077bd26ad","study_id":"6197b3f67c2b5cd3b6d9596a","session_id":"6197b9f20fffcf327b309611","condition":"full-information","relevant_dimensions":["pattern","legs"],"bee_group":{"antennae":"X","wings":"X","pattern":"S","legs":"M"},"bonus":0.08},{"rt":1414.699999988079,"stimulus":"bees-with-color/bee-B2DM.svg","response":1,"trial_type":"image-button-response","trial_index":15,"time_elapsed":137395,"internal_node_id":"0.0-4.0-0.4","subject_id":"5ff770a55da4c74077bd26ad","study_id":"6197b3f67c2b5cd3b6d9596a","session_id":"6197b9f20fffcf327b309611","condition":"full-information","relevant_dimensions":["pattern","legs"],"bee_group":{"antennae":"X","wings":"X","pattern":"S","legs":"M"},"action":"avoid","summary":"bad-avoid","bonus":0.08},{"rt":7234.9000000059605,"stimulus":"\n                    <p><b>Action: <em>avoid</em></b></p>\n                    <p>This is the bee that you just saw.</p>\n                    <img src=\"bees-with-color/bee-B2DM.svg\" width=\"200\">\n                    <p><span class=\"redText\">Bad choice,</span> the bee was friendly.<br>Your bonus pay is unchanged, and remains at $0.54.</p>\n            ","response":0,"trial_type":"html-button-response","trial_index":16,"time_elapsed":144631,"internal_node_id":"0.0-4.0-1.4","subject_id":"5ff770a55da4c74077bd26ad","study_id":"6197b3f67c2b5cd3b6d9596a","session_id":"6197b9f20fffcf327b309611","condition":"full-information","relevant_dimensions":["pattern","legs"],"bee_group":{"antennae":"X","wings":"X","pattern":"S","legs":"M"},"bonus":0.08},{"rt":1594.7999999821186,"stimulus":"bees-with-color/bee-A1SF.svg","response":1,"trial_type":"image-button-response","trial_index":17,"time_elapsed":146227,"internal_node_id":"0.0-4.0-0.5","subject_id":"5ff770a55da4c74077bd26ad","study_id":"6197b3f67c2b5cd3b6d9596a","session_id":"6197b9f20fffcf327b309611","condition":"full-information","relevant_dimensions":["pattern","legs"],"bee_group":{"antennae":"X","wings":"X","pattern":"S","legs":"M"},"action":"avoid","summary":"bad-avoid","bonus":0.08},{"rt":4546.799999982119,"stimulus":"\n                    <p><b>Action: <em>avoid</em></b></p>\n                    <p>This is the bee that you just saw.</p>\n                    <img src=\"bees-with-color/bee-A1SF.svg\" width=\"200\">\n                    <p><span class=\"redText\">Bad choice,</span> the bee was friendly.<br>Your bonus pay is unchanged, and remains at $0.54.</p>\n            ","response":0,"trial_type":"html-button-response","trial_index":18,"time_elapsed":150775,"internal_node_id":"0.0-4.0-1.5","subject_id":"5ff770a55da4c74077bd26ad","study_id":"6197b3f67c2b5cd3b6d9596a","session_id":"6197b9f20fffcf327b309611","condition":"full-information","relevant_dimensions":["pattern","legs"],"bee_group":{"antennae":"X","wings":"X","pattern":"S","legs":"M"},"bonus":0.08},{"rt":1330.300000011921,"stimulus":"bees-with-color/bee-B2DF.svg","response":1,"trial_type":"image-button-response","trial_index":19,"time_elapsed":152107,"internal_node_id":"0.0-4.0-0.6","subject_id":"5ff770a55da4c74077bd26ad","study_id":"6197b3f67c2b5cd3b6d9596a","session_id":"6197b9f20fffcf327b309611","condition":"full-information","relevant_dimensions":["pattern","legs"],"bee_group":{"antennae":"X","wings":"X","pattern":"S","legs":"M"},"action":"avoid","summary":"bad-avoid","bonus":0.08},{"rt":982.8999999761581,"stimulus":"\n                    <p><b>Action: <em>avoid</em></b></p>\n                    <p>This is the bee that you just saw.</p>\n                    <img src=\"bees-with-color/bee-B2DF.svg\" width=\"200\">\n                    <p><span class=\"redText\">Bad choice,</span> the bee was friendly.<br>Your bonus pay is unchanged, and remains at $0.54.</p>\n            ","response":0,"trial_type":"html-button-response","trial_index":20,"time_elapsed":153092,"internal_node_id":"0.0-4.0-1.6","subject_id":"5ff770a55da4c74077bd26ad","study_id":"6197b3f67c2b5cd3b6d9596a","session_id":"6197b9f20fffcf327b309611","condition":"full-information","relevant_dimensions":["pattern","legs"],"bee_group":{"antennae":"X","wings":"X","pattern":"S","legs":"M"},"bonus":0.08},{"rt":1282.5,"stimulus":"bees-with-color/bee-B1SM.svg","response":0,"trial_type":"image-button-response","trial_index":21,"time_elapsed":154375,"internal_node_id":"0.0-4.0-0.7","subject_id":"5ff770a55da4c74077bd26ad","study_id":"6197b3f67c2b5cd3b6d9596a","session_id":"6197b9f20fffcf327b309611","condition":"full-information","relevant_dimensions":["pattern","legs"],"bee_group":{"antennae":"X","wings":"X","pattern":"S","legs":"M"},"action":"harvest","summary":"bad-harvest","bonus":0.08},{"rt":1950.7999999821186,"stimulus":"\n                    <p><b>Action: <em>harvest</em></b></p>\n                    <p>This is the bee that you just saw.</p>\n                    <img src=\"bees-with-color/bee-B1SM.svg\" width=\"200\">\n                    <p><span class=\"redText\">Bad choice, the bee was angry.</span><br><b>You have been stung!</b><br>Your pay has been decreased by $0.10. Your bonus pay is now $0.44.</p>\n            ","response":0,"trial_type":"html-button-response","trial_index":22,"time_elapsed":156327,"internal_node_id":"0.0-4.0-1.7","subject_id":"5ff770a55da4c74077bd26ad","study_id":"6197b3f67c2b5cd3b6d9596a","session_id":"6197b9f20fffcf327b309611","condition":"full-information","relevant_dimensions":["pattern","legs"],"bee_group":{"antennae":"X","wings":"X","pattern":"S","legs":"M"},"bonus":0.08},{"rt":1306.699999988079,"stimulus":"bees-with-color/bee-B2SM.svg","response":0,"trial_type":"image-button-response","trial_index":23,"time_elapsed":157635,"internal_node_id":"0.0-4.0-0.8","subject_id":"5ff770a55da4c74077bd26ad","study_id":"6197b3f67c2b5cd3b6d9596a","session_id":"6197b9f20fffcf327b309611","condition":"full-information","relevant_dimensions":["pattern","legs"],"bee_group":{"antennae":"X","wings":"X","pattern":"S","legs":"M"},"action":"harvest","summary":"bad-harvest","bonus":0.08},{"rt":1030.7999999821186,"stimulus":"\n                    <p><b>Action: <em>harvest</em></b></p>\n                    <p>This is the bee that you just saw.</p>\n                    <img src=\"bees-with-color/bee-B2SM.svg\" width=\"200\">\n                    <p><span class=\"redText\">Bad choice, the bee was angry.</span><br><b>You have been stung!</b><br>Your pay has been decreased by $0.10. Your bonus pay is now $0.34.</p>\n            ","response":0,"trial_type":"html-button-response","trial_index":24,"time_elapsed":158667,"internal_node_id":"0.0-4.0-1.8","subject_id":"5ff770a55da4c74077bd26ad","study_id":"6197b3f67c2b5cd3b6d9596a","session_id":"6197b9f20fffcf327b309611","condition":"full-information","relevant_dimensions":["pattern","legs"],"bee_group":{"antennae":"X","wings":"X","pattern":"S","legs":"M"},"bonus":0.08},{"rt":791.0999999940395,"stimulus":"bees-with-color/bee-A2DM.svg","response":1,"trial_type":"image-button-response","trial_index":25,"time_elapsed":159459,"internal_node_id":"0.0-4.0-0.9","subject_id":"5ff770a55da4c74077bd26ad","study_id":"6197b3f67c2b5cd3b6d9596a","session_id":"6197b9f20fffcf327b309611","condition":"full-information","relevant_dimensions":["pattern","legs"],"bee_group":{"antennae":"X","wings":"X","pattern":"S","legs":"M"},"action":"avoid","summary":"bad-avoid","bonus":0.08},{"rt":1858.9000000059605,"stimulus":"\n                    <p><b>Action: <em>avoid</em></b></p>\n                    <p>This is the bee that you just saw.</p>\n                    <img src=\"bees-with-color/bee-A2DM.svg\" width=\"200\">\n                    <p><span class=\"redText\">Bad choice,</span> the bee was friendly.<br>Your bonus pay is unchanged, and remains at $0.34.</p>\n            ","response":0,"trial_type":"html-button-response","trial_index":26,"time_elapsed":161319,"internal_node_id":"0.0-4.0-1.9","subject_id":"5ff770a55da4c74077bd26ad","study_id":"6197b3f67c2b5cd3b6d9596a","session_id":"6197b9f20fffcf327b309611","condition":"full-information","relevant_dimensions":["pattern","legs"],"bee_group":{"antennae":"X","wings":"X","pattern":"S","legs":"M"},"bonus":0.08},{"rt":1379,"stimulus":"bees-with-color/bee-A1DM.svg","response":0,"trial_type":"image-button-response","trial_index":27,"time_elapsed":162699,"internal_node_id":"0.0-4.0-0.10","subject_id":"5ff770a55da4c74077bd26ad","study_id":"6197b3f67c2b5cd3b6d9596a","session_id":"6197b9f20fffcf327b309611","condition":"full-information","relevant_dimensions":["pattern","legs"],"bee_group":{"antennae":"X","wings":"X","pattern":"S","legs":"M"},"action":"harvest","summary":"good-harvest","bonus":0.08},{"rt":10702.90000000596,"stimulus":"\n                    <p><b>Action: <em>harvest</em></b></p>\n                    <p>This is the bee that you just saw.</p>\n                    <img src=\"bees-with-color/bee-A1DM.svg\" width=\"200\">\n                    <p><span class=\"greenText\"><b>Successful harvest!</b></span><br>Your pay has increased by $0.02. Your bonus pay is now $0.36.</p>\n            ","response":0,"trial_type":"html-button-response","trial_index":28,"time_elapsed":173403,"internal_node_id":"0.0-4.0-1.10","subject_id":"5ff770a55da4c74077bd26ad","study_id":"6197b3f67c2b5cd3b6d9596a","session_id":"6197b9f20fffcf327b309611","condition":"full-information","relevant_dimensions":["pattern","legs"],"bee_group":{"antennae":"X","wings":"X","pattern":"S","legs":"M"},"bonus":0.08},{"rt":4175.100000023842,"stimulus":"bees-with-color/bee-B1DM.svg","response":0,"trial_type":"image-button-response","trial_index":29,"time_elapsed":177579,"internal_node_id":"0.0-4.0-0.11","subject_id":"5ff770a55da4c74077bd26ad","study_id":"6197b3f67c2b5cd3b6d9596a","session_id":"6197b9f20fffcf327b309611","condition":"full-information","relevant_dimensions":["pattern","legs"],"bee_group":{"antennae":"X","wings":"X","pattern":"S","legs":"M"},"action":"harvest","summary":"good-harvest","bonus":0.08},{"rt":5206.9000000059605,"stimulus":"\n                    <p><b>Action: <em>harvest</em></b></p>\n                    <p>This is the bee that you just saw.</p>\n                    <img src=\"bees-with-color/bee-B1DM.svg\" width=\"200\">\n                    <p><span class=\"greenText\"><b>Successful harvest!</b></span><br>Your pay has increased by $0.02. Your bonus pay is now $0.38.</p>\n            ","response":0,"trial_type":"html-button-response","trial_index":30,"time_elapsed":182787,"internal_node_id":"0.0-4.0-1.11","subject_id":"5ff770a55da4c74077bd26ad","study_id":"6197b3f67c2b5cd3b6d9596a","session_id":"6197b9f20fffcf327b309611","condition":"full-information","relevant_dimensions":["pattern","legs"],"bee_group":{"antennae":"X","wings":"X","pattern":"S","legs":"M"},"bonus":0.08},{"rt":2386.9000000059605,"stimulus":"bees-with-color/bee-A2SF.svg","response":1,"trial_type":"image-button-response","trial_index":31,"time_elapsed":185175,"internal_node_id":"0.0-4.0-0.12","subject_id":"5ff770a55da4c74077bd26ad","study_id":"6197b3f67c2b5cd3b6d9596a","session_id":"6197b9f20fffcf327b309611","condition":"full-information","relevant_dimensions":["pattern","legs"],"bee_group":{"antennae":"X","wings":"X","pattern":"S","legs":"M"},"action":"avoid","summary":"bad-avoid","bonus":0.08},{"rt":10259.09999999404,"stimulus":"\n                    <p><b>Action: <em>avoid</em></b></p>\n                    <p>This is the bee that you just saw.</p>\n                    <img src=\"bees-with-color/bee-A2SF.svg\" width=\"200\">\n                    <p><span class=\"redText\">Bad choice,</span> the bee was friendly.<br>Your bonus pay is unchanged, and remains at $0.38.</p>\n            ","response":0,"trial_type":"html-button-response","trial_index":32,"time_elapsed":195435,"internal_node_id":"0.0-4.0-1.12","subject_id":"5ff770a55da4c74077bd26ad","study_id":"6197b3f67c2b5cd3b6d9596a","session_id":"6197b9f20fffcf327b309611","condition":"full-information","relevant_dimensions":["pattern","legs"],"bee_group":{"antennae":"X","wings":"X","pattern":"S","legs":"M"},"bonus":0.08},{"rt":2182.7999999821186,"stimulus":"bees-with-color/bee-B2SF.svg","response":0,"trial_type":"image-button-response","trial_index":33,"time_elapsed":197619,"internal_node_id":"0.0-4.0-0.13","subject_id":"5ff770a55da4c74077bd26ad","study_id":"6197b3f67c2b5cd3b6d9596a","session_id":"6197b9f20fffcf327b309611","condition":"full-information","relevant_dimensions":["pattern","legs"],"bee_group":{"antennae":"X","wings":"X","pattern":"S","legs":"M"},"action":"harvest","summary":"good-harvest","bonus":0.08},{"rt":2458.9000000059605,"stimulus":"\n                    <p><b>Action: <em>harvest</em></b></p>\n                    <p>This is the bee that you just saw.</p>\n                    <img src=\"bees-with-color/bee-B2SF.svg\" width=\"200\">\n                    <p><span class=\"greenText\"><b>Successful harvest!</b></span><br>Your pay has increased by $0.02. Your bonus pay is now $0.40.</p>\n            ","response":0,"trial_type":"html-button-response","trial_index":34,"time_elapsed":200079,"internal_node_id":"0.0-4.0-1.13","subject_id":"5ff770a55da4c74077bd26ad","study_id":"6197b3f67c2b5cd3b6d9596a","session_id":"6197b9f20fffcf327b309611","condition":"full-information","relevant_dimensions":["pattern","legs"],"bee_group":{"antennae":"X","wings":"X","pattern":"S","legs":"M"},"bonus":0.08},{"rt":1246.9000000059605,"stimulus":"bees-with-color/bee-B1SF.svg","response":1,"trial_type":"image-button-response","trial_index":35,"time_elapsed":201327,"internal_node_id":"0.0-4.0-0.14","subject_id":"5ff770a55da4c74077bd26ad","study_id":"6197b3f67c2b5cd3b6d9596a","session_id":"6197b9f20fffcf327b309611","condition":"full-information","relevant_dimensions":["pattern","legs"],"bee_group":{"antennae":"X","wings":"X","pattern":"S","legs":"M"},"action":"avoid","summary":"bad-avoid","bonus":0.08},{"rt":15202.90000000596,"stimulus":"\n                    <p><b>Action: <em>avoid</em></b></p>\n                    <p>This is the bee that you just saw.</p>\n                    <img src=\"bees-with-color/bee-B1SF.svg\" width=\"200\">\n                    <p><span class=\"redText\">Bad choice,</span> the bee was friendly.<br>Your bonus pay is unchanged, and remains at $0.40.</p>\n            ","response":0,"trial_type":"html-button-response","trial_index":36,"time_elapsed":216532,"internal_node_id":"0.0-4.0-1.14","subject_id":"5ff770a55da4c74077bd26ad","study_id":"6197b3f67c2b5cd3b6d9596a","session_id":"6197b9f20fffcf327b309611","condition":"full-information","relevant_dimensions":["pattern","legs"],"bee_group":{"antennae":"X","wings":"X","pattern":"S","legs":"M"},"bonus":0.08},{"rt":2626.5,"stimulus":"bees-with-color/bee-A1SM.svg","response":0,"trial_type":"image-button-response","trial_index":37,"time_elapsed":219159,"internal_node_id":"0.0-4.0-0.15","subject_id":"5ff770a55da4c74077bd26ad","study_id":"6197b3f67c2b5cd3b6d9596a","session_id":"6197b9f20fffcf327b309611","condition":"full-information","relevant_dimensions":["pattern","legs"],"bee_group":{"antennae":"X","wings":"X","pattern":"S","legs":"M"},"action":"harvest","summary":"bad-harvest","bonus":0.08},{"rt":1043.0999999940395,"stimulus":"\n                    <p><b>Action: <em>harvest</em></b></p>\n                    <p>This is the bee that you just saw.</p>\n                    <img src=\"bees-with-color/bee-A1SM.svg\" width=\"200\">\n                    <p><span class=\"redText\">Bad choice, the bee was angry.</span><br><b>You have been stung!</b><br>Your pay has been decreased by $0.10. Your bonus pay is now $0.30.</p>\n            ","response":0,"trial_type":"html-button-response","trial_index":38,"time_elapsed":220204,"internal_node_id":"0.0-4.0-1.15","subject_id":"5ff770a55da4c74077bd26ad","study_id":"6197b3f67c2b5cd3b6d9596a","session_id":"6197b9f20fffcf327b309611","condition":"full-information","relevant_dimensions":["pattern","legs"],"bee_group":{"antennae":"X","wings":"X","pattern":"S","legs":"M"},"bonus":0.08},{"rt":9718.90000000596,"stimulus":"bees-with-color/bee-B2DF.svg","response":0,"trial_type":"image-button-response","trial_index":39,"time_elapsed":229924,"internal_node_id":"0.0-4.0-0.16","subject_id":"5ff770a55da4c74077bd26ad","study_id":"6197b3f67c2b5cd3b6d9596a","session_id":"6197b9f20fffcf327b309611","condition":"full-information","relevant_dimensions":["pattern","legs"],"bee_group":{"antennae":"X","wings":"X","pattern":"S","legs":"M"},"action":"harvest","summary":"good-harvest","bonus":0.08},{"rt":4954.5999999940395,"stimulus":"\n                    <p><b>Action: <em>harvest</em></b></p>\n                    <p>This is the bee that you just saw.</p>\n                    <img src=\"bees-with-color/bee-B2DF.svg\" width=\"200\">\n                    <p><span class=\"greenText\"><b>Successful harvest!</b></span><br>Your pay has increased by $0.02. Your bonus pay is now $0.32.</p>\n            ","response":0,"trial_type":"html-button-response","trial_index":40,"time_elapsed":234879,"internal_node_id":"0.0-4.0-1.16","subject_id":"5ff770a55da4c74077bd26ad","study_id":"6197b3f67c2b5cd3b6d9596a","session_id":"6197b9f20fffcf327b309611","condition":"full-information","relevant_dimensions":["pattern","legs"],"bee_group":{"antennae":"X","wings":"X","pattern":"S","legs":"M"},"bonus":0.08},{"rt":1354.8999999761581,"stimulus":"bees-with-color/bee-A1DF.svg","response":0,"trial_type":"image-button-response","trial_index":41,"time_elapsed":236236,"internal_node_id":"0.0-4.0-0.17","subject_id":"5ff770a55da4c74077bd26ad","study_id":"6197b3f67c2b5cd3b6d9596a","session_id":"6197b9f20fffcf327b309611","condition":"full-information","relevant_dimensions":["pattern","legs"],"bee_group":{"antennae":"X","wings":"X","pattern":"S","legs":"M"},"action":"harvest","summary":"good-harvest","bonus":0.08},{"rt":778.6999999880791,"stimulus":"\n                    <p><b>Action: <em>harvest</em></b></p>\n                    <p>This is the bee that you just saw.</p>\n                    <img src=\"bees-with-color/bee-A1DF.svg\" width=\"200\">\n                    <p><span class=\"greenText\"><b>Successful harvest!</b></span><br>Your pay has increased by $0.02. Your bonus pay is now $0.34.</p>\n            ","response":0,"trial_type":"html-button-response","trial_index":42,"time_elapsed":237015,"internal_node_id":"0.0-4.0-1.17","subject_id":"5ff770a55da4c74077bd26ad","study_id":"6197b3f67c2b5cd3b6d9596a","session_id":"6197b9f20fffcf327b309611","condition":"full-information","relevant_dimensions":["pattern","legs"],"bee_group":{"antennae":"X","wings":"X","pattern":"S","legs":"M"},"bonus":0.08},{"rt":1426.9000000059605,"stimulus":"bees-with-color/bee-A2SF.svg","response":0,"trial_type":"image-button-response","trial_index":43,"time_elapsed":238443,"internal_node_id":"0.0-4.0-0.18","subject_id":"5ff770a55da4c74077bd26ad","study_id":"6197b3f67c2b5cd3b6d9596a","session_id":"6197b9f20fffcf327b309611","condition":"full-information","relevant_dimensions":["pattern","legs"],"bee_group":{"antennae":"X","wings":"X","pattern":"S","legs":"M"},"action":"harvest","summary":"good-harvest","bonus":0.08},{"rt":1186.800000011921,"stimulus":"\n                    <p><b>Action: <em>harvest</em></b></p>\n                    <p>This is the bee that you just saw.</p>\n                    <img src=\"bees-with-color/bee-A2SF.svg\" width=\"200\">\n                    <p><span class=\"greenText\"><b>Successful harvest!</b></span><br>Your pay has increased by $0.02. Your bonus pay is now $0.36.</p>\n            ","response":0,"trial_type":"html-button-response","trial_index":44,"time_elapsed":239631,"internal_node_id":"0.0-4.0-1.18","subject_id":"5ff770a55da4c74077bd26ad","study_id":"6197b3f67c2b5cd3b6d9596a","session_id":"6197b9f20fffcf327b309611","condition":"full-information","relevant_dimensions":["pattern","legs"],"bee_group":{"antennae":"X","wings":"X","pattern":"S","legs":"M"},"bonus":0.08},{"rt":2314.9000000059605,"stimulus":"bees-with-color/bee-A2DF.svg","response":1,"trial_type":"image-button-response","trial_index":45,"time_elapsed":241947,"internal_node_id":"0.0-4.0-0.19","subject_id":"5ff770a55da4c74077bd26ad","study_id":"6197b3f67c2b5cd3b6d9596a","session_id":"6197b9f20fffcf327b309611","condition":"full-information","relevant_dimensions":["pattern","legs"],"bee_group":{"antennae":"X","wings":"X","pattern":"S","legs":"M"},"action":"avoid","summary":"bad-avoid","bonus":0.08},{"rt":779.0999999940395,"stimulus":"\n                    <p><b>Action: <em>avoid</em></b></p>\n                    <p>This is the bee that you just saw.</p>\n                    <img src=\"bees-with-color/bee-A2DF.svg\" width=\"200\">\n                    <p><span class=\"redText\">Bad choice,</span> the bee was friendly.<br>Your bonus pay is unchanged, and remains at $0.36.</p>\n            ","response":0,"trial_type":"html-button-response","trial_index":46,"time_elapsed":242727,"internal_node_id":"0.0-4.0-1.19","subject_id":"5ff770a55da4c74077bd26ad","study_id":"6197b3f67c2b5cd3b6d9596a","session_id":"6197b9f20fffcf327b309611","condition":"full-information","relevant_dimensions":["pattern","legs"],"bee_group":{"antennae":"X","wings":"X","pattern":"S","legs":"M"},"bonus":0.08},{"rt":791.2999999821186,"stimulus":"bees-with-color/bee-B1DM.svg","response":1,"trial_type":"image-button-response","trial_index":47,"time_elapsed":243519,"internal_node_id":"0.0-4.0-0.20","subject_id":"5ff770a55da4c74077bd26ad","study_id":"6197b3f67c2b5cd3b6d9596a","session_id":"6197b9f20fffcf327b309611","condition":"full-information","relevant_dimensions":["pattern","legs"],"bee_group":{"antennae":"X","wings":"X","pattern":"S","legs":"M"},"action":"avoid","summary":"bad-avoid","bonus":0.08},{"rt":622.7000000178814,"stimulus":"\n                    <p><b>Action: <em>avoid</em></b></p>\n                    <p>This is the bee that you just saw.</p>\n                    <img src=\"bees-with-color/bee-B1DM.svg\" width=\"200\">\n                    <p><span class=\"redText\">Bad choice,</span> the bee was friendly.<br>Your bonus pay is unchanged, and remains at $0.36.</p>\n            ","response":0,"trial_type":"html-button-response","trial_index":48,"time_elapsed":244143,"internal_node_id":"0.0-4.0-1.20","subject_id":"5ff770a55da4c74077bd26ad","study_id":"6197b3f67c2b5cd3b6d9596a","session_id":"6197b9f20fffcf327b309611","condition":"full-information","relevant_dimensions":["pattern","legs"],"bee_group":{"antennae":"X","wings":"X","pattern":"S","legs":"M"},"bonus":0.08},{"rt":647.4000000059605,"stimulus":"bees-with-color/bee-B1SM.svg","response":0,"trial_type":"image-button-response","trial_index":49,"time_elapsed":244791,"internal_node_id":"0.0-4.0-0.21","subject_id":"5ff770a55da4c74077bd26ad","study_id":"6197b3f67c2b5cd3b6d9596a","session_id":"6197b9f20fffcf327b309611","condition":"full-information","relevant_dimensions":["pattern","legs"],"bee_group":{"antennae":"X","wings":"X","pattern":"S","legs":"M"},"action":"harvest","summary":"bad-harvest","bonus":0.08},{"rt":886.9000000059605,"stimulus":"\n                    <p><b>Action: <em>harvest</em></b></p>\n                    <p>This is the bee that you just saw.</p>\n                    <img src=\"bees-with-color/bee-B1SM.svg\" width=\"200\">\n                    <p><span class=\"redText\">Bad choice, the bee was angry.</span><br><b>You have been stung!</b><br>Your pay has been decreased by $0.10. Your bonus pay is now $0.26.</p>\n            ","response":0,"trial_type":"html-button-response","trial_index":50,"time_elapsed":245679,"internal_node_id":"0.0-4.0-1.21","subject_id":"5ff770a55da4c74077bd26ad","study_id":"6197b3f67c2b5cd3b6d9596a","session_id":"6197b9f20fffcf327b309611","condition":"full-information","relevant_dimensions":["pattern","legs"],"bee_group":{"antennae":"X","wings":"X","pattern":"S","legs":"M"},"bonus":0.08},{"rt":443.19999998807907,"stimulus":"bees-with-color/bee-A2SM.svg","response":0,"trial_type":"image-button-response","trial_index":51,"time_elapsed":246123,"internal_node_id":"0.0-4.0-0.22","subject_id":"5ff770a55da4c74077bd26ad","study_id":"6197b3f67c2b5cd3b6d9596a","session_id":"6197b9f20fffcf327b309611","condition":"full-information","relevant_dimensions":["pattern","legs"],"bee_group":{"antennae":"X","wings":"X","pattern":"S","legs":"M"},"action":"harvest","summary":"bad-harvest","bonus":0.08},{"rt":671.0999999940395,"stimulus":"\n                    <p><b>Action: <em>harvest</em></b></p>\n                    <p>This is the bee that you just saw.</p>\n                    <img src=\"bees-with-color/bee-A2SM.svg\" width=\"200\">\n                    <p><span class=\"redText\">Bad choice, the bee was angry.</span><br><b>You have been stung!</b><br>Your pay has been decreased by $0.10. Your bonus pay is now $0.16.</p>\n            ","response":0,"trial_type":"html-button-response","trial_index":52,"time_elapsed":246795,"internal_node_id":"0.0-4.0-1.22","subject_id":"5ff770a55da4c74077bd26ad","study_id":"6197b3f67c2b5cd3b6d9596a","session_id":"6197b9f20fffcf327b309611","condition":"full-information","relevant_dimensions":["pattern","legs"],"bee_group":{"antennae":"X","wings":"X","pattern":"S","legs":"M"},"bonus":0.08},{"rt":587.2000000178814,"stimulus":"bees-with-color/bee-B2DM.svg","response":0,"trial_type":"image-button-response","trial_index":53,"time_elapsed":247383,"internal_node_id":"0.0-4.0-0.23","subject_id":"5ff770a55da4c74077bd26ad","study_id":"6197b3f67c2b5cd3b6d9596a","session_id":"6197b9f20fffcf327b309611","condition":"full-information","relevant_dimensions":["pattern","legs"],"bee_group":{"antennae":"X","wings":"X","pattern":"S","legs":"M"},"action":"harvest","summary":"good-harvest","bonus":0.08},{"rt":659.4000000059605,"stimulus":"\n                    <p><b>Action: <em>harvest</em></b></p>\n                    <p>This is the bee that you just saw.</p>\n                    <img src=\"bees-with-color/bee-B2DM.svg\" width=\"200\">\n                    <p><span class=\"greenText\"><b>Successful harvest!</b></span><br>Your pay has increased by $0.02. Your bonus pay is now $0.18.</p>\n            ","response":0,"trial_type":"html-button-response","trial_index":54,"time_elapsed":248043,"internal_node_id":"0.0-4.0-1.23","subject_id":"5ff770a55da4c74077bd26ad","study_id":"6197b3f67c2b5cd3b6d9596a","session_id":"6197b9f20fffcf327b309611","condition":"full-information","relevant_dimensions":["pattern","legs"],"bee_group":{"antennae":"X","wings":"X","pattern":"S","legs":"M"},"bonus":0.08},{"rt":587.0999999940395,"stimulus":"bees-with-color/bee-A2DM.svg","response":0,"trial_type":"image-button-response","trial_index":55,"time_elapsed":248631,"internal_node_id":"0.0-4.0-0.24","subject_id":"5ff770a55da4c74077bd26ad","study_id":"6197b3f67c2b5cd3b6d9596a","session_id":"6197b9f20fffcf327b309611","condition":"full-information","relevant_dimensions":["pattern","legs"],"bee_group":{"antennae":"X","wings":"X","pattern":"S","legs":"M"},"action":"harvest","summary":"good-harvest","bonus":0.08},{"rt":558.9000000059605,"stimulus":"\n                    <p><b>Action: <em>harvest</em></b></p>\n                    <p>This is the bee that you just saw.</p>\n                    <img src=\"bees-with-color/bee-A2DM.svg\" width=\"200\">\n                    <p><span class=\"greenText\"><b>Successful harvest!</b></span><br>Your pay has increased by $0.02. Your bonus pay is now $0.20.</p>\n            ","response":0,"trial_type":"html-button-response","trial_index":56,"time_elapsed":249191,"internal_node_id":"0.0-4.0-1.24","subject_id":"5ff770a55da4c74077bd26ad","study_id":"6197b3f67c2b5cd3b6d9596a","session_id":"6197b9f20fffcf327b309611","condition":"full-information","relevant_dimensions":["pattern","legs"],"bee_group":{"antennae":"X","wings":"X","pattern":"S","legs":"M"},"bonus":0.08},{"rt":719.0999999940395,"stimulus":"bees-with-color/bee-B1SF.svg","response":0,"trial_type":"image-button-response","trial_index":57,"time_elapsed":249911,"internal_node_id":"0.0-4.0-0.25","subject_id":"5ff770a55da4c74077bd26ad","study_id":"6197b3f67c2b5cd3b6d9596a","session_id":"6197b9f20fffcf327b309611","condition":"full-information","relevant_dimensions":["pattern","legs"],"bee_group":{"antennae":"X","wings":"X","pattern":"S","legs":"M"},"action":"harvest","summary":"good-harvest","bonus":0.08},{"rt":659.0999999940395,"stimulus":"\n                    <p><b>Action: <em>harvest</em></b></p>\n                    <p>This is the bee that you just saw.</p>\n                    <img src=\"bees-with-color/bee-B1SF.svg\" width=\"200\">\n                    <p><span class=\"greenText\"><b>Successful harvest!</b></span><br>Your pay has increased by $0.02. Your bonus pay is now $0.22.</p>\n            ","response":0,"trial_type":"html-button-response","trial_index":58,"time_elapsed":250571,"internal_node_id":"0.0-4.0-1.25","subject_id":"5ff770a55da4c74077bd26ad","study_id":"6197b3f67c2b5cd3b6d9596a","session_id":"6197b9f20fffcf327b309611","condition":"full-information","relevant_dimensions":["pattern","legs"],"bee_group":{"antennae":"X","wings":"X","pattern":"S","legs":"M"},"bonus":0.08},{"rt":1451,"stimulus":"bees-with-color/bee-B2SF.svg","response":1,"trial_type":"image-button-response","trial_index":59,"time_elapsed":252023,"internal_node_id":"0.0-4.0-0.26","subject_id":"5ff770a55da4c74077bd26ad","study_id":"6197b3f67c2b5cd3b6d9596a","session_id":"6197b9f20fffcf327b309611","condition":"full-information","relevant_dimensions":["pattern","legs"],"bee_group":{"antennae":"X","wings":"X","pattern":"S","legs":"M"},"action":"avoid","summary":"bad-avoid","bonus":0.08},{"rt":722.8000000119209,"stimulus":"\n                    <p><b>Action: <em>avoid</em></b></p>\n                    <p>This is the bee that you just saw.</p>\n                    <img src=\"bees-with-color/bee-B2SF.svg\" width=\"200\">\n                    <p><span class=\"redText\">Bad choice,</span> the bee was friendly.<br>Your bonus pay is unchanged, and remains at $0.22.</p>\n            ","response":0,"trial_type":"html-button-response","trial_index":60,"time_elapsed":252747,"internal_node_id":"0.0-4.0-1.26","subject_id":"5ff770a55da4c74077bd26ad","study_id":"6197b3f67c2b5cd3b6d9596a","session_id":"6197b9f20fffcf327b309611","condition":"full-information","relevant_dimensions":["pattern","legs"],"bee_group":{"antennae":"X","wings":"X","pattern":"S","legs":"M"},"bonus":0.08},{"rt":703.4000000059605,"stimulus":"bees-with-color/bee-A1SF.svg","response":1,"trial_type":"image-button-response","trial_index":61,"time_elapsed":253451,"internal_node_id":"0.0-4.0-0.27","subject_id":"5ff770a55da4c74077bd26ad","study_id":"6197b3f67c2b5cd3b6d9596a","session_id":"6197b9f20fffcf327b309611","condition":"full-information","relevant_dimensions":["pattern","legs"],"bee_group":{"antennae":"X","wings":"X","pattern":"S","legs":"M"},"action":"avoid","summary":"bad-avoid","bonus":0.08},{"rt":1271.199999988079,"stimulus":"\n                    <p><b>Action: <em>avoid</em></b></p>\n                    <p>This is the bee that you just saw.</p>\n                    <img src=\"bees-with-color/bee-A1SF.svg\" width=\"200\">\n                    <p><span class=\"redText\">Bad choice,</span> the bee was friendly.<br>Your bonus pay is unchanged, and remains at $0.22.</p>\n            ","response":0,"trial_type":"html-button-response","trial_index":62,"time_elapsed":254723,"internal_node_id":"0.0-4.0-1.27","subject_id":"5ff770a55da4c74077bd26ad","study_id":"6197b3f67c2b5cd3b6d9596a","session_id":"6197b9f20fffcf327b309611","condition":"full-information","relevant_dimensions":["pattern","legs"],"bee_group":{"antennae":"X","wings":"X","pattern":"S","legs":"M"},"bonus":0.08},{"rt":874.9000000059605,"stimulus":"bees-with-color/bee-A1SM.svg","response":0,"trial_type":"image-button-response","trial_index":63,"time_elapsed":255599,"internal_node_id":"0.0-4.0-0.28","subject_id":"5ff770a55da4c74077bd26ad","study_id":"6197b3f67c2b5cd3b6d9596a","session_id":"6197b9f20fffcf327b309611","condition":"full-information","relevant_dimensions":["pattern","legs"],"bee_group":{"antennae":"X","wings":"X","pattern":"S","legs":"M"},"action":"harvest","summary":"bad-harvest","bonus":0.08},{"rt":851.1999999880791,"stimulus":"\n                    <p><b>Action: <em>harvest</em></b></p>\n                    <p>This is the bee that you just saw.</p>\n                    <img src=\"bees-with-color/bee-A1SM.svg\" width=\"200\">\n                    <p><span class=\"redText\">Bad choice, the bee was angry.</span><br><b>You have been stung!</b><br>Your pay has been decreased by $0.10. Your bonus pay is now $0.12.</p>\n            ","response":0,"trial_type":"html-button-response","trial_index":64,"time_elapsed":256452,"internal_node_id":"0.0-4.0-1.28","subject_id":"5ff770a55da4c74077bd26ad","study_id":"6197b3f67c2b5cd3b6d9596a","session_id":"6197b9f20fffcf327b309611","condition":"full-information","relevant_dimensions":["pattern","legs"],"bee_group":{"antennae":"X","wings":"X","pattern":"S","legs":"M"},"bonus":0.08},{"rt":539,"stimulus":"bees-with-color/bee-A1DM.svg","response":0,"trial_type":"image-button-response","trial_index":65,"time_elapsed":256991,"internal_node_id":"0.0-4.0-0.29","subject_id":"5ff770a55da4c74077bd26ad","study_id":"6197b3f67c2b5cd3b6d9596a","session_id":"6197b9f20fffcf327b309611","condition":"full-information","relevant_dimensions":["pattern","legs"],"bee_group":{"antennae":"X","wings":"X","pattern":"S","legs":"M"},"action":"harvest","summary":"good-harvest","bonus":0.08},{"rt":635.0999999940395,"stimulus":"\n                    <p><b>Action: <em>harvest</em></b></p>\n                    <p>This is the bee that you just saw.</p>\n                    <img src=\"bees-with-color/bee-A1DM.svg\" width=\"200\">\n                    <p><span class=\"greenText\"><b>Successful harvest!</b></span><br>Your pay has increased by $0.02. Your bonus pay is now $0.14.</p>\n            ","response":0,"trial_type":"html-button-response","trial_index":66,"time_elapsed":257627,"internal_node_id":"0.0-4.0-1.29","subject_id":"5ff770a55da4c74077bd26ad","study_id":"6197b3f67c2b5cd3b6d9596a","session_id":"6197b9f20fffcf327b309611","condition":"full-information","relevant_dimensions":["pattern","legs"],"bee_group":{"antennae":"X","wings":"X","pattern":"S","legs":"M"},"bonus":0.08},{"rt":1955,"stimulus":"bees-with-color/bee-B1DF.svg","response":0,"trial_type":"image-button-response","trial_index":67,"time_elapsed":259583,"internal_node_id":"0.0-4.0-0.30","subject_id":"5ff770a55da4c74077bd26ad","study_id":"6197b3f67c2b5cd3b6d9596a","session_id":"6197b9f20fffcf327b309611","condition":"full-information","relevant_dimensions":["pattern","legs"],"bee_group":{"antennae":"X","wings":"X","pattern":"S","legs":"M"},"action":"harvest","summary":"good-harvest","bonus":0.08},{"rt":790.8000000119209,"stimulus":"\n                    <p><b>Action: <em>harvest</em></b></p>\n                    <p>This is the bee that you just saw.</p>\n                    <img src=\"bees-with-color/bee-B1DF.svg\" width=\"200\">\n                    <p><span class=\"greenText\"><b>Successful harvest!</b></span><br>Your pay has increased by $0.02. Your bonus pay is now $0.16.</p>\n            ","response":0,"trial_type":"html-button-response","trial_index":68,"time_elapsed":260375,"internal_node_id":"0.0-4.0-1.30","subject_id":"5ff770a55da4c74077bd26ad","study_id":"6197b3f67c2b5cd3b6d9596a","session_id":"6197b9f20fffcf327b309611","condition":"full-information","relevant_dimensions":["pattern","legs"],"bee_group":{"antennae":"X","wings":"X","pattern":"S","legs":"M"},"bonus":0.08},{"rt":1295.0999999940395,"stimulus":"bees-with-color/bee-B2SM.svg","response":1,"trial_type":"image-button-response","trial_index":69,"time_elapsed":261671,"internal_node_id":"0.0-4.0-0.31","subject_id":"5ff770a55da4c74077bd26ad","study_id":"6197b3f67c2b5cd3b6d9596a","session_id":"6197b9f20fffcf327b309611","condition":"full-information","relevant_dimensions":["pattern","legs"],"bee_group":{"antennae":"X","wings":"X","pattern":"S","legs":"M"},"action":"avoid","summary":"good-avoid","bonus":0.08},{"rt":7414.9000000059605,"stimulus":"\n                    <p><b>Action: <em>avoid</em></b></p>\n                    <p>This is the bee that you just saw.</p>\n                    <img src=\"bees-with-color/bee-B2SM.svg\" width=\"200\">\n                    <p><span class=\"greenText\">Good choice!</span>  This bee would have stung you.<br>Your bonus pay is unchanged, and remains at $0.16.</p>\n            ","response":0,"trial_type":"html-button-response","trial_index":70,"time_elapsed":269087,"internal_node_id":"0.0-4.0-1.31","subject_id":"5ff770a55da4c74077bd26ad","study_id":"6197b3f67c2b5cd3b6d9596a","session_id":"6197b9f20fffcf327b309611","condition":"full-information","relevant_dimensions":["pattern","legs"],"bee_group":{"antennae":"X","wings":"X","pattern":"S","legs":"M"},"bonus":0.08},{"rt":4498.699999988079,"stimulus":"bees-with-color/bee-B2DM.svg","response":0,"trial_type":"image-button-response","trial_index":71,"time_elapsed":273587,"internal_node_id":"0.0-4.0-0.32","subject_id":"5ff770a55da4c74077bd26ad","study_id":"6197b3f67c2b5cd3b6d9596a","session_id":"6197b9f20fffcf327b309611","condition":"full-information","relevant_dimensions":["pattern","legs"],"bee_group":{"antennae":"X","wings":"X","pattern":"S","legs":"M"},"action":"harvest","summary":"good-harvest","bonus":0.08},{"rt":2351.199999988079,"stimulus":"\n                    <p><b>Action: <em>harvest</em></b></p>\n                    <p>This is the bee that you just saw.</p>\n                    <img src=\"bees-with-color/bee-B2DM.svg\" width=\"200\">\n                    <p><span class=\"greenText\"><b>Successful harvest!</b></span><br>Your pay has increased by $0.02. Your bonus pay is now $0.18.</p>\n            ","response":0,"trial_type":"html-button-response","trial_index":72,"time_elapsed":275939,"internal_node_id":"0.0-4.0-1.32","subject_id":"5ff770a55da4c74077bd26ad","study_id":"6197b3f67c2b5cd3b6d9596a","session_id":"6197b9f20fffcf327b309611","condition":"full-information","relevant_dimensions":["pattern","legs"],"bee_group":{"antennae":"X","wings":"X","pattern":"S","legs":"M"},"bonus":0.08},{"rt":2182.9000000059605,"stimulus":"bees-with-color/bee-B1DM.svg","response":0,"trial_type":"image-button-response","trial_index":73,"time_elapsed":278123,"internal_node_id":"0.0-4.0-0.33","subject_id":"5ff770a55da4c74077bd26ad","study_id":"6197b3f67c2b5cd3b6d9596a","session_id":"6197b9f20fffcf327b309611","condition":"full-information","relevant_dimensions":["pattern","legs"],"bee_group":{"antennae":"X","wings":"X","pattern":"S","legs":"M"},"action":"harvest","summary":"good-harvest","bonus":0.08},{"rt":755.0999999940395,"stimulus":"\n                    <p><b>Action: <em>harvest</em></b></p>\n                    <p>This is the bee that you just saw.</p>\n                    <img src=\"bees-with-color/bee-B1DM.svg\" width=\"200\">\n                    <p><span class=\"greenText\"><b>Successful harvest!</b></span><br>Your pay has increased by $0.02. Your bonus pay is now $0.20.</p>\n            ","response":0,"trial_type":"html-button-response","trial_index":74,"time_elapsed":278879,"internal_node_id":"0.0-4.0-1.33","subject_id":"5ff770a55da4c74077bd26ad","study_id":"6197b3f67c2b5cd3b6d9596a","session_id":"6197b9f20fffcf327b309611","condition":"full-information","relevant_dimensions":["pattern","legs"],"bee_group":{"antennae":"X","wings":"X","pattern":"S","legs":"M"},"bonus":0.08},{"rt":2027.2000000178814,"stimulus":"bees-with-color/bee-A2SM.svg","response":1,"trial_type":"image-button-response","trial_index":75,"time_elapsed":280907,"internal_node_id":"0.0-4.0-0.34","subject_id":"5ff770a55da4c74077bd26ad","study_id":"6197b3f67c2b5cd3b6d9596a","session_id":"6197b9f20fffcf327b309611","condition":"full-information","relevant_dimensions":["pattern","legs"],"bee_group":{"antennae":"X","wings":"X","pattern":"S","legs":"M"},"action":"avoid","summary":"good-avoid","bonus":0.08},{"rt":802.9000000059605,"stimulus":"\n                    <p><b>Action: <em>avoid</em></b></p>\n                    <p>This is the bee that you just saw.</p>\n                    <img src=\"bees-with-color/bee-A2SM.svg\" width=\"200\">\n                    <p><span class=\"greenText\">Good choice!</span>  This bee would have stung you.<br>Your bonus pay is unchanged, and remains at $0.20.</p>\n            ","response":0,"trial_type":"html-button-response","trial_index":76,"time_elapsed":281711,"internal_node_id":"0.0-4.0-1.34","subject_id":"5ff770a55da4c74077bd26ad","study_id":"6197b3f67c2b5cd3b6d9596a","session_id":"6197b9f20fffcf327b309611","condition":"full-information","relevant_dimensions":["pattern","legs"],"bee_group":{"antennae":"X","wings":"X","pattern":"S","legs":"M"},"bonus":0.08},{"rt":707,"stimulus":"bees-with-color/bee-A2DF.svg","response":0,"trial_type":"image-button-response","trial_index":77,"time_elapsed":282419,"internal_node_id":"0.0-4.0-0.35","subject_id":"5ff770a55da4c74077bd26ad","study_id":"6197b3f67c2b5cd3b6d9596a","session_id":"6197b9f20fffcf327b309611","condition":"full-information","relevant_dimensions":["pattern","legs"],"bee_group":{"antennae":"X","wings":"X","pattern":"S","legs":"M"},"action":"harvest","summary":"good-harvest","bonus":0.08},{"rt":611.1999999880791,"stimulus":"\n                    <p><b>Action: <em>harvest</em></b></p>\n                    <p>This is the bee that you just saw.</p>\n                    <img src=\"bees-with-color/bee-A2DF.svg\" width=\"200\">\n                    <p><span class=\"greenText\"><b>Successful harvest!</b></span><br>Your pay has increased by $0.02. Your bonus pay is now $0.22.</p>\n            ","response":0,"trial_type":"html-button-response","trial_index":78,"time_elapsed":283031,"internal_node_id":"0.0-4.0-1.35","subject_id":"5ff770a55da4c74077bd26ad","study_id":"6197b3f67c2b5cd3b6d9596a","session_id":"6197b9f20fffcf327b309611","condition":"full-information","relevant_dimensions":["pattern","legs"],"bee_group":{"antennae":"X","wings":"X","pattern":"S","legs":"M"},"bonus":0.08},{"rt":1091.2999999821186,"stimulus":"bees-with-color/bee-A1SM.svg","response":0,"trial_type":"image-button-response","trial_index":79,"time_elapsed":284123,"internal_node_id":"0.0-4.0-0.36","subject_id":"5ff770a55da4c74077bd26ad","study_id":"6197b3f67c2b5cd3b6d9596a","session_id":"6197b9f20fffcf327b309611","condition":"full-information","relevant_dimensions":["pattern","legs"],"bee_group":{"antennae":"X","wings":"X","pattern":"S","legs":"M"},"action":"harvest","summary":"bad-harvest","bonus":0.08},{"rt":6802.800000011921,"stimulus":"\n                    <p><b>Action: <em>harvest</em></b></p>\n                    <p>This is the bee that you just saw.</p>\n                    <img src=\"bees-with-color/bee-A1SM.svg\" width=\"200\">\n                    <p><span class=\"redText\">Bad choice, the bee was angry.</span><br><b>You have been stung!</b><br>Your pay has been decreased by $0.10. Your bonus pay is now $0.12.</p>\n            ","response":0,"trial_type":"html-button-response","trial_index":80,"time_elapsed":290927,"internal_node_id":"0.0-4.0-1.36","subject_id":"5ff770a55da4c74077bd26ad","study_id":"6197b3f67c2b5cd3b6d9596a","session_id":"6197b9f20fffcf327b309611","condition":"full-information","relevant_dimensions":["pattern","legs"],"bee_group":{"antennae":"X","wings":"X","pattern":"S","legs":"M"},"bonus":0.08},{"rt":1750.800000011921,"stimulus":"bees-with-color/bee-B1DF.svg","response":0,"trial_type":"image-button-response","trial_index":81,"time_elapsed":292679,"internal_node_id":"0.0-4.0-0.37","subject_id":"5ff770a55da4c74077bd26ad","study_id":"6197b3f67c2b5cd3b6d9596a","session_id":"6197b9f20fffcf327b309611","condition":"full-information","relevant_dimensions":["pattern","legs"],"bee_group":{"antennae":"X","wings":"X","pattern":"S","legs":"M"},"action":"harvest","summary":"good-harvest","bonus":0.08},{"rt":934.9000000059605,"stimulus":"\n                    <p><b>Action: <em>harvest</em></b></p>\n                    <p>This is the bee that you just saw.</p>\n                    <img src=\"bees-with-color/bee-B1DF.svg\" width=\"200\">\n                    <p><span class=\"greenText\"><b>Successful harvest!</b></span><br>Your pay has increased by $0.02. Your bonus pay is now $0.14.</p>\n            ","response":0,"trial_type":"html-button-response","trial_index":82,"time_elapsed":293615,"internal_node_id":"0.0-4.0-1.37","subject_id":"5ff770a55da4c74077bd26ad","study_id":"6197b3f67c2b5cd3b6d9596a","session_id":"6197b9f20fffcf327b309611","condition":"full-information","relevant_dimensions":["pattern","legs"],"bee_group":{"antennae":"X","wings":"X","pattern":"S","legs":"M"},"bonus":0.08},{"rt":4450.9000000059605,"stimulus":"bees-with-color/bee-A1SF.svg","response":1,"trial_type":"image-button-response","trial_index":83,"time_elapsed":298067,"internal_node_id":"0.0-4.0-0.38","subject_id":"5ff770a55da4c74077bd26ad","study_id":"6197b3f67c2b5cd3b6d9596a","session_id":"6197b9f20fffcf327b309611","condition":"full-information","relevant_dimensions":["pattern","legs"],"bee_group":{"antennae":"X","wings":"X","pattern":"S","legs":"M"},"action":"avoid","summary":"bad-avoid","bonus":0.08},{"rt":1223,"stimulus":"\n                    <p><b>Action: <em>avoid</em></b></p>\n                    <p>This is the bee that you just saw.</p>\n                    <img src=\"bees-with-color/bee-A1SF.svg\" width=\"200\">\n                    <p><span class=\"redText\">Bad choice,</span> the bee was friendly.<br>Your bonus pay is unchanged, and remains at $0.14.</p>\n            ","response":0,"trial_type":"html-button-response","trial_index":84,"time_elapsed":299291,"internal_node_id":"0.0-4.0-1.38","subject_id":"5ff770a55da4c74077bd26ad","study_id":"6197b3f67c2b5cd3b6d9596a","session_id":"6197b9f20fffcf327b309611","condition":"full-information","relevant_dimensions":["pattern","legs"],"bee_group":{"antennae":"X","wings":"X","pattern":"S","legs":"M"},"bonus":0.08},{"rt":4871,"stimulus":"bees-with-color/bee-A2DM.svg","response":1,"trial_type":"image-button-response","trial_index":85,"time_elapsed":304163,"internal_node_id":"0.0-4.0-0.39","subject_id":"5ff770a55da4c74077bd26ad","study_id":"6197b3f67c2b5cd3b6d9596a","session_id":"6197b9f20fffcf327b309611","condition":"full-information","relevant_dimensions":["pattern","legs"],"bee_group":{"antennae":"X","wings":"X","pattern":"S","legs":"M"},"action":"avoid","summary":"bad-avoid","bonus":0.08},{"rt":3442.5,"stimulus":"\n                    <p><b>Action: <em>avoid</em></b></p>\n                    <p>This is the bee that you just saw.</p>\n                    <img src=\"bees-with-color/bee-A2DM.svg\" width=\"200\">\n                    <p><span class=\"redText\">Bad choice,</span> the bee was friendly.<br>Your bonus pay is unchanged, and remains at $0.14.</p>\n            ","response":0,"trial_type":"html-button-response","trial_index":86,"time_elapsed":307607,"internal_node_id":"0.0-4.0-1.39","subject_id":"5ff770a55da4c74077bd26ad","study_id":"6197b3f67c2b5cd3b6d9596a","session_id":"6197b9f20fffcf327b309611","condition":"full-information","relevant_dimensions":["pattern","legs"],"bee_group":{"antennae":"X","wings":"X","pattern":"S","legs":"M"},"bonus":0.08},{"rt":4690.700000017881,"stimulus":"bees-with-color/bee-A1DF.svg","response":0,"trial_type":"image-button-response","trial_index":87,"time_elapsed":312299,"internal_node_id":"0.0-4.0-0.40","subject_id":"5ff770a55da4c74077bd26ad","study_id":"6197b3f67c2b5cd3b6d9596a","session_id":"6197b9f20fffcf327b309611","condition":"full-information","relevant_dimensions":["pattern","legs"],"bee_group":{"antennae":"X","wings":"X","pattern":"S","legs":"M"},"action":"harvest","summary":"good-harvest","bonus":0.08},{"rt":622.9000000059605,"stimulus":"\n                    <p><b>Action: <em>harvest</em></b></p>\n                    <p>This is the bee that you just saw.</p>\n                    <img src=\"bees-with-color/bee-A1DF.svg\" width=\"200\">\n                    <p><span class=\"greenText\"><b>Successful harvest!</b></span><br>Your pay has increased by $0.02. Your bonus pay is now $0.16.</p>\n            ","response":0,"trial_type":"html-button-response","trial_index":88,"time_elapsed":312923,"internal_node_id":"0.0-4.0-1.40","subject_id":"5ff770a55da4c74077bd26ad","study_id":"6197b3f67c2b5cd3b6d9596a","session_id":"6197b9f20fffcf327b309611","condition":"full-information","relevant_dimensions":["pattern","legs"],"bee_group":{"antennae":"X","wings":"X","pattern":"S","legs":"M"},"bonus":0.08},{"rt":3370.800000011921,"stimulus":"bees-with-color/bee-B2DF.svg","response":0,"trial_type":"image-button-response","trial_index":89,"time_elapsed":316295,"internal_node_id":"0.0-4.0-0.41","subject_id":"5ff770a55da4c74077bd26ad","study_id":"6197b3f67c2b5cd3b6d9596a","session_id":"6197b9f20fffcf327b309611","condition":"full-information","relevant_dimensions":["pattern","legs"],"bee_group":{"antennae":"X","wings":"X","pattern":"S","legs":"M"},"action":"harvest","summary":"good-harvest","bonus":0.08},{"rt":694.8000000119209,"stimulus":"\n                    <p><b>Action: <em>harvest</em></b></p>\n                    <p>This is the bee that you just saw.</p>\n                    <img src=\"bees-with-color/bee-B2DF.svg\" width=\"200\">\n                    <p><span class=\"greenText\"><b>Successful harvest!</b></span><br>Your pay has increased by $0.02. Your bonus pay is now $0.18.</p>\n            ","response":0,"trial_type":"html-button-response","trial_index":90,"time_elapsed":316991,"internal_node_id":"0.0-4.0-1.41","subject_id":"5ff770a55da4c74077bd26ad","study_id":"6197b3f67c2b5cd3b6d9596a","session_id":"6197b9f20fffcf327b309611","condition":"full-information","relevant_dimensions":["pattern","legs"],"bee_group":{"antennae":"X","wings":"X","pattern":"S","legs":"M"},"bonus":0.08},{"rt":2794.7000000178814,"stimulus":"bees-with-color/bee-B1SF.svg","response":0,"trial_type":"image-button-response","trial_index":91,"time_elapsed":319787,"internal_node_id":"0.0-4.0-0.42","subject_id":"5ff770a55da4c74077bd26ad","study_id":"6197b3f67c2b5cd3b6d9596a","session_id":"6197b9f20fffcf327b309611","condition":"full-information","relevant_dimensions":["pattern","legs"],"bee_group":{"antennae":"X","wings":"X","pattern":"S","legs":"M"},"action":"harvest","summary":"good-harvest","bonus":0.08},{"rt":694.8000000119209,"stimulus":"\n                    <p><b>Action: <em>harvest</em></b></p>\n                    <p>This is the bee that you just saw.</p>\n                    <img src=\"bees-with-color/bee-B1SF.svg\" width=\"200\">\n                    <p><span class=\"greenText\"><b>Successful harvest!</b></span><br>Your pay has increased by $0.02. Your bonus pay is now $0.20.</p>\n            ","response":0,"trial_type":"html-button-response","trial_index":92,"time_elapsed":320483,"internal_node_id":"0.0-4.0-1.42","subject_id":"5ff770a55da4c74077bd26ad","study_id":"6197b3f67c2b5cd3b6d9596a","session_id":"6197b9f20fffcf327b309611","condition":"full-information","relevant_dimensions":["pattern","legs"],"bee_group":{"antennae":"X","wings":"X","pattern":"S","legs":"M"},"bonus":0.08},{"rt":2386.9000000059605,"stimulus":"bees-with-color/bee-A2SF.svg","response":0,"trial_type":"image-button-response","trial_index":93,"time_elapsed":322871,"internal_node_id":"0.0-4.0-0.43","subject_id":"5ff770a55da4c74077bd26ad","study_id":"6197b3f67c2b5cd3b6d9596a","session_id":"6197b9f20fffcf327b309611","condition":"full-information","relevant_dimensions":["pattern","legs"],"bee_group":{"antennae":"X","wings":"X","pattern":"S","legs":"M"},"action":"harvest","summary":"good-harvest","bonus":0.08},{"rt":791.1999999880791,"stimulus":"\n                    <p><b>Action: <em>harvest</em></b></p>\n                    <p>This is the bee that you just saw.</p>\n                    <img src=\"bees-with-color/bee-A2SF.svg\" width=\"200\">\n                    <p><span class=\"greenText\"><b>Successful harvest!</b></span><br>Your pay has increased by $0.02. Your bonus pay is now $0.22.</p>\n            ","response":0,"trial_type":"html-button-response","trial_index":94,"time_elapsed":323663,"internal_node_id":"0.0-4.0-1.43","subject_id":"5ff770a55da4c74077bd26ad","study_id":"6197b3f67c2b5cd3b6d9596a","session_id":"6197b9f20fffcf327b309611","condition":"full-information","relevant_dimensions":["pattern","legs"],"bee_group":{"antennae":"X","wings":"X","pattern":"S","legs":"M"},"bonus":0.08},{"rt":2159,"stimulus":"bees-with-color/bee-B1SM.svg","response":0,"trial_type":"image-button-response","trial_index":95,"time_elapsed":325823,"internal_node_id":"0.0-4.0-0.44","subject_id":"5ff770a55da4c74077bd26ad","study_id":"6197b3f67c2b5cd3b6d9596a","session_id":"6197b9f20fffcf327b309611","condition":"full-information","relevant_dimensions":["pattern","legs"],"bee_group":{"antennae":"X","wings":"X","pattern":"S","legs":"M"},"action":"harvest","summary":"bad-harvest","bonus":0.08},{"rt":8327.200000017881,"stimulus":"\n                    <p><b>Action: <em>harvest</em></b></p>\n                    <p>This is the bee that you just saw.</p>\n                    <img src=\"bees-with-color/bee-B1SM.svg\" width=\"200\">\n                    <p><span class=\"redText\">Bad choice, the bee was angry.</span><br><b>You have been stung!</b><br>Your pay has been decreased by $0.10. Your bonus pay is now $0.12.</p>\n            ","response":0,"trial_type":"html-button-response","trial_index":96,"time_elapsed":334151,"internal_node_id":"0.0-4.0-1.44","subject_id":"5ff770a55da4c74077bd26ad","study_id":"6197b3f67c2b5cd3b6d9596a","session_id":"6197b9f20fffcf327b309611","condition":"full-information","relevant_dimensions":["pattern","legs"],"bee_group":{"antennae":"X","wings":"X","pattern":"S","legs":"M"},"bonus":0.08},{"rt":3382.9000000059605,"stimulus":"bees-with-color/bee-B2SF.svg","response":1,"trial_type":"image-button-response","trial_index":97,"time_elapsed":337535,"internal_node_id":"0.0-4.0-0.45","subject_id":"5ff770a55da4c74077bd26ad","study_id":"6197b3f67c2b5cd3b6d9596a","session_id":"6197b9f20fffcf327b309611","condition":"full-information","relevant_dimensions":["pattern","legs"],"bee_group":{"antennae":"X","wings":"X","pattern":"S","legs":"M"},"action":"avoid","summary":"bad-avoid","bonus":0.08},{"rt":1679,"stimulus":"\n                    <p><b>Action: <em>avoid</em></b></p>\n                    <p>This is the bee that you just saw.</p>\n                    <img src=\"bees-with-color/bee-B2SF.svg\" width=\"200\">\n                    <p><span class=\"redText\">Bad choice,</span> the bee was friendly.<br>Your bonus pay is unchanged, and remains at $0.12.</p>\n            ","response":0,"trial_type":"html-button-response","trial_index":98,"time_elapsed":339215,"internal_node_id":"0.0-4.0-1.45","subject_id":"5ff770a55da4c74077bd26ad","study_id":"6197b3f67c2b5cd3b6d9596a","session_id":"6197b9f20fffcf327b309611","condition":"full-information","relevant_dimensions":["pattern","legs"],"bee_group":{"antennae":"X","wings":"X","pattern":"S","legs":"M"},"bonus":0.08},{"rt":2830.9000000059605,"stimulus":"bees-with-color/bee-A1DM.svg","response":0,"trial_type":"image-button-response","trial_index":99,"time_elapsed":342047,"internal_node_id":"0.0-4.0-0.46","subject_id":"5ff770a55da4c74077bd26ad","study_id":"6197b3f67c2b5cd3b6d9596a","session_id":"6197b9f20fffcf327b309611","condition":"full-information","relevant_dimensions":["pattern","legs"],"bee_group":{"antennae":"X","wings":"X","pattern":"S","legs":"M"},"action":"harvest","summary":"good-harvest","bonus":0.08},{"rt":983.1999999880791,"stimulus":"\n                    <p><b>Action: <em>harvest</em></b></p>\n                    <p>This is the bee that you just saw.</p>\n                    <img src=\"bees-with-color/bee-A1DM.svg\" width=\"200\">\n                    <p><span class=\"greenText\"><b>Successful harvest!</b></span><br>Your pay has increased by $0.02. Your bonus pay is now $0.14.</p>\n            ","response":0,"trial_type":"html-button-response","trial_index":100,"time_elapsed":343031,"internal_node_id":"0.0-4.0-1.46","subject_id":"5ff770a55da4c74077bd26ad","study_id":"6197b3f67c2b5cd3b6d9596a","session_id":"6197b9f20fffcf327b309611","condition":"full-information","relevant_dimensions":["pattern","legs"],"bee_group":{"antennae":"X","wings":"X","pattern":"S","legs":"M"},"bonus":0.08},{"rt":2886.9000000059605,"stimulus":"bees-with-color/bee-B2SM.svg","response":1,"trial_type":"image-button-response","trial_index":101,"time_elapsed":345919,"internal_node_id":"0.0-4.0-0.47","subject_id":"5ff770a55da4c74077bd26ad","study_id":"6197b3f67c2b5cd3b6d9596a","session_id":"6197b9f20fffcf327b309611","condition":"full-information","relevant_dimensions":["pattern","legs"],"bee_group":{"antennae":"X","wings":"X","pattern":"S","legs":"M"},"action":"avoid","summary":"good-avoid","bonus":0.08},{"rt":1115.0999999940395,"stimulus":"\n                    <p><b>Action: <em>avoid</em></b></p>\n                    <p>This is the bee that you just saw.</p>\n                    <img src=\"bees-with-color/bee-B2SM.svg\" width=\"200\">\n                    <p><span class=\"greenText\">Good choice!</span>  This bee would have stung you.<br>Your bonus pay is unchanged, and remains at $0.14.</p>\n            ","response":0,"trial_type":"html-button-response","trial_index":102,"time_elapsed":347035,"internal_node_id":"0.0-4.0-1.47","subject_id":"5ff770a55da4c74077bd26ad","study_id":"6197b3f67c2b5cd3b6d9596a","session_id":"6197b9f20fffcf327b309611","condition":"full-information","relevant_dimensions":["pattern","legs"],"bee_group":{"antennae":"X","wings":"X","pattern":"S","legs":"M"},"bonus":0.08},{"rt":3058.9000000059605,"stimulus":"bees-with-color/bee-A2SM.svg","response":0,"trial_type":"image-button-response","trial_index":103,"time_elapsed":350095,"internal_node_id":"0.0-4.0-0.48","subject_id":"5ff770a55da4c74077bd26ad","study_id":"6197b3f67c2b5cd3b6d9596a","session_id":"6197b9f20fffcf327b309611","condition":"full-information","relevant_dimensions":["pattern","legs"],"bee_group":{"antennae":"X","wings":"X","pattern":"S","legs":"M"},"action":"harvest","summary":"bad-harvest","bonus":0.08},{"rt":923,"stimulus":"\n                    <p><b>Action: <em>harvest</em></b></p>\n                    <p>This is the bee that you just saw.</p>\n                    <img src=\"bees-with-color/bee-A2SM.svg\" width=\"200\">\n                    <p><span class=\"redText\">Bad choice, the bee was angry.</span><br><b>You have been stung!</b><br>Your pay has been decreased by $0.10. Your bonus pay is now $0.04.</p>\n            ","response":0,"trial_type":"html-button-response","trial_index":104,"time_elapsed":351019,"internal_node_id":"0.0-4.0-1.48","subject_id":"5ff770a55da4c74077bd26ad","study_id":"6197b3f67c2b5cd3b6d9596a","session_id":"6197b9f20fffcf327b309611","condition":"full-information","relevant_dimensions":["pattern","legs"],"bee_group":{"antennae":"X","wings":"X","pattern":"S","legs":"M"},"bonus":0.08},{"rt":4366.699999988079,"stimulus":"bees-with-color/bee-A2DM.svg","response":0,"trial_type":"image-button-response","trial_index":105,"time_elapsed":355387,"internal_node_id":"0.0-4.0-0.49","subject_id":"5ff770a55da4c74077bd26ad","study_id":"6197b3f67c2b5cd3b6d9596a","session_id":"6197b9f20fffcf327b309611","condition":"full-information","relevant_dimensions":["pattern","legs"],"bee_group":{"antennae":"X","wings":"X","pattern":"S","legs":"M"},"action":"harvest","summary":"good-harvest","bonus":0.08},{"rt":826.9000000059605,"stimulus":"\n                    <p><b>Action: <em>harvest</em></b></p>\n                    <p>This is the bee that you just saw.</p>\n                    <img src=\"bees-with-color/bee-A2DM.svg\" width=\"200\">\n                    <p><span class=\"greenText\"><b>Successful harvest!</b></span><br>Your pay has increased by $0.02. Your bonus pay is now $0.06.</p>\n            ","response":0,"trial_type":"html-button-response","trial_index":106,"time_elapsed":356215,"internal_node_id":"0.0-4.0-1.49","subject_id":"5ff770a55da4c74077bd26ad","study_id":"6197b3f67c2b5cd3b6d9596a","session_id":"6197b9f20fffcf327b309611","condition":"full-information","relevant_dimensions":["pattern","legs"],"bee_group":{"antennae":"X","wings":"X","pattern":"S","legs":"M"},"bonus":0.08},{"rt":2830.800000011921,"stimulus":"bees-with-color/bee-B1DF.svg","response":0,"trial_type":"image-button-response","trial_index":107,"time_elapsed":359047,"internal_node_id":"0.0-4.0-0.50","subject_id":"5ff770a55da4c74077bd26ad","study_id":"6197b3f67c2b5cd3b6d9596a","session_id":"6197b9f20fffcf327b309611","condition":"full-information","relevant_dimensions":["pattern","legs"],"bee_group":{"antennae":"X","wings":"X","pattern":"S","legs":"M"},"action":"harvest","summary":"good-harvest","bonus":0.08},{"rt":1367,"stimulus":"\n                    <p><b>Action: <em>harvest</em></b></p>\n                    <p>This is the bee that you just saw.</p>\n                    <img src=\"bees-with-color/bee-B1DF.svg\" width=\"200\">\n                    <p><span class=\"greenText\"><b>Successful harvest!</b></span><br>Your pay has increased by $0.02. Your bonus pay is now $0.08.</p>\n            ","response":0,"trial_type":"html-button-response","trial_index":108,"time_elapsed":360416,"internal_node_id":"0.0-4.0-1.50","subject_id":"5ff770a55da4c74077bd26ad","study_id":"6197b3f67c2b5cd3b6d9596a","session_id":"6197b9f20fffcf327b309611","condition":"full-information","relevant_dimensions":["pattern","legs"],"bee_group":{"antennae":"X","wings":"X","pattern":"S","legs":"M"},"bonus":0.08},{"rt":3202.600000023842,"stimulus":"bees-with-color/bee-A1DM.svg","response":0,"trial_type":"image-button-response","trial_index":109,"time_elapsed":363619,"internal_node_id":"0.0-4.0-0.51","subject_id":"5ff770a55da4c74077bd26ad","study_id":"6197b3f67c2b5cd3b6d9596a","session_id":"6197b9f20fffcf327b309611","condition":"full-information","relevant_dimensions":["pattern","legs"],"bee_group":{"antennae":"X","wings":"X","pattern":"S","legs":"M"},"action":"harvest","summary":"good-harvest","bonus":0.08},{"rt":550.9000000059605,"stimulus":"\n                    <p><b>Action: <em>harvest</em></b></p>\n                    <p>This is the bee that you just saw.</p>\n                    <img src=\"bees-with-color/bee-A1DM.svg\" width=\"200\">\n                    <p><span class=\"greenText\"><b>Successful harvest!</b></span><br>Your pay has increased by $0.02. Your bonus pay is now $0.10.</p>\n            ","response":0,"trial_type":"html-button-response","trial_index":110,"time_elapsed":364172,"internal_node_id":"0.0-4.0-1.51","subject_id":"5ff770a55da4c74077bd26ad","study_id":"6197b3f67c2b5cd3b6d9596a","session_id":"6197b9f20fffcf327b309611","condition":"full-information","relevant_dimensions":["pattern","legs"],"bee_group":{"antennae":"X","wings":"X","pattern":"S","legs":"M"},"bonus":0.08},{"rt":2710.5,"stimulus":"bees-with-color/bee-A1SM.svg","response":0,"trial_type":"image-button-response","trial_index":111,"time_elapsed":366883,"internal_node_id":"0.0-4.0-0.52","subject_id":"5ff770a55da4c74077bd26ad","study_id":"6197b3f67c2b5cd3b6d9596a","session_id":"6197b9f20fffcf327b309611","condition":"full-information","relevant_dimensions":["pattern","legs"],"bee_group":{"antennae":"X","wings":"X","pattern":"S","legs":"M"},"action":"harvest","summary":"bad-harvest","bonus":0.08},{"rt":826.9000000059605,"stimulus":"\n                    <p><b>Action: <em>harvest</em></b></p>\n                    <p>This is the bee that you just saw.</p>\n                    <img src=\"bees-with-color/bee-A1SM.svg\" width=\"200\">\n                    <p><span class=\"redText\">Bad choice, the bee was angry.</span><br><b>You have been stung!</b><br>Your pay has been decreased by $0.10. Your bonus pay is now $0.00.</p>\n            ","response":0,"trial_type":"html-button-response","trial_index":112,"time_elapsed":367711,"internal_node_id":"0.0-4.0-1.52","subject_id":"5ff770a55da4c74077bd26ad","study_id":"6197b3f67c2b5cd3b6d9596a","session_id":"6197b9f20fffcf327b309611","condition":"full-information","relevant_dimensions":["pattern","legs"],"bee_group":{"antennae":"X","wings":"X","pattern":"S","legs":"M"},"bonus":0.08},{"rt":1006.7999999821186,"stimulus":"bees-with-color/bee-B1DM.svg","response":0,"trial_type":"image-button-response","trial_index":113,"time_elapsed":368719,"internal_node_id":"0.0-4.0-0.53","subject_id":"5ff770a55da4c74077bd26ad","study_id":"6197b3f67c2b5cd3b6d9596a","session_id":"6197b9f20fffcf327b309611","condition":"full-information","relevant_dimensions":["pattern","legs"],"bee_group":{"antennae":"X","wings":"X","pattern":"S","legs":"M"},"action":"harvest","summary":"good-harvest","bonus":0.08},{"rt":767.2000000178814,"stimulus":"\n                    <p><b>Action: <em>harvest</em></b></p>\n                    <p>This is the bee that you just saw.</p>\n                    <img src=\"bees-with-color/bee-B1DM.svg\" width=\"200\">\n                    <p><span class=\"greenText\"><b>Successful harvest!</b></span><br>Your pay has increased by $0.02. Your bonus pay is now $0.02.</p>\n            ","response":0,"trial_type":"html-button-response","trial_index":114,"time_elapsed":369487,"internal_node_id":"0.0-4.0-1.53","subject_id":"5ff770a55da4c74077bd26ad","study_id":"6197b3f67c2b5cd3b6d9596a","session_id":"6197b9f20fffcf327b309611","condition":"full-information","relevant_dimensions":["pattern","legs"],"bee_group":{"antennae":"X","wings":"X","pattern":"S","legs":"M"},"bonus":0.08},{"rt":443,"stimulus":"bees-with-color/bee-A2SF.svg","response":0,"trial_type":"image-button-response","trial_index":115,"time_elapsed":369931,"internal_node_id":"0.0-4.0-0.54","subject_id":"5ff770a55da4c74077bd26ad","study_id":"6197b3f67c2b5cd3b6d9596a","session_id":"6197b9f20fffcf327b309611","condition":"full-information","relevant_dimensions":["pattern","legs"],"bee_group":{"antennae":"X","wings":"X","pattern":"S","legs":"M"},"action":"harvest","summary":"good-harvest","bonus":0.08},{"rt":503.2000000178814,"stimulus":"\n                    <p><b>Action: <em>harvest</em></b></p>\n                    <p>This is the bee that you just saw.</p>\n                    <img src=\"bees-with-color/bee-A2SF.svg\" width=\"200\">\n                    <p><span class=\"greenText\"><b>Successful harvest!</b></span><br>Your pay has increased by $0.02. Your bonus pay is now $0.04.</p>\n            ","response":0,"trial_type":"html-button-response","trial_index":116,"time_elapsed":370435,"internal_node_id":"0.0-4.0-1.54","subject_id":"5ff770a55da4c74077bd26ad","study_id":"6197b3f67c2b5cd3b6d9596a","session_id":"6197b9f20fffcf327b309611","condition":"full-information","relevant_dimensions":["pattern","legs"],"bee_group":{"antennae":"X","wings":"X","pattern":"S","legs":"M"},"bonus":0.08},{"rt":419.2000000178814,"stimulus":"bees-with-color/bee-A2DF.svg","response":0,"trial_type":"image-button-response","trial_index":117,"time_elapsed":370855,"internal_node_id":"0.0-4.0-0.55","subject_id":"5ff770a55da4c74077bd26ad","study_id":"6197b3f67c2b5cd3b6d9596a","session_id":"6197b9f20fffcf327b309611","condition":"full-information","relevant_dimensions":["pattern","legs"],"bee_group":{"antennae":"X","wings":"X","pattern":"S","legs":"M"},"action":"harvest","summary":"good-harvest","bonus":0.08},{"rt":563.2000000178814,"stimulus":"\n                    <p><b>Action: <em>harvest</em></b></p>\n                    <p>This is the bee that you just saw.</p>\n                    <img src=\"bees-with-color/bee-A2DF.svg\" width=\"200\">\n                    <p><span class=\"greenText\"><b>Successful harvest!</b></span><br>Your pay has increased by $0.02. Your bonus pay is now $0.06.</p>\n            ","response":0,"trial_type":"html-button-response","trial_index":118,"time_elapsed":371419,"internal_node_id":"0.0-4.0-1.55","subject_id":"5ff770a55da4c74077bd26ad","study_id":"6197b3f67c2b5cd3b6d9596a","session_id":"6197b9f20fffcf327b309611","condition":"full-information","relevant_dimensions":["pattern","legs"],"bee_group":{"antennae":"X","wings":"X","pattern":"S","legs":"M"},"bonus":0.08},{"rt":875.2000000178814,"stimulus":"bees-with-color/bee-A1DF.svg","response":0,"trial_type":"image-button-response","trial_index":119,"time_elapsed":372295,"internal_node_id":"0.0-4.0-0.56","subject_id":"5ff770a55da4c74077bd26ad","study_id":"6197b3f67c2b5cd3b6d9596a","session_id":"6197b9f20fffcf327b309611","condition":"full-information","relevant_dimensions":["pattern","legs"],"bee_group":{"antennae":"X","wings":"X","pattern":"S","legs":"M"},"action":"harvest","summary":"good-harvest","bonus":0.08},{"rt":599.2000000178814,"stimulus":"\n                    <p><b>Action: <em>harvest</em></b></p>\n                    <p>This is the bee that you just saw.</p>\n                    <img src=\"bees-with-color/bee-A1DF.svg\" width=\"200\">\n                    <p><span class=\"greenText\"><b>Successful harvest!</b></span><br>Your pay has increased by $0.02. Your bonus pay is now $0.08.</p>\n            ","response":0,"trial_type":"html-button-response","trial_index":120,"time_elapsed":372895,"internal_node_id":"0.0-4.0-1.56","subject_id":"5ff770a55da4c74077bd26ad","study_id":"6197b3f67c2b5cd3b6d9596a","session_id":"6197b9f20fffcf327b309611","condition":"full-information","relevant_dimensions":["pattern","legs"],"bee_group":{"antennae":"X","wings":"X","pattern":"S","legs":"M"},"bonus":0.08},{"rt":3563.100000023842,"stimulus":"bees-with-color/bee-B1SM.svg","response":1,"trial_type":"image-button-response","trial_index":121,"time_elapsed":376459,"internal_node_id":"0.0-4.0-0.57","subject_id":"5ff770a55da4c74077bd26ad","study_id":"6197b3f67c2b5cd3b6d9596a","session_id":"6197b9f20fffcf327b309611","condition":"full-information","relevant_dimensions":["pattern","legs"],"bee_group":{"antennae":"X","wings":"X","pattern":"S","legs":"M"},"action":"avoid","summary":"good-avoid","bonus":0.08},{"rt":647.1999999880791,"stimulus":"\n                    <p><b>Action: <em>avoid</em></b></p>\n                    <p>This is the bee that you just saw.</p>\n                    <img src=\"bees-with-color/bee-B1SM.svg\" width=\"200\">\n                    <p><span class=\"greenText\">Good choice!</span>  This bee would have stung you.<br>Your bonus pay is unchanged, and remains at $0.08.</p>\n            ","response":0,"trial_type":"html-button-response","trial_index":122,"time_elapsed":377107,"internal_node_id":"0.0-4.0-1.57","subject_id":"5ff770a55da4c74077bd26ad","study_id":"6197b3f67c2b5cd3b6d9596a","session_id":"6197b9f20fffcf327b309611","condition":"full-information","relevant_dimensions":["pattern","legs"],"bee_group":{"antennae":"X","wings":"X","pattern":"S","legs":"M"},"bonus":0.08},{"rt":2290.800000011921,"stimulus":"bees-with-color/bee-B2DF.svg","response":0,"trial_type":"image-button-response","trial_index":123,"time_elapsed":379399,"internal_node_id":"0.0-4.0-0.58","subject_id":"5ff770a55da4c74077bd26ad","study_id":"6197b3f67c2b5cd3b6d9596a","session_id":"6197b9f20fffcf327b309611","condition":"full-information","relevant_dimensions":["pattern","legs"],"bee_group":{"antennae":"X","wings":"X","pattern":"S","legs":"M"},"action":"harvest","summary":"good-harvest","bonus":0.08},{"rt":623.1000000238419,"stimulus":"\n                    <p><b>Action: <em>harvest</em></b></p>\n                    <p>This is the bee that you just saw.</p>\n                    <img src=\"bees-with-color/bee-B2DF.svg\" width=\"200\">\n                    <p><span class=\"greenText\"><b>Successful harvest!</b></span><br>Your pay has increased by $0.02. Your bonus pay is now $0.10.</p>\n            ","response":0,"trial_type":"html-button-response","trial_index":124,"time_elapsed":380023,"internal_node_id":"0.0-4.0-1.58","subject_id":"5ff770a55da4c74077bd26ad","study_id":"6197b3f67c2b5cd3b6d9596a","session_id":"6197b9f20fffcf327b309611","condition":"full-information","relevant_dimensions":["pattern","legs"],"bee_group":{"antennae":"X","wings":"X","pattern":"S","legs":"M"},"bonus":0.08},{"rt":3791.2000000178814,"stimulus":"bees-with-color/bee-B1SF.svg","response":1,"trial_type":"image-button-response","trial_index":125,"time_elapsed":383815,"internal_node_id":"0.0-4.0-0.59","subject_id":"5ff770a55da4c74077bd26ad","study_id":"6197b3f67c2b5cd3b6d9596a","session_id":"6197b9f20fffcf327b309611","condition":"full-information","relevant_dimensions":["pattern","legs"],"bee_group":{"antennae":"X","wings":"X","pattern":"S","legs":"M"},"action":"avoid","summary":"bad-avoid","bonus":0.08},{"rt":8362.899999976158,"stimulus":"\n                    <p><b>Action: <em>avoid</em></b></p>\n                    <p>This is the bee that you just saw.</p>\n                    <img src=\"bees-with-color/bee-B1SF.svg\" width=\"200\">\n                    <p><span class=\"redText\">Bad choice,</span> the bee was friendly.<br>Your bonus pay is unchanged, and remains at $0.10.</p>\n            ","response":0,"trial_type":"html-button-response","trial_index":126,"time_elapsed":392179,"internal_node_id":"0.0-4.0-1.59","subject_id":"5ff770a55da4c74077bd26ad","study_id":"6197b3f67c2b5cd3b6d9596a","session_id":"6197b9f20fffcf327b309611","condition":"full-information","relevant_dimensions":["pattern","legs"],"bee_group":{"antennae":"X","wings":"X","pattern":"S","legs":"M"},"bonus":0.08},{"rt":850.8000000119209,"stimulus":"bees-with-color/bee-B2SF.svg","response":0,"trial_type":"image-button-response","trial_index":127,"time_elapsed":393031,"internal_node_id":"0.0-4.0-0.60","subject_id":"5ff770a55da4c74077bd26ad","study_id":"6197b3f67c2b5cd3b6d9596a","session_id":"6197b9f20fffcf327b309611","condition":"full-information","relevant_dimensions":["pattern","legs"],"bee_group":{"antennae":"X","wings":"X","pattern":"S","legs":"M"},"action":"harvest","summary":"good-harvest","bonus":0.08},{"rt":683,"stimulus":"\n                    <p><b>Action: <em>harvest</em></b></p>\n                    <p>This is the bee that you just saw.</p>\n                    <img src=\"bees-with-color/bee-B2SF.svg\" width=\"200\">\n                    <p><span class=\"greenText\"><b>Successful harvest!</b></span><br>Your pay has increased by $0.02. Your bonus pay is now $0.12.</p>\n            ","response":0,"trial_type":"html-button-response","trial_index":128,"time_elapsed":393715,"internal_node_id":"0.0-4.0-1.60","subject_id":"5ff770a55da4c74077bd26ad","study_id":"6197b3f67c2b5cd3b6d9596a","session_id":"6197b9f20fffcf327b309611","condition":"full-information","relevant_dimensions":["pattern","legs"],"bee_group":{"antennae":"X","wings":"X","pattern":"S","legs":"M"},"bonus":0.08},{"rt":10655.100000023842,"stimulus":"bees-with-color/bee-B2SM.svg","response":1,"trial_type":"image-button-response","trial_index":129,"time_elapsed":404371,"internal_node_id":"0.0-4.0-0.61","subject_id":"5ff770a55da4c74077bd26ad","study_id":"6197b3f67c2b5cd3b6d9596a","session_id":"6197b9f20fffcf327b309611","condition":"full-information","relevant_dimensions":["pattern","legs"],"bee_group":{"antennae":"X","wings":"X","pattern":"S","legs":"M"},"action":"avoid","summary":"good-avoid","bonus":0.08},{"rt":958.9000000059605,"stimulus":"\n                    <p><b>Action: <em>avoid</em></b></p>\n                    <p>This is the bee that you just saw.</p>\n                    <img src=\"bees-with-color/bee-B2SM.svg\" width=\"200\">\n                    <p><span class=\"greenText\">Good choice!</span>  This bee would have stung you.<br>Your bonus pay is unchanged, and remains at $0.12.</p>\n            ","response":0,"trial_type":"html-button-response","trial_index":130,"time_elapsed":405331,"internal_node_id":"0.0-4.0-1.61","subject_id":"5ff770a55da4c74077bd26ad","study_id":"6197b3f67c2b5cd3b6d9596a","session_id":"6197b9f20fffcf327b309611","condition":"full-information","relevant_dimensions":["pattern","legs"],"bee_group":{"antennae":"X","wings":"X","pattern":"S","legs":"M"},"bonus":0.08},{"rt":2446.800000011921,"stimulus":"bees-with-color/bee-B2DM.svg","response":0,"trial_type":"image-button-response","trial_index":131,"time_elapsed":407779,"internal_node_id":"0.0-4.0-0.62","subject_id":"5ff770a55da4c74077bd26ad","study_id":"6197b3f67c2b5cd3b6d9596a","session_id":"6197b9f20fffcf327b309611","condition":"full-information","relevant_dimensions":["pattern","legs"],"bee_group":{"antennae":"X","wings":"X","pattern":"S","legs":"M"},"action":"harvest","summary":"good-harvest","bonus":0.08},{"rt":862.7999999821186,"stimulus":"\n                    <p><b>Action: <em>harvest</em></b></p>\n                    <p>This is the bee that you just saw.</p>\n                    <img src=\"bees-with-color/bee-B2DM.svg\" width=\"200\">\n                    <p><span class=\"greenText\"><b>Successful harvest!</b></span><br>Your pay has increased by $0.02. Your bonus pay is now $0.14.</p>\n            ","response":0,"trial_type":"html-button-response","trial_index":132,"time_elapsed":408643,"internal_node_id":"0.0-4.0-1.62","subject_id":"5ff770a55da4c74077bd26ad","study_id":"6197b3f67c2b5cd3b6d9596a","session_id":"6197b9f20fffcf327b309611","condition":"full-information","relevant_dimensions":["pattern","legs"],"bee_group":{"antennae":"X","wings":"X","pattern":"S","legs":"M"},"bonus":0.08},{"rt":3395.100000023842,"stimulus":"bees-with-color/bee-A1SF.svg","response":0,"trial_type":"image-button-response","trial_index":133,"time_elapsed":412039,"internal_node_id":"0.0-4.0-0.63","subject_id":"5ff770a55da4c74077bd26ad","study_id":"6197b3f67c2b5cd3b6d9596a","session_id":"6197b9f20fffcf327b309611","condition":"full-information","relevant_dimensions":["pattern","legs"],"bee_group":{"antennae":"X","wings":"X","pattern":"S","legs":"M"},"action":"harvest","summary":"good-harvest","bonus":0.08},{"rt":898.9000000059605,"stimulus":"\n                    <p><b>Action: <em>harvest</em></b></p>\n                    <p>This is the bee that you just saw.</p>\n                    <img src=\"bees-with-color/bee-A1SF.svg\" width=\"200\">\n                    <p><span class=\"greenText\"><b>Successful harvest!</b></span><br>Your pay has increased by $0.02. Your bonus pay is now $0.16.</p>\n            ","response":0,"trial_type":"html-button-response","trial_index":134,"time_elapsed":412939,"internal_node_id":"0.0-4.0-1.63","subject_id":"5ff770a55da4c74077bd26ad","study_id":"6197b3f67c2b5cd3b6d9596a","session_id":"6197b9f20fffcf327b309611","condition":"full-information","relevant_dimensions":["pattern","legs"],"bee_group":{"antennae":"X","wings":"X","pattern":"S","legs":"M"},"bonus":0.08},{"rt":5351.200000017881,"stimulus":"You have completed the first part of this experiment.<br><br>You will now begin a shorter second part, in which you will receive no feedback.<br>The same rules regarding bonus pay apply.<br><br>Press any key to begin.","response":"enter","trial_type":"html-keyboard-response","trial_index":135,"time_elapsed":418291,"internal_node_id":"0.0-5.0","subject_id":"5ff770a55da4c74077bd26ad","study_id":"6197b3f67c2b5cd3b6d9596a","session_id":"6197b9f20fffcf327b309611","condition":"full-information","relevant_dimensions":["pattern","legs"],"bee_group":{"antennae":"X","wings":"X","pattern":"S","legs":"M"},"bonus":0.08},{"rt":2525.800000011921,"stimulus":"bees-with-color/bee-B1DM.svg","response":0,"trial_type":"image-button-response","trial_index":136,"time_elapsed":420823,"internal_node_id":"0.0-6.0-0.0","subject_id":"5ff770a55da4c74077bd26ad","study_id":"6197b3f67c2b5cd3b6d9596a","session_id":"6197b9f20fffcf327b309611","condition":"full-information","relevant_dimensions":["pattern","legs"],"bee_group":{"antennae":"X","wings":"X","pattern":"S","legs":"M"},"bonus":0.08},{"rt":1366.5,"stimulus":"bees-with-color/bee-A2DF.svg","response":0,"trial_type":"image-button-response","trial_index":137,"time_elapsed":422191,"internal_node_id":"0.0-6.0-0.1","subject_id":"5ff770a55da4c74077bd26ad","study_id":"6197b3f67c2b5cd3b6d9596a","session_id":"6197b9f20fffcf327b309611","condition":"full-information","relevant_dimensions":["pattern","legs"],"bee_group":{"antennae":"X","wings":"X","pattern":"S","legs":"M"},"bonus":0.08},{"rt":1006.8000000119209,"stimulus":"bees-with-color/bee-A1SM.svg","response":1,"trial_type":"image-button-response","trial_index":138,"time_elapsed":423199,"internal_node_id":"0.0-6.0-0.2","subject_id":"5ff770a55da4c74077bd26ad","study_id":"6197b3f67c2b5cd3b6d9596a","session_id":"6197b9f20fffcf327b309611","condition":"full-information","relevant_dimensions":["pattern","legs"],"bee_group":{"antennae":"X","wings":"X","pattern":"S","legs":"M"},"bonus":0.08},{"rt":1342.699999988079,"stimulus":"bees-with-color/bee-B2SF.svg","response":0,"trial_type":"image-button-response","trial_index":139,"time_elapsed":424543,"internal_node_id":"0.0-6.0-0.3","subject_id":"5ff770a55da4c74077bd26ad","study_id":"6197b3f67c2b5cd3b6d9596a","session_id":"6197b9f20fffcf327b309611","condition":"full-information","relevant_dimensions":["pattern","legs"],"bee_group":{"antennae":"X","wings":"X","pattern":"S","legs":"M"},"bonus":0.08},{"rt":1090.800000011921,"stimulus":"bees-with-color/bee-B1SF.svg","response":1,"trial_type":"image-button-response","trial_index":140,"time_elapsed":425635,"internal_node_id":"0.0-6.0-0.4","subject_id":"5ff770a55da4c74077bd26ad","study_id":"6197b3f67c2b5cd3b6d9596a","session_id":"6197b9f20fffcf327b309611","condition":"full-information","relevant_dimensions":["pattern","legs"],"bee_group":{"antennae":"X","wings":"X","pattern":"S","legs":"M"},"bonus":0.08},{"rt":1403,"stimulus":"bees-with-color/bee-B1SM.svg","response":0,"trial_type":"image-button-response","trial_index":141,"time_elapsed":427039,"internal_node_id":"0.0-6.0-0.5","subject_id":"5ff770a55da4c74077bd26ad","study_id":"6197b3f67c2b5cd3b6d9596a","session_id":"6197b9f20fffcf327b309611","condition":"full-information","relevant_dimensions":["pattern","legs"],"bee_group":{"antennae":"X","wings":"X","pattern":"S","legs":"M"},"bonus":0.08},{"rt":1042.5,"stimulus":"bees-with-color/bee-A1DM.svg","response":1,"trial_type":"image-button-response","trial_index":142,"time_elapsed":428083,"internal_node_id":"0.0-6.0-0.6","subject_id":"5ff770a55da4c74077bd26ad","study_id":"6197b3f67c2b5cd3b6d9596a","session_id":"6197b9f20fffcf327b309611","condition":"full-information","relevant_dimensions":["pattern","legs"],"bee_group":{"antennae":"X","wings":"X","pattern":"S","legs":"M"},"bonus":0.08},{"rt":1426.699999988079,"stimulus":"bees-with-color/bee-B1DF.svg","response":0,"trial_type":"image-button-response","trial_index":143,"time_elapsed":429511,"internal_node_id":"0.0-6.0-0.7","subject_id":"5ff770a55da4c74077bd26ad","study_id":"6197b3f67c2b5cd3b6d9596a","session_id":"6197b9f20fffcf327b309611","condition":"full-information","relevant_dimensions":["pattern","legs"],"bee_group":{"antennae":"X","wings":"X","pattern":"S","legs":"M"},"bonus":0.08},{"rt":6742.9000000059605,"stimulus":"bees-with-color/bee-A2SF.svg","response":0,"trial_type":"image-button-response","trial_index":144,"time_elapsed":436255,"internal_node_id":"0.0-6.0-0.8","subject_id":"5ff770a55da4c74077bd26ad","study_id":"6197b3f67c2b5cd3b6d9596a","session_id":"6197b9f20fffcf327b309611","condition":"full-information","relevant_dimensions":["pattern","legs"],"bee_group":{"antennae":"X","wings":"X","pattern":"S","legs":"M"},"bonus":0.08},{"rt":958.1999999880791,"stimulus":"bees-with-color/bee-A2SM.svg","response":1,"trial_type":"image-button-response","trial_index":145,"time_elapsed":437215,"internal_node_id":"0.0-6.0-0.9","subject_id":"5ff770a55da4c74077bd26ad","study_id":"6197b3f67c2b5cd3b6d9596a","session_id":"6197b9f20fffcf327b309611","condition":"full-information","relevant_dimensions":["pattern","legs"],"bee_group":{"antennae":"X","wings":"X","pattern":"S","legs":"M"},"bonus":0.08},{"rt":754.7999999821186,"stimulus":"bees-with-color/bee-B2DF.svg","response":0,"trial_type":"image-button-response","trial_index":146,"time_elapsed":437971,"internal_node_id":"0.0-6.0-0.10","subject_id":"5ff770a55da4c74077bd26ad","study_id":"6197b3f67c2b5cd3b6d9596a","session_id":"6197b9f20fffcf327b309611","condition":"full-information","relevant_dimensions":["pattern","legs"],"bee_group":{"antennae":"X","wings":"X","pattern":"S","legs":"M"},"bonus":0.08},{"rt":1530.699999988079,"stimulus":"bees-with-color/bee-A1DF.svg","response":0,"trial_type":"image-button-response","trial_index":147,"time_elapsed":439503,"internal_node_id":"0.0-6.0-0.11","subject_id":"5ff770a55da4c74077bd26ad","study_id":"6197b3f67c2b5cd3b6d9596a","session_id":"6197b9f20fffcf327b309611","condition":"full-information","relevant_dimensions":["pattern","legs"],"bee_group":{"antennae":"X","wings":"X","pattern":"S","legs":"M"},"bonus":0.08},{"rt":1582.699999988079,"stimulus":"bees-with-color/bee-A1SF.svg","response":1,"trial_type":"image-button-response","trial_index":148,"time_elapsed":441087,"internal_node_id":"0.0-6.0-0.12","subject_id":"5ff770a55da4c74077bd26ad","study_id":"6197b3f67c2b5cd3b6d9596a","session_id":"6197b9f20fffcf327b309611","condition":"full-information","relevant_dimensions":["pattern","legs"],"bee_group":{"antennae":"X","wings":"X","pattern":"S","legs":"M"},"bonus":0.08},{"rt":4642.699999988079,"stimulus":"bees-with-color/bee-B2SM.svg","response":0,"trial_type":"image-button-response","trial_index":149,"time_elapsed":445731,"internal_node_id":"0.0-6.0-0.13","subject_id":"5ff770a55da4c74077bd26ad","study_id":"6197b3f67c2b5cd3b6d9596a","session_id":"6197b9f20fffcf327b309611","condition":"full-information","relevant_dimensions":["pattern","legs"],"bee_group":{"antennae":"X","wings":"X","pattern":"S","legs":"M"},"bonus":0.08},{"rt":826.3999999761581,"stimulus":"bees-with-color/bee-B2DM.svg","response":0,"trial_type":"image-button-response","trial_index":150,"time_elapsed":446559,"internal_node_id":"0.0-6.0-0.14","subject_id":"5ff770a55da4c74077bd26ad","study_id":"6197b3f67c2b5cd3b6d9596a","session_id":"6197b9f20fffcf327b309611","condition":"full-information","relevant_dimensions":["pattern","legs"],"bee_group":{"antennae":"X","wings":"X","pattern":"S","legs":"M"},"bonus":0.08},{"rt":1054.9000000059605,"stimulus":"bees-with-color/bee-A2DM.svg","response":0,"trial_type":"image-button-response","trial_index":151,"time_elapsed":447615,"internal_node_id":"0.0-6.0-0.15","subject_id":"5ff770a55da4c74077bd26ad","study_id":"6197b3f67c2b5cd3b6d9596a","session_id":"6197b9f20fffcf327b309611","condition":"full-information","relevant_dimensions":["pattern","legs"],"bee_group":{"antennae":"X","wings":"X","pattern":"S","legs":"M"},"bonus":0.08},{"rt":1138.8999999761581,"stimulus":"bees-with-color/bee-B2DM.svg","response":0,"trial_type":"image-button-response","trial_index":152,"time_elapsed":448755,"internal_node_id":"0.0-6.0-0.16","subject_id":"5ff770a55da4c74077bd26ad","study_id":"6197b3f67c2b5cd3b6d9596a","session_id":"6197b9f20fffcf327b309611","condition":"full-information","relevant_dimensions":["pattern","legs"],"bee_group":{"antennae":"X","wings":"X","pattern":"S","legs":"M"},"bonus":0.08},{"rt":2423,"stimulus":"bees-with-color/bee-A1SM.svg","response":0,"trial_type":"image-button-response","trial_index":153,"time_elapsed":451179,"internal_node_id":"0.0-6.0-0.17","subject_id":"5ff770a55da4c74077bd26ad","study_id":"6197b3f67c2b5cd3b6d9596a","session_id":"6197b9f20fffcf327b309611","condition":"full-information","relevant_dimensions":["pattern","legs"],"bee_group":{"antennae":"X","wings":"X","pattern":"S","legs":"M"},"bonus":0.08},{"rt":1210.8999999761581,"stimulus":"bees-with-color/bee-A1DM.svg","response":0,"trial_type":"image-button-response","trial_index":154,"time_elapsed":452391,"internal_node_id":"0.0-6.0-0.18","subject_id":"5ff770a55da4c74077bd26ad","study_id":"6197b3f67c2b5cd3b6d9596a","session_id":"6197b9f20fffcf327b309611","condition":"full-information","relevant_dimensions":["pattern","legs"],"bee_group":{"antennae":"X","wings":"X","pattern":"S","legs":"M"},"bonus":0.08},{"rt":5555,"stimulus":"bees-with-color/bee-B2SF.svg","response":0,"trial_type":"image-button-response","trial_index":155,"time_elapsed":457947,"internal_node_id":"0.0-6.0-0.19","subject_id":"5ff770a55da4c74077bd26ad","study_id":"6197b3f67c2b5cd3b6d9596a","session_id":"6197b9f20fffcf327b309611","condition":"full-information","relevant_dimensions":["pattern","legs"],"bee_group":{"antennae":"X","wings":"X","pattern":"S","legs":"M"},"bonus":0.08},{"rt":982.5999999940395,"stimulus":"bees-with-color/bee-B1DM.svg","response":0,"trial_type":"image-button-response","trial_index":156,"time_elapsed":458931,"internal_node_id":"0.0-6.0-0.20","subject_id":"5ff770a55da4c74077bd26ad","study_id":"6197b3f67c2b5cd3b6d9596a","session_id":"6197b9f20fffcf327b309611","condition":"full-information","relevant_dimensions":["pattern","legs"],"bee_group":{"antennae":"X","wings":"X","pattern":"S","legs":"M"},"bonus":0.08},{"rt":670.8999999761581,"stimulus":"bees-with-color/bee-B1DF.svg","response":0,"trial_type":"image-button-response","trial_index":157,"time_elapsed":459603,"internal_node_id":"0.0-6.0-0.21","subject_id":"5ff770a55da4c74077bd26ad","study_id":"6197b3f67c2b5cd3b6d9596a","session_id":"6197b9f20fffcf327b309611","condition":"full-information","relevant_dimensions":["pattern","legs"],"bee_group":{"antennae":"X","wings":"X","pattern":"S","legs":"M"},"bonus":0.08},{"rt":5075,"stimulus":"bees-with-color/bee-A2SM.svg","response":0,"trial_type":"image-button-response","trial_index":158,"time_elapsed":464679,"internal_node_id":"0.0-6.0-0.22","subject_id":"5ff770a55da4c74077bd26ad","study_id":"6197b3f67c2b5cd3b6d9596a","session_id":"6197b9f20fffcf327b309611","condition":"full-information","relevant_dimensions":["pattern","legs"],"bee_group":{"antennae":"X","wings":"X","pattern":"S","legs":"M"},"bonus":0.08},{"rt":1162.699999988079,"stimulus":"bees-with-color/bee-A1DF.svg","response":0,"trial_type":"image-button-response","trial_index":159,"time_elapsed":465843,"internal_node_id":"0.0-6.0-0.23","subject_id":"5ff770a55da4c74077bd26ad","study_id":"6197b3f67c2b5cd3b6d9596a","session_id":"6197b9f20fffcf327b309611","condition":"full-information","relevant_dimensions":["pattern","legs"],"bee_group":{"antennae":"X","wings":"X","pattern":"S","legs":"M"},"bonus":0.08},{"rt":1246.7999999821186,"stimulus":"bees-with-color/bee-B2DF.svg","response":0,"trial_type":"image-button-response","trial_index":160,"time_elapsed":467091,"internal_node_id":"0.0-6.0-0.24","subject_id":"5ff770a55da4c74077bd26ad","study_id":"6197b3f67c2b5cd3b6d9596a","session_id":"6197b9f20fffcf327b309611","condition":"full-information","relevant_dimensions":["pattern","legs"],"bee_group":{"antennae":"X","wings":"X","pattern":"S","legs":"M"},"bonus":0.08},{"rt":803,"stimulus":"bees-with-color/bee-A2DM.svg","response":0,"trial_type":"image-button-response","trial_index":161,"time_elapsed":467895,"internal_node_id":"0.0-6.0-0.25","subject_id":"5ff770a55da4c74077bd26ad","study_id":"6197b3f67c2b5cd3b6d9596a","session_id":"6197b9f20fffcf327b309611","condition":"full-information","relevant_dimensions":["pattern","legs"],"bee_group":{"antennae":"X","wings":"X","pattern":"S","legs":"M"},"bonus":0.08},{"rt":2386.7999999821186,"stimulus":"bees-with-color/bee-B2SM.svg","response":0,"trial_type":"image-button-response","trial_index":162,"time_elapsed":470283,"internal_node_id":"0.0-6.0-0.26","su