[{"success":true,"trial_type":"fullscreen","trial_index":0,"time_elapsed":4568,"internal_node_id":"0.0-0.0","subject_id":"611a78efa6c36a674dc40cc6","study_id":"6197b3f67c2b5cd3b6d9596a","session_id":"6197b7c7cd151cfc2b7bbd00","condition":"full-information","relevant_dimensions":["antennae","wings"],"bee_group":{"antennae":"A","wings":"1","pattern":"X","legs":"X"},"bonus":0.5800000000000008},{"success":true,"timeout":false,"failed_images":[],"failed_audio":[],"failed_video":[],"trial_type":"preload","trial_index":1,"time_elapsed":6517,"internal_node_id":"0.0-1.0","subject_id":"611a78efa6c36a674dc40cc6","study_id":"6197b3f67c2b5cd3b6d9596a","session_id":"6197b7c7cd151cfc2b7bbd00","condition":"full-information","relevant_dimensions":["antennae","wings"],"bee_group":{"antennae":"A","wings":"1","pattern":"X","legs":"X"},"bonus":0.5800000000000008},{"rt":2800.5999999996275,"stimulus":"Welcome! Press any key to begin.","response":" ","trial_type":"html-keyboard-response","trial_index":2,"time_elapsed":9319,"internal_node_id":"0.0-2.0","subject_id":"611a78efa6c36a674dc40cc6","study_id":"6197b3f67c2b5cd3b6d9596a","session_id":"6197b7c7cd151cfc2b7bbd00","condition":"full-information","relevant_dimensions":["antennae","wings"],"bee_group":{"antennae":"A","wings":"1","pattern":"X","legs":"X"},"bonus":0.5800000000000008},{"view_history":[{"page_index":0,"viewing_time":3619.699999999255},{"page_index":1,"viewing_time":10245.599999999627},{"page_index":2,"viewing_time":11660.10000000149},{"page_index":3,"viewing_time":12426},{"page_index":4,"viewing_time":6637.0999999996275},{"page_index":5,"viewing_time":8415.900000000373},{"page_index":6,"viewing_time":8111.0999999996275},{"page_index":7,"viewing_time":6635.9000000003725},{"page_index":8,"viewing_time":4138.0999999996275},{"page_index":9,"viewing_time":3893.5999999996275},{"page_index":10,"viewing_time":2544.4000000003725},{"page_index":11,"viewing_time":7983.799999998882},{"page_index":12,"viewing_time":7752.700000001118},{"page_index":13,"viewing_time":1331.5999999996275},{"page_index":14,"viewing_time":1622.800000000745}],"rt":97019,"trial_type":"instructions","trial_index":3,"time_elapsed":106338,"internal_node_id":"0.0-3.0-0.0","subject_id":"611a78efa6c36a674dc40cc6","study_id":"6197b3f67c2b5cd3b6d9596a","session_id":"6197b7c7cd151cfc2b7bbd00","condition":"full-information","relevant_dimensions":["antennae","wings"],"bee_group":{"antennae":"A","wings":"1","pattern":"X","legs":"X"},"bonus":0.5800000000000008},{"rt":11476.299999998882,"response":{"Q0":["Two or six legs","Stripes or spots on body","Single or double wings","Antennae or no antennae"]},"question_order":[0],"trial_type":"survey-multi-select","trial_index":4,"time_elapsed":117819,"internal_node_id":"0.0-3.0-1.0","subject_id":"611a78efa6c36a674dc40cc6","study_id":"6197b3f67c2b5cd3b6d9596a","session_id":"6197b7c7cd151cfc2b7bbd00","condition":"full-information","relevant_dimensions":["antennae","wings"],"bee_group":{"antennae":"A","wings":"1","pattern":"X","legs":"X"},"correct":true,"bonus":0.5800000000000008},{"rt":20949.799999998882,"response":{"Q1":"No.","Q2":"Based on the four features of the bee.","Q3":"You learn if it was friendly or dangerous, but do not alter your bonus."},"question_order":[0,1,2],"trial_type":"survey-multi-choice","trial_index":5,"time_elapsed":138773,"internal_node_id":"0.0-3.0-2.0","subject_id":"611a78efa6c36a674dc40cc6","study_id":"6197b3f67c2b5cd3b6d9596a","session_id":"6197b7c7cd151cfc2b7bbd00","condition":"full-information","relevant_dimensions":["antennae","wings"],"bee_group":{"antennae":"A","wings":"1","pattern":"X","legs":"X"},"correct":true,"bonus":0.5800000000000008},{"rt":2960.300000000745,"stimulus":"<p>Congrats, you got everything right<br>When you're ready, click the button below to continue to the experiment.</p>","response":0,"trial_type":"html-button-response","trial_index":6,"time_elapsed":141737,"internal_node_id":"0.0-3.0-3.0","subject_id":"611a78efa6c36a674dc40cc6","study_id":"6197b3f67c2b5cd3b6d9596a","session_id":"6197b7c7cd151cfc2b7bbd00","condition":"full-information","relevant_dimensions":["antennae","wings"],"bee_group":{"antennae":"A","wings":"1","pattern":"X","legs":"X"},"bonus":0.5800000000000008},{"rt":3231.4000000003725,"stimulus":"bees-with-color/bee-B1SM.svg","response":1,"trial_type":"image-button-response","trial_index":7,"time_elapsed":144971,"internal_node_id":"0.0-4.0-0.0","subject_id":"611a78efa6c36a674dc40cc6","study_id":"6197b3f67c2b5cd3b6d9596a","session_id":"6197b7c7cd151cfc2b7bbd00","condition":"full-information","relevant_dimensions":["antennae","wings"],"bee_group":{"antennae":"A","wings":"1","pattern":"X","legs":"X"},"action":"avoid","summary":"bad-avoid","bonus":0.5800000000000008},{"rt":6243.4000000003725,"stimulus":"\n                    <p><b>Action: <em>avoid</em></b></p>\n                    <p>This is the bee that you just saw.</p>\n                    <img src=\"bees-with-color/bee-B1SM.svg\" width=\"200\">\n                    <p><span class=\"redText\">Bad choice,</span> the bee was friendly.<br>Your bonus pay is unchanged, and remains at $0.54.</p>\n            ","response":0,"trial_type":"html-button-response","trial_index":8,"time_elapsed":151217,"internal_node_id":"0.0-4.0-1.0","subject_id":"611a78efa6c36a674dc40cc6","study_id":"6197b3f67c2b5cd3b6d9596a","session_id":"6197b7c7cd151cfc2b7bbd00","condition":"full-information","relevant_dimensions":["antennae","wings"],"bee_group":{"antennae":"A","wings":"1","pattern":"X","legs":"X"},"bonus":0.5800000000000008},{"rt":2397.9000000003725,"stimulus":"bees-with-color/bee-A1DF.svg","response":1,"trial_type":"image-button-response","trial_index":9,"time_elapsed":153617,"internal_node_id":"0.0-4.0-0.1","subject_id":"611a78efa6c36a674dc40cc6","study_id":"6197b3f67c2b5cd3b6d9596a","session_id":"6197b7c7cd151cfc2b7bbd00","condition":"full-information","relevant_dimensions":["antennae","wings"],"bee_group":{"antennae":"A","wings":"1","pattern":"X","legs":"X"},"action":"avoid","summary":"good-avoid","bonus":0.5800000000000008},{"rt":7015.4000000003725,"stimulus":"\n                    <p><b>Action: <em>avoid</em></b></p>\n                    <p>This is the bee that you just saw.</p>\n                    <img src=\"bees-with-color/bee-A1DF.svg\" width=\"200\">\n                    <p><span class=\"greenText\">Good choice!</span>  This bee would have stung you.<br>Your bonus pay is unchanged, and remains at $0.54.</p>\n            ","response":0,"trial_type":"html-button-response","trial_index":10,"time_elapsed":160634,"internal_node_id":"0.0-4.0-1.1","subject_id":"611a78efa6c36a674dc40cc6","study_id":"6197b3f67c2b5cd3b6d9596a","session_id":"6197b7c7cd151cfc2b7bbd00","condition":"full-information","relevant_dimensions":["antennae","wings"],"bee_group":{"antennae":"A","wings":"1","pattern":"X","legs":"X"},"bonus":0.5800000000000008},{"rt":3177.800000000745,"stimulus":"bees-with-color/bee-B1DF.svg","response":1,"trial_type":"image-button-response","trial_index":11,"time_elapsed":163814,"internal_node_id":"0.0-4.0-0.2","subject_id":"611a78efa6c36a674dc40cc6","study_id":"6197b3f67c2b5cd3b6d9596a","session_id":"6197b7c7cd151cfc2b7bbd00","condition":"full-information","relevant_dimensions":["antennae","wings"],"bee_group":{"antennae":"A","wings":"1","pattern":"X","legs":"X"},"action":"avoid","summary":"bad-avoid","bonus":0.5800000000000008},{"rt":2674.0999999996275,"stimulus":"\n                    <p><b>Action: <em>avoid</em></b></p>\n                    <p>This is the bee that you just saw.</p>\n                    <img src=\"bees-with-color/bee-B1DF.svg\" width=\"200\">\n                    <p><span class=\"redText\">Bad choice,</span> the bee was friendly.<br>Your bonus pay is unchanged, and remains at $0.54.</p>\n            ","response":0,"trial_type":"html-button-response","trial_index":12,"time_elapsed":166490,"internal_node_id":"0.0-4.0-1.2","subject_id":"611a78efa6c36a674dc40cc6","study_id":"6197b3f67c2b5cd3b6d9596a","session_id":"6197b7c7cd151cfc2b7bbd00","condition":"full-information","relevant_dimensions":["antennae","wings"],"bee_group":{"antennae":"A","wings":"1","pattern":"X","legs":"X"},"bonus":0.5800000000000008},{"rt":2628.4000000003725,"stimulus":"bees-with-color/bee-B2DM.svg","response":1,"trial_type":"image-button-response","trial_index":13,"time_elapsed":169120,"internal_node_id":"0.0-4.0-0.3","subject_id":"611a78efa6c36a674dc40cc6","study_id":"6197b3f67c2b5cd3b6d9596a","session_id":"6197b7c7cd151cfc2b7bbd00","condition":"full-information","relevant_dimensions":["antennae","wings"],"bee_group":{"antennae":"A","wings":"1","pattern":"X","legs":"X"},"action":"avoid","summary":"bad-avoid","bonus":0.5800000000000008},{"rt":4223.4000000003725,"stimulus":"\n                    <p><b>Action: <em>avoid</em></b></p>\n                    <p>This is the bee that you just saw.</p>\n                    <img src=\"bees-with-color/bee-B2DM.svg\" width=\"200\">\n                    <p><span class=\"redText\">Bad choice,</span> the bee was friendly.<br>Your bonus pay is unchanged, and remains at $0.54.</p>\n            ","response":0,"trial_type":"html-button-response","trial_index":14,"time_elapsed":173345,"internal_node_id":"0.0-4.0-1.3","subject_id":"611a78efa6c36a674dc40cc6","study_id":"6197b3f67c2b5cd3b6d9596a","session_id":"6197b7c7cd151cfc2b7bbd00","condition":"full-information","relevant_dimensions":["antennae","wings"],"bee_group":{"antennae":"A","wings":"1","pattern":"X","legs":"X"},"bonus":0.5800000000000008},{"rt":2187.300000000745,"stimulus":"bees-with-color/bee-A2DF.svg","response":0,"trial_type":"image-button-response","trial_index":15,"time_elapsed":175534,"internal_node_id":"0.0-4.0-0.4","subject_id":"611a78efa6c36a674dc40cc6","study_id":"6197b3f67c2b5cd3b6d9596a","session_id":"6197b7c7cd151cfc2b7bbd00","condition":"full-information","relevant_dimensions":["antennae","wings"],"bee_group":{"antennae":"A","wings":"1","pattern":"X","legs":"X"},"action":"harvest","summary":"good-harvest","bonus":0.5800000000000008},{"rt":3355.5,"stimulus":"\n                    <p><b>Action: <em>harvest</em></b></p>\n                    <p>This is the bee that you just saw.</p>\n                    <img src=\"bees-with-color/bee-A2DF.svg\" width=\"200\">\n                    <p><span class=\"greenText\"><b>Successful harvest!</b></span><br>Your pay has increased by $0.02. Your bonus pay is now $0.56.</p>\n            ","response":0,"trial_type":"html-button-response","trial_index":16,"time_elapsed":178890,"internal_node_id":"0.0-4.0-1.4","subject_id":"611a78efa6c36a674dc40cc6","study_id":"6197b3f67c2b5cd3b6d9596a","session_id":"6197b7c7cd151cfc2b7bbd00","condition":"full-information","relevant_dimensions":["antennae","wings"],"bee_group":{"antennae":"A","wings":"1","pattern":"X","legs":"X"},"bonus":0.5800000000000008},{"rt":5206.5,"stimulus":"bees-with-color/bee-A2SM.svg","response":0,"trial_type":"image-button-response","trial_index":17,"time_elapsed":184098,"internal_node_id":"0.0-4.0-0.5","subject_id":"611a78efa6c36a674dc40cc6","study_id":"6197b3f67c2b5cd3b6d9596a","session_id":"6197b7c7cd151cfc2b7bbd00","condition":"full-information","relevant_dimensions":["antennae","wings"],"bee_group":{"antennae":"A","wings":"1","pattern":"X","legs":"X"},"action":"harvest","summary":"good-harvest","bonus":0.5800000000000008},{"rt":3837.5999999996275,"stimulus":"\n                    <p><b>Action: <em>harvest</em></b></p>\n                    <p>This is the bee that you just saw.</p>\n                    <img src=\"bees-with-color/bee-A2SM.svg\" width=\"200\">\n                    <p><span class=\"greenText\"><b>Successful harvest!</b></span><br>Your pay has increased by $0.02. Your bonus pay is now $0.58.</p>\n            ","response":0,"trial_type":"html-button-response","trial_index":18,"time_elapsed":187938,"internal_node_id":"0.0-4.0-1.5","subject_id":"611a78efa6c36a674dc40cc6","study_id":"6197b3f67c2b5cd3b6d9596a","session_id":"6197b7c7cd151cfc2b7bbd00","condition":"full-information","relevant_dimensions":["antennae","wings"],"bee_group":{"antennae":"A","wings":"1","pattern":"X","legs":"X"},"bonus":0.5800000000000008},{"rt":3560,"stimulus":"bees-with-color/bee-A2DM.svg","response":0,"trial_type":"image-button-response","trial_index":19,"time_elapsed":191501,"internal_node_id":"0.0-4.0-0.6","subject_id":"611a78efa6c36a674dc40cc6","study_id":"6197b3f67c2b5cd3b6d9596a","session_id":"6197b7c7cd151cfc2b7bbd00","condition":"full-information","relevant_dimensions":["antennae","wings"],"bee_group":{"antennae":"A","wings":"1","pattern":"X","legs":"X"},"action":"harvest","summary":"good-harvest","bonus":0.5800000000000008},{"rt":2704.5999999996275,"stimulus":"\n                    <p><b>Action: <em>harvest</em></b></p>\n                    <p>This is the bee that you just saw.</p>\n                    <img src=\"bees-with-color/bee-A2DM.svg\" width=\"200\">\n                    <p><span class=\"greenText\"><b>Successful harvest!</b></span><br>Your pay has increased by $0.02. Your bonus pay is now $0.60.</p>\n            ","response":0,"trial_type":"html-button-response","trial_index":20,"time_elapsed":194207,"internal_node_id":"0.0-4.0-1.6","subject_id":"611a78efa6c36a674dc40cc6","study_id":"6197b3f67c2b5cd3b6d9596a","session_id":"6197b7c7cd151cfc2b7bbd00","condition":"full-information","relevant_dimensions":["antennae","wings"],"bee_group":{"antennae":"A","wings":"1","pattern":"X","legs":"X"},"bonus":0.5800000000000008},{"rt":2454.2000000011176,"stimulus":"bees-with-color/bee-A1SF.svg","response":1,"trial_type":"image-button-response","trial_index":21,"time_elapsed":196662,"internal_node_id":"0.0-4.0-0.7","subject_id":"611a78efa6c36a674dc40cc6","study_id":"6197b3f67c2b5cd3b6d9596a","session_id":"6197b7c7cd151cfc2b7bbd00","condition":"full-information","relevant_dimensions":["antennae","wings"],"bee_group":{"antennae":"A","wings":"1","pattern":"X","legs":"X"},"action":"avoid","summary":"good-avoid","bonus":0.5800000000000008},{"rt":4345.0999999996275,"stimulus":"\n                    <p><b>Action: <em>avoid</em></b></p>\n                    <p>This is the bee that you just saw.</p>\n                    <img src=\"bees-with-color/bee-A1SF.svg\" width=\"200\">\n                    <p><span class=\"greenText\">Good choice!</span>  This bee would have stung you.<br>Your bonus pay is unchanged, and remains at $0.60.</p>\n            ","response":0,"trial_type":"html-button-response","trial_index":22,"time_elapsed":201009,"internal_node_id":"0.0-4.0-1.7","subject_id":"611a78efa6c36a674dc40cc6","study_id":"6197b3f67c2b5cd3b6d9596a","session_id":"6197b7c7cd151cfc2b7bbd00","condition":"full-information","relevant_dimensions":["antennae","wings"],"bee_group":{"antennae":"A","wings":"1","pattern":"X","legs":"X"},"bonus":0.5800000000000008},{"rt":2450.4000000003725,"stimulus":"bees-with-color/bee-B2DF.svg","response":1,"trial_type":"image-button-response","trial_index":23,"time_elapsed":203462,"internal_node_id":"0.0-4.0-0.8","subject_id":"611a78efa6c36a674dc40cc6","study_id":"6197b3f67c2b5cd3b6d9596a","session_id":"6197b7c7cd151cfc2b7bbd00","condition":"full-information","relevant_dimensions":["antennae","wings"],"bee_group":{"antennae":"A","wings":"1","pattern":"X","legs":"X"},"action":"avoid","summary":"bad-avoid","bonus":0.5800000000000008},{"rt":3480.0999999996275,"stimulus":"\n                    <p><b>Action: <em>avoid</em></b></p>\n                    <p>This is the bee that you just saw.</p>\n                    <img src=\"bees-with-color/bee-B2DF.svg\" width=\"200\">\n                    <p><span class=\"redText\">Bad choice,</span> the bee was friendly.<br>Your bonus pay is unchanged, and remains at $0.60.</p>\n            ","response":0,"trial_type":"html-button-response","trial_index":24,"time_elapsed":206943,"internal_node_id":"0.0-4.0-1.8","subject_id":"611a78efa6c36a674dc40cc6","study_id":"6197b3f67c2b5cd3b6d9596a","session_id":"6197b7c7cd151cfc2b7bbd00","condition":"full-information","relevant_dimensions":["antennae","wings"],"bee_group":{"antennae":"A","wings":"1","pattern":"X","legs":"X"},"bonus":0.5800000000000008},{"rt":5362.9000000003725,"stimulus":"bees-with-color/bee-B2SM.svg","response":1,"trial_type":"image-button-response","trial_index":25,"time_elapsed":212308,"internal_node_id":"0.0-4.0-0.9","subject_id":"611a78efa6c36a674dc40cc6","study_id":"6197b3f67c2b5cd3b6d9596a","session_id":"6197b7c7cd151cfc2b7bbd00","condition":"full-information","relevant_dimensions":["antennae","wings"],"bee_group":{"antennae":"A","wings":"1","pattern":"X","legs":"X"},"action":"avoid","summary":"bad-avoid","bonus":0.5800000000000008},{"rt":1547,"stimulus":"\n                    <p><b>Action: <em>avoid</em></b></p>\n                    <p>This is the bee that you just saw.</p>\n                    <img src=\"bees-with-color/bee-B2SM.svg\" width=\"200\">\n                    <p><span class=\"redText\">Bad choice,</span> the bee was friendly.<br>Your bonus pay is unchanged, and remains at $0.60.</p>\n            ","response":0,"trial_type":"html-button-response","trial_index":26,"time_elapsed":213857,"internal_node_id":"0.0-4.0-1.9","subject_id":"611a78efa6c36a674dc40cc6","study_id":"6197b3f67c2b5cd3b6d9596a","session_id":"6197b7c7cd151cfc2b7bbd00","condition":"full-information","relevant_dimensions":["antennae","wings"],"bee_group":{"antennae":"A","wings":"1","pattern":"X","legs":"X"},"bonus":0.5800000000000008},{"rt":2390.2000000011176,"stimulus":"bees-with-color/bee-B2SF.svg","response":0,"trial_type":"image-button-response","trial_index":27,"time_elapsed":216248,"internal_node_id":"0.0-4.0-0.10","subject_id":"611a78efa6c36a674dc40cc6","study_id":"6197b3f67c2b5cd3b6d9596a","session_id":"6197b7c7cd151cfc2b7bbd00","condition":"full-information","relevant_dimensions":["antennae","wings"],"bee_group":{"antennae":"A","wings":"1","pattern":"X","legs":"X"},"action":"harvest","summary":"good-harvest","bonus":0.5800000000000008},{"rt":2219.2999999988824,"stimulus":"\n                    <p><b>Action: <em>harvest</em></b></p>\n                    <p>This is the bee that you just saw.</p>\n                    <img src=\"bees-with-color/bee-B2SF.svg\" width=\"200\">\n                    <p><span class=\"greenText\"><b>Successful harvest!</b></span><br>Your pay has increased by $0.02. Your bonus pay is now $0.62.</p>\n            ","response":0,"trial_type":"html-button-response","trial_index":28,"time_elapsed":218469,"internal_node_id":"0.0-4.0-1.10","subject_id":"611a78efa6c36a674dc40cc6","study_id":"6197b3f67c2b5cd3b6d9596a","session_id":"6197b7c7cd151cfc2b7bbd00","condition":"full-information","relevant_dimensions":["antennae","wings"],"bee_group":{"antennae":"A","wings":"1","pattern":"X","legs":"X"},"bonus":0.5800000000000008},{"rt":2849.199999999255,"stimulus":"bees-with-color/bee-A2SF.svg","response":0,"trial_type":"image-button-response","trial_index":29,"time_elapsed":221320,"internal_node_id":"0.0-4.0-0.11","subject_id":"611a78efa6c36a674dc40cc6","study_id":"6197b3f67c2b5cd3b6d9596a","session_id":"6197b7c7cd151cfc2b7bbd00","condition":"full-information","relevant_dimensions":["antennae","wings"],"bee_group":{"antennae":"A","wings":"1","pattern":"X","legs":"X"},"action":"harvest","summary":"good-harvest","bonus":0.5800000000000008},{"rt":2021.7000000011176,"stimulus":"\n                    <p><b>Action: <em>harvest</em></b></p>\n                    <p>This is the bee that you just saw.</p>\n                    <img src=\"bees-with-color/bee-A2SF.svg\" width=\"200\">\n                    <p><span class=\"greenText\"><b>Successful harvest!</b></span><br>Your pay has increased by $0.02. Your bonus pay is now $0.64.</p>\n            ","response":0,"trial_type":"html-button-response","trial_index":30,"time_elapsed":223343,"internal_node_id":"0.0-4.0-1.11","subject_id":"611a78efa6c36a674dc40cc6","study_id":"6197b3f67c2b5cd3b6d9596a","session_id":"6197b7c7cd151cfc2b7bbd00","condition":"full-information","relevant_dimensions":["antennae","wings"],"bee_group":{"antennae":"A","wings":"1","pattern":"X","legs":"X"},"bonus":0.5800000000000008},{"rt":2488.4000000003725,"stimulus":"bees-with-color/bee-B1DM.svg","response":1,"trial_type":"image-button-response","trial_index":31,"time_elapsed":225833,"internal_node_id":"0.0-4.0-0.12","subject_id":"611a78efa6c36a674dc40cc6","study_id":"6197b3f67c2b5cd3b6d9596a","session_id":"6197b7c7cd151cfc2b7bbd00","condition":"full-information","relevant_dimensions":["antennae","wings"],"bee_group":{"antennae":"A","wings":"1","pattern":"X","legs":"X"},"action":"avoid","summary":"bad-avoid","bonus":0.5800000000000008},{"rt":2917.800000000745,"stimulus":"\n                    <p><b>Action: <em>avoid</em></b></p>\n                    <p>This is the bee that you just saw.</p>\n                    <img src=\"bees-with-color/bee-B1DM.svg\" width=\"200\">\n                    <p><span class=\"redText\">Bad choice,</span> the bee was friendly.<br>Your bonus pay is unchanged, and remains at $0.64.</p>\n            ","response":0,"trial_type":"html-button-response","trial_index":32,"time_elapsed":228752,"internal_node_id":"0.0-4.0-1.12","subject_id":"611a78efa6c36a674dc40cc6","study_id":"6197b3f67c2b5cd3b6d9596a","session_id":"6197b7c7cd151cfc2b7bbd00","condition":"full-information","relevant_dimensions":["antennae","wings"],"bee_group":{"antennae":"A","wings":"1","pattern":"X","legs":"X"},"bonus":0.5800000000000008},{"rt":1702.7000000011176,"stimulus":"bees-with-color/bee-A1SM.svg","response":0,"trial_type":"image-button-response","trial_index":33,"time_elapsed":230456,"internal_node_id":"0.0-4.0-0.13","subject_id":"611a78efa6c36a674dc40cc6","study_id":"6197b3f67c2b5cd3b6d9596a","session_id":"6197b7c7cd151cfc2b7bbd00","condition":"full-information","relevant_dimensions":["antennae","wings"],"bee_group":{"antennae":"A","wings":"1","pattern":"X","legs":"X"},"action":"harvest","summary":"bad-harvest","bonus":0.5800000000000008},{"rt":3330.800000000745,"stimulus":"\n                    <p><b>Action: <em>harvest</em></b></p>\n                    <p>This is the bee that you just saw.</p>\n                    <img src=\"bees-with-color/bee-A1SM.svg\" width=\"200\">\n                    <p><span class=\"redText\">Bad choice, the bee was angry.</span><br><b>You have been stung!</b><br>Your pay has been decreased by $0.10. Your bonus pay is now $0.54.</p>\n            ","response":0,"trial_type":"html-button-response","trial_index":34,"time_elapsed":233788,"internal_node_id":"0.0-4.0-1.13","subject_id":"611a78efa6c36a674dc40cc6","study_id":"6197b3f67c2b5cd3b6d9596a","session_id":"6197b7c7cd151cfc2b7bbd00","condition":"full-information","relevant_dimensions":["antennae","wings"],"bee_group":{"antennae":"A","wings":"1","pattern":"X","legs":"X"},"bonus":0.5800000000000008},{"rt":5381.5999999996275,"stimulus":"bees-with-color/bee-A1DM.svg","response":0,"trial_type":"image-button-response","trial_index":35,"time_elapsed":239171,"internal_node_id":"0.0-4.0-0.14","subject_id":"611a78efa6c36a674dc40cc6","study_id":"6197b3f67c2b5cd3b6d9596a","session_id":"6197b7c7cd151cfc2b7bbd00","condition":"full-information","relevant_dimensions":["antennae","wings"],"bee_group":{"antennae":"A","wings":"1","pattern":"X","legs":"X"},"action":"harvest","summary":"bad-harvest","bonus":0.5800000000000008},{"rt":1155.7000000011176,"stimulus":"\n                    <p><b>Action: <em>harvest</em></b></p>\n                    <p>This is the bee that you just saw.</p>\n                    <img src=\"bees-with-color/bee-A1DM.svg\" width=\"200\">\n                    <p><span class=\"redText\">Bad choice, the bee was angry.</span><br><b>You have been stung!</b><br>Your pay has been decreased by $0.10. Your bonus pay is now $0.44.</p>\n            ","response":0,"trial_type":"html-button-response","trial_index":36,"time_elapsed":240328,"internal_node_id":"0.0-4.0-1.14","subject_id":"611a78efa6c36a674dc40cc6","study_id":"6197b3f67c2b5cd3b6d9596a","session_id":"6197b7c7cd151cfc2b7bbd00","condition":"full-information","relevant_dimensions":["antennae","wings"],"bee_group":{"antennae":"A","wings":"1","pattern":"X","legs":"X"},"bonus":0.5800000000000008},{"rt":1849.0999999996275,"stimulus":"bees-with-color/bee-B1SF.svg","response":0,"trial_type":"image-button-response","trial_index":37,"time_elapsed":242179,"internal_node_id":"0.0-4.0-0.15","subject_id":"611a78efa6c36a674dc40cc6","study_id":"6197b3f67c2b5cd3b6d9596a","session_id":"6197b7c7cd151cfc2b7bbd00","condition":"full-information","relevant_dimensions":["antennae","wings"],"bee_group":{"antennae":"A","wings":"1","pattern":"X","legs":"X"},"action":"harvest","summary":"good-harvest","bonus":0.5800000000000008},{"rt":1247.3999999985099,"stimulus":"\n                    <p><b>Action: <em>harvest</em></b></p>\n                    <p>This is the bee that you just saw.</p>\n                    <img src=\"bees-with-color/bee-B1SF.svg\" width=\"200\">\n                    <p><span class=\"greenText\"><b>Successful harvest!</b></span><br>Your pay has increased by $0.02. Your bonus pay is now $0.46.</p>\n            ","response":0,"trial_type":"html-button-response","trial_index":38,"time_elapsed":243428,"internal_node_id":"0.0-4.0-1.15","subject_id":"611a78efa6c36a674dc40cc6","study_id":"6197b3f67c2b5cd3b6d9596a","session_id":"6197b7c7cd151cfc2b7bbd00","condition":"full-information","relevant_dimensions":["antennae","wings"],"bee_group":{"antennae":"A","wings":"1","pattern":"X","legs":"X"},"bonus":0.5800000000000008},{"rt":2191.4000000003725,"stimulus":"bees-with-color/bee-A2DF.svg","response":1,"trial_type":"image-button-response","trial_index":39,"time_elapsed":245621,"internal_node_id":"0.0-4.0-0.16","subject_id":"611a78efa6c36a674dc40cc6","study_id":"6197b3f67c2b5cd3b6d9596a","session_id":"6197b7c7cd151cfc2b7bbd00","condition":"full-information","relevant_dimensions":["antennae","wings"],"bee_group":{"antennae":"A","wings":"1","pattern":"X","legs":"X"},"action":"avoid","summary":"bad-avoid","bonus":0.5800000000000008},{"rt":1327.6000000014901,"stimulus":"\n                    <p><b>Action: <em>avoid</em></b></p>\n                    <p>This is the bee that you just saw.</p>\n                    <img src=\"bees-with-color/bee-A2DF.svg\" width=\"200\">\n                    <p><span class=\"redText\">Bad choice,</span> the bee was friendly.<br>Your bonus pay is unchanged, and remains at $0.46.</p>\n            ","response":0,"trial_type":"html-button-response","trial_index":40,"time_elapsed":246950,"internal_node_id":"0.0-4.0-1.16","subject_id":"611a78efa6c36a674dc40cc6","study_id":"6197b3f67c2b5cd3b6d9596a","session_id":"6197b7c7cd151cfc2b7bbd00","condition":"full-information","relevant_dimensions":["antennae","wings"],"bee_group":{"antennae":"A","wings":"1","pattern":"X","legs":"X"},"bonus":0.5800000000000008},{"rt":3786.2999999988824,"stimulus":"bees-with-color/bee-A2SF.svg","response":0,"trial_type":"image-button-response","trial_index":41,"time_elapsed":250738,"internal_node_id":"0.0-4.0-0.17","subject_id":"611a78efa6c36a674dc40cc6","study_id":"6197b3f67c2b5cd3b6d9596a","session_id":"6197b7c7cd151cfc2b7bbd00","condition":"full-information","relevant_dimensions":["antennae","wings"],"bee_group":{"antennae":"A","wings":"1","pattern":"X","legs":"X"},"action":"harvest","summary":"good-harvest","bonus":0.5800000000000008},{"rt":1097.7000000011176,"stimulus":"\n                    <p><b>Action: <em>harvest</em></b></p>\n                    <p>This is the bee that you just saw.</p>\n                    <img src=\"bees-with-color/bee-A2SF.svg\" width=\"200\">\n                    <p><span class=\"greenText\"><b>Successful harvest!</b></span><br>Your pay has increased by $0.02. Your bonus pay is now $0.48.</p>\n            ","response":0,"trial_type":"html-button-response","trial_index":42,"time_elapsed":251837,"internal_node_id":"0.0-4.0-1.17","subject_id":"611a78efa6c36a674dc40cc6","study_id":"6197b3f67c2b5cd3b6d9596a","session_id":"6197b7c7cd151cfc2b7bbd00","condition":"full-information","relevant_dimensions":["antennae","wings"],"bee_group":{"antennae":"A","wings":"1","pattern":"X","legs":"X"},"bonus":0.5800000000000008},{"rt":2915.2999999988824,"stimulus":"bees-with-color/bee-A1DM.svg","response":0,"trial_type":"image-button-response","trial_index":43,"time_elapsed":254754,"internal_node_id":"0.0-4.0-0.18","subject_id":"611a78efa6c36a674dc40cc6","study_id":"6197b3f67c2b5cd3b6d9596a","session_id":"6197b7c7cd151cfc2b7bbd00","condition":"full-information","relevant_dimensions":["antennae","wings"],"bee_group":{"antennae":"A","wings":"1","pattern":"X","legs":"X"},"action":"harvest","summary":"bad-harvest","bonus":0.5800000000000008},{"rt":1117.5,"stimulus":"\n                    <p><b>Action: <em>harvest</em></b></p>\n                    <p>This is the bee that you just saw.</p>\n                    <img src=\"bees-with-color/bee-A1DM.svg\" width=\"200\">\n                    <p><span class=\"redText\">Bad choice, the bee was angry.</span><br><b>You have been stung!</b><br>Your pay has been decreased by $0.10. Your bonus pay is now $0.38.</p>\n            ","response":0,"trial_type":"html-button-response","trial_index":44,"time_elapsed":255873,"internal_node_id":"0.0-4.0-1.18","subject_id":"611a78efa6c36a674dc40cc6","study_id":"6197b3f67c2b5cd3b6d9596a","session_id":"6197b7c7cd151cfc2b7bbd00","condition":"full-information","relevant_dimensions":["antennae","wings"],"bee_group":{"antennae":"A","wings":"1","pattern":"X","legs":"X"},"bonus":0.5800000000000008},{"rt":2832.7000000011176,"stimulus":"bees-with-color/bee-B2DF.svg","response":0,"trial_type":"image-button-response","trial_index":45,"time_elapsed":258707,"internal_node_id":"0.0-4.0-0.19","subject_id":"611a78efa6c36a674dc40cc6","study_id":"6197b3f67c2b5cd3b6d9596a","session_id":"6197b7c7cd151cfc2b7bbd00","condition":"full-information","relevant_dimensions":["antennae","wings"],"bee_group":{"antennae":"A","wings":"1","pattern":"X","legs":"X"},"action":"harvest","summary":"good-harvest","bonus":0.5800000000000008},{"rt":1478.800000000745,"stimulus":"\n                    <p><b>Action: <em>harvest</em></b></p>\n                    <p>This is the bee that you just saw.</p>\n                    <img src=\"bees-with-color/bee-B2DF.svg\" width=\"200\">\n                    <p><span class=\"greenText\"><b>Successful harvest!</b></span><br>Your pay has increased by $0.02. Your bonus pay is now $0.40.</p>\n            ","response":0,"trial_type":"html-button-response","trial_index":46,"time_elapsed":260188,"internal_node_id":"0.0-4.0-1.19","subject_id":"611a78efa6c36a674dc40cc6","study_id":"6197b3f67c2b5cd3b6d9596a","session_id":"6197b7c7cd151cfc2b7bbd00","condition":"full-information","relevant_dimensions":["antennae","wings"],"bee_group":{"antennae":"A","wings":"1","pattern":"X","legs":"X"},"bonus":0.5800000000000008},{"rt":2441,"stimulus":"bees-with-color/bee-B1DM.svg","response":1,"trial_type":"image-button-response","trial_index":47,"time_elapsed":262630,"internal_node_id":"0.0-4.0-0.20","subject_id":"611a78efa6c36a674dc40cc6","study_id":"6197b3f67c2b5cd3b6d9596a","session_id":"6197b7c7cd151cfc2b7bbd00","condition":"full-information","relevant_dimensions":["antennae","wings"],"bee_group":{"antennae":"A","wings":"1","pattern":"X","legs":"X"},"action":"avoid","summary":"bad-avoid","bonus":0.5800000000000008},{"rt":1177.5,"stimulus":"\n                    <p><b>Action: <em>avoid</em></b></p>\n                    <p>This is the bee that you just saw.</p>\n                    <img src=\"bees-with-color/bee-B1DM.svg\" width=\"200\">\n                    <p><span class=\"redText\">Bad choice,</span> the bee was friendly.<br>Your bonus pay is unchanged, and remains at $0.40.</p>\n            ","response":0,"trial_type":"html-button-response","trial_index":48,"time_elapsed":263809,"internal_node_id":"0.0-4.0-1.20","subject_id":"611a78efa6c36a674dc40cc6","study_id":"6197b3f67c2b5cd3b6d9596a","session_id":"6197b7c7cd151cfc2b7bbd00","condition":"full-information","relevant_dimensions":["antennae","wings"],"bee_group":{"antennae":"A","wings":"1","pattern":"X","legs":"X"},"bonus":0.5800000000000008},{"rt":1787.3999999985099,"stimulus":"bees-with-color/bee-A1SF.svg","response":1,"trial_type":"image-button-response","trial_index":49,"time_elapsed":265598,"internal_node_id":"0.0-4.0-0.21","subject_id":"611a78efa6c36a674dc40cc6","study_id":"6197b3f67c2b5cd3b6d9596a","session_id":"6197b7c7cd151cfc2b7bbd00","condition":"full-information","relevant_dimensions":["antennae","wings"],"bee_group":{"antennae":"A","wings":"1","pattern":"X","legs":"X"},"action":"avoid","summary":"good-avoid","bonus":0.5800000000000008},{"rt":1311.4000000003725,"stimulus":"\n                    <p><b>Action: <em>avoid</em></b></p>\n                    <p>This is the bee that you just saw.</p>\n                    <img src=\"bees-with-color/bee-A1SF.svg\" width=\"200\">\n                    <p><span class=\"greenText\">Good choice!</span>  This bee would have stung you.<br>Your bonus pay is unchanged, and remains at $0.40.</p>\n            ","response":0,"trial_type":"html-button-response","trial_index":50,"time_elapsed":266912,"internal_node_id":"0.0-4.0-1.21","subject_id":"611a78efa6c36a674dc40cc6","study_id":"6197b3f67c2b5cd3b6d9596a","session_id":"6197b7c7cd151cfc2b7bbd00","condition":"full-information","relevant_dimensions":["antennae","wings"],"bee_group":{"antennae":"A","wings":"1","pattern":"X","legs":"X"},"bonus":0.5800000000000008},{"rt":9510,"stimulus":"bees-with-color/bee-A2DM.svg","response":0,"trial_type":"image-button-response","trial_index":51,"time_elapsed":276423,"internal_node_id":"0.0-4.0-0.22","subject_id":"611a78efa6c36a674dc40cc6","study_id":"6197b3f67c2b5cd3b6d9596a","session_id":"6197b7c7cd151cfc2b7bbd00","condition":"full-information","relevant_dimensions":["antennae","wings"],"bee_group":{"antennae":"A","wings":"1","pattern":"X","legs":"X"},"action":"harvest","summary":"good-harvest","bonus":0.5800000000000008},{"rt":1153.5999999996275,"stimulus":"\n                    <p><b>Action: <em>harvest</em></b></p>\n                    <p>This is the bee that you just saw.</p>\n                    <img src=\"bees-with-color/bee-A2DM.svg\" width=\"200\">\n                    <p><span class=\"greenText\"><b>Successful harvest!</b></span><br>Your pay has increased by $0.02. Your bonus pay is now $0.42.</p>\n            ","response":0,"trial_type":"html-button-response","trial_index":52,"time_elapsed":277578,"internal_node_id":"0.0-4.0-1.22","subject_id":"611a78efa6c36a674dc40cc6","study_id":"6197b3f67c2b5cd3b6d9596a","session_id":"6197b7c7cd151cfc2b7bbd00","condition":"full-information","relevant_dimensions":["antennae","wings"],"bee_group":{"antennae":"A","wings":"1","pattern":"X","legs":"X"},"bonus":0.5800000000000008},{"rt":5632.4000000003725,"stimulus":"bees-with-color/bee-B2SF.svg","response":1,"trial_type":"image-button-response","trial_index":53,"time_elapsed":283213,"internal_node_id":"0.0-4.0-0.23","subject_id":"611a78efa6c36a674dc40cc6","study_id":"6197b3f67c2b5cd3b6d9596a","session_id":"6197b7c7cd151cfc2b7bbd00","condition":"full-information","relevant_dimensions":["antennae","wings"],"bee_group":{"antennae":"A","wings":"1","pattern":"X","legs":"X"},"action":"avoid","summary":"bad-avoid","bonus":0.5800000000000008},{"rt":1561.5,"stimulus":"\n                    <p><b>Action: <em>avoid</em></b></p>\n                    <p>This is the bee that you just saw.</p>\n                    <img src=\"bees-with-color/bee-B2SF.svg\" width=\"200\">\n                    <p><span class=\"redText\">Bad choice,</span> the bee was friendly.<br>Your bonus pay is unchanged, and remains at $0.42.</p>\n            ","response":0,"trial_type":"html-button-response","trial_index":54,"time_elapsed":284775,"internal_node_id":"0.0-4.0-1.23","subject_id":"611a78efa6c36a674dc40cc6","study_id":"6197b3f67c2b5cd3b6d9596a","session_id":"6197b7c7cd151cfc2b7bbd00","condition":"full-information","relevant_dimensions":["antennae","wings"],"bee_group":{"antennae":"A","wings":"1","pattern":"X","legs":"X"},"bonus":0.5800000000000008},{"rt":2461.4000000003725,"stimulus":"bees-with-color/bee-B1SM.svg","response":0,"trial_type":"image-button-response","trial_index":55,"time_elapsed":287238,"internal_node_id":"0.0-4.0-0.24","subject_id":"611a78efa6c36a674dc40cc6","study_id":"6197b3f67c2b5cd3b6d9596a","session_id":"6197b7c7cd151cfc2b7bbd00","condition":"full-information","relevant_dimensions":["antennae","wings"],"bee_group":{"antennae":"A","wings":"1","pattern":"X","legs":"X"},"action":"harvest","summary":"good-harvest","bonus":0.5800000000000008},{"rt":1075.5999999996275,"stimulus":"\n                    <p><b>Action: <em>harvest</em></b></p>\n                    <p>This is the bee that you just saw.</p>\n                    <img src=\"bees-with-color/bee-B1SM.svg\" width=\"200\">\n                    <p><span class=\"greenText\"><b>Successful harvest!</b></span><br>Your pay has increased by $0.02. Your bonus pay is now $0.44.</p>\n            ","response":0,"trial_type":"html-button-response","trial_index":56,"time_elapsed":288315,"internal_node_id":"0.0-4.0-1.24","subject_id":"611a78efa6c36a674dc40cc6","study_id":"6197b3f67c2b5cd3b6d9596a","session_id":"6197b7c7cd151cfc2b7bbd00","condition":"full-information","relevant_dimensions":["antennae","wings"],"bee_group":{"antennae":"A","wings":"1","pattern":"X","legs":"X"},"bonus":0.5800000000000008},{"rt":3108.5,"stimulus":"bees-with-color/bee-A2SM.svg","response":0,"trial_type":"image-button-response","trial_index":57,"time_elapsed":291425,"internal_node_id":"0.0-4.0-0.25","subject_id":"611a78efa6c36a674dc40cc6","study_id":"6197b3f67c2b5cd3b6d9596a","session_id":"6197b7c7cd151cfc2b7bbd00","condition":"full-information","relevant_dimensions":["antennae","wings"],"bee_group":{"antennae":"A","wings":"1","pattern":"X","legs":"X"},"action":"harvest","summary":"good-harvest","bonus":0.5800000000000008},{"rt":2241.7000000011176,"stimulus":"\n                    <p><b>Action: <em>harvest</em></b></p>\n                    <p>This is the bee that you just saw.</p>\n                    <img src=\"bees-with-color/bee-A2SM.svg\" width=\"200\">\n                    <p><span class=\"greenText\"><b>Successful harvest!</b></span><br>Your pay has increased by $0.02. Your bonus pay is now $0.46.</p>\n            ","response":0,"trial_type":"html-button-response","trial_index":58,"time_elapsed":293668,"internal_node_id":"0.0-4.0-1.25","subject_id":"611a78efa6c36a674dc40cc6","study_id":"6197b3f67c2b5cd3b6d9596a","session_id":"6197b7c7cd151cfc2b7bbd00","condition":"full-information","relevant_dimensions":["antennae","wings"],"bee_group":{"antennae":"A","wings":"1","pattern":"X","legs":"X"},"bonus":0.5800000000000008},{"rt":2840.0999999996275,"stimulus":"bees-with-color/bee-A1DF.svg","response":0,"trial_type":"image-button-response","trial_index":59,"time_elapsed":296510,"internal_node_id":"0.0-4.0-0.26","subject_id":"611a78efa6c36a674dc40cc6","study_id":"6197b3f67c2b5cd3b6d9596a","session_id":"6197b7c7cd151cfc2b7bbd00","condition":"full-information","relevant_dimensions":["antennae","wings"],"bee_group":{"antennae":"A","wings":"1","pattern":"X","legs":"X"},"action":"harvest","summary":"bad-harvest","bonus":0.5800000000000008},{"rt":1890.9000000003725,"stimulus":"\n                    <p><b>Action: <em>harvest</em></b></p>\n                    <p>This is the bee that you just saw.</p>\n                    <img src=\"bees-with-color/bee-A1DF.svg\" width=\"200\">\n                    <p><span class=\"redText\">Bad choice, the bee was angry.</span><br><b>You have been stung!</b><br>Your pay has been decreased by $0.10. Your bonus pay is now $0.36.</p>\n            ","response":0,"trial_type":"html-button-response","trial_index":60,"time_elapsed":298403,"internal_node_id":"0.0-4.0-1.26","subject_id":"611a78efa6c36a674dc40cc6","study_id":"6197b3f67c2b5cd3b6d9596a","session_id":"6197b7c7cd151cfc2b7bbd00","condition":"full-information","relevant_dimensions":["antennae","wings"],"bee_group":{"antennae":"A","wings":"1","pattern":"X","legs":"X"},"bonus":0.5800000000000008},{"rt":2536.2000000011176,"stimulus":"bees-with-color/bee-A1SM.svg","response":0,"trial_type":"image-button-response","trial_index":61,"time_elapsed":300941,"internal_node_id":"0.0-4.0-0.27","subject_id":"611a78efa6c36a674dc40cc6","study_id":"6197b3f67c2b5cd3b6d9596a","session_id":"6197b7c7cd151cfc2b7bbd00","condition":"full-information","relevant_dimensions":["antennae","wings"],"bee_group":{"antennae":"A","wings":"1","pattern":"X","legs":"X"},"action":"harvest","summary":"bad-harvest","bonus":0.5800000000000008},{"rt":3025.5999999996275,"stimulus":"\n                    <p><b>Action: <em>harvest</em></b></p>\n                    <p>This is the bee that you just saw.</p>\n                    <img src=\"bees-with-color/bee-A1SM.svg\" width=\"200\">\n                    <p><span class=\"redText\">Bad choice, the bee was angry.</span><br><b>You have been stung!</b><br>Your pay has been decreased by $0.10. Your bonus pay is now $0.26.</p>\n            ","response":0,"trial_type":"html-button-response","trial_index":62,"time_elapsed":303968,"internal_node_id":"0.0-4.0-1.27","subject_id":"611a78efa6c36a674dc40cc6","study_id":"6197b3f67c2b5cd3b6d9596a","session_id":"6197b7c7cd151cfc2b7bbd00","condition":"full-information","relevant_dimensions":["antennae","wings"],"bee_group":{"antennae":"A","wings":"1","pattern":"X","legs":"X"},"bonus":0.5800000000000008},{"rt":2387.4000000003725,"stimulus":"bees-with-color/bee-B1DF.svg","response":0,"trial_type":"image-button-response","trial_index":63,"time_elapsed":306357,"internal_node_id":"0.0-4.0-0.28","subject_id":"611a78efa6c36a674dc40cc6","study_id":"6197b3f67c2b5cd3b6d9596a","session_id":"6197b7c7cd151cfc2b7bbd00","condition":"full-information","relevant_dimensions":["antennae","wings"],"bee_group":{"antennae":"A","wings":"1","pattern":"X","legs":"X"},"action":"harvest","summary":"good-harvest","bonus":0.5800000000000008},{"rt":1814.5,"stimulus":"\n                    <p><b>Action: <em>harvest</em></b></p>\n                    <p>This is the bee that you just saw.</p>\n                    <img src=\"bees-with-color/bee-B1DF.svg\" width=\"200\">\n                    <p><span class=\"greenText\"><b>Successful harvest!</b></span><br>Your pay has increased by $0.02. Your bonus pay is now $0.28.</p>\n            ","response":0,"trial_type":"html-button-response","trial_index":64,"time_elapsed":308173,"internal_node_id":"0.0-4.0-1.28","subject_id":"611a78efa6c36a674dc40cc6","study_id":"6197b3f67c2b5cd3b6d9596a","session_id":"6197b7c7cd151cfc2b7bbd00","condition":"full-information","relevant_dimensions":["antennae","wings"],"bee_group":{"antennae":"A","wings":"1","pattern":"X","legs":"X"},"bonus":0.5800000000000008},{"rt":1446.300000000745,"stimulus":"bees-with-color/bee-B2SM.svg","response":0,"trial_type":"image-button-response","trial_index":65,"time_elapsed":309621,"internal_node_id":"0.0-4.0-0.29","subject_id":"611a78efa6c36a674dc40cc6","study_id":"6197b3f67c2b5cd3b6d9596a","session_id":"6197b7c7cd151cfc2b7bbd00","condition":"full-information","relevant_dimensions":["antennae","wings"],"bee_group":{"antennae":"A","wings":"1","pattern":"X","legs":"X"},"action":"harvest","summary":"good-harvest","bonus":0.5800000000000008},{"rt":1664.4000000003725,"stimulus":"\n                    <p><b>Action: <em>harvest</em></b></p>\n                    <p>This is the bee that you just saw.</p>\n                    <img src=\"bees-with-color/bee-B2SM.svg\" width=\"200\">\n                    <p><span class=\"greenText\"><b>Successful harvest!</b></span><br>Your pay has increased by $0.02. Your bonus pay is now $0.30.</p>\n            ","response":0,"trial_type":"html-button-response","trial_index":66,"time_elapsed":311287,"internal_node_id":"0.0-4.0-1.29","subject_id":"611a78efa6c36a674dc40cc6","study_id":"6197b3f67c2b5cd3b6d9596a","session_id":"6197b7c7cd151cfc2b7bbd00","condition":"full-information","relevant_dimensions":["antennae","wings"],"bee_group":{"antennae":"A","wings":"1","pattern":"X","legs":"X"},"bonus":0.5800000000000008},{"rt":2376.9000000003725,"stimulus":"bees-with-color/bee-B2DM.svg","response":0,"trial_type":"image-button-response","trial_index":67,"time_elapsed":313665,"internal_node_id":"0.0-4.0-0.30","subject_id":"611a78efa6c36a674dc40cc6","study_id":"6197b3f67c2b5cd3b6d9596a","session_id":"6197b7c7cd151cfc2b7bbd00","condition":"full-information","relevant_dimensions":["antennae","wings"],"bee_group":{"antennae":"A","wings":"1","pattern":"X","legs":"X"},"action":"harvest","summary":"good-harvest","bonus":0.5800000000000008},{"rt":933.4000000003725,"stimulus":"\n                    <p><b>Action: <em>harvest</em></b></p>\n                    <p>This is the bee that you just saw.</p>\n                    <img src=\"bees-with-color/bee-B2DM.svg\" width=\"200\">\n                    <p><span class=\"greenText\"><b>Successful harvest!</b></span><br>Your pay has increased by $0.02. Your bonus pay is now $0.32.</p>\n            ","response":0,"trial_type":"html-button-response","trial_index":68,"time_elapsed":314600,"internal_node_id":"0.0-4.0-1.30","subject_id":"611a78efa6c36a674dc40cc6","study_id":"6197b3f67c2b5cd3b6d9596a","session_id":"6197b7c7cd151cfc2b7bbd00","condition":"full-information","relevant_dimensions":["antennae","wings"],"bee_group":{"antennae":"A","wings":"1","pattern":"X","legs":"X"},"bonus":0.5800000000000008},{"rt":1505.2000000011176,"stimulus":"bees-with-color/bee-B1SF.svg","response":1,"trial_type":"image-button-response","trial_index":69,"time_elapsed":316107,"internal_node_id":"0.0-4.0-0.31","subject_id":"611a78efa6c36a674dc40cc6","study_id":"6197b3f67c2b5cd3b6d9596a","session_id":"6197b7c7cd151cfc2b7bbd00","condition":"full-information","relevant_dimensions":["antennae","wings"],"bee_group":{"antennae":"A","wings":"1","pattern":"X","legs":"X"},"action":"avoid","summary":"bad-avoid","bonus":0.5800000000000008},{"rt":1013.5999999996275,"stimulus":"\n                    <p><b>Action: <em>avoid</em></b></p>\n                    <p>This is the bee that you just saw.</p>\n                    <img src=\"bees-with-color/bee-B1SF.svg\" width=\"200\">\n                    <p><span class=\"redText\">Bad choice,</span> the bee was friendly.<br>Your bonus pay is unchanged, and remains at $0.32.</p>\n            ","response":0,"trial_type":"html-button-response","trial_index":70,"time_elapsed":317122,"internal_node_id":"0.0-4.0-1.31","subject_id":"611a78efa6c36a674dc40cc6","study_id":"6197b3f67c2b5cd3b6d9596a","session_id":"6197b7c7cd151cfc2b7bbd00","condition":"full-information","relevant_dimensions":["antennae","wings"],"bee_group":{"antennae":"A","wings":"1","pattern":"X","legs":"X"},"bonus":0.5800000000000008},{"rt":1514.300000000745,"stimulus":"bees-with-color/bee-A2SF.svg","response":0,"trial_type":"image-button-response","trial_index":71,"time_elapsed":318638,"internal_node_id":"0.0-4.0-0.32","subject_id":"611a78efa6c36a674dc40cc6","study_id":"6197b3f67c2b5cd3b6d9596a","session_id":"6197b7c7cd151cfc2b7bbd00","condition":"full-information","relevant_dimensions":["antennae","wings"],"bee_group":{"antennae":"A","wings":"1","pattern":"X","legs":"X"},"action":"harvest","summary":"good-harvest","bonus":0.5800000000000008},{"rt":938.5999999996275,"stimulus":"\n                    <p><b>Action: <em>harvest</em></b></p>\n                    <p>This is the bee that you just saw.</p>\n                    <img src=\"bees-with-color/bee-A2SF.svg\" width=\"200\">\n                    <p><span class=\"greenText\"><b>Successful harvest!</b></span><br>Your pay has increased by $0.02. Your bonus pay is now $0.34.</p>\n            ","response":0,"trial_type":"html-button-response","trial_index":72,"time_elapsed":319578,"internal_node_id":"0.0-4.0-1.32","subject_id":"611a78efa6c36a674dc40cc6","study_id":"6197b3f67c2b5cd3b6d9596a","session_id":"6197b7c7cd151cfc2b7bbd00","condition":"full-information","relevant_dimensions":["antennae","wings"],"bee_group":{"antennae":"A","wings":"1","pattern":"X","legs":"X"},"bonus":0.5800000000000008},{"rt":4864,"stimulus":"bees-with-color/bee-A1DM.svg","response":1,"trial_type":"image-button-response","trial_index":73,"time_elapsed":324444,"internal_node_id":"0.0-4.0-0.33","subject_id":"611a78efa6c36a674dc40cc6","study_id":"6197b3f67c2b5cd3b6d9596a","session_id":"6197b7c7cd151cfc2b7bbd00","condition":"full-information","relevant_dimensions":["antennae","wings"],"bee_group":{"antennae":"A","wings":"1","pattern":"X","legs":"X"},"action":"avoid","summary":"good-avoid","bonus":0.5800000000000008},{"rt":2416.60000000149,"stimulus":"\n                    <p><b>Action: <em>avoid</em></b></p>\n                    <p>This is the bee that you just saw.</p>\n                    <img src=\"bees-with-color/bee-A1DM.svg\" width=\"200\">\n                    <p><span class=\"greenText\">Good choice!</span>  This bee would have stung you.<br>Your bonus pay is unchanged, and remains at $0.34.</p>\n            ","response":0,"trial_type":"html-button-response","trial_index":74,"time_elapsed":326862,"internal_node_id":"0.0-4.0-1.33","subject_id":"611a78efa6c36a674dc40cc6","study_id":"6197b3f67c2b5cd3b6d9596a","session_id":"6197b7c7cd151cfc2b7bbd00","condition":"full-information","relevant_dimensions":["antennae","wings"],"bee_group":{"antennae":"A","wings":"1","pattern":"X","legs":"X"},"bonus":0.5800000000000008},{"rt":6434.799999998882,"stimulus":"bees-with-color/bee-A1SM.svg","response":0,"trial_type":"image-button-response","trial_index":75,"time_elapsed":333299,"internal_node_id":"0.0-4.0-0.34","subject_id":"611a78efa6c36a674dc40cc6","study_id":"6197b3f67c2b5cd3b6d9596a","session_id":"6197b7c7cd151cfc2b7bbd00","condition":"full-information","relevant_dimensions":["antennae","wings"],"bee_group":{"antennae":"A","wings":"1","pattern":"X","legs":"X"},"action":"harvest","summary":"bad-harvest","bonus":0.5800000000000008},{"rt":957.9000000003725,"stimulus":"\n                    <p><b>Action: <em>harvest</em></b></p>\n                    <p>This is the bee that you just saw.</p>\n                    <img src=\"bees-with-color/bee-A1SM.svg\" width=\"200\">\n                    <p><span class=\"redText\">Bad choice, the bee was angry.</span><br><b>You have been stung!</b><br>Your pay has been decreased by $0.10. Your bonus pay is now $0.24.</p>\n            ","response":0,"trial_type":"html-button-response","trial_index":76,"time_elapsed":334258,"internal_node_id":"0.0-4.0-1.34","subject_id":"611a78efa6c36a674dc40cc6","study_id":"6197b3f67c2b5cd3b6d9596a","session_id":"6197b7c7cd151cfc2b7bbd00","condition":"full-information","relevant_dimensions":["antennae","wings"],"bee_group":{"antennae":"A","wings":"1","pattern":"X","legs":"X"},"bonus":0.5800000000000008},{"rt":2607.5,"stimulus":"bees-with-color/bee-B2DM.svg","response":1,"trial_type":"image-button-response","trial_index":77,"time_elapsed":336867,"internal_node_id":"0.0-4.0-0.35","subject_id":"611a78efa6c36a674dc40cc6","study_id":"6197b3f67c2b5cd3b6d9596a","session_id":"6197b7c7cd151cfc2b7bbd00","condition":"full-information","relevant_dimensions":["antennae","wings"],"bee_group":{"antennae":"A","wings":"1","pattern":"X","legs":"X"},"action":"avoid","summary":"bad-avoid","bonus":0.5800000000000008},{"rt":1942.6000000014901,"stimulus":"\n                    <p><b>Action: <em>avoid</em></b></p>\n                    <p>This is the bee that you just saw.</p>\n                    <img src=\"bees-with-color/bee-B2DM.svg\" width=\"200\">\n                    <p><span class=\"redText\">Bad choice,</span> the bee was friendly.<br>Your bonus pay is unchanged, and remains at $0.24.</p>\n            ","response":0,"trial_type":"html-button-response","trial_index":78,"time_elapsed":338811,"internal_node_id":"0.0-4.0-1.35","subject_id":"611a78efa6c36a674dc40cc6","study_id":"6197b3f67c2b5cd3b6d9596a","session_id":"6197b7c7cd151cfc2b7bbd00","condition":"full-information","relevant_dimensions":["antennae","wings"],"bee_group":{"antennae":"A","wings":"1","pattern":"X","legs":"X"},"bonus":0.5800000000000008},{"rt":2078.199999999255,"stimulus":"bees-with-color/bee-B1SF.svg","response":1,"trial_type":"image-button-response","trial_index":79,"time_elapsed":340890,"internal_node_id":"0.0-4.0-0.36","subject_id":"611a78efa6c36a674dc40cc6","study_id":"6197b3f67c2b5cd3b6d9596a","session_id":"6197b7c7cd151cfc2b7bbd00","condition":"full-information","relevant_dimensions":["antennae","wings"],"bee_group":{"antennae":"A","wings":"1","pattern":"X","legs":"X"},"action":"avoid","summary":"bad-avoid","bonus":0.5800000000000008},{"rt":1629,"stimulus":"\n                    <p><b>Action: <em>avoid</em></b></p>\n                    <p>This is the bee that you just saw.</p>\n                    <img src=\"bees-with-color/bee-B1SF.svg\" width=\"200\">\n                    <p><span class=\"redText\">Bad choice,</span> the bee was friendly.<br>Your bonus pay is unchanged, and remains at $0.24.</p>\n            ","response":0,"trial_type":"html-button-response","trial_index":80,"time_elapsed":342521,"internal_node_id":"0.0-4.0-1.36","subject_id":"611a78efa6c36a674dc40cc6","study_id":"6197b3f67c2b5cd3b6d9596a","session_id":"6197b7c7cd151cfc2b7bbd00","condition":"full-information","relevant_dimensions":["antennae","wings"],"bee_group":{"antennae":"A","wings":"1","pattern":"X","legs":"X"},"bonus":0.5800000000000008},{"rt":3854.5,"stimulus":"bees-with-color/bee-B1DM.svg","response":0,"trial_type":"image-button-response","trial_index":81,"time_elapsed":346377,"internal_node_id":"0.0-4.0-0.37","subject_id":"611a78efa6c36a674dc40cc6","study_id":"6197b3f67c2b5cd3b6d9596a","session_id":"6197b7c7cd151cfc2b7bbd00","condition":"full-information","relevant_dimensions":["antennae","wings"],"bee_group":{"antennae":"A","wings":"1","pattern":"X","legs":"X"},"action":"harvest","summary":"good-harvest","bonus":0.5800000000000008},{"rt":1213.199999999255,"stimulus":"\n                    <p><b>Action: <em>harvest</em></b></p>\n                    <p>This is the bee that you just saw.</p>\n                    <img src=\"bees-with-color/bee-B1DM.svg\" width=\"200\">\n                    <p><span class=\"greenText\"><b>Successful harvest!</b></span><br>Your pay has increased by $0.02. Your bonus pay is now $0.26.</p>\n            ","response":0,"trial_type":"html-button-response","trial_index":82,"time_elapsed":347592,"internal_node_id":"0.0-4.0-1.37","subject_id":"611a78efa6c36a674dc40cc6","study_id":"6197b3f67c2b5cd3b6d9596a","session_id":"6197b7c7cd151cfc2b7bbd00","condition":"full-information","relevant_dimensions":["antennae","wings"],"bee_group":{"antennae":"A","wings":"1","pattern":"X","legs":"X"},"bonus":0.5800000000000008},{"rt":1855.7999999988824,"stimulus":"bees-with-color/bee-A2DM.svg","response":0,"trial_type":"image-button-response","trial_index":83,"time_elapsed":349449,"internal_node_id":"0.0-4.0-0.38","subject_id":"611a78efa6c36a674dc40cc6","study_id":"6197b3f67c2b5cd3b6d9596a","session_id":"6197b7c7cd151cfc2b7bbd00","condition":"full-information","relevant_dimensions":["antennae","wings"],"bee_group":{"antennae":"A","wings":"1","pattern":"X","legs":"X"},"action":"harvest","summary":"good-harvest","bonus":0.5800000000000008},{"rt":865.4000000003725,"stimulus":"\n                    <p><b>Action: <em>harvest</em></b></p>\n                    <p>This is the bee that you just saw.</p>\n                    <img src=\"bees-with-color/bee-A2DM.svg\" width=\"200\">\n                    <p><span class=\"greenText\"><b>Successful harvest!</b></span><br>Your pay has increased by $0.02. Your bonus pay is now $0.28.</p>\n            ","response":0,"trial_type":"html-button-response","trial_index":84,"time_elapsed":350316,"internal_node_id":"0.0-4.0-1.38","subject_id":"611a78efa6c36a674dc40cc6","study_id":"6197b3f67c2b5cd3b6d9596a","session_id":"6197b7c7cd151cfc2b7bbd00","condition":"full-information","relevant_dimensions":["antennae","wings"],"bee_group":{"antennae":"A","wings":"1","pattern":"X","legs":"X"},"bonus":0.5800000000000008},{"rt":2245.9000000003725,"stimulus":"bees-with-color/bee-B1DF.svg","response":1,"trial_type":"image-button-response","trial_index":85,"time_elapsed":352564,"internal_node_id":"0.0-4.0-0.39","subject_id":"611a78efa6c36a674dc40cc6","study_id":"6197b3f67c2b5cd3b6d9596a","session_id":"6197b7c7cd151cfc2b7bbd00","condition":"full-information","relevant_dimensions":["antennae","wings"],"bee_group":{"antennae":"A","wings":"1","pattern":"X","legs":"X"},"action":"avoid","summary":"bad-avoid","bonus":0.5800000000000008},{"rt":850.6999999992549,"stimulus":"\n                    <p><b>Action: <em>avoid</em></b></p>\n                    <p>This is the bee that you just saw.</p>\n                    <img src=\"bees-with-color/bee-B1DF.svg\" width=\"200\">\n                    <p><span class=\"redText\">Bad choice,</span> the bee was friendly.<br>Your bonus pay is unchanged, and remains at $0.28.</p>\n            ","response":0,"trial_type":"html-button-response","trial_index":86,"time_elapsed":353416,"internal_node_id":"0.0-4.0-1.39","subject_id":"611a78efa6c36a674dc40cc6","study_id":"6197b3f67c2b5cd3b6d9596a","session_id":"6197b7c7cd151cfc2b7bbd00","condition":"full-information","relevant_dimensions":["antennae","wings"],"bee_group":{"antennae":"A","wings":"1","pattern":"X","legs":"X"},"bonus":0.5800000000000008},{"rt":1588.6000000014901,"stimulus":"bees-with-color/bee-A1DF.svg","response":0,"trial_type":"image-button-response","trial_index":87,"time_elapsed":355006,"internal_node_id":"0.0-4.0-0.40","subject_id":"611a78efa6c36a674dc40cc6","study_id":"6197b3f67c2b5cd3b6d9596a","session_id":"6197b7c7cd151cfc2b7bbd00","condition":"full-information","relevant_dimensions":["antennae","wings"],"bee_group":{"antennae":"A","wings":"1","pattern":"X","legs":"X"},"action":"harvest","summary":"bad-harvest","bonus":0.5800000000000008},{"rt":839.6000000014901,"stimulus":"\n                    <p><b>Action: <em>harvest</em></b></p>\n                    <p>This is the bee that you just saw.</p>\n                    <img src=\"bees-with-color/bee-A1DF.svg\" width=\"200\">\n                    <p><span class=\"redText\">Bad choice, the bee was angry.</span><br><b>You have been stung!</b><br>Your pay has been decreased by $0.10. Your bonus pay is now $0.18.</p>\n            ","response":0,"trial_type":"html-button-response","trial_index":88,"time_elapsed":355847,"internal_node_id":"0.0-4.0-1.40","subject_id":"611a78efa6c36a674dc40cc6","study_id":"6197b3f67c2b5cd3b6d9596a","session_id":"6197b7c7cd151cfc2b7bbd00","condition":"full-information","relevant_dimensions":["antennae","wings"],"bee_group":{"antennae":"A","wings":"1","pattern":"X","legs":"X"},"bonus":0.5800000000000008},{"rt":5224.300000000745,"stimulus":"bees-with-color/bee-B1SM.svg","response":1,"trial_type":"image-button-response","trial_index":89,"time_elapsed":361073,"internal_node_id":"0.0-4.0-0.41","subject_id":"611a78efa6c36a674dc40cc6","study_id":"6197b3f67c2b5cd3b6d9596a","session_id":"6197b7c7cd151cfc2b7bbd00","condition":"full-information","relevant_dimensions":["antennae","wings"],"bee_group":{"antennae":"A","wings":"1","pattern":"X","legs":"X"},"action":"avoid","summary":"bad-avoid","bonus":0.5800000000000008},{"rt":1922.199999999255,"stimulus":"\n                    <p><b>Action: <em>avoid</em></b></p>\n                    <p>This is the bee that you just saw.</p>\n                    <img src=\"bees-with-color/bee-B1SM.svg\" width=\"200\">\n                    <p><span class=\"redText\">Bad choice,</span> the bee was friendly.<br>Your bonus pay is unchanged, and remains at $0.18.</p>\n            ","response":0,"trial_type":"html-button-response","trial_index":90,"time_elapsed":362996,"internal_node_id":"0.0-4.0-1.41","subject_id":"611a78efa6c36a674dc40cc6","study_id":"6197b3f67c2b5cd3b6d9596a","session_id":"6197b7c7cd151cfc2b7bbd00","condition":"full-information","relevant_dimensions":["antennae","wings"],"bee_group":{"antennae":"A","wings":"1","pattern":"X","legs":"X"},"bonus":0.5800000000000008},{"rt":6310.300000000745,"stimulus":"bees-with-color/bee-B2DF.svg","response":0,"trial_type":"image-button-response","trial_index":91,"time_elapsed":369308,"internal_node_id":"0.0-4.0-0.42","subject_id":"611a78efa6c36a674dc40cc6","study_id":"6197b3f67c2b5cd3b6d9596a","session_id":"6197b7c7cd151cfc2b7bbd00","condition":"full-information","relevant_dimensions":["antennae","wings"],"bee_group":{"antennae":"A","wings":"1","pattern":"X","legs":"X"},"action":"harvest","summary":"good-harvest","bonus":0.5800000000000008},{"rt":1325.300000000745,"stimulus":"\n                    <p><b>Action: <em>harvest</em></b></p>\n                    <p>This is the bee that you just saw.</p>\n                    <img src=\"bees-with-color/bee-B2DF.svg\" width=\"200\">\n                    <p><span class=\"greenText\"><b>Successful harvest!</b></span><br>Your pay has increased by $0.02. Your bonus pay is now $0.20.</p>\n            ","response":0,"trial_type":"html-button-response","trial_index":92,"time_elapsed":370636,"internal_node_id":"0.0-4.0-1.42","subject_id":"611a78efa6c36a674dc40cc6","study_id":"6197b3f67c2b5cd3b6d9596a","session_id":"6197b7c7cd151cfc2b7bbd00","condition":"full-information","relevant_dimensions":["antennae","wings"],"bee_group":{"antennae":"A","wings":"1","pattern":"X","legs":"X"},"bonus":0.5800000000000008},{"rt":2249.2000000011176,"stimulus":"bees-with-color/bee-B2SF.svg","response":0,"trial_type":"image-button-response","trial_index":93,"time_elapsed":372886,"internal_node_id":"0.0-4.0-0.43","subject_id":"611a78efa6c36a674dc40cc6","study_id":"6197b3f67c2b5cd3b6d9596a","session_id":"6197b7c7cd151cfc2b7bbd00","condition":"full-information","relevant_dimensions":["antennae","wings"],"bee_group":{"antennae":"A","wings":"1","pattern":"X","legs":"X"},"action":"harvest","summary":"good-harvest","bonus":0.5800000000000008},{"rt":881.5999999996275,"stimulus":"\n                    <p><b>Action: <em>harvest</em></b></p>\n                    <p>This is the bee that you just saw.</p>\n                    <img src=\"bees-with-color/bee-B2SF.svg\" width=\"200\">\n                    <p><span class=\"greenText\"><b>Successful harvest!</b></span><br>Your pay has increased by $0.02. Your bonus pay is now $0.22.</p>\n            ","response":0,"trial_type":"html-button-response","trial_index":94,"time_elapsed":373769,"internal_node_id":"0.0-4.0-1.43","subject_id":"611a78efa6c36a674dc40cc6","study_id":"6197b3f67c2b5cd3b6d9596a","session_id":"6197b7c7cd151cfc2b7bbd00","condition":"full-information","relevant_dimensions":["antennae","wings"],"bee_group":{"antennae":"A","wings":"1","pattern":"X","legs":"X"},"bonus":0.5800000000000008},{"rt":1454.6000000014901,"stimulus":"bees-with-color/bee-A2DF.svg","response":0,"trial_type":"image-button-response","trial_index":95,"time_elapsed":375225,"internal_node_id":"0.0-4.0-0.44","subject_id":"611a78efa6c36a674dc40cc6","study_id":"6197b3f67c2b5cd3b6d9596a","session_id":"6197b7c7cd151cfc2b7bbd00","condition":"full-information","relevant_dimensions":["antennae","wings"],"bee_group":{"antennae":"A","wings":"1","pattern":"X","legs":"X"},"action":"harvest","summary":"good-harvest","bonus":0.5800000000000008},{"rt":1001.8000000007451,"stimulus":"\n                    <p><b>Action: <em>harvest</em></b></p>\n                    <p>This is the bee that you just saw.</p>\n                    <img src=\"bees-with-color/bee-A2DF.svg\" width=\"200\">\n                    <p><span class=\"greenText\"><b>Successful harvest!</b></span><br>Your pay has increased by $0.02. Your bonus pay is now $0.24.</p>\n            ","response":0,"trial_type":"html-button-response","trial_index":96,"time_elapsed":376228,"internal_node_id":"0.0-4.0-1.44","subject_id":"611a78efa6c36a674dc40cc6","study_id":"6197b3f67c2b5cd3b6d9596a","session_id":"6197b7c7cd151cfc2b7bbd00","condition":"full-information","relevant_dimensions":["antennae","wings"],"bee_group":{"antennae":"A","wings":"1","pattern":"X","legs":"X"},"bonus":0.5800000000000008},{"rt":1312.5,"stimulus":"bees-with-color/bee-A1SF.svg","response":1,"trial_type":"image-button-response","trial_index":97,"time_elapsed":377542,"internal_node_id":"0.0-4.0-0.45","subject_id":"611a78efa6c36a674dc40cc6","study_id":"6197b3f67c2b5cd3b6d9596a","session_id":"6197b7c7cd151cfc2b7bbd00","condition":"full-information","relevant_dimensions":["antennae","wings"],"bee_group":{"antennae":"A","wings":"1","pattern":"X","legs":"X"},"action":"avoid","summary":"good-avoid","bonus":0.5800000000000008},{"rt":1094.5,"stimulus":"\n                    <p><b>Action: <em>avoid</em></b></p>\n                    <p>This is the bee that you just saw.</p>\n                    <img src=\"bees-with-color/bee-A1SF.svg\" width=\"200\">\n                    <p><span class=\"greenText\">Good choice!</span>  This bee would have stung you.<br>Your bonus pay is unchanged, and remains at $0.24.</p>\n            ","response":0,"trial_type":"html-button-response","trial_index":98,"time_elapsed":378638,"internal_node_id":"0.0-4.0-1.45","subject_id":"611a78efa6c36a674dc40cc6","study_id":"6197b3f67c2b5cd3b6d9596a","session_id":"6197b7c7cd151cfc2b7bbd00","condition":"full-information","relevant_dimensions":["antennae","wings"],"bee_group":{"antennae":"A","wings":"1","pattern":"X","legs":"X"},"bonus":0.5800000000000008},{"rt":1734.7000000011176,"stimulus":"bees-with-color/bee-A2SM.svg","response":0,"trial_type":"image-button-response","trial_index":99,"time_elapsed":380374,"internal_node_id":"0.0-4.0-0.46","subject_id":"611a78efa6c36a674dc40cc6","study_id":"6197b3f67c2b5cd3b6d9596a","session_id":"6197b7c7cd151cfc2b7bbd00","condition":"full-information","relevant_dimensions":["antennae","wings"],"bee_group":{"antennae":"A","wings":"1","pattern":"X","legs":"X"},"action":"harvest","summary":"good-harvest","bonus":0.5800000000000008},{"rt":1061.5,"stimulus":"\n                    <p><b>Action: <em>harvest</em></b></p>\n                    <p>This is the bee that you just saw.</p>\n                    <img src=\"bees-with-color/bee-A2SM.svg\" width=\"200\">\n                    <p><span class=\"greenText\"><b>Successful harvest!</b></span><br>Your pay has increased by $0.02. Your bonus pay is now $0.26.</p>\n            ","response":0,"trial_type":"html-button-response","trial_index":100,"time_elapsed":381437,"internal_node_id":"0.0-4.0-1.46","subject_id":"611a78efa6c36a674dc40cc6","study_id":"6197b3f67c2b5cd3b6d9596a","session_id":"6197b7c7cd151cfc2b7bbd00","condition":"full-information","relevant_dimensions":["antennae","wings"],"bee_group":{"antennae":"A","wings":"1","pattern":"X","legs":"X"},"bonus":0.5800000000000008},{"rt":8418.900000000373,"stimulus":"bees-with-color/bee-B2SM.svg","response":1,"trial_type":"image-button-response","trial_index":101,"time_elapsed":389857,"internal_node_id":"0.0-4.0-0.47","subject_id":"611a78efa6c36a674dc40cc6","study_id":"6197b3f67c2b5cd3b6d9596a","session_id":"6197b7c7cd151cfc2b7bbd00","condition":"full-information","relevant_dimensions":["antennae","wings"],"bee_group":{"antennae":"A","wings":"1","pattern":"X","legs":"X"},"action":"avoid","summary":"bad-avoid","bonus":0.5800000000000008},{"rt":1547.699999999255,"stimulus":"\n                    <p><b>Action: <em>avoid</em></b></p>\n                    <p>This is the bee that you just saw.</p>\n                    <img src=\"bees-with-color/bee-B2SM.svg\" width=\"200\">\n                    <p><span class=\"redText\">Bad choice,</span> the bee was friendly.<br>Your bonus pay is unchanged, and remains at $0.26.</p>\n            ","response":0,"trial_type":"html-button-response","trial_index":102,"time_elapsed":391407,"internal_node_id":"0.0-4.0-1.47","subject_id":"611a78efa6c36a674dc40cc6","study_id":"6197b3f67c2b5cd3b6d9596a","session_id":"6197b7c7cd151cfc2b7bbd00","condition":"full-information","relevant_dimensions":["antennae","wings"],"bee_group":{"antennae":"A","wings":"1","pattern":"X","legs":"X"},"bonus":0.5800000000000008},{"rt":1825.4000000003725,"stimulus":"bees-with-color/bee-B1SM.svg","response":0,"trial_type":"image-button-response","trial_index":103,"time_elapsed":393234,"internal_node_id":"0.0-4.0-0.48","subject_id":"611a78efa6c36a674dc40cc6","study_id":"6197b3f67c2b5cd3b6d9596a","session_id":"6197b7c7cd151cfc2b7bbd00","condition":"full-information","relevant_dimensions":["antennae","wings"],"bee_group":{"antennae":"A","wings":"1","pattern":"X","legs":"X"},"action":"harvest","summary":"good-harvest","bonus":0.5800000000000008},{"rt":835.4000000003725,"stimulus":"\n                    <p><b>Action: <em>harvest</em></b></p>\n                    <p>This is the bee that you just saw.</p>\n                    <img src=\"bees-with-color/bee-B1SM.svg\" width=\"200\">\n                    <p><span class=\"greenText\"><b>Successful harvest!</b></span><br>Your pay has increased by $0.02. Your bonus pay is now $0.28.</p>\n            ","response":0,"trial_type":"html-button-response","trial_index":104,"time_elapsed":394071,"internal_node_id":"0.0-4.0-1.48","subject_id":"611a78efa6c36a674dc40cc6","study_id":"6197b3f67c2b5cd3b6d9596a","session_id":"6197b7c7cd151cfc2b7bbd00","condition":"full-information","relevant_dimensions":["antennae","wings"],"bee_group":{"antennae":"A","wings":"1","pattern":"X","legs":"X"},"bonus":0.5800000000000008},{"rt":1847.3999999985099,"stimulus":"bees-with-color/bee-B2DM.svg","response":0,"trial_type":"image-button-response","trial_index":105,"time_elapsed":395919,"internal_node_id":"0.0-4.0-0.49","subject_id":"611a78efa6c36a674dc40cc6","study_id":"6197b3f67c2b5cd3b6d9596a","session_id":"6197b7c7cd151cfc2b7bbd00","condition":"full-information","relevant_dimensions":["antennae","wings"],"bee_group":{"antennae":"A","wings":"1","pattern":"X","legs":"X"},"action":"harvest","summary":"good-harvest","bonus":0.5800000000000008},{"rt":851.9000000003725,"stimulus":"\n                    <p><b>Action: <em>harvest</em></b></p>\n                    <p>This is the bee that you just saw.</p>\n                    <img src=\"bees-with-color/bee-B2DM.svg\" width=\"200\">\n                    <p><span class=\"greenText\"><b>Successful harvest!</b></span><br>Your pay has increased by $0.02. Your bonus pay is now $0.30.</p>\n            ","response":0,"trial_type":"html-button-response","trial_index":106,"time_elapsed":396773,"internal_node_id":"0.0-4.0-1.49","subject_id":"611a78efa6c36a674dc40cc6","study_id":"6197b3f67c2b5cd3b6d9596a","session_id":"6197b7c7cd151cfc2b7bbd00","condition":"full-information","relevant_dimensions":["antennae","wings"],"bee_group":{"antennae":"A","wings":"1","pattern":"X","legs":"X"},"bonus":0.5800000000000008},{"rt":1338.7999999988824,"stimulus":"bees-with-color/bee-A1SF.svg","response":1,"trial_type":"image-button-response","trial_index":107,"time_elapsed":398113,"internal_node_id":"0.0-4.0-0.50","subject_id":"611a78efa6c36a674dc40cc6","study_id":"6197b3f67c2b5cd3b6d9596a","session_id":"6197b7c7cd151cfc2b7bbd00","condition":"full-information","relevant_dimensions":["antennae","wings"],"bee_group":{"antennae":"A","wings":"1","pattern":"X","legs":"X"},"action":"avoid","summary":"good-avoid","bonus":0.5800000000000008},{"rt":2708.300000000745,"stimulus":"\n                    <p><b>Action: <em>avoid</em></b></p>\n                    <p>This is the bee that you just saw.</p>\n                    <img src=\"bees-with-color/bee-A1SF.svg\" width=\"200\">\n                    <p><span class=\"greenText\">Good choice!</span>  This bee would have stung you.<br>Your bonus pay is unchanged, and remains at $0.30.</p>\n            ","response":0,"trial_type":"html-button-response","trial_index":108,"time_elapsed":400822,"internal_node_id":"0.0-4.0-1.50","subject_id":"611a78efa6c36a674dc40cc6","study_id":"6197b3f67c2b5cd3b6d9596a","session_id":"6197b7c7cd151cfc2b7bbd00","condition":"full-information","relevant_dimensions":["antennae","wings"],"bee_group":{"antennae":"A","wings":"1","pattern":"X","legs":"X"},"bonus":0.5800000000000008},{"rt":2183.5,"stimulus":"bees-with-color/bee-B2DF.svg","response":0,"trial_type":"image-button-response","trial_index":109,"time_elapsed":403008,"internal_node_id":"0.0-4.0-0.51","subject_id":"611a78efa6c36a674dc40cc6","study_id":"6197b3f67c2b5cd3b6d9596a","session_id":"6197b7c7cd151cfc2b7bbd00","condition":"full-information","relevant_dimensions":["antennae","wings"],"bee_group":{"antennae":"A","wings":"1","pattern":"X","legs":"X"},"action":"harvest","summary":"good-harvest","bonus":0.5800000000000008},{"rt":1112.5999999996275,"stimulus":"\n                    <p><b>Action: <em>harvest</em></b></p>\n                    <p>This is the bee that you just saw.</p>\n                    <img src=\"bees-with-color/bee-B2DF.svg\" width=\"200\">\n                    <p><span class=\"greenText\"><b>Successful harvest!</b></span><br>Your pay has increased by $0.02. Your bonus pay is now $0.32.</p>\n            ","response":0,"trial_type":"html-button-response","trial_index":110,"time_elapsed":404122,"internal_node_id":"0.0-4.0-1.51","subject_id":"611a78efa6c36a674dc40cc6","study_id":"6197b3f67c2b5cd3b6d9596a","session_id":"6197b7c7cd151cfc2b7bbd00","condition":"full-information","relevant_dimensions":["antennae","wings"],"bee_group":{"antennae":"A","wings":"1","pattern":"X","legs":"X"},"bonus":0.5800000000000008},{"rt":1624.4000000003725,"stimulus":"bees-with-color/bee-B1DF.svg","response":1,"trial_type":"image-button-response","trial_index":111,"time_elapsed":405747,"internal_node_id":"0.0-4.0-0.52","subject_id":"611a78efa6c36a674dc40cc6","study_id":"6197b3f67c2b5cd3b6d9596a","session_id":"6197b7c7cd151cfc2b7bbd00","condition":"full-information","relevant_dimensions":["antennae","wings"],"bee_group":{"antennae":"A","wings":"1","pattern":"X","legs":"X"},"action":"avoid","summary":"bad-avoid","bonus":0.5800000000000008},{"rt":931.9000000003725,"stimulus":"\n                    <p><b>Action: <em>avoid</em></b></p>\n                    <p>This is the bee that you just saw.</p>\n                    <img src=\"bees-with-color/bee-B1DF.svg\" width=\"200\">\n                    <p><span class=\"redText\">Bad choice,</span> the bee was friendly.<br>Your bonus pay is unchanged, and remains at $0.32.</p>\n            ","response":0,"trial_type":"html-button-response","trial_index":112,"time_elapsed":406681,"internal_node_id":"0.0-4.0-1.52","subject_id":"611a78efa6c36a674dc40cc6","study_id":"6197b3f67c2b5cd3b6d9596a","session_id":"6197b7c7cd151cfc2b7bbd00","condition":"full-information","relevant_dimensions":["antennae","wings"],"bee_group":{"antennae":"A","wings":"1","pattern":"X","legs":"X"},"bonus":0.5800000000000008},{"rt":1586.2000000011176,"stimulus":"bees-with-color/bee-A1SM.svg","response":0,"trial_type":"image-button-response","trial_index":113,"time_elapsed":408268,"internal_node_id":"0.0-4.0-0.53","subject_id":"611a78efa6c36a674dc40cc6","study_id":"6197b3f67c2b5cd3b6d9596a","session_id":"6197b7c7cd151cfc2b7bbd00","condition":"full-information","relevant_dimensions":["antennae","wings"],"bee_group":{"antennae":"A","wings":"1","pattern":"X","legs":"X"},"action":"harvest","summary":"bad-harvest","bonus":0.5800000000000008},{"rt":3427.4000000003725,"stimulus":"\n                    <p><b>Action: <em>harvest</em></b></p>\n                    <p>This is the bee that you just saw.</p>\n                    <img src=\"bees-with-color/bee-A1SM.svg\" width=\"200\">\n                    <p><span class=\"redText\">Bad choice, the bee was angry.</span><br><b>You have been stung!</b><br>Your pay has been decreased by $0.10. Your bonus pay is now $0.22.</p>\n            ","response":0,"trial_type":"html-button-response","trial_index":114,"time_elapsed":411699,"internal_node_id":"0.0-4.0-1.53","subject_id":"611a78efa6c36a674dc40cc6","study_id":"6197b3f67c2b5cd3b6d9596a","session_id":"6197b7c7cd151cfc2b7bbd00","condition":"full-information","relevant_dimensions":["antennae","wings"],"bee_group":{"antennae":"A","wings":"1","pattern":"X","legs":"X"},"bonus":0.5800000000000008},{"rt":1984.2000000011176,"stimulus":"bees-with-color/bee-A2SM.svg","response":0,"trial_type":"image-button-response","trial_index":115,"time_elapsed":413685,"internal_node_id":"0.0-4.0-0.54","subject_id":"611a78efa6c36a674dc40cc6","study_id":"6197b3f67c2b5cd3b6d9596a","session_id":"6197b7c7cd151cfc2b7bbd00","condition":"full-information","relevant_dimensions":["antennae","wings"],"bee_group":{"antennae":"A","wings":"1","pattern":"X","legs":"X"},"action":"harvest","summary":"good-harvest","bonus":0.5800000000000008},{"rt":1674.800000000745,"stimulus":"\n                    <p><b>Action: <em>harvest</em></b></p>\n                    <p>This is the bee that you just saw.</p>\n                    <img src=\"bees-with-color/bee-A2SM.svg\" width=\"200\">\n                    <p><span class=\"greenText\"><b>Successful harvest!</b></span><br>Your pay has increased by $0.02. Your bonus pay is now $0.24.</p>\n            ","response":0,"trial_type":"html-button-response","trial_index":116,"time_elapsed":415361,"internal_node_id":"0.0-4.0-1.54","subject_id":"611a78efa6c36a674dc40cc6","study_id":"6197b3f67c2b5cd3b6d9596a","session_id":"6197b7c7cd151cfc2b7bbd00","condition":"full-information","relevant_dimensions":["antennae","wings"],"bee_group":{"antennae":"A","wings":"1","pattern":"X","legs":"X"},"bonus":0.5800000000000008},{"rt":6170.9000000003725,"stimulus":"bees-with-color/bee-A2DM.svg","response":0,"trial_type":"image-button-response","trial_index":117,"time_elapsed":421534,"internal_node_id":"0.0-4.0-0.55","subject_id":"611a78efa6c36a674dc40cc6","study_id":"6197b3f67c2b5cd3b6d9596a","session_id":"6197b7c7cd151cfc2b7bbd00","condition":"full-information","relevant_dimensions":["antennae","wings"],"bee_group":{"antennae":"A","wings":"1","pattern":"X","legs":"X"},"action":"harvest","summary":"good-harvest","bonus":0.5800000000000008},{"rt":1282.5,"stimulus":"\n                    <p><b>Action: <em>harvest</em></b></p>\n                    <p>This is the bee that you just saw.</p>\n                    <img src=\"bees-with-color/bee-A2DM.svg\" width=\"200\">\n                    <p><span class=\"greenText\"><b>Successful harvest!</b></span><br>Your pay has increased by $0.02. Your bonus pay is now $0.26.</p>\n            ","response":0,"trial_type":"html-button-response","trial_index":118,"time_elapsed":422818,"internal_node_id":"0.0-4.0-1.55","subject_id":"611a78efa6c36a674dc40cc6","study_id":"6197b3f67c2b5cd3b6d9596a","session_id":"6197b7c7cd151cfc2b7bbd00","condition":"full-information","relevant_dimensions":["antennae","wings"],"bee_group":{"antennae":"A","wings":"1","pattern":"X","legs":"X"},"bonus":0.5800000000000008},{"rt":1729.4000000003725,"stimulus":"bees-with-color/bee-A1DM.svg","response":1,"trial_type":"image-button-response","trial_index":119,"time_elapsed":424549,"internal_node_id":"0.0-4.0-0.56","subject_id":"611a78efa6c36a674dc40cc6","study_id":"6197b3f67c2b5cd3b6d9596a","session_id":"6197b7c7cd151cfc2b7bbd00","condition":"full-information","relevant_dimensions":["antennae","wings"],"bee_group":{"antennae":"A","wings":"1","pattern":"X","legs":"X"},"action":"avoid","summary":"good-avoid","bonus":0.5800000000000008},{"rt":2073.800000000745,"stimulus":"\n                    <p><b>Action: <em>avoid</em></b></p>\n                    <p>This is the bee that you just saw.</p>\n                    <img src=\"bees-with-color/bee-A1DM.svg\" width=\"200\">\n                    <p><span class=\"greenText\">Good choice!</span>  This bee would have stung you.<br>Your bonus pay is unchanged, and remains at $0.26.</p>\n            ","response":0,"trial_type":"html-button-response","trial_index":120,"time_elapsed":426624,"internal_node_id":"0.0-4.0-1.56","subject_id":"611a78efa6c36a674dc40cc6","study_id":"6197b3f67c2b5cd3b6d9596a","session_id":"6197b7c7cd151cfc2b7bbd00","condition":"full-information","relevant_dimensions":["antennae","wings"],"bee_group":{"antennae":"A","wings":"1","pattern":"X","legs":"X"},"bonus":0.5800000000000008},{"rt":1724.4000000003725,"stimulus":"bees-with-color/bee-B1DM.svg","response":1,"trial_type":"image-button-response","trial_index":121,"time_elapsed":428350,"internal_node_id":"0.0-4.0-0.57","subject_id":"611a78efa6c36a674dc40cc6","study_id":"6197b3f67c2b5cd3b6d9596a","session_id":"6197b7c7cd151cfc2b7bbd00","condition":"full-information","relevant_dimensions":["antennae","wings"],"bee_group":{"antennae":"A","wings":"1","pattern":"X","legs":"X"},"action":"avoid","summary":"bad-avoid","bonus":0.5800000000000008},{"rt":993.5999999996275,"stimulus":"\n                    <p><b>Action: <em>avoid</em></b></p>\n                    <p>This is the bee that you just saw.</p>\n                    <img src=\"bees-with-color/bee-B1DM.svg\" width=\"200\">\n                    <p><span class=\"redText\">Bad choice,</span> the bee was friendly.<br>Your bonus pay is unchanged, and remains at $0.26.</p>\n            ","response":0,"trial_type":"html-button-response","trial_index":122,"time_elapsed":429345,"internal_node_id":"0.0-4.0-1.57","subject_id":"611a78efa6c36a674dc40cc6","study_id":"6197b3f67c2b5cd3b6d9596a","session_id":"6197b7c7cd151cfc2b7bbd00","condition":"full-information","relevant_dimensions":["antennae","wings"],"bee_group":{"antennae":"A","wings":"1","pattern":"X","legs":"X"},"bonus":0.5800000000000008},{"rt":1366.7000000011176,"stimulus":"bees-with-color/bee-B2SM.svg","response":0,"trial_type":"image-button-response","trial_index":123,"time_elapsed":430713,"internal_node_id":"0.0-4.0-0.58","subject_id":"611a78efa6c36a674dc40cc6","study_id":"6197b3f67c2b5cd3b6d9596a","session_id":"6197b7c7cd151cfc2b7bbd00","condition":"full-information","relevant_dimensions":["antennae","wings"],"bee_group":{"antennae":"A","wings":"1","pattern":"X","legs":"X"},"action":"harvest","summary":"good-harvest","bonus":0.5800000000000008},{"rt":1056.5999999996275,"stimulus":"\n                    <p><b>Action: <em>harvest</em></b></p>\n                    <p>This is the bee that you just saw.</p>\n                    <img src=\"bees-with-color/bee-B2SM.svg\" width=\"200\">\n                    <p><span class=\"greenText\"><b>Successful harvest!</b></span><br>Your pay has increased by $0.02. Your bonus pay is now $0.28.</p>\n            ","response":0,"trial_type":"html-button-response","trial_index":124,"time_elapsed":431771,"internal_node_id":"0.0-4.0-1.58","subject_id":"611a78efa6c36a674dc40cc6","study_id":"6197b3f67c2b5cd3b6d9596a","session_id":"6197b7c7cd151cfc2b7bbd00","condition":"full-information","relevant_dimensions":["antennae","wings"],"bee_group":{"antennae":"A","wings":"1","pattern":"X","legs":"X"},"bonus":0.5800000000000008},{"rt":2515.199999999255,"stimulus":"bees-with-color/bee-A2SF.svg","response":0,"trial_type":"image-button-response","trial_index":125,"time_elapsed":434288,"internal_node_id":"0.0-4.0-0.59","subject_id":"611a78efa6c36a674dc40cc6","study_id":"6197b3f67c2b5cd3b6d9596a","session_id":"6197b7c7cd151cfc2b7bbd00","condition":"full-information","relevant_dimensions":["antennae","wings"],"bee_group":{"antennae":"A","wings":"1","pattern":"X","legs":"X"},"action":"harvest","summary":"good-harvest","bonus":0.5800000000000008},{"rt":954.8000000007451,"stimulus":"\n                    <p><b>Action: <em>harvest</em></b></p>\n                    <p>This is the bee that you just saw.</p>\n                    <img src=\"bees-with-color/bee-A2SF.svg\" width=\"200\">\n                    <p><span class=\"greenText\"><b>Successful harvest!</b></span><br>Your pay has increased by $0.02. Your bonus pay is now $0.30.</p>\n            ","response":0,"trial_type":"html-button-response","trial_index":126,"time_elapsed":435244,"internal_node_id":"0.0-4.0-1.59","subject_id":"611a78efa6c36a674dc40cc6","study_id":"6197b3f67c2b5cd3b6d9596a","session_id":"6197b7c7cd151cfc2b7bbd00","condition":"full-information","relevant_dimensions":["antennae","wings"],"bee_group":{"antennae":"A","wings":"1","pattern":"X","legs":"X"},"bonus":0.5800000000000008},{"rt":1243.3999999985099,"stimulus":"bees-with-color/bee-B2SF.svg","response":0,"trial_type":"image-button-response","trial_index":127,"time_elapsed":436489,"internal_node_id":"0.0-4.0-0.60","subject_id":"611a78efa6c36a674dc40cc6","study_id":"6197b3f67c2b5cd3b6d9596a","session_id":"6197b7c7cd151cfc2b7bbd00","condition":"full-information","relevant_dimensions":["antennae","wings"],"bee_group":{"antennae":"A","wings":"1","pattern":"X","legs":"X"},"action":"harvest","summary":"good-harvest","bonus":0.5800000000000008},{"rt":989.6000000014901,"stimulus":"\n                    <p><b>Action: <em>harvest</em></b></p>\n                    <p>This is the bee that you just saw.</p>\n                    <img src=\"bees-with-color/bee-B2SF.svg\" width=\"200\">\n                    <p><span class=\"greenText\"><b>Successful harvest!</b></span><br>Your pay has increased by $0.02. Your bonus pay is now $0.32.</p>\n            ","response":0,"trial_type":"html-button-response","trial_index":128,"time_elapsed":437480,"internal_node_id":"0.0-4.0-1.60","subject_id":"611a78efa6c36a674dc40cc6","study_id":"6197b3f67c2b5cd3b6d9596a","session_id":"6197b7c7cd151cfc2b7bbd00","condition":"full-information","relevant_dimensions":["antennae","wings"],"bee_group":{"antennae":"A","wings":"1","pattern":"X","legs":"X"},"bonus":0.5800000000000008},{"rt":1731.7000000011176,"stimulus":"bees-with-color/bee-A2DF.svg","response":0,"trial_type":"image-button-response","trial_index":129,"time_elapsed":439213,"internal_node_id":"0.0-4.0-0.61","subject_id":"611a78efa6c36a674dc40cc6","study_id":"6197b3f67c2b5cd3b6d9596a","session_id":"6197b7c7cd151cfc2b7bbd00","condition":"full-information","relevant_dimensions":["antennae","wings"],"bee_group":{"antennae":"A","wings":"1","pattern":"X","legs":"X"},"action":"harvest","summary":"good-harvest","bonus":0.5800000000000008},{"rt":1332.5,"stimulus":"\n                    <p><b>Action: <em>harvest</em></b></p>\n                    <p>This is the bee that you just saw.</p>\n                    <img src=\"bees-with-color/bee-A2DF.svg\" width=\"200\">\n                    <p><span class=\"greenText\"><b>Successful harvest!</b></span><br>Your pay has increased by $0.02. Your bonus pay is now $0.34.</p>\n            ","response":0,"trial_type":"html-button-response","trial_index":130,"time_elapsed":440547,"internal_node_id":"0.0-4.0-1.61","subject_id":"611a78efa6c36a674dc40cc6","study_id":"6197b3f67c2b5cd3b6d9596a","session_id":"6197b7c7cd151cfc2b7bbd00","condition":"full-information","relevant_dimensions":["antennae","wings"],"bee_group":{"antennae":"A","wings":"1","pattern":"X","legs":"X"},"bonus":0.5800000000000008},{"rt":1657.8999999985099,"stimulus":"bees-with-color/bee-B1SF.svg","response":1,"trial_type":"image-button-response","trial_index":131,"time_elapsed":442207,"internal_node_id":"0.0-4.0-0.62","subject_id":"611a78efa6c36a674dc40cc6","study_id":"6197b3f67c2b5cd3b6d9596a","session_id":"6197b7c7cd151cfc2b7bbd00","condition":"full-information","relevant_dimensions":["antennae","wings"],"bee_group":{"antennae":"A","wings":"1","pattern":"X","legs":"X"},"action":"avoid","summary":"bad-avoid","bonus":0.5800000000000008},{"rt":803,"stimulus":"\n                    <p><b>Action: <em>avoid</em></b></p>\n                    <p>This is the bee that you just saw.</p>\n                    <img src=\"bees-with-color/bee-B1SF.svg\" width=\"200\">\n                    <p><span class=\"redText\">Bad choice,</span> the bee was friendly.<br>Your bonus pay is unchanged, and remains at $0.34.</p>\n            ","response":0,"trial_type":"html-button-response","trial_index":132,"time_elapsed":443011,"internal_node_id":"0.0-4.0-1.62","subject_id":"611a78efa6c36a674dc40cc6","study_id":"6197b3f67c2b5cd3b6d9596a","session_id":"6197b7c7cd151cfc2b7bbd00","condition":"full-information","relevant_dimensions":["antennae","wings"],"bee_group":{"antennae":"A","wings":"1","pattern":"X","legs":"X"},"bonus":0.5800000000000008},{"rt":1324.4000000003725,"stimulus":"bees-with-color/bee-A1DF.svg","response":1,"trial_type":"image-button-response","trial_index":133,"time_elapsed":444337,"internal_node_id":"0.0-4.0-0.63","subject_id":"611a78efa6c36a674dc40cc6","study_id":"6197b3f67c2b5cd3b6d9596a","session_id":"6197b7c7cd151cfc2b7bbd00","condition":"full-information","relevant_dimensions":["antennae","wings"],"bee_group":{"antennae":"A","wings":"1","pattern":"X","legs":"X"},"action":"avoid","summary":"good-avoid","bonus":0.5800000000000008},{"rt":1313.5999999996275,"stimulus":"\n                    <p><b>Action: <em>avoid</em></b></p>\n                    <p>This is the bee that you just saw.</p>\n                    <img src=\"bees-with-color/bee-A1DF.svg\" width=\"200\">\n                    <p><span class=\"greenText\">Good choice!</span>  This bee would have stung you.<br>Your bonus pay is unchanged, and remains at $0.34.</p>\n            ","response":0,"trial_type":"html-button-response","trial_index":134,"time_elapsed":445652,"internal_node_id":"0.0-4.0-1.63","subject_id":"611a78efa6c36a674dc40cc6","study_id":"6197b3f67c2b5cd3b6d9596a","session_id":"6197b7c7cd151cfc2b7bbd00","condition":"full-information","relevant_dimensions":["antennae","wings"],"bee_group":{"antennae":"A","wings":"1","pattern":"X","legs":"X"},"bonus":0.5800000000000008},{"rt":6276,"stimulus":"You have completed the first part of this experiment.<br><br>You will now begin a shorter second part, in which you will receive no feedback.<br>The same rules regarding bonus pay apply.<br><br>Press any key to begin.","response":" ","trial_type":"html-keyboard-response","trial_index":135,"time_elapsed":451930,"internal_node_id":"0.0-5.0","subject_id":"611a78efa6c36a674dc40cc6","study_id":"6197b3f67c2b5cd3b6d9596a","session_id":"6197b7c7cd151cfc2b7bbd00","condition":"full-information","relevant_dimensions":["antennae","wings"],"bee_group":{"antennae":"A","wings":"1","pattern":"X","legs":"X"},"bonus":0.5800000000000008},{"rt":7177.5999999996275,"stimulus":"bees-with-color/bee-B2SF.svg","response":0,"trial_type":"image-button-response","trial_index":136,"time_elapsed":459115,"internal_node_id":"0.0-6.0-0.0","subject_id":"611a78efa6c36a674dc40cc6","study_id":"6197b3f67c2b5cd3b6d9596a","session_id":"6197b7c7cd151cfc2b7bbd00","condition":"full-information","relevant_dimensions":["antennae","wings"],"bee_group":{"antennae":"A","wings":"1","pattern":"X","legs":"X"},"bonus":0.5800000000000008},{"rt":6540.800000000745,"stimulus":"bees-with-color/bee-A1DM.svg","response":1,"trial_type":"image-button-response","trial_index":137,"time_elapsed":465658,"internal_node_id":"0.0-6.0-0.1","subject_id":"611a78efa6c36a674dc40cc6","study_id":"6197b3f67c2b5cd3b6d9596a","session_id":"6197b7c7cd151cfc2b7bbd00","condition":"full-information","relevant_dimensions":["antennae","wings"],"bee_group":{"antennae":"A","wings":"1","pattern":"X","legs":"X"},"bonus":0.5800000000000008},{"rt":2445.0999999996275,"stimulus":"bees-with-color/bee-B2DF.svg","response":0,"trial_type":"image-button-response","trial_index":138,"time_elapsed":468105,"internal_node_id":"0.0-6.0-0.2","subject_id":"611a78efa6c36a674dc40cc6","study_id":"6197b3f67c2b5cd3b6d9596a","session_id":"6197b7c7cd151cfc2b7bbd00","condition":"full-information","relevant_dimensions":["antennae","wings"],"bee_group":{"antennae":"A","wings":"1","pattern":"X","legs":"X"},"bonus":0.5800000000000008},{"rt":1791.2000000011176,"stimulus":"bees-with-color/bee-B1SF.svg","response":1,"trial_type":"image-button-response","trial_index":139,"time_elapsed":469898,"internal_node_id":"0.0-6.0-0.3","subject_id":"611a78efa6c36a674dc40cc6","study_id":"6197b3f67c2b5cd3b6d9596a","session_id":"6197b7c7cd151cfc2b7bbd00","condition":"full-information","relevant_dimensions":["antennae","wings"],"bee_group":{"antennae":"A","wings":"1","pattern":"X","legs":"X"},"bonus":0.5800000000000008},{"rt":3197.2000000011176,"stimulus":"bees-with-color/bee-A2SF.svg","response":0,"trial_type":"image-button-response","trial_index":140,"time_elapsed":473097,"internal_node_id":"0.0-6.0-0.4","subject_id":"611a78efa6c36a674dc40cc6","study_id":"6197b3f67c2b5cd3b6d9596a","session_id":"6197b7c7cd151cfc2b7bbd00","condition":"full-information","relevant_dimensions":["antennae","wings"],"bee_group":{"antennae":"A","wings":"1","pattern":"X","legs":"X"},"bonus":0.5800000000000008},{"rt":3634.4000000003725,"stimulus":"bees-with-color/bee-A1SM.svg","response":1,"trial_type":"image-button-response","trial_index":141,"time_elapsed":476733,"internal_node_id":"0.0-6.0-0.5","subject_id":"611a78efa6c36a674dc40cc6","study_id":"6197b3f67c2b5cd3b6d9596a","session_id":"6197b7c7cd151cfc2b7bbd00","condition":"full-information","relevant_dimensions":["antennae","wings"],"bee_group":{"antennae":"A","wings":"1","pattern":"X","legs":"X"},"bonus":0.5800000000000008},{"rt":1223,"stimulus":"bees-with-color/bee-A2DM.svg","response":0,"trial_type":"image-button-response","trial_index":142,"time_elapsed":477958,"internal_node_id":"0.0-6.0-0.6","subject_id":"611a78efa6c36a674dc40cc6","study_id":"6197b3f67c2b5cd3b6d9596a","session_id":"6197b7c7cd151cfc2b7bbd00","condition":"full-information","relevant_dimensions":["antennae","wings"],"bee_group":{"antennae":"A","wings":"1","pattern":"X","legs":"X"},"bonus":0.5800000000000008},{"rt":915.3000000007451,"stimulus":"bees-with-color/bee-A2SM.svg","response":0,"trial_type":"image-button-response","trial_index":143,"time_elapsed":478875,"internal_node_id":"0.0-6.0-0.7","subject_id":"611a78efa6c36a674dc40cc6","study_id":"6197b3f67c2b5cd3b6d9596a","session_id":"6197b7c7cd151cfc2b7bbd00","condition":"full-information","relevant_dimensions":["antennae","wings"],"bee_group":{"antennae":"A","wings":"1","pattern":"X","legs":"X"},"bonus":0.5800000000000008},{"rt":1978.300000000745,"stimulus":"bees-with-color/bee-A1SF.svg","response":1,"trial_type":"image-button-response","trial_index":144,"time_elapsed":480855,"internal_node_id":"0.0-6.0-0.8","subject_id":"611a78efa6c36a674dc40cc6","study_id":"6197b3f67c2b5cd3b6d9596a","session_id":"6197b7c7cd151cfc2b7bbd00","condition":"full-information","relevant_dimensions":["antennae","wings"],"bee_group":{"antennae":"A","wings":"1","pattern":"X","legs":"X"},"bonus":0.5800000000000008},{"rt":2811.2000000011176,"stimulus":"bees-with-color/bee-A2DF.svg","response":0,"trial_type":"image-button-response","trial_index":145,"time_elapsed":483668,"internal_node_id":"0.0-6.0-0.9","subject_id":"611a78efa6c36a674dc40cc6","study_id":"6197b3f67c2b5cd3b6d9596a","session_id":"6197b7c7cd151cfc2b7bbd00","condition":"full-information","relevant_dimensions":["antennae","wings"],"bee_group":{"antennae":"A","wings":"1","pattern":"X","legs":"X"},"bonus":0.5800000000000008},{"rt":1333.4000000003725,"stimulus":"bees-with-color/bee-B1SM.svg","response":1,"trial_type":"image-button-response","trial_index":146,"time_elapsed":485004,"internal_node_id":"0.0-6.0-0.10","subject_id":"611a78efa6c36a674dc40cc6","study_id":"6197b3f67c2b5cd3b6d9596a","session_id":"6197b7c7cd151cfc2b7bbd00","condition":"full-information","relevant_dimensions":["antennae","wings"],"bee_group":{"antennae":"A","wings":"1","pattern":"X","legs":"X"},"bonus":0.5800000000000008},{"rt":1197.5,"stimulus":"bees-with-color/bee-B2SM.svg","response":0,"trial_type":"image-button-response","trial_index":147,"time_elapsed":486203,"internal_node_id":"0.0-6.0-0.11","subject_id":"611a78efa6c36a674dc40cc6","study_id":"6197b3f67c2b5cd3b6d9596a","session_id":"6197b7c7cd151cfc2b7bbd00","condition":"full-information","relevant_dimensions":["antennae","wings"],"bee_group":{"antennae":"A","wings":"1","pattern":"X","legs":"X"},"bonus":0.5800000000000008},{"rt":2291.7000000011176,"stimulus":"bees-with-color/bee-A1DF.svg","response":1,"trial_type":"image-button-response","trial_index":148,"time_elapsed":488497,"internal_node_id":"0.0-6.0-0.12","subject_id":"611a78efa6c36a674dc40cc6","study_id":"6197b3f67c2b5cd3b6d9596a","session_id":"6197b7c7cd151cfc2b7bbd00","condition":"full-information","relevant_dimensions":["antennae","wings"],"bee_group":{"antennae":"A","wings":"1","pattern":"X","legs":"X"},"bonus":0.5800000000000008},{"rt":1787.699999999255,"stimulus":"bees-with-color/bee-B1DM.svg","response":1,"trial_type":"image-button-response","trial_index":149,"time_elapsed":490286,"internal_node_id":"0.0-6.0-0.13","subject_id":"611a78efa6c36a674dc40cc6","study_id":"6197b3f67c2b5cd3b6d9596a","session_id":"6197b7c7cd151cfc2b7bbd00","condition":"full-information","relevant_dimensions":["antennae","wings"],"bee_group":{"antennae":"A","wings":"1","pattern":"X","legs":"X"},"bonus":0.5800000000000008},{"rt":1450.4000000003725,"stimulus":"bees-with-color/bee-B1DF.svg","response":0,"trial_type":"image-button-response","trial_index":150,"time_elapsed":491738,"internal_node_id":"0.0-6.0-0.14","subject_id":"611a78efa6c36a674dc40cc6","study_id":"6197b3f67c2b5cd3b6d9596a","session_id":"6197b7c7cd151cfc2b7bbd00","condition":"full-information","relevant_dimensions":["antennae","wings"],"bee_group":{"antennae":"A","wings":"1","pattern":"X","legs":"X"},"bonus":0.5800000000000008},{"rt":2641.0999999996275,"stimulus":"bees-with-color/bee-B2DM.svg","response":0,"trial_type":"image-button-response","trial_index":151,"time_elapsed":494381,"internal_node_id":"0.0-6.0-0.15","subject_id":"611a78efa6c36a674dc40cc6","study_id":"6197b3f67c2b5cd3b6d9596a","session_id":"6197b7c7cd151cfc2b7bbd00","condition":"full-information","relevant_dimensions":["antennae","wings"],"bee_group":{"antennae":"A","wings":"1","pattern":"X","legs":"X"},"bonus":0.5800000000000008},{"rt":1294.2000000011176,"stimulus":"bees-with-color/bee-B1SM.svg","response":1,"trial_type":"image-button-response","trial_index":152,"time_elapsed":495677,"internal_node_id":"0.0-6.0-0.16","subject_id":"611a78efa6c36a674dc40cc6","study_id":"6197b3f67c2b5cd3b6d9596a","session_id":"6197b7c7cd151cfc2b7bbd00","condition":"full-information","relevant_dimensions":["antennae","wings"],"bee_group":{"antennae":"A","wings":"1","pattern":"X","legs":"X"},"bonus":0.5800000000000008},{"rt":1083.2000000011176,"stimulus":"bees-with-color/bee-A2SF.svg","response":0,"trial_type":"image-button-response","trial_index":153,"time_elapsed":496762,"internal_node_id":"0.0-6.0-0.17","subject_id":"611a78efa6c36a674dc40cc6","study_id":"6197b3f67c2b5cd3b6d9596a","session_id":"6197b7c7cd151cfc2b7bbd00","condition":"full-information","relevant_dimensions":["antennae","wings"],"bee_group":{"antennae":"A","wings":"1","pattern":"X","legs":"X"},"bonus":0.5800000000000008},{"rt":1792.199999999255,"stimulus":"bees-with-color/bee-A1DM.svg","response":1,"trial_type":"image-button-response","trial_index":154,"time_elapsed":498556,"internal_node_id":"0.0-6.0-0.18","subject_id":"611a78efa6c36a674dc40cc6","study_id":"6197b3f67c2b5cd3b6d9596a","session_id":"6197b7c7cd151cfc2b7bbd00","condition":"full-information","relevant_dimensions":["antennae","wings"],"bee_group":{"antennae":"A","wings":"1","pattern":"X","legs":"X"},"bonus":0.5800000000000008},{"rt":1496.699999999255,"stimulus":"bees-with-color/bee-B2SF.svg","response":0,"trial_type":"image-button-response","trial_index":155,"time_elapsed":500054,"internal_node_id":"0.0-6.0-0.19","subject_id":"611a78efa6c36a674dc40cc6","study_id":"6197b3f67c2b5cd3b6d9596a","session_id":"6197b7c7cd151cfc2b7bbd00","condition":"full-information","relevant_dimensions":["antennae","wings"],"bee_group":{"antennae":"A","wings":"1","pattern":"X","legs":"X"},"bonus":0.5800000000000008},{"rt":3233.300000000745,"stimulus":"bees-with-color/bee-A1DF.svg","response":1,"trial_type":"image-button-response","trial_index":156,"time_elapsed":503289,"internal_node_id":"0.0-6.0-0.20","subject_id":"611a78efa6c36a674dc40cc6","study_id":"6197b3f67c2b5cd3b6d9596a","session_id":"6197b7c7cd151cfc2b7bbd00","condition":"full-information","relevant_dimensions":["antennae","wings"],"bee_group":{"antennae":"A","win