[{"success":true,"trial_type":"fullscreen","trial_index":0,"time_elapsed":10696,"internal_node_id":"0.0-0.0","subject_id":"60bb404e01d599dfb1c3d71c","study_id":"6197b3f67c2b5cd3b6d9596a","session_id":"619bfbdc36ed99c975f5fbc9","condition":"contingent","relevant_dimensions":["antennae","wings"],"bee_group":{"antennae":"A","wings":"1","pattern":"X","legs":"X"},"bonus":0.9000000000000009},{"success":true,"timeout":false,"failed_images":[],"failed_audio":[],"failed_video":[],"trial_type":"preload","trial_index":1,"time_elapsed":13410,"internal_node_id":"0.0-1.0","subject_id":"60bb404e01d599dfb1c3d71c","study_id":"6197b3f67c2b5cd3b6d9596a","session_id":"619bfbdc36ed99c975f5fbc9","condition":"contingent","relevant_dimensions":["antennae","wings"],"bee_group":{"antennae":"A","wings":"1","pattern":"X","legs":"X"},"bonus":0.9000000000000009},{"rt":3126.300000011921,"stimulus":"Welcome! Press any key to begin.","response":" ","trial_type":"html-keyboard-response","trial_index":2,"time_elapsed":16538,"internal_node_id":"0.0-2.0","subject_id":"60bb404e01d599dfb1c3d71c","study_id":"6197b3f67c2b5cd3b6d9596a","session_id":"619bfbdc36ed99c975f5fbc9","condition":"contingent","relevant_dimensions":["antennae","wings"],"bee_group":{"antennae":"A","wings":"1","pattern":"X","legs":"X"},"bonus":0.9000000000000009},{"view_history":[{"page_index":0,"viewing_time":4755.4000000059605},{"page_index":1,"viewing_time":13448.699999988079},{"page_index":2,"viewing_time":12559.5},{"page_index":3,"viewing_time":15367.90000000596},{"page_index":4,"viewing_time":7016.200000017881},{"page_index":3,"viewing_time":8639.699999988079},{"page_index":4,"viewing_time":8552.300000011921},{"page_index":5,"viewing_time":9192.399999976158},{"page_index":6,"viewing_time":7471.5},{"page_index":7,"viewing_time":7512.800000011921},{"page_index":8,"viewing_time":5391.699999988079},{"page_index":9,"viewing_time":3095.600000023842},{"page_index":10,"viewing_time":2407.899999976158},{"page_index":11,"viewing_time":12176},{"page_index":12,"viewing_time":13207.90000000596},{"page_index":13,"viewing_time":1552},{"page_index":14,"viewing_time":2912.2000000178814}],"rt":135260.5,"trial_type":"instructions","trial_index":3,"time_elapsed":151799,"internal_node_id":"0.0-3.0-0.0","subject_id":"60bb404e01d599dfb1c3d71c","study_id":"6197b3f67c2b5cd3b6d9596a","session_id":"619bfbdc36ed99c975f5fbc9","condition":"contingent","relevant_dimensions":["antennae","wings"],"bee_group":{"antennae":"A","wings":"1","pattern":"X","legs":"X"},"bonus":0.9000000000000009},{"rt":17653.90000000596,"response":{"Q0":["Two or six legs","Stripes or spots on body","Single or double wings","Antennae or no antennae"]},"question_order":[0],"trial_type":"survey-multi-select","trial_index":4,"time_elapsed":169464,"internal_node_id":"0.0-3.0-1.0","subject_id":"60bb404e01d599dfb1c3d71c","study_id":"6197b3f67c2b5cd3b6d9596a","session_id":"619bfbdc36ed99c975f5fbc9","condition":"contingent","relevant_dimensions":["antennae","wings"],"bee_group":{"antennae":"A","wings":"1","pattern":"X","legs":"X"},"correct":true,"bonus":0.9000000000000009},{"rt":28275.5,"response":{"Q1":"No.","Q2":"Based on the four features of the bee.","Q3":"You do not learn if it was friendly or dangerous, and do not alter your bonus."},"question_order":[0,1,2],"trial_type":"survey-multi-choice","trial_index":5,"time_elapsed":197744,"internal_node_id":"0.0-3.0-2.0","subject_id":"60bb404e01d599dfb1c3d71c","study_id":"6197b3f67c2b5cd3b6d9596a","session_id":"619bfbdc36ed99c975f5fbc9","condition":"contingent","relevant_dimensions":["antennae","wings"],"bee_group":{"antennae":"A","wings":"1","pattern":"X","legs":"X"},"correct":true,"bonus":0.9000000000000009},{"rt":3445.0999999940395,"stimulus":"<p>Congrats, you got everything right<br>When you're ready, click the button below to continue to the experiment.</p>","response":0,"trial_type":"html-button-response","trial_index":6,"time_elapsed":201192,"internal_node_id":"0.0-3.0-3.0","subject_id":"60bb404e01d599dfb1c3d71c","study_id":"6197b3f67c2b5cd3b6d9596a","session_id":"619bfbdc36ed99c975f5fbc9","condition":"contingent","relevant_dimensions":["antennae","wings"],"bee_group":{"antennae":"A","wings":"1","pattern":"X","legs":"X"},"bonus":0.9000000000000009},{"rt":4156.199999988079,"stimulus":"bees-with-color/bee-A2SF.svg","response":0,"trial_type":"image-button-response","trial_index":7,"time_elapsed":205351,"internal_node_id":"0.0-4.0-0.0","subject_id":"60bb404e01d599dfb1c3d71c","study_id":"6197b3f67c2b5cd3b6d9596a","session_id":"619bfbdc36ed99c975f5fbc9","condition":"contingent","relevant_dimensions":["antennae","wings"],"bee_group":{"antennae":"A","wings":"1","pattern":"X","legs":"X"},"action":"harvest","summary":"good-harvest","bonus":0.9000000000000009},{"rt":4132.600000023842,"stimulus":"\n                    <p><b>Action: <em>harvest</em></b></p>\n                    <p>This is the bee that you just saw.</p>\n                    <img src=\"bees-with-color/bee-A2SF.svg\" width=\"200\">\n                    <p><span class=\"greenText\"><b>Successful harvest!</b></span><br>Your pay has increased by $0.02. Your bonus pay is now $0.56.</p>\n            ","response":0,"trial_type":"html-button-response","trial_index":8,"time_elapsed":209487,"internal_node_id":"0.0-4.0-1.0","subject_id":"60bb404e01d599dfb1c3d71c","study_id":"6197b3f67c2b5cd3b6d9596a","session_id":"619bfbdc36ed99c975f5fbc9","condition":"contingent","relevant_dimensions":["antennae","wings"],"bee_group":{"antennae":"A","wings":"1","pattern":"X","legs":"X"},"bonus":0.9000000000000009},{"rt":2861.2000000178814,"stimulus":"bees-with-color/bee-B2DM.svg","response":0,"trial_type":"image-button-response","trial_index":9,"time_elapsed":212351,"internal_node_id":"0.0-4.0-0.1","subject_id":"60bb404e01d599dfb1c3d71c","study_id":"6197b3f67c2b5cd3b6d9596a","session_id":"619bfbdc36ed99c975f5fbc9","condition":"contingent","relevant_dimensions":["antennae","wings"],"bee_group":{"antennae":"A","wings":"1","pattern":"X","legs":"X"},"action":"harvest","summary":"good-harvest","bonus":0.9000000000000009},{"rt":2445.0999999940395,"stimulus":"\n                    <p><b>Action: <em>harvest</em></b></p>\n                    <p>This is the bee that you just saw.</p>\n                    <img src=\"bees-with-color/bee-B2DM.svg\" width=\"200\">\n                    <p><span class=\"greenText\"><b>Successful harvest!</b></span><br>Your pay has increased by $0.02. Your bonus pay is now $0.58.</p>\n            ","response":0,"trial_type":"html-button-response","trial_index":10,"time_elapsed":214799,"internal_node_id":"0.0-4.0-1.1","subject_id":"60bb404e01d599dfb1c3d71c","study_id":"6197b3f67c2b5cd3b6d9596a","session_id":"619bfbdc36ed99c975f5fbc9","condition":"contingent","relevant_dimensions":["antennae","wings"],"bee_group":{"antennae":"A","wings":"1","pattern":"X","legs":"X"},"bonus":0.9000000000000009},{"rt":3939.9000000059605,"stimulus":"bees-with-color/bee-A1SM.svg","response":0,"trial_type":"image-button-response","trial_index":11,"time_elapsed":218743,"internal_node_id":"0.0-4.0-0.2","subject_id":"60bb404e01d599dfb1c3d71c","study_id":"6197b3f67c2b5cd3b6d9596a","session_id":"619bfbdc36ed99c975f5fbc9","condition":"contingent","relevant_dimensions":["antennae","wings"],"bee_group":{"antennae":"A","wings":"1","pattern":"X","legs":"X"},"action":"harvest","summary":"bad-harvest","bonus":0.9000000000000009},{"rt":4630.300000011921,"stimulus":"\n                    <p><b>Action: <em>harvest</em></b></p>\n                    <p>This is the bee that you just saw.</p>\n                    <img src=\"bees-with-color/bee-A1SM.svg\" width=\"200\">\n                    <p><span class=\"redText\">Bad choice, the bee was angry.</span><br><b>You have been stung!</b><br>Your pay has been decreased by $0.10. Your bonus pay is now $0.48.</p>\n            ","response":0,"trial_type":"html-button-response","trial_index":12,"time_elapsed":223375,"internal_node_id":"0.0-4.0-1.2","subject_id":"60bb404e01d599dfb1c3d71c","study_id":"6197b3f67c2b5cd3b6d9596a","session_id":"619bfbdc36ed99c975f5fbc9","condition":"contingent","relevant_dimensions":["antennae","wings"],"bee_group":{"antennae":"A","wings":"1","pattern":"X","legs":"X"},"bonus":0.9000000000000009},{"rt":2092.9000000059605,"stimulus":"bees-with-color/bee-B1SM.svg","response":1,"trial_type":"image-button-response","trial_index":13,"time_elapsed":225471,"internal_node_id":"0.0-4.0-0.3","subject_id":"60bb404e01d599dfb1c3d71c","study_id":"6197b3f67c2b5cd3b6d9596a","session_id":"619bfbdc36ed99c975f5fbc9","condition":"contingent","relevant_dimensions":["antennae","wings"],"bee_group":{"antennae":"A","wings":"1","pattern":"X","legs":"X"},"action":"avoid","summary":"bad-avoid","bonus":0.9000000000000009},{"rt":3181.399999976158,"stimulus":"\n                    <p><b>Action: <em>avoid</em></b></p>\n                    <p>This is the bee that you just saw.</p>\n                    <img src=\"bees-with-color/bee-B1SM.svg\" width=\"200\">\n                    <p><br>Your bonus pay is unchanged, and remains at $0.48.</p>\n            ","response":0,"trial_type":"html-button-response","trial_index":14,"time_elapsed":228655,"internal_node_id":"0.0-4.0-1.3","subject_id":"60bb404e01d599dfb1c3d71c","study_id":"6197b3f67c2b5cd3b6d9596a","session_id":"619bfbdc36ed99c975f5fbc9","condition":"contingent","relevant_dimensions":["antennae","wings"],"bee_group":{"antennae":"A","wings":"1","pattern":"X","legs":"X"},"bonus":0.9000000000000009},{"rt":2652.5999999940395,"stimulus":"bees-with-color/bee-A2DM.svg","response":0,"trial_type":"image-button-response","trial_index":15,"time_elapsed":231311,"internal_node_id":"0.0-4.0-0.4","subject_id":"60bb404e01d599dfb1c3d71c","study_id":"6197b3f67c2b5cd3b6d9596a","session_id":"619bfbdc36ed99c975f5fbc9","condition":"contingent","relevant_dimensions":["antennae","wings"],"bee_group":{"antennae":"A","wings":"1","pattern":"X","legs":"X"},"action":"harvest","summary":"good-harvest","bonus":0.9000000000000009},{"rt":2854.100000023842,"stimulus":"\n                    <p><b>Action: <em>harvest</em></b></p>\n                    <p>This is the bee that you just saw.</p>\n                    <img src=\"bees-with-color/bee-A2DM.svg\" width=\"200\">\n                    <p><span class=\"greenText\"><b>Successful harvest!</b></span><br>Your pay has increased by $0.02. Your bonus pay is now $0.50.</p>\n            ","response":0,"trial_type":"html-button-response","trial_index":16,"time_elapsed":234167,"internal_node_id":"0.0-4.0-1.4","subject_id":"60bb404e01d599dfb1c3d71c","study_id":"6197b3f67c2b5cd3b6d9596a","session_id":"619bfbdc36ed99c975f5fbc9","condition":"contingent","relevant_dimensions":["antennae","wings"],"bee_group":{"antennae":"A","wings":"1","pattern":"X","legs":"X"},"bonus":0.9000000000000009},{"rt":2724.9000000059605,"stimulus":"bees-with-color/bee-B1SF.svg","response":0,"trial_type":"image-button-response","trial_index":17,"time_elapsed":236895,"internal_node_id":"0.0-4.0-0.5","subject_id":"60bb404e01d599dfb1c3d71c","study_id":"6197b3f67c2b5cd3b6d9596a","session_id":"619bfbdc36ed99c975f5fbc9","condition":"contingent","relevant_dimensions":["antennae","wings"],"bee_group":{"antennae":"A","wings":"1","pattern":"X","legs":"X"},"action":"harvest","summary":"good-harvest","bonus":0.9000000000000009},{"rt":2701.9000000059605,"stimulus":"\n                    <p><b>Action: <em>harvest</em></b></p>\n                    <p>This is the bee that you just saw.</p>\n                    <img src=\"bees-with-color/bee-B1SF.svg\" width=\"200\">\n                    <p><span class=\"greenText\"><b>Successful harvest!</b></span><br>Your pay has increased by $0.02. Your bonus pay is now $0.52.</p>\n            ","response":0,"trial_type":"html-button-response","trial_index":18,"time_elapsed":239599,"internal_node_id":"0.0-4.0-1.5","subject_id":"60bb404e01d599dfb1c3d71c","study_id":"6197b3f67c2b5cd3b6d9596a","session_id":"619bfbdc36ed99c975f5fbc9","condition":"contingent","relevant_dimensions":["antennae","wings"],"bee_group":{"antennae":"A","wings":"1","pattern":"X","legs":"X"},"bonus":0.9000000000000009},{"rt":3268.7000000178814,"stimulus":"bees-with-color/bee-A1DF.svg","response":0,"trial_type":"image-button-response","trial_index":19,"time_elapsed":242871,"internal_node_id":"0.0-4.0-0.6","subject_id":"60bb404e01d599dfb1c3d71c","study_id":"6197b3f67c2b5cd3b6d9596a","session_id":"619bfbdc36ed99c975f5fbc9","condition":"contingent","relevant_dimensions":["antennae","wings"],"bee_group":{"antennae":"A","wings":"1","pattern":"X","legs":"X"},"action":"harvest","summary":"bad-harvest","bonus":0.9000000000000009},{"rt":2661.0999999940395,"stimulus":"\n                    <p><b>Action: <em>harvest</em></b></p>\n                    <p>This is the bee that you just saw.</p>\n                    <img src=\"bees-with-color/bee-A1DF.svg\" width=\"200\">\n                    <p><span class=\"redText\">Bad choice, the bee was angry.</span><br><b>You have been stung!</b><br>Your pay has been decreased by $0.10. Your bonus pay is now $0.42.</p>\n            ","response":0,"trial_type":"html-button-response","trial_index":20,"time_elapsed":245535,"internal_node_id":"0.0-4.0-1.6","subject_id":"60bb404e01d599dfb1c3d71c","study_id":"6197b3f67c2b5cd3b6d9596a","session_id":"619bfbdc36ed99c975f5fbc9","condition":"contingent","relevant_dimensions":["antennae","wings"],"bee_group":{"antennae":"A","wings":"1","pattern":"X","legs":"X"},"bonus":0.9000000000000009},{"rt":1349.199999988079,"stimulus":"bees-with-color/bee-B2SF.svg","response":0,"trial_type":"image-button-response","trial_index":21,"time_elapsed":246887,"internal_node_id":"0.0-4.0-0.7","subject_id":"60bb404e01d599dfb1c3d71c","study_id":"6197b3f67c2b5cd3b6d9596a","session_id":"619bfbdc36ed99c975f5fbc9","condition":"contingent","relevant_dimensions":["antennae","wings"],"bee_group":{"antennae":"A","wings":"1","pattern":"X","legs":"X"},"action":"harvest","summary":"good-harvest","bonus":0.9000000000000009},{"rt":1581.5,"stimulus":"\n                    <p><b>Action: <em>harvest</em></b></p>\n                    <p>This is the bee that you just saw.</p>\n                    <img src=\"bees-with-color/bee-B2SF.svg\" width=\"200\">\n                    <p><span class=\"greenText\"><b>Successful harvest!</b></span><br>Your pay has increased by $0.02. Your bonus pay is now $0.44.</p>\n            ","response":0,"trial_type":"html-button-response","trial_index":22,"time_elapsed":248471,"internal_node_id":"0.0-4.0-1.7","subject_id":"60bb404e01d599dfb1c3d71c","study_id":"6197b3f67c2b5cd3b6d9596a","session_id":"619bfbdc36ed99c975f5fbc9","condition":"contingent","relevant_dimensions":["antennae","wings"],"bee_group":{"antennae":"A","wings":"1","pattern":"X","legs":"X"},"bonus":0.9000000000000009},{"rt":2179.5,"stimulus":"bees-with-color/bee-A1SF.svg","response":0,"trial_type":"image-button-response","trial_index":23,"time_elapsed":250655,"internal_node_id":"0.0-4.0-0.8","subject_id":"60bb404e01d599dfb1c3d71c","study_id":"6197b3f67c2b5cd3b6d9596a","session_id":"619bfbdc36ed99c975f5fbc9","condition":"contingent","relevant_dimensions":["antennae","wings"],"bee_group":{"antennae":"A","wings":"1","pattern":"X","legs":"X"},"action":"harvest","summary":"bad-harvest","bonus":0.9000000000000009},{"rt":4637.5999999940395,"stimulus":"\n                    <p><b>Action: <em>harvest</em></b></p>\n                    <p>This is the bee that you just saw.</p>\n                    <img src=\"bees-with-color/bee-A1SF.svg\" width=\"200\">\n                    <p><span class=\"redText\">Bad choice, the bee was angry.</span><br><b>You have been stung!</b><br>Your pay has been decreased by $0.10. Your bonus pay is now $0.34.</p>\n            ","response":0,"trial_type":"html-button-response","trial_index":24,"time_elapsed":255295,"internal_node_id":"0.0-4.0-1.8","subject_id":"60bb404e01d599dfb1c3d71c","study_id":"6197b3f67c2b5cd3b6d9596a","session_id":"619bfbdc36ed99c975f5fbc9","condition":"contingent","relevant_dimensions":["antennae","wings"],"bee_group":{"antennae":"A","wings":"1","pattern":"X","legs":"X"},"bonus":0.9000000000000009},{"rt":2869.5999999940395,"stimulus":"bees-with-color/bee-A2SM.svg","response":0,"trial_type":"image-button-response","trial_index":25,"time_elapsed":258167,"internal_node_id":"0.0-4.0-0.9","subject_id":"60bb404e01d599dfb1c3d71c","study_id":"6197b3f67c2b5cd3b6d9596a","session_id":"619bfbdc36ed99c975f5fbc9","condition":"contingent","relevant_dimensions":["antennae","wings"],"bee_group":{"antennae":"A","wings":"1","pattern":"X","legs":"X"},"action":"harvest","summary":"good-harvest","bonus":0.9000000000000009},{"rt":5749.5999999940395,"stimulus":"\n                    <p><b>Action: <em>harvest</em></b></p>\n                    <p>This is the bee that you just saw.</p>\n                    <img src=\"bees-with-color/bee-A2SM.svg\" width=\"200\">\n                    <p><span class=\"greenText\"><b>Successful harvest!</b></span><br>Your pay has increased by $0.02. Your bonus pay is now $0.36.</p>\n            ","response":0,"trial_type":"html-button-response","trial_index":26,"time_elapsed":263919,"internal_node_id":"0.0-4.0-1.9","subject_id":"60bb404e01d599dfb1c3d71c","study_id":"6197b3f67c2b5cd3b6d9596a","session_id":"619bfbdc36ed99c975f5fbc9","condition":"contingent","relevant_dimensions":["antennae","wings"],"bee_group":{"antennae":"A","wings":"1","pattern":"X","legs":"X"},"bonus":0.9000000000000009},{"rt":1813.2000000178814,"stimulus":"bees-with-color/bee-A2DF.svg","response":1,"trial_type":"image-button-response","trial_index":27,"time_elapsed":265735,"internal_node_id":"0.0-4.0-0.10","subject_id":"60bb404e01d599dfb1c3d71c","study_id":"6197b3f67c2b5cd3b6d9596a","session_id":"619bfbdc36ed99c975f5fbc9","condition":"contingent","relevant_dimensions":["antennae","wings"],"bee_group":{"antennae":"A","wings":"1","pattern":"X","legs":"X"},"action":"avoid","summary":"bad-avoid","bonus":0.9000000000000009},{"rt":1748.8999999761581,"stimulus":"\n                    <p><b>Action: <em>avoid</em></b></p>\n                    <p>This is the bee that you just saw.</p>\n                    <img src=\"bees-with-color/bee-A2DF.svg\" width=\"200\">\n                    <p><br>Your bonus pay is unchanged, and remains at $0.36.</p>\n            ","response":0,"trial_type":"html-button-response","trial_index":28,"time_elapsed":267487,"internal_node_id":"0.0-4.0-1.10","subject_id":"60bb404e01d599dfb1c3d71c","study_id":"6197b3f67c2b5cd3b6d9596a","session_id":"619bfbdc36ed99c975f5fbc9","condition":"contingent","relevant_dimensions":["antennae","wings"],"bee_group":{"antennae":"A","wings":"1","pattern":"X","legs":"X"},"bonus":0.9000000000000009},{"rt":1614.0999999940395,"stimulus":"bees-with-color/bee-B1DF.svg","response":1,"trial_type":"image-button-response","trial_index":29,"time_elapsed":269103,"internal_node_id":"0.0-4.0-0.11","subject_id":"60bb404e01d599dfb1c3d71c","study_id":"6197b3f67c2b5cd3b6d9596a","session_id":"619bfbdc36ed99c975f5fbc9","condition":"contingent","relevant_dimensions":["antennae","wings"],"bee_group":{"antennae":"A","wings":"1","pattern":"X","legs":"X"},"action":"avoid","summary":"bad-avoid","bonus":0.9000000000000009},{"rt":1389.2000000178814,"stimulus":"\n                    <p><b>Action: <em>avoid</em></b></p>\n                    <p>This is the bee that you just saw.</p>\n                    <img src=\"bees-with-color/bee-B1DF.svg\" width=\"200\">\n                    <p><br>Your bonus pay is unchanged, and remains at $0.36.</p>\n            ","response":0,"trial_type":"html-button-response","trial_index":30,"time_elapsed":270495,"internal_node_id":"0.0-4.0-1.11","subject_id":"60bb404e01d599dfb1c3d71c","study_id":"6197b3f67c2b5cd3b6d9596a","session_id":"619bfbdc36ed99c975f5fbc9","condition":"contingent","relevant_dimensions":["antennae","wings"],"bee_group":{"antennae":"A","wings":"1","pattern":"X","legs":"X"},"bonus":0.9000000000000009},{"rt":3285.899999976158,"stimulus":"bees-with-color/bee-B1DM.svg","response":1,"trial_type":"image-button-response","trial_index":31,"time_elapsed":273783,"internal_node_id":"0.0-4.0-0.12","subject_id":"60bb404e01d599dfb1c3d71c","study_id":"6197b3f67c2b5cd3b6d9596a","session_id":"619bfbdc36ed99c975f5fbc9","condition":"contingent","relevant_dimensions":["antennae","wings"],"bee_group":{"antennae":"A","wings":"1","pattern":"X","legs":"X"},"action":"avoid","summary":"bad-avoid","bonus":0.9000000000000009},{"rt":1517.9000000059605,"stimulus":"\n                    <p><b>Action: <em>avoid</em></b></p>\n                    <p>This is the bee that you just saw.</p>\n                    <img src=\"bees-with-color/bee-B1DM.svg\" width=\"200\">\n                    <p><br>Your bonus pay is unchanged, and remains at $0.36.</p>\n            ","response":0,"trial_type":"html-button-response","trial_index":32,"time_elapsed":275303,"internal_node_id":"0.0-4.0-1.12","subject_id":"60bb404e01d599dfb1c3d71c","study_id":"6197b3f67c2b5cd3b6d9596a","session_id":"619bfbdc36ed99c975f5fbc9","condition":"contingent","relevant_dimensions":["antennae","wings"],"bee_group":{"antennae":"A","wings":"1","pattern":"X","legs":"X"},"bonus":0.9000000000000009},{"rt":1334.0999999940395,"stimulus":"bees-with-color/bee-B2SM.svg","response":0,"trial_type":"image-button-response","trial_index":33,"time_elapsed":276639,"internal_node_id":"0.0-4.0-0.13","subject_id":"60bb404e01d599dfb1c3d71c","study_id":"6197b3f67c2b5cd3b6d9596a","session_id":"619bfbdc36ed99c975f5fbc9","condition":"contingent","relevant_dimensions":["antennae","wings"],"bee_group":{"antennae":"A","wings":"1","pattern":"X","legs":"X"},"action":"harvest","summary":"good-harvest","bonus":0.9000000000000009},{"rt":1525.4000000059605,"stimulus":"\n                    <p><b>Action: <em>harvest</em></b></p>\n                    <p>This is the bee that you just saw.</p>\n                    <img src=\"bees-with-color/bee-B2SM.svg\" width=\"200\">\n                    <p><span class=\"greenText\"><b>Successful harvest!</b></span><br>Your pay has increased by $0.02. Your bonus pay is now $0.38.</p>\n            ","response":0,"trial_type":"html-button-response","trial_index":34,"time_elapsed":278167,"internal_node_id":"0.0-4.0-1.13","subject_id":"60bb404e01d599dfb1c3d71c","study_id":"6197b3f67c2b5cd3b6d9596a","session_id":"619bfbdc36ed99c975f5fbc9","condition":"contingent","relevant_dimensions":["antennae","wings"],"bee_group":{"antennae":"A","wings":"1","pattern":"X","legs":"X"},"bonus":0.9000000000000009},{"rt":1357.300000011921,"stimulus":"bees-with-color/bee-A1DM.svg","response":1,"trial_type":"image-button-response","trial_index":35,"time_elapsed":279526,"internal_node_id":"0.0-4.0-0.14","subject_id":"60bb404e01d599dfb1c3d71c","study_id":"6197b3f67c2b5cd3b6d9596a","session_id":"619bfbdc36ed99c975f5fbc9","condition":"contingent","relevant_dimensions":["antennae","wings"],"bee_group":{"antennae":"A","wings":"1","pattern":"X","legs":"X"},"action":"avoid","summary":"good-avoid","bonus":0.9000000000000009},{"rt":1286.2999999821186,"stimulus":"\n                    <p><b>Action: <em>avoid</em></b></p>\n                    <p>This is the bee that you just saw.</p>\n                    <img src=\"bees-with-color/bee-A1DM.svg\" width=\"200\">\n                    <p><br>Your bonus pay is unchanged, and remains at $0.38.</p>\n            ","response":0,"trial_type":"html-button-response","trial_index":36,"time_elapsed":280814,"internal_node_id":"0.0-4.0-1.14","subject_id":"60bb404e01d599dfb1c3d71c","study_id":"6197b3f67c2b5cd3b6d9596a","session_id":"619bfbdc36ed99c975f5fbc9","condition":"contingent","relevant_dimensions":["antennae","wings"],"bee_group":{"antennae":"A","wings":"1","pattern":"X","legs":"X"},"bonus":0.9000000000000009},{"rt":1454.5,"stimulus":"bees-with-color/bee-B2DF.svg","response":1,"trial_type":"image-button-response","trial_index":37,"time_elapsed":282271,"internal_node_id":"0.0-4.0-0.15","subject_id":"60bb404e01d599dfb1c3d71c","study_id":"6197b3f67c2b5cd3b6d9596a","session_id":"619bfbdc36ed99c975f5fbc9","condition":"contingent","relevant_dimensions":["antennae","wings"],"bee_group":{"antennae":"A","wings":"1","pattern":"X","legs":"X"},"action":"avoid","summary":"bad-avoid","bonus":0.9000000000000009},{"rt":1085.9000000059605,"stimulus":"\n                    <p><b>Action: <em>avoid</em></b></p>\n                    <p>This is the bee that you just saw.</p>\n                    <img src=\"bees-with-color/bee-B2DF.svg\" width=\"200\">\n                    <p><br>Your bonus pay is unchanged, and remains at $0.38.</p>\n            ","response":0,"trial_type":"html-button-response","trial_index":38,"time_elapsed":283360,"internal_node_id":"0.0-4.0-1.15","subject_id":"60bb404e01d599dfb1c3d71c","study_id":"6197b3f67c2b5cd3b6d9596a","session_id":"619bfbdc36ed99c975f5fbc9","condition":"contingent","relevant_dimensions":["antennae","wings"],"bee_group":{"antennae":"A","wings":"1","pattern":"X","legs":"X"},"bonus":0.9000000000000009},{"rt":1413.0999999940395,"stimulus":"bees-with-color/bee-B1SF.svg","response":0,"trial_type":"image-button-response","trial_index":39,"time_elapsed":284775,"internal_node_id":"0.0-4.0-0.16","subject_id":"60bb404e01d599dfb1c3d71c","study_id":"6197b3f67c2b5cd3b6d9596a","session_id":"619bfbdc36ed99c975f5fbc9","condition":"contingent","relevant_dimensions":["antennae","wings"],"bee_group":{"antennae":"A","wings":"1","pattern":"X","legs":"X"},"action":"harvest","summary":"good-harvest","bonus":0.9000000000000009},{"rt":1206.300000011921,"stimulus":"\n                    <p><b>Action: <em>harvest</em></b></p>\n                    <p>This is the bee that you just saw.</p>\n                    <img src=\"bees-with-color/bee-B1SF.svg\" width=\"200\">\n                    <p><span class=\"greenText\"><b>Successful harvest!</b></span><br>Your pay has increased by $0.02. Your bonus pay is now $0.40.</p>\n            ","response":0,"trial_type":"html-button-response","trial_index":40,"time_elapsed":285983,"internal_node_id":"0.0-4.0-1.16","subject_id":"60bb404e01d599dfb1c3d71c","study_id":"6197b3f67c2b5cd3b6d9596a","session_id":"619bfbdc36ed99c975f5fbc9","condition":"contingent","relevant_dimensions":["antennae","wings"],"bee_group":{"antennae":"A","wings":"1","pattern":"X","legs":"X"},"bonus":0.9000000000000009},{"rt":1229.300000011921,"stimulus":"bees-with-color/bee-B2SM.svg","response":0,"trial_type":"image-button-response","trial_index":41,"time_elapsed":287215,"internal_node_id":"0.0-4.0-0.17","subject_id":"60bb404e01d599dfb1c3d71c","study_id":"6197b3f67c2b5cd3b6d9596a","session_id":"619bfbdc36ed99c975f5fbc9","condition":"contingent","relevant_dimensions":["antennae","wings"],"bee_group":{"antennae":"A","wings":"1","pattern":"X","legs":"X"},"action":"harvest","summary":"good-harvest","bonus":0.9000000000000009},{"rt":1278.9000000059605,"stimulus":"\n                    <p><b>Action: <em>harvest</em></b></p>\n                    <p>This is the bee that you just saw.</p>\n                    <img src=\"bees-with-color/bee-B2SM.svg\" width=\"200\">\n                    <p><span class=\"greenText\"><b>Successful harvest!</b></span><br>Your pay has increased by $0.02. Your bonus pay is now $0.42.</p>\n            ","response":0,"trial_type":"html-button-response","trial_index":42,"time_elapsed":288495,"internal_node_id":"0.0-4.0-1.17","subject_id":"60bb404e01d599dfb1c3d71c","study_id":"6197b3f67c2b5cd3b6d9596a","session_id":"619bfbdc36ed99c975f5fbc9","condition":"contingent","relevant_dimensions":["antennae","wings"],"bee_group":{"antennae":"A","wings":"1","pattern":"X","legs":"X"},"bonus":0.9000000000000009},{"rt":1148.8999999761581,"stimulus":"bees-with-color/bee-A2DF.svg","response":1,"trial_type":"image-button-response","trial_index":43,"time_elapsed":289647,"internal_node_id":"0.0-4.0-0.18","subject_id":"60bb404e01d599dfb1c3d71c","study_id":"6197b3f67c2b5cd3b6d9596a","session_id":"619bfbdc36ed99c975f5fbc9","condition":"contingent","relevant_dimensions":["antennae","wings"],"bee_group":{"antennae":"A","wings":"1","pattern":"X","legs":"X"},"action":"avoid","summary":"bad-avoid","bonus":0.9000000000000009},{"rt":1125.699999988079,"stimulus":"\n                    <p><b>Action: <em>avoid</em></b></p>\n                    <p>This is the bee that you just saw.</p>\n                    <img src=\"bees-with-color/bee-A2DF.svg\" width=\"200\">\n                    <p><br>Your bonus pay is unchanged, and remains at $0.42.</p>\n            ","response":0,"trial_type":"html-button-response","trial_index":44,"time_elapsed":290775,"internal_node_id":"0.0-4.0-1.18","subject_id":"60bb404e01d599dfb1c3d71c","study_id":"6197b3f67c2b5cd3b6d9596a","session_id":"619bfbdc36ed99c975f5fbc9","condition":"contingent","relevant_dimensions":["antennae","wings"],"bee_group":{"antennae":"A","wings":"1","pattern":"X","legs":"X"},"bonus":0.9000000000000009},{"rt":1182.0999999940395,"stimulus":"bees-with-color/bee-A1DM.svg","response":1,"trial_type":"image-button-response","trial_index":45,"time_elapsed":291959,"internal_node_id":"0.0-4.0-0.19","subject_id":"60bb404e01d599dfb1c3d71c","study_id":"6197b3f67c2b5cd3b6d9596a","session_id":"619bfbdc36ed99c975f5fbc9","condition":"contingent","relevant_dimensions":["antennae","wings"],"bee_group":{"antennae":"A","wings":"1","pattern":"X","legs":"X"},"action":"avoid","summary":"good-avoid","bonus":0.9000000000000009},{"rt":1461.9000000059605,"stimulus":"\n                    <p><b>Action: <em>avoid</em></b></p>\n                    <p>This is the bee that you just saw.</p>\n                    <img src=\"bees-with-color/bee-A1DM.svg\" width=\"200\">\n                    <p><br>Your bonus pay is unchanged, and remains at $0.42.</p>\n            ","response":0,"trial_type":"html-button-response","trial_index":46,"time_elapsed":293423,"internal_node_id":"0.0-4.0-1.19","subject_id":"60bb404e01d599dfb1c3d71c","study_id":"6197b3f67c2b5cd3b6d9596a","session_id":"619bfbdc36ed99c975f5fbc9","condition":"contingent","relevant_dimensions":["antennae","wings"],"bee_group":{"antennae":"A","wings":"1","pattern":"X","legs":"X"},"bonus":0.9000000000000009},{"rt":838.1000000238419,"stimulus":"bees-with-color/bee-B2DF.svg","response":1,"trial_type":"image-button-response","trial_index":47,"time_elapsed":294263,"internal_node_id":"0.0-4.0-0.20","subject_id":"60bb404e01d599dfb1c3d71c","study_id":"6197b3f67c2b5cd3b6d9596a","session_id":"619bfbdc36ed99c975f5fbc9","condition":"contingent","relevant_dimensions":["antennae","wings"],"bee_group":{"antennae":"A","wings":"1","pattern":"X","legs":"X"},"action":"avoid","summary":"bad-avoid","bonus":0.9000000000000009},{"rt":1006.5999999940395,"stimulus":"\n                    <p><b>Action: <em>avoid</em></b></p>\n                    <p>This is the bee that you just saw.</p>\n                    <img src=\"bees-with-color/bee-B2DF.svg\" width=\"200\">\n                    <p><br>Your bonus pay is unchanged, and remains at $0.42.</p>\n            ","response":0,"trial_type":"html-button-response","trial_index":48,"time_elapsed":295271,"internal_node_id":"0.0-4.0-1.20","subject_id":"60bb404e01d599dfb1c3d71c","study_id":"6197b3f67c2b5cd3b6d9596a","session_id":"619bfbdc36ed99c975f5fbc9","condition":"contingent","relevant_dimensions":["antennae","wings"],"bee_group":{"antennae":"A","wings":"1","pattern":"X","legs":"X"},"bonus":0.9000000000000009},{"rt":884.4000000059605,"stimulus":"bees-with-color/bee-B1DM.svg","response":1,"trial_type":"image-button-response","trial_index":49,"time_elapsed":296158,"internal_node_id":"0.0-4.0-0.21","subject_id":"60bb404e01d599dfb1c3d71c","study_id":"6197b3f67c2b5cd3b6d9596a","session_id":"619bfbdc36ed99c975f5fbc9","condition":"contingent","relevant_dimensions":["antennae","wings"],"bee_group":{"antennae":"A","wings":"1","pattern":"X","legs":"X"},"action":"avoid","summary":"bad-avoid","bonus":0.9000000000000009},{"rt":743,"stimulus":"\n                    <p><b>Action: <em>avoid</em></b></p>\n                    <p>This is the bee that you just saw.</p>\n                    <img src=\"bees-with-color/bee-B1DM.svg\" width=\"200\">\n                    <p><br>Your bonus pay is unchanged, and remains at $0.42.</p>\n            ","response":0,"trial_type":"html-button-response","trial_index":50,"time_elapsed":296903,"internal_node_id":"0.0-4.0-1.21","subject_id":"60bb404e01d599dfb1c3d71c","study_id":"6197b3f67c2b5cd3b6d9596a","session_id":"619bfbdc36ed99c975f5fbc9","condition":"contingent","relevant_dimensions":["antennae","wings"],"bee_group":{"antennae":"A","wings":"1","pattern":"X","legs":"X"},"bonus":0.9000000000000009},{"rt":925.4000000059605,"stimulus":"bees-with-color/bee-A1SF.svg","response":0,"trial_type":"image-button-response","trial_index":51,"time_elapsed":297830,"internal_node_id":"0.0-4.0-0.22","subject_id":"60bb404e01d599dfb1c3d71c","study_id":"6197b3f67c2b5cd3b6d9596a","session_id":"619bfbdc36ed99c975f5fbc9","condition":"contingent","relevant_dimensions":["antennae","wings"],"bee_group":{"antennae":"A","wings":"1","pattern":"X","legs":"X"},"action":"harvest","summary":"bad-harvest","bonus":0.9000000000000009},{"rt":3213.9000000059605,"stimulus":"\n                    <p><b>Action: <em>harvest</em></b></p>\n                    <p>This is the bee that you just saw.</p>\n                    <img src=\"bees-with-color/bee-A1SF.svg\" width=\"200\">\n                    <p><span class=\"redText\">Bad choice, the bee was angry.</span><br><b>You have been stung!</b><br>Your pay has been decreased by $0.10. Your bonus pay is now $0.32.</p>\n            ","response":0,"trial_type":"html-button-response","trial_index":52,"time_elapsed":301046,"internal_node_id":"0.0-4.0-1.22","subject_id":"60bb404e01d599dfb1c3d71c","study_id":"6197b3f67c2b5cd3b6d9596a","session_id":"619bfbdc36ed99c975f5fbc9","condition":"contingent","relevant_dimensions":["antennae","wings"],"bee_group":{"antennae":"A","wings":"1","pattern":"X","legs":"X"},"bonus":0.9000000000000009},{"rt":1700.8999999761581,"stimulus":"bees-with-color/bee-A2DM.svg","response":0,"trial_type":"image-button-response","trial_index":53,"time_elapsed":302750,"internal_node_id":"0.0-4.0-0.23","subject_id":"60bb404e01d599dfb1c3d71c","study_id":"6197b3f67c2b5cd3b6d9596a","session_id":"619bfbdc36ed99c975f5fbc9","condition":"contingent","relevant_dimensions":["antennae","wings"],"bee_group":{"antennae":"A","wings":"1","pattern":"X","legs":"X"},"action":"harvest","summary":"good-harvest","bonus":0.9000000000000009},{"rt":4910.699999988079,"stimulus":"\n                    <p><b>Action: <em>harvest</em></b></p>\n                    <p>This is the bee that you just saw.</p>\n                    <img src=\"bees-with-color/bee-A2DM.svg\" width=\"200\">\n                    <p><span class=\"greenText\"><b>Successful harvest!</b></span><br>Your pay has increased by $0.02. Your bonus pay is now $0.34.</p>\n            ","response":0,"trial_type":"html-button-response","trial_index":54,"time_elapsed":307663,"internal_node_id":"0.0-4.0-1.23","subject_id":"60bb404e01d599dfb1c3d71c","study_id":"6197b3f67c2b5cd3b6d9596a","session_id":"619bfbdc36ed99c975f5fbc9","condition":"contingent","relevant_dimensions":["antennae","wings"],"bee_group":{"antennae":"A","wings":"1","pattern":"X","legs":"X"},"bonus":0.9000000000000009},{"rt":2572.4000000059605,"stimulus":"bees-with-color/bee-A1DF.svg","response":1,"trial_type":"image-button-response","trial_index":55,"time_elapsed":310238,"internal_node_id":"0.0-4.0-0.24","subject_id":"60bb404e01d599dfb1c3d71c","study_id":"6197b3f67c2b5cd3b6d9596a","session_id":"619bfbdc36ed99c975f5fbc9","condition":"contingent","relevant_dimensions":["antennae","wings"],"bee_group":{"antennae":"A","wings":"1","pattern":"X","legs":"X"},"action":"avoid","summary":"good-avoid","bonus":0.9000000000000009},{"rt":1133.0999999940395,"stimulus":"\n                    <p><b>Action: <em>avoid</em></b></p>\n                    <p>This is the bee that you just saw.</p>\n                    <img src=\"bees-with-color/bee-A1DF.svg\" width=\"200\">\n                    <p><br>Your bonus pay is unchanged, and remains at $0.34.</p>\n            ","response":0,"trial_type":"html-button-response","trial_index":56,"time_elapsed":311375,"internal_node_id":"0.0-4.0-1.24","subject_id":"60bb404e01d599dfb1c3d71c","study_id":"6197b3f67c2b5cd3b6d9596a","session_id":"619bfbdc36ed99c975f5fbc9","condition":"contingent","relevant_dimensions":["antennae","wings"],"bee_group":{"antennae":"A","wings":"1","pattern":"X","legs":"X"},"bonus":0.9000000000000009},{"rt":2572,"stimulus":"bees-with-color/bee-B1DF.svg","response":1,"trial_type":"image-button-response","trial_index":57,"time_elapsed":313950,"internal_node_id":"0.0-4.0-0.25","subject_id":"60bb404e01d599dfb1c3d71c","study_id":"6197b3f67c2b5cd3b6d9596a","session_id":"619bfbdc36ed99c975f5fbc9","condition":"contingent","relevant_dimensions":["antennae","wings"],"bee_group":{"antennae":"A","wings":"1","pattern":"X","legs":"X"},"action":"avoid","summary":"bad-avoid","bonus":0.9000000000000009},{"rt":1126.9000000059605,"stimulus":"\n                    <p><b>Action: <em>avoid</em></b></p>\n                    <p>This is the bee that you just saw.</p>\n                    <img src=\"bees-with-color/bee-B1DF.svg\" width=\"200\">\n                    <p><br>Your bonus pay is unchanged, and remains at $0.34.</p>\n            ","response":0,"trial_type":"html-button-response","trial_index":58,"time_elapsed":315080,"internal_node_id":"0.0-4.0-1.25","subject_id":"60bb404e01d599dfb1c3d71c","study_id":"6197b3f67c2b5cd3b6d9596a","session_id":"619bfbdc36ed99c975f5fbc9","condition":"contingent","relevant_dimensions":["antennae","wings"],"bee_group":{"antennae":"A","wings":"1","pattern":"X","legs":"X"},"bonus":0.9000000000000009},{"rt":970.9000000059605,"stimulus":"bees-with-color/bee-B1SM.svg","response":0,"trial_type":"image-button-response","trial_index":59,"time_elapsed":316054,"internal_node_id":"0.0-4.0-0.26","subject_id":"60bb404e01d599dfb1c3d71c","study_id":"6197b3f67c2b5cd3b6d9596a","session_id":"619bfbdc36ed99c975f5fbc9","condition":"contingent","relevant_dimensions":["antennae","wings"],"bee_group":{"antennae":"A","wings":"1","pattern":"X","legs":"X"},"action":"harvest","summary":"good-harvest","bonus":0.9000000000000009},{"rt":1173.800000011921,"stimulus":"\n                    <p><b>Action: <em>harvest</em></b></p>\n                    <p>This is the bee that you just saw.</p>\n                    <img src=\"bees-with-color/bee-B1SM.svg\" width=\"200\">\n                    <p><span class=\"greenText\"><b>Successful harvest!</b></span><br>Your pay has increased by $0.02. Your bonus pay is now $0.36.</p>\n            ","response":0,"trial_type":"html-button-response","trial_index":60,"time_elapsed":317230,"internal_node_id":"0.0-4.0-1.26","subject_id":"60bb404e01d599dfb1c3d71c","study_id":"6197b3f67c2b5cd3b6d9596a","session_id":"619bfbdc36ed99c975f5fbc9","condition":"contingent","relevant_dimensions":["antennae","wings"],"bee_group":{"antennae":"A","wings":"1","pattern":"X","legs":"X"},"bonus":0.9000000000000009},{"rt":1645.800000011921,"stimulus":"bees-with-color/bee-A2SM.svg","response":0,"trial_type":"image-button-response","trial_index":61,"time_elapsed":318879,"internal_node_id":"0.0-4.0-0.27","subject_id":"60bb404e01d599dfb1c3d71c","study_id":"6197b3f67c2b5cd3b6d9596a","session_id":"619bfbdc36ed99c975f5fbc9","condition":"contingent","relevant_dimensions":["antennae","wings"],"bee_group":{"antennae":"A","wings":"1","pattern":"X","legs":"X"},"action":"harvest","summary":"good-harvest","bonus":0.9000000000000009},{"rt":1293.2000000178814,"stimulus":"\n                    <p><b>Action: <em>harvest</em></b></p>\n                    <p>This is the bee that you just saw.</p>\n                    <img src=\"bees-with-color/bee-A2SM.svg\" width=\"200\">\n                    <p><span class=\"greenText\"><b>Successful harvest!</b></span><br>Your pay has increased by $0.02. Your bonus pay is now $0.38.</p>\n            ","response":0,"trial_type":"html-button-response","trial_index":62,"time_elapsed":320175,"internal_node_id":"0.0-4.0-1.27","subject_id":"60bb404e01d599dfb1c3d71c","study_id":"6197b3f67c2b5cd3b6d9596a","session_id":"619bfbdc36ed99c975f5fbc9","condition":"contingent","relevant_dimensions":["antennae","wings"],"bee_group":{"antennae":"A","wings":"1","pattern":"X","legs":"X"},"bonus":0.9000000000000009},{"rt":1660.300000011921,"stimulus":"bees-with-color/bee-A1SM.svg","response":0,"trial_type":"image-button-response","trial_index":63,"time_elapsed":321838,"internal_node_id":"0.0-4.0-0.28","subject_id":"60bb404e01d599dfb1c3d71c","study_id":"6197b3f67c2b5cd3b6d9596a","session_id":"619bfbdc36ed99c975f5fbc9","condition":"contingent","relevant_dimensions":["antennae","wings"],"bee_group":{"antennae":"A","wings":"1","pattern":"X","legs":"X"},"action":"harvest","summary":"bad-harvest","bonus":0.9000000000000009},{"rt":3494,"stimulus":"\n                    <p><b>Action: <em>harvest</em></b></p>\n                    <p>This is the bee that you just saw.</p>\n                    <img src=\"bees-with-color/bee-A1SM.svg\" width=\"200\">\n                    <p><span class=\"redText\">Bad choice, the bee was angry.</span><br><b>You have been stung!</b><br>Your pay has been decreased by $0.10. Your bonus pay is now $0.28.</p>\n            ","response":0,"trial_type":"html-button-response","trial_index":64,"time_elapsed":325334,"internal_node_id":"0.0-4.0-1.28","subject_id":"60bb404e01d599dfb1c3d71c","study_id":"6197b3f67c2b5cd3b6d9596a","session_id":"619bfbdc36ed99c975f5fbc9","condition":"contingent","relevant_dimensions":["antennae","wings"],"bee_group":{"antennae":"A","wings":"1","pattern":"X","legs":"X"},"bonus":0.9000000000000009},{"rt":2637.5999999940395,"stimulus":"bees-with-color/bee-A2SF.svg","response":0,"trial_type":"image-button-response","trial_index":65,"time_elapsed":327974,"internal_node_id":"0.0-4.0-0.29","subject_id":"60bb404e01d599dfb1c3d71c","study_id":"6197b3f67c2b5cd3b6d9596a","session_id":"619bfbdc36ed99c975f5fbc9","condition":"contingent","relevant_dimensions":["antennae","wings"],"bee_group":{"antennae":"A","wings":"1","pattern":"X","legs":"X"},"action":"harvest","summary":"good-harvest","bonus":0.9000000000000009},{"rt":1029.6000000238419,"stimulus":"\n                    <p><b>Action: <em>harvest</em></b></p>\n                    <p>This is the bee that you just saw.</p>\n                    <img src=\"bees-with-color/bee-A2SF.svg\" width=\"200\">\n                    <p><span class=\"greenText\"><b>Successful harvest!</b></span><br>Your pay has increased by $0.02. Your bonus pay is now $0.30.</p>\n            ","response":0,"trial_type":"html-button-response","trial_index":66,"time_elapsed":329006,"internal_node_id":"0.0-4.0-1.29","subject_id":"60bb404e01d599dfb1c3d71c","study_id":"6197b3f67c2b5cd3b6d9596a","session_id":"619bfbdc36ed99c975f5fbc9","condition":"contingent","relevant_dimensions":["antennae","wings"],"bee_group":{"antennae":"A","wings":"1","pattern":"X","legs":"X"},"bonus":0.9000000000000009},{"rt":2077.2000000178814,"stimulus":"bees-with-color/bee-B2DM.svg","response":0,"trial_type":"image-button-response","trial_index":67,"time_elapsed":331086,"internal_node_id":"0.0-4.0-0.30","subject_id":"60bb404e01d599dfb1c3d71c","study_id":"6197b3f67c2b5cd3b6d9596a","session_id":"619bfbdc36ed99c975f5fbc9","condition":"contingent","relevant_dimensions":["antennae","wings"],"bee_group":{"antennae":"A","wings":"1","pattern":"X","legs":"X"},"action":"harvest","summary":"good-harvest","bonus":0.9000000000000009},{"rt":1254.7000000178814,"stimulus":"\n                    <p><b>Action: <em>harvest</em></b></p>\n                    <p>This is the bee that you just saw.</p>\n                    <img src=\"bees-with-color/bee-B2DM.svg\" width=\"200\">\n                    <p><span class=\"greenText\"><b>Successful harvest!</b></span><br>Your pay has increased by $0.02. Your bonus pay is now $0.32.</p>\n            ","response":0,"trial_type":"html-button-response","trial_index":68,"time_elapsed":332343,"internal_node_id":"0.0-4.0-1.30","subject_id":"60bb404e01d599dfb1c3d71c","study_id":"6197b3f67c2b5cd3b6d9596a","session_id":"619bfbdc36ed99c975f5fbc9","condition":"contingent","relevant_dimensions":["antennae","wings"],"bee_group":{"antennae":"A","wings":"1","pattern":"X","legs":"X"},"bonus":0.9000000000000009},{"rt":1501,"stimulus":"bees-with-color/bee-B2SF.svg","response":1,"trial_type":"image-button-response","trial_index":69,"time_elapsed":333846,"internal_node_id":"0.0-4.0-0.31","subject_id":"60bb404e01d599dfb1c3d71c","study_id":"6197b3f67c2b5cd3b6d9596a","session_id":"619bfbdc36ed99c975f5fbc9","condition":"contingent","relevant_dimensions":["antennae","wings"],"bee_group":{"antennae":"A","wings":"1","pattern":"X","legs":"X"},"action":"avoid","summary":"bad-avoid","bonus":0.9000000000000009},{"rt":981.5999999940395,"stimulus":"\n                    <p><b>Action: <em>avoid</em></b></p>\n                    <p>This is the bee that you just saw.</p>\n                    <img src=\"bees-with-color/bee-B2SF.svg\" width=\"200\">\n                    <p><br>Your bonus pay is unchanged, and remains at $0.32.</p>\n            ","response":0,"trial_type":"html-button-response","trial_index":70,"time_elapsed":334830,"internal_node_id":"0.0-4.0-1.31","subject_id":"60bb404e01d599dfb1c3d71c","study_id":"6197b3f67c2b5cd3b6d9596a","session_id":"619bfbdc36ed99c975f5fbc9","condition":"contingent","relevant_dimensions":["antennae","wings"],"bee_group":{"antennae":"A","wings":"1","pattern":"X","legs":"X"},"bonus":0.9000000000000009},{"rt":4190.0999999940395,"stimulus":"bees-with-color/bee-A2DF.svg","response":0,"trial_type":"image-button-response","trial_index":71,"time_elapsed":339022,"internal_node_id":"0.0-4.0-0.32","subject_id":"60bb404e01d599dfb1c3d71c","study_id":"6197b3f67c2b5cd3b6d9596a","session_id":"619bfbdc36ed99c975f5fbc9","condition":"contingent","relevant_dimensions":["antennae","wings"],"bee_group":{"antennae":"A","wings":"1","pattern":"X","legs":"X"},"action":"harvest","summary":"good-harvest","bonus":0.9000000000000009},{"rt":3446.0999999940395,"stimulus":"\n                    <p><b>Action: <em>harvest</em></b></p>\n                    <p>This is the bee that you just saw.</p>\n                    <img src=\"bees-with-color/bee-A2DF.svg\" width=\"200\">\n                    <p><span class=\"greenText\"><b>Successful harvest!</b></span><br>Your pay has increased by $0.02. Your bonus pay is now $0.34.</p>\n            ","response":0,"trial_type":"html-button-response","trial_index":72,"time_elapsed":342470,"internal_node_id":"0.0-4.0-1.32","subject_id":"60bb404e01d599dfb1c3d71c","study_id":"6197b3f67c2b5cd3b6d9596a","session_id":"619bfbdc36ed99c975f5fbc9","condition":"contingent","relevant_dimensions":["antennae","wings"],"bee_group":{"antennae":"A","wings":"1","pattern":"X","legs":"X"},"bonus":0.9000000000000009},{"rt":1813.2999999821186,"stimulus":"bees-with-color/bee-A1SF.svg","response":0,"trial_type":"image-button-response","trial_index":73,"time_elapsed":344286,"internal_node_id":"0.0-4.0-0.33","subject_id":"60bb404e01d599dfb1c3d71c","study_id":"6197b3f67c2b5cd3b6d9596a","session_id":"619bfbdc36ed99c975f5fbc9","condition":"contingent","relevant_dimensions":["antennae","wings"],"bee_group":{"antennae":"A","wings":"1","pattern":"X","legs":"X"},"action":"harvest","summary":"bad-harvest","bonus":0.9000000000000009},{"rt":1398.800000011921,"stimulus":"\n                    <p><b>Action: <em>harvest</em></b></p>\n                    <p>This is the bee that you just saw.</p>\n                    <img src=\"bees-with-color/bee-A1SF.svg\" width=\"200\">\n                    <p><span class=\"redText\">Bad choice, the bee was angry.</span><br><b>You have been stung!</b><br>Your pay has been decreased by $0.10. Your bonus pay is now $0.24.</p>\n            ","response":0,"trial_type":"html-button-response","trial_index":74,"time_elapsed":345687,"internal_node_id":"0.0-4.0-1.33","subject_id":"60bb404e01d599dfb1c3d71c","study_id":"6197b3f67c2b5cd3b6d9596a","session_id":"619bfbdc36ed99c975f5fbc9","condition":"contingent","relevant_dimensions":["antennae","wings"],"bee_group":{"antennae":"A","wings":"1","pattern":"X","legs":"X"},"bonus":0.9000000000000009},{"rt":1461.7000000178814,"stimulus":"bees-with-color/bee-B1DM.svg","response":0,"trial_type":"image-button-response","trial_index":75,"time_elapsed":347150,"internal_node_id":"0.0-4.0-0.34","subject_id":"60bb404e01d599dfb1c3d71c","study_id":"6197b3f67c2b5cd3b6d9596a","session_id":"619bfbdc36ed99c975f5fbc9","condition":"contingent","relevant_dimensions":["antennae","wings"],"bee_group":{"antennae":"A","wings":"1","pattern":"X","legs":"X"},"action":"harvest","summary":"good-harvest","bonus":0.9000000000000009},{"rt":1142,"stimulus":"\n                    <p><b>Action: <em>harvest</em></b></p>\n                    <p>This is the bee that you just saw.</p>\n                    <img src=\"bees-with-color/bee-B1DM.svg\" width=\"200\">\n                    <p><span class=\"greenText\"><b>Successful harvest!</b></span><br>Your pay has increased by $0.02. Your bonus pay is now $0.26.</p>\n            ","response":0,"trial_type":"html-button-response","trial_index":76,"time_elapsed":348294,"internal_node_id":"0.0-4.0-1.34","subject_id":"60bb404e01d599dfb1c3d71c","study_id":"6197b3f67c2b5cd3b6d9596a","session_id":"619bfbdc36ed99c975f5fbc9","condition":"contingent","relevant_dimensions":["antennae","wings"],"bee_group":{"antennae":"A","wings":"1","pattern":"X","legs":"X"},"bonus":0.9000000000000009},{"rt":2221.899999976158,"stimulus":"bees-with-color/bee-B1SM.svg","response":0,"trial_type":"image-button-response","trial_index":77,"time_elapsed":350518,"internal_node_id":"0.0-4.0-0.35","subject_id":"60bb404e01d599dfb1c3d71c","study_id":"6197b3f67c2b5cd3b6d9596a","session_id":"619bfbdc36ed99c975f5fbc9","condition":"contingent","relevant_dimensions":["antennae","wings"],"bee_group":{"antennae":"A","wings":"1","pattern":"X","legs":"X"},"action":"harvest","summary":"good-harvest","bonus":0.9000000000000009},{"rt":1205.5999999940395,"stimulus":"\n                    <p><b>Action: <em>harvest</em></b></p>\n                    <p>This is the bee that you just saw.</p>\n                    <img src=\"bees-with-color/bee-B1SM.svg\" width=\"200\">\n                    <p><span class=\"greenText\"><b>Successful harvest!</b></span><br>Your pay has increased by $0.02. Your bonus pay is now $0.28.</p>\n            ","response":0,"trial_type":"html-button-response","trial_index":78,"time_elapsed":351726,"internal_node_id":"0.0-4.0-1.35","subject_id":"60bb404e01d599dfb1c3d71c","study_id":"6197b3f67c2b5cd3b6d9596a","session_id":"619bfbdc36ed99c975f5fbc9","condition":"contingent","relevant_dimensions":["antennae","wings"],"bee_group":{"antennae":"A","wings":"1","pattern":"X","legs":"X"},"bonus":0.9000000000000009},{"rt":2470.5999999940395,"stimulus":"bees-with-color/bee-B1SF.svg","response":0,"trial_type":"image-button-response","trial_index":79,"time_elapsed":354198,"internal_node_id":"0.0-4.0-0.36","subject_id":"60bb404e01d599dfb1c3d71c","study_id":"6197b3f67c2b5cd3b6d9596a","session_id":"619bfbdc36ed99c975f5fbc9","condition":"contingent","relevant_dimensions":["antennae","wings"],"bee_group":{"antennae":"A","wings":"1","pattern":"X","legs":"X"},"action":"harvest","summary":"good-harvest","bonus":0.9000000000000009},{"rt":1022.1999999880791,"stimulus":"\n                    <p><b>Action: <em>harvest</em></b></p>\n                    <p>This is the bee that you just saw.</p>\n                    <img src=\"bees-with-color/bee-B1SF.svg\" width=\"200\">\n                    <p><span class=\"greenText\"><b>Successful harvest!</b></span><br>Your pay has increased by $0.02. Your bonus pay is now $0.30.</p>\n            ","response":0,"trial_type":"html-button-response","trial_index":80,"time_elapsed":355223,"internal_node_id":"0.0-4.0-1.36","subject_id":"60bb404e01d599dfb1c3d71c","study_id":"6197b3f67c2b5cd3b6d9596a","session_id":"619bfbdc36ed99c975f5fbc9","condition":"contingent","relevant_dimensions":["antennae","wings"],"bee_group":{"antennae":"A","wings":"1","pattern":"X","legs":"X"},"bonus":0.9000000000000009},{"rt":2029.699999988079,"stimulus":"bees-with-color/bee-A1SM.svg","response":1,"trial_type":"image-button-response","trial_index":81,"time_elapsed":357256,"internal_node_id":"0.0-4.0-0.37","subject_id":"60bb404e01d599dfb1c3d71c","study_id":"6197b3f67c2b5cd3b6d9596a","session_id":"619bfbdc36ed99c975f5fbc9","condition":"contingent","relevant_dimensions":["antennae","wings"],"bee_group":{"antennae":"A","wings":"1","pattern":"X","legs":"X"},"action":"avoid","summary":"good-avoid","bonus":0.9000000000000009},{"rt":877,"stimulus":"\n                    <p><b>Action: <em>avoid</em></b></p>\n                    <p>This is the bee that you just saw.</p>\n                    <img src=\"bees-with-color/bee-A1SM.svg\" width=\"200\">\n                    <p><br>Your bonus pay is unchanged, and remains at $0.30.</p>\n            ","response":0,"trial_type":"html-button-response","trial_index":82,"time_elapsed":358135,"internal_node_id":"0.0-4.0-1.37","subject_id":"60bb404e01d599dfb1c3d71c","study_id":"6197b3f67c2b5cd3b6d9596a","session_id":"619bfbdc36ed99c975f5fbc9","condition":"contingent","relevant_dimensions":["antennae","wings"],"bee_group":{"antennae":"A","wings":"1","pattern":"X","legs":"X"},"bonus":0.9000000000000009},{"rt":1461.7000000178814,"stimulus":"bees-with-color/bee-B1DF.svg","response":0,"trial_type":"image-button-response","trial_index":83,"time_elapsed":359599,"internal_node_id":"0.0-4.0-0.38","subject_id":"60bb404e01d599dfb1c3d71c","study_id":"6197b3f67c2b5cd3b6d9596a","session_id":"619bfbdc36ed99c975f5fbc9","condition":"contingent","relevant_dimensions":["antennae","wings"],"bee_group":{"antennae":"A","wings":"1","pattern":"X","legs":"X"},"action":"harvest","summary":"good-harvest","bonus":0.9000000000000009},{"rt":1109.5,"stimulus":"\n                    <p><b>Action: <em>harvest</em></b></p>\n                    <p>This is the bee that you just saw.</p>\n                    <img src=\"bees-with-color/bee-B1DF.svg\" width=\"200\">\n                    <p><span class=\"greenText\"><b>Successful harvest!</b></span><br>Your pay has increased by $0.02. Your bonus pay is now $0.32.</p>\n            ","response":0,"trial_type":"html-button-response","trial_index":84,"time_elapsed":360712,"internal_node_id":"0.0-4.0-1.38","subject_id":"60bb404e01d599dfb1c3d71c","study_id":"6197b3f67c2b5cd3b6d9596a","session_id":"619bfbdc36ed99c975f5fbc9","condition":"contingent","relevant_dimensions":["antennae","wings"],"bee_group":{"antennae":"A","wings":"1","pattern":"X","legs":"X"},"bonus":0.9000000000000009},{"rt":1980.9000000059605,"stimulus":"bees-with-color/bee-A2DM.svg","response":0,"trial_type":"image-button-response","trial_index":85,"time_elapsed":362695,"internal_node_id":"0.0-4.0-0.39","subject_id":"60bb404e01d599dfb1c3d71c","study_id":"6197b3f67c2b5cd3b6d9596a","session_id":"619bfbdc36ed99c975f5fbc9","condition":"contingent","relevant_dimensions":["antennae","wings"],"bee_group":{"antennae":"A","wings":"1","pattern":"X","legs":"X"},"action":"harvest","summary":"good-harvest","bonus":0.9000000000000009},{"rt":1446.199999988079,"stimulus":"\n                    <p><b>Action: <em>harvest</em></b></p>\n                    <p>This is the bee that you just saw.</p>\n                    <img src=\"bees-with-color/bee-A2DM.svg\" width=\"200\">\n                    <p><span class=\"greenText\"><b>Successful harvest!</b></span><br>Your pay has increased by $0.02. Your bonus pay is now $0.34.</p>\n            ","response":0,"trial_type":"html-button-response","trial_index":86,"time_elapsed":364143,"internal_node_id":"0.0-4.0-1.39","subject_id":"60bb404e01d599dfb1c3d71c","study_id":"6197b3f67c2b5cd3b6d9596a","session_id":"619bfbdc36ed99c975f5fbc9","condition":"contingent","relevant_dimensions":["antennae","wings"],"bee_group":{"antennae":"A","wings":"1","pattern":"X","legs":"X"},"bonus":0.9000000000000009},{"rt":3900.600000023842,"stimulus":"bees-with-color/bee-A2SF.svg","response":1,"trial_type":"image-button-response","trial_index":87,"time_elapsed":368047,"internal_node_id":"0.0-4.0-0.40","subject_id":"60bb404e01d599dfb1c3d71c","study_id":"6197b3f67c2b5cd3b6d9596a","session_id":"619bfbdc36ed99c975f5fbc9","condition":"contingent","relevant_dimensions":["antennae","wings"],"bee_group":{"antennae":"A","wings":"1","pattern":"X","legs":"X"},"action":"avoid","summary":"bad-avoid","bonus":0.9000000000000009},{"rt":1108.9000000059605,"stimulus":"\n                    <p><b>Action: <em>avoid</em></b></p>\n                    <p>This is the bee that you just saw.</p>\n                    <img src=\"bees-with-color/bee-A2SF.svg\" width=\"200\">\n                    <p><br>Your bonus pay is unchanged, and remains at $0.34.</p>\n            ","response":0,"trial_type":"html-button-response","trial_index":88,"time_elapsed":369159,"internal_node_id":"0.0-4.0-1.40","subject_id":"60bb404e01d599dfb1c3d71c","study_id":"6197b3f67c2b5cd3b6d9596a","session_id":"619bfbdc36ed99c975f5fbc9","condition":"contingent","relevant_dimensions":["antennae","wings"],"bee_group":{"antennae":"A","wings":"1","pattern":"X","legs":"X"},"bonus":0.9000000000000009},{"rt":2133.699999988079,"stimulus":"bees-with-color/bee-A1DM.svg","response":1,"trial_type":"image-button-response","trial_index":89,"time_elapsed":371295,"internal_node_id":"0.0-4.0-0.41","subject_id":"60bb404e01d599dfb1c3d71c","study_id":"6197b3f67c2b5cd3b6d9596a","session_id":"619bfbdc36ed99c975f5fbc9","condition":"contingent","relevant_dimensions":["antennae","wings"],"bee_group":{"antennae":"A","wings":"1","pattern":"X","legs":"X"},"action":"avoid","summary":"good-avoid","bonus":0.9000000000000009},{"rt":1261.5,"stimulus":"\n                    <p><b>Action: <em>avoid</em></b></p>\n                    <p>This is the bee that you just saw.</p>\n                    <img src=\"bees-with-color/bee-A1DM.svg\" width=\"200\">\n                    <p><br>Your bonus pay is unchanged, and remains at $0.34.</p>\n            ","response":0,"trial_type":"html-button-response","trial_index":90,"time_elapsed":372559,"internal_node_id":"0.0-4.0-1.41","subject_id":"60bb404e01d599dfb1c3d71c","study_id":"6197b3f67c2b5cd3b6d9596a","session_id":"619bfbdc36ed99c975f5fbc9","condition":"contingent","relevant_dimensions":["antennae","wings"],"bee_group":{"antennae":"A","wings":"1","pattern":"X","legs":"X"},"bonus":0.9000000000000009},{"rt":1245.2999999821186,"stimulus":"bees-with-color/bee-B2SM.svg","response":0,"trial_type":"image-button-response","trial_index":91,"time_elapsed":373807,"internal_node_id":"0.0-4.0-0.42","subject_id":"60bb404e01d599dfb1c3d71c","study_id":"6197b3f67c2b5cd3b6d9596a","session_id":"619bfbdc36ed99c975f5fbc9","condition":"contingent","relevant_dimensions":["antennae","wings"],"bee_group":{"antennae":"A","wings":"1","pattern":"X","legs":"X"},"action":"harvest","summary":"good-harvest","bonus":0.9000000000000009},{"rt":830,"stimulus":"\n                    <p><b>Action: <em>harvest</em></b></p>\n                    <p>This is the bee that you just saw.</p>\n                    <img src=\"bees-with-color/bee-B2SM.svg\" width=\"200\">\n                    <p><span class=\"greenText\"><b>Successful harvest!</b></span><br>Your pay has increased by $0.02. Your bonus pay is now $0.36.</p>\n            ","response":0,"trial_type":"html-button-response","trial_index":92,"time_elapsed":374639,"internal_node_id":"0.0-4.0-1.42","subject_id":"60bb404e01d599dfb1c3d71c","study_id":"6197b3f67c2b5cd3b6d9596a","session_id":"619bfbdc36ed99c975f5fbc9","condition":"contingent","relevant_dimensions":["antennae","wings"],"bee_group":{"antennae":"A","wings":"1","pattern":"X","legs":"X"},"bonus":0.9000000000000009},{"rt":1286,"stimulus":"bees-with-color/bee-A2SM.svg","response":1,"trial_type":"image-button-response","trial_index":93,"time_elapsed":375927,"internal_node_id":"0.0-4.0-0.43","subject_id":"60bb404e01d599dfb1c3d71c","study_id":"6197b3f67c2b5cd3b6d9596a","session_id":"619bfbdc36ed99c975f5fbc9","condition":"contingent","relevant_dimensions":["antennae","wings"],"bee_group":{"antennae":"A","wings":"1","pattern":"X","legs":"X"},"action":"avoid","summary":"bad-avoid","bonus":0.9000000000000009},{"rt":1093.5999999940395,"stimulus":"\n                    <p><b>Action: <em>avoid</em></b></p>\n                    <p>This is the bee that you just saw.</p>\n                    <img src=\"bees-with-color/bee-A2SM.svg\" width=\"200\">\n                    <p><br>Your bonus pay is unchanged, and remains at $0.36.</p>\n            ","response":0,"trial_type":"html-button-response","trial_index":94,"time_elapsed":377023,"internal_node_id":"0.0-4.0-1.43","subject_id":"60bb404e01d599dfb1c3d71c","study_id":"6197b3f67c2b5cd3b6d9596a","session_id":"619bfbdc36ed99c975f5fbc9","condition":"contingent","relevant_dimensions":["antennae","wings"],"bee_group":{"antennae":"A","wings":"1","pattern":"X","legs":"X"},"bonus":0.9000000000000009},{"rt":2062.199999988079,"stimulus":"bees-with-color/bee-B2DM.svg","response":0,"trial_type":"image-button-response","trial_index":95,"time_elapsed":379087,"internal_node_id":"0.0-4.0-0.44","subject_id":"60bb404e01d599dfb1c3d71c","study_id":"6197b3f67c2b5cd3b6d9596a","session_id":"619bfbdc36ed99c975f5fbc9","condition":"contingent","relevant_dimensions":["antennae","wings"],"bee_group":{"antennae":"A","wings":"1","pattern":"X","legs":"X"},"action":"harvest","summary":"good-harvest","bonus":0.9000000000000009},{"rt":1302,"stimulus":"\n                    <p><b>Action: <em>harvest</em></b></p>\n                    <p>This is the bee that you just saw.</p>\n                    <img src=\"bees-with-color/bee-B2DM.svg\" width=\"200\">\n                    <p><span class=\"greenText\"><b>Successful harvest!</b></span><br>Your pay has increased by $0.02. Your bonus pay is now $0.38.</p>\n            ","response":0,"trial_type":"html-button-response","trial_index":96,"time_elapsed":380392,"internal_node_id":"0.0-4.0-1.44","subject_id":"60bb404e01d599dfb1c3d71c","study_id":"6197b3f67c2b5cd3b6d9596a","session_id":"619bfbdc36ed99c975f5fbc9","condition":"contingent","relevant_dimensions":["antennae","wings"],"bee_group":{"antennae":"A","wings":"1","pattern":"X","legs":"X"},"bonus":0.9000000000000009},{"rt":1741.5999999940395,"stimulus":"bees-with-color/bee-A1DF.svg","response":1,"trial_type":"image-button-response","trial_index":97,"time_elapsed":382136,"internal_node_id":"0.0-4.0-0.45","subject_id":"60bb404e01d599dfb1c3d71c","study_id":"6197b3f67c2b5cd3b6d9596a","session_id":"619bfbdc36ed99c975f5fbc9","condition":"contingent","relevant_dimensions":["antennae","wings"],"bee_group":{"antennae":"A","wings":"1","pattern":"X","legs":"X"},"action":"avoid","summary":"good-avoid","bonus":0.9000000000000009},{"rt":901.4000000059605,"stimulus":"\n                    <p><b>Action: <em>avoid</em></b></p>\n                    <p>This is the bee that you just saw.</p>\n                    <img src=\"bees-with-color/bee-A1DF.svg\" width=\"200\">\n                    <p><br>Your bonus pay is unchanged, and remains at $0.38.</p>\n            ","response":0,"trial_type":"html-button-response","trial_index":98,"time_elapsed":383039,"internal_node_id":"0.0-4.0-1.45","subject_id":"60bb404e01d599dfb1c3d71c","study_id":"6197b3f67c2b5cd3b6d9596a","session_id":"619bfbdc36ed99c975f5fbc9","condition":"contingent","relevant_dimensions":["antennae","wings"],"bee_group":{"antennae":"A","wings":"1","pattern":"X","legs":"X"},"bonus":0.9000000000000009},{"rt":1845.7999999821186,"stimulus":"bees-with-color/bee-B2DF.svg","response":0,"trial_type":"image-button-response","trial_index":99,"time_elapsed":384887,"internal_node_id":"0.0-4.0-0.46","subject_id":"60bb404e01d599dfb1c3d71c","study_id":"6197b3f67c2b5cd3b6d9596a","session_id":"619bfbdc36ed99c975f5fbc9","condition":"contingent","relevant_dimensions":["antennae","wings"],"bee_group":{"antennae":"A","wings":"1","pattern":"X","legs":"X"},"action":"harvest","summary":"good-harvest","bonus":0.9000000000000009},{"rt":2326.7000000178814,"stimulus":"\n                    <p><b>Action: <em>harvest</em></b></p>\n                    <p>This is the bee that you just saw.</p>\n                    <img src=\"bees-with-color/bee-B2DF.svg\" width=\"200\">\n                    <p><span class=\"greenText\"><b>Successful harvest!</b></span><br>Your pay has increased by $0.02. Your bonus pay is now $0.40.</p>\n            ","response":0,"trial_type":"html-button-response","trial_index":100,"time_elapsed":387215,"internal_node_id":"0.0-4.0-1.46","subject_id":"60bb404e01d599dfb1c3d71c","study_id":"6197b3f67c2b5cd3b6d9596a","session_id":"619bfbdc36ed99c975f5fbc9","condition":"contingent","relevant_dimensions":["antennae","wings"],"bee_group":{"antennae":"A","wings":"1","pattern":"X","legs":"X"},"bonus":0.9000000000000009},{"rt":1108.7999999821186,"stimulus":"bees-with-color/bee-B2SF.svg","response":0,"trial_type":"image-button-response","trial_index":101,"time_elapsed":388327,"internal_node_id":"0.0-4.0-0.47","subject_id":"60bb404e01d599dfb1c3d71c","study_id":"6197b3f67c2b5cd3b6d9596a","session_id":"619bfbdc36ed99c975f5fbc9","condition":"contingent","relevant_dimensions":["antennae","wings"],"bee_group":{"antennae":"A","wings":"1","pattern":"X","legs":"X"},"action":"harvest","summary":"good-harvest","bonus":0.9000000000000009},{"rt":1261.800000011921,"stimulus":"\n                    <p><b>Action: <em>harvest</em></b></p>\n                    <p>This is the bee that you just saw.</p>\n                    <img src=\"bees-with-color/bee-B2SF.svg\" width=\"200\">\n                    <p><span class=\"greenText\"><b>Successful harvest!</b></span><br>Your pay has increased by $0.02. Your bonus pay is now $0.42.</p>\n            ","response":0,"trial_type":"html-button-response","trial_index":102,"time_elapsed":389591,"internal_node_id":"0.0-4.0-1.47","subject_id":"60bb404e01d599dfb1c3d71c","study_id":"6197b3f67c2b5cd3b6d9596a","session_id":"619bfbdc36ed99c975f5fbc9","condition":"contingent","relevant_dimensions":["antennae","wings"],"bee_group":{"antennae":"A","wings":"1","pattern":"X","legs":"X"},"bonus":0.9000000000000009},{"rt":2294.2000000178814,"stimulus":"bees-with-color/bee-B2DM.svg","response":0,"trial_type":"image-button-response","trial_index":103,"time_elapsed":391887,"internal_node_id":"0.0-4.0-0.48","subject_id":"60bb404e01d599dfb1c3d71c","study_id":"6197b3f67c2b5cd3b6d9596a","session_id":"619bfbdc36ed99c975f5fbc9","condition":"contingent","relevant_dimensions":["antennae","wings"],"bee_group":{"antennae":"A","wings":"1","pattern":"X","legs":"X"},"action":"harvest","summary":"good-harvest","bonus":0.9000000000000009},{"rt":933.8000000119209,"stimulus":"\n                    <p><b>Action: <em>harvest</em></b></p>\n                    <p>This is the bee that you just saw.</p>\n                    <img src=\"bees-with-color/bee-B2DM.svg\" width=\"200\">\n                    <p><span class=\"greenText\"><b>Successful harvest!</b></span><br>Your pay has increased by $0.02. Your bonus pay is now $0.44.</p>\n            ","response":0,"trial_type":"html-button-response","trial_index":104,"time_elapsed":392823,"internal_node_id":"0.0-4.0-1.48","subject_id":"60bb404e01d599dfb1c3d71c","study_id":"6197b3f67c2b5cd3b6d9596a","session_id":"619bfbdc36ed99c975f5fbc9","condition":"contingent","relevant_dimensions":["antennae","wings"],"bee_group":{"antennae":"A","wings":"1","pattern":"X","legs":"X"},"bonus":0.9000000000000009},{"rt":1014.4000000059605,"stimulus":"bees-with-color/bee-A2DF.svg","response":1,"trial_type":"image-button-response","trial_index":105,"time_elapsed":393840,"internal_node_id":"0.0-4.0-0.49","subject_id":"60bb404e01d599dfb1c3d71c","study_id":"6197b3f67c2b5cd3b6d9596a","session_id":"619bfbdc36ed99c975f5fbc9","condition":"contingent","relevant_dimensions":["antennae","wings"],"bee_group":{"antennae":"A","wings":"1","pattern":"X","legs":"X"},"action":"avoid","summary":"bad-avoid","bonus":0.9000000000000009},{"rt":773.5,"stimulus":"\n                    <p><b>Action: <em>avoid</em></b></p>\n                    <p>This is the bee that you just saw.</p>\n                    <img src=\"bees-with-color/bee-A2DF.svg\" width=\"200\">\n                    <p><br>Your bonus pay is unchanged, and remains at $0.44.</p>\n            ","response":0,"trial_type":"html-button-response","trial_index":106,"time_elapsed":394615,"internal_node_id":"0.0-4.0-1.49","subject_id":"60bb404e01d599dfb1c3d71c","study_id":"6197b3f67c2b5cd3b6d9596a","session_id":"619bfbdc36ed99c975f5fbc9","condition":"contingent","relevant_dimensions":["antennae","wings"],"bee_group":{"antennae":"A","wings":"1","pattern":"X","legs":"X"},"bonus":0.9000000000000009},{"rt":1109.5999999940395,"stimulus":"bees-with-color/bee-B1DM.svg","response":0,"trial_type":"image-button-response","trial_index":107,"time_elapsed":395727,"internal_node_id":"0.0-4.0-0.50","subject_id":"60bb404e01d599dfb1c3d71c","study_id":"6197b3f67c2b5cd3b6d9596a","session_id":"619bfbdc36ed99c975f5fbc9","condition":"contingent","relevant_dimensions":["antennae","wings"],"bee_group":{"antennae":"A","wings":"1","pattern":"X","legs":"X"},"action":"harvest","summary":"good-harvest","bonus":0.9000000000000009},{"rt":974.6999999880791,"stimulus":"\n                    <p><b>Action: <em>harvest</em></b></p>\n                    <p>This is the bee that you just saw.</p>\n                    <img src=\"bees-with-color/bee-B1DM.svg\" width=\"200\">\n                    <p><span class=\"greenText\"><b>Successful harvest!</b></span><br>Your pay has increased by $0.02. Your bonus pay is now $0.46.</p>\n            ","response":0,"trial_type":"html-button-response","trial_index":108,"time_elapsed":396703,"internal_node_id":"0.0-4.0-1.50","subject_id":"60bb404e01d599dfb1c3d71c","study_id":"6197b3f67c2b5cd3b6d9596a","session_id":"619bfbdc36ed99c975f5fbc9","condition":"contingent","relevant_dimensions":["antennae","wings"],"bee_group":{"antennae":"A","wings":"1","pattern":"X","legs":"X"},"bonus":0.9000000000000009},{"rt":1006.8000000119209,"stimulus":"bees-with-color/bee-A1DM.svg","response":1,"trial_type":"image-button-response","trial_index":109,"time_elapsed":397712,"internal_node_id":"0.0-4.0-0.51","subject_id":"60bb404e01d599dfb1c3d71c","study_id":"6197b3f67c2b5cd3b6d9596a","session_id":"619bfbdc36ed99c975f5fbc9","condition":"contingent","relevant_dimensions":["antennae","wings"],"bee_group":{"antennae":"A","wings":"1","pattern":"X","legs":"X"},"action":"avoid","summary":"good-avoid","bonus":0.9000000000000009},{"rt":676.6999999880791,"stimulus":"\n                    <p><b>Action: <em>avoid</em></b></p>\n                    <p>This is the bee that you just saw.</p>\n                    <img src=\"bees-with-color/bee-A1DM.svg\" width=\"200\">\n                    <p><br>Your bonus pay is unchanged, and remains at $0.46.</p>\n            ","response":0,"trial_type":"html-button-response","trial_index":110,"time_elapsed":398391,"internal_node_id":"0.0-4.0-1.51","subject_id":"60bb404e01d599dfb1c3d71c","study_id":"6197b3f67c2b5cd3b6d9596a","session_id":"619bfbdc36ed99c975f5fbc9","condition":"contingent","relevant_dimensions":["antennae","wings"],"bee_group":{"antennae":"A","wings":"1","pattern":"X","legs":"X"},"bonus":0.9000000000000009},{"rt":926,"stimulus":"bees-with-color/bee-B1DF.svg","response":0,"trial_type":"image-button-response","trial_index":111,"time_elapsed":399319,"internal_node_id":"0.0-4.0-0.52","subject_id":"60bb404e01d599dfb1c3d71c","study_id":"6197b3f67c2b5cd3b6d9596a","session_id":"619bfbdc36ed99c975f5fbc9","condition":"contingent","relevant_dimensions":["antennae","wings"],"bee_group":{"antennae":"A","wings":"1","pattern":"X","legs":"X"},"action":"harvest","summary":"good-harvest","bonus":0.9000000000000009},{"rt":893.8999999761581,"stimulus":"\n                    <p><b>Action: <em>harvest</em></b></p>\n                    <p>This is the bee that you just saw.</p>\n                    <img src=\"bees-with-color/bee-B1DF.svg\" width=\"200\">\n                    <p><span class=\"greenText\"><b>Successful harvest!</b></span><br>Your pay has increased by $0.02. Your bonus pay is now $0.48.</p>\n            ","response":0,"trial_type":"html-button-response","trial_index":112,"time_elapsed":400215,"internal_node_id":"0.0-4.0-1.52","subject_id":"60bb404e01d599dfb1c3d71c","study_id":"6197b3f67c2b5cd3b6d9596a","session_id":"619bfbdc36ed99c975f5fbc9","condition":"contingent","relevant_dimensions":["antennae","wings"],"bee_group":{"antennae":"A","wings":"1","pattern":"X","legs":"X"},"bonus":0.9000000000000009},{"rt":1461.9000000059605,"stimulus":"bees-with-color/bee-B2SM.svg","response":0,"trial_type":"image-button-response","trial_index":113,"time_elapsed":401679,"internal_node_id":"0.0-4.0-0.53","subject_id":"60bb404e01d599dfb1c3d71c","study_id":"6197b3f67c2b5cd3b6d9596a","session_id":"619bfbdc36ed99c975f5fbc9","condition":"contingent","relevant_dimensions":["antennae","wings"],"bee_group":{"antennae":"A","wings":"1","pattern":"X","legs":"X"},"action":"harvest","summary":"good-harvest","bonus":0.9000000000000009},{"rt":789.2000000178814,"stimulus":"\n                    <p><b>Action: <em>harvest</em></b></p>\n                    <p>This is the bee that you just saw.</p>\n                    <img src=\"bees-with-color/bee-B2SM.svg\" width=\"200\">\n                    <p><span class=\"greenText\"><b>Successful harvest!</b></span><br>Your pay has increased by $0.02. Your bonus pay is now $0.50.</p>\n            ","response":0,"trial_type":"html-button-response","trial_index":114,"time_elapsed":402471,"internal_node_id":"0.0-4.0-1.53","subject_id":"60bb404e01d599dfb1c3d71c","study_id":"6197b3f67c2b5cd3b6d9596a","session_id":"619bfbdc36ed99c975f5fbc9","condition":"contingent","relevant_dimensions":["antennae","wings"],"bee_group":{"antennae":"A","wings":"1","pattern":"X","legs":"X"},"bonus":0.9000000000000009},{"rt":1102.0999999940395,"stimulus":"bees-with-color/bee-B2SF.svg","response":0,"trial_type":"image-button-response","trial_index":115,"time_elapsed":403575,"internal_node_id":"0.0-4.0-0.54","subject_id":"60bb404e01d599dfb1c3d71c","study_id":"6197b3f67c2b5cd3b6d9596a","session_id":"619bfbdc36ed99c975f5fbc9","condition":"contingent","relevant_dimensions":["antennae","wings"],"bee_group":{"antennae":"A","wings":"1","pattern":"X","legs":"X"},"action":"harvest","summary":"good-harvest","bonus":0.9000000000000009},{"rt":886.4000000059605,"stimulus":"\n                    <p><b>Action: <em>harvest</em></b></p>\n                    <p>This is the bee that you just saw.</p>\n                    <img src=\"bees-with-color/bee-B2SF.svg\" width=\"200\">\n                    <p><span class=\"greenText\"><b>Successful harvest!</b></span><br>Your pay has increased by $0.02. Your bonus pay is now $0.52.</p>\n            ","response":0,"trial_type":"html-button-response","trial_index":116,"time_elapsed":404463,"internal_node_id":"0.0-4.0-1.54","subject_id":"60bb404e01d599dfb1c3d71c","study_id":"6197b3f67c2b5cd3b6d9596a","session_id":"619bfbdc36ed99c975f5fbc9","condition":"contingent","relevant_dimensions":["antennae","wings"],"bee_group":{"antennae":"A","wings":"1","pattern":"X","legs":"X"},"bonus":0.9000000000000009},{"rt":1246.199999988079,"stimulus":"bees-with-color/bee-A1DF.svg","response":1,"trial_type":"image-button-response","trial_index":117,"time_elapsed":405711,"internal_node_id":"0.0-4.0-0.55","subject_id":"60bb404e01d599dfb1c3d71c","study_id":"6197b3f67c2b5cd3b6d9596a","session_id":"619bfbdc36ed99c975f5fbc9","condition":"contingent","relevant_dimensions":["antennae","wings"],"bee_group":{"antennae":"A","wings":"1","pattern":"X","legs":"X"},"action":"avoid","summary":"good-avoid","bonus":0.9000000000000009},{"rt":669.4000000059605,"stimulus":"\n                    <p><b>Action: <em>avoid</em></b></p>\n                    <p>This is the bee that you just saw.</p>\n                    <img src=\"bees-with-color/bee-A1DF.svg\" width=\"200\">\n                    <p><br>Your bonus pay is unchanged, and remains at $0.52.</p>\n            ","response":0,"trial_type":"html-button-response","trial_index":118,"time_elapsed":406383,"internal_node_id":"0.0-4.0-1.55","subject_id":"60bb404e01d599dfb1c3d71c","study_id":"6197b3f67c2b5cd3b6d9596a","session_id":"619bfbdc36ed99c975f5fbc9","condition":"contingent","relevant_dimensions":["antennae","wings"],"bee_group":{"antennae":"A","wings":"1","pattern":"X","legs":"X"},"bonus":0.9000000000000009},{"rt":1093.5999999940395,"stimulus":"bees-with-color/bee-B1SF.svg","response":0,"trial_type":"image-button-response","trial_index":119,"time_elapsed":407479,"internal_node_id":"0.0-4.0-0.56","subject_id":"60bb404e01d599dfb1c3d71c","study_id":"6197b3f67c2b5cd3b6d9596a","session_id":"619bfbdc36ed99c975f5fbc9","condition":"contingent","relevant_dimensions":["antennae","wings"],"bee_group":{"antennae":"A","wings":"1","pattern":"X","legs":"X"},"action":"harvest","summary":"good-harvest","bonus":0.9000000000000009},{"rt":1069.300000011921,"stimulus":"\n                    <p><b>Action: <em>harvest</em></b></p>\n                    <p>This is the bee that you just saw.</p>\n                    <img src=\"bees-with-color/bee-B1SF.svg\" width=\"200\">\n                    <p><span class=\"greenText\"><b>Successful harvest!</b></span><br>Your pay has increased by $0.02. Your bonus pay is now $0.54.</p>\n            ","response":0,"trial_type":"html-button-response","trial_index":120,"time_elapsed":408551,"internal_node_id":"0.0-4.0-1.56","subject_id":"60bb404e01d599dfb1c3d71c","study_id":"6197b3f67c2b5cd3b6d9596a","session_id":"619bfbdc36ed99c975f5fbc9","condition":"contingent","relevant_dimensions":["antennae","wings"],"bee_group":{"antennae":"A","wings":"1","pattern":"X","legs":"X"},"bonus":0.9000000000000009},{"rt":1077.7000000178814,"stimulus":"bees-with-color/bee-B1SM.svg","response":0,"trial_type":"image-button-response","trial_index":121,"time_elapsed":409632,"internal_node_id":"0.0-4.0-0.57","subject_id":"60bb404e01d599dfb1c3d71c","study_id":"6197b3f67c2b5cd3b6d9596a","session_id":"619bfbdc36ed99c975f5fbc9","condition":"contingent","relevant_dimensions":["antennae","wings"],"bee_group":{"antennae":"A","wings":"1","pattern":"X","legs":"X"},"action":"harvest","summary":"good-harvest","bonus":0.9000000000000009},{"rt":829.9000000059605,"stimulus":"\n                    <p><b>Action: <em>harvest</em></b></p>\n                    <p>This is the bee that you just saw.</p>\n                    <img src=\"bees-with-color/bee-B1SM.svg\" width=\"200\">\n                    <p><span class=\"greenText\"><b>Successful harvest!</b></span><br>Your pay has increased by $0.02. Your bonus pay is now $0.56.</p>\n            ","response":0,"trial_type":"html-button-response","trial_index":122,"time_elapsed":410463,"internal_node_id":"0.0-4.0-1.57","subject_id":"60bb404e01d599dfb1c3d71c","study_id":"6197b3f67c2b5cd3b6d9596a","session_id":"619bfbdc36ed99c975f5fbc9","condition":"contingent","relevant_dimensions":["antennae","wings"],"bee_group":{"antennae":"A","wings":"1","pattern":"X","legs":"X"},"bonus":0.9000000000000009},{"rt":885.9000000059605,"stimulus":"bees-with-color/bee-A1SF.svg","response":1,"trial_type":"image-button-response","trial_index":123,"time_elapsed":411351,"internal_node_id":"0.0-4.0-0.58","subject_id":"60bb404e01d599dfb1c3d71c","study_id":"6197b3f67c2b5cd3b6d9596a","session_id":"619bfbdc36ed99c975f5fbc9","condition":"contingent","relevant_dimensions":["antennae","wings"],"bee_group":{"antennae":"A","wings":"1","pattern":"X","legs":"X"},"action":"avoid","summary":"good-avoid","bonus":0.9000000000000009},{"rt":933.7999999821186,"stimulus":"\n                    <p><b>Action: <em>avoid</em></b></p>\n                    <p>This is the bee that you just saw.</p>\n                    <img src=\"bees-with-color/bee-A1SF.svg\" width=\"200\">\n                    <p><br>Your bonus pay is unchanged, and remains at $0.56.</p>\n            ","response":0,"trial_type":"html-button-response","trial_index":124,"time_elapsed":412288,"internal_node_id":"0.0-4.0-1.58","subject_id":"60bb404e01d599dfb1c3d71c","study_id":"6197b3f67c2b5cd3b6d9596a","session_id":"619bfbdc36ed99c975f5fbc9","condition":"contingent","relevant_dimensions":["antennae","wings"],"bee_group":{"antennae":"A","wings":"1","pattern":"X","legs":"X"},"bonus":0.9000000000000009},{"rt":1126.2999999821186,"stimulus":"bees-with-color/bee-A2DM.svg","response":1,"trial_type":"image-button-response","trial_index":125,"time_elapsed":413416,"internal_node_id":"0.0-4.0-0.59","subject_id":"60bb404e01d599dfb1c3d71c","study_id":"6197b3f67c2b5cd3b6d9596a","session_id":"619bfbdc36ed99c975f5fbc9","condition":"contingent","relevant_dimensions":["antennae","wings"],"bee_group":{"antennae":"A","wings":"1","pattern":"X","legs":"X"},"action":"avoid","summary":"bad-avoid","bonus":0.9000000000000009},{"rt":957.2000000178814,"stimulus":"\n                    <p><b>Action: <em>avoid</em></b></p>\n                    <p>This is the bee that you just saw.</p>\n                    <img src=\"bees-with-color/bee-A2DM.svg\" width=\"200\">\n                    <p><br>Your bonus pay is unchanged, and remains at $0.56.</p>\n            ","response":0,"trial_type":"html-button-response","trial_index":126,"time_elapsed":414376,"internal_node_id":"0.0-4.0-1.59","subject_id":"60bb404e01d599dfb1c3d71c","study_id":"6197b3f67c2b5cd3b6d9596a","session_id":"619bfbdc36ed99c975f5fbc9","condition":"contingent","relevant_dimensions":["antennae","wings"],"bee_group":{"antennae":"A","wings":"1","pattern":"X","legs":"X"},"bonus":0.9000000000000009},{"rt":772.9000000059605,"stimulus":"bees-with-color/bee-B2DF.svg","response":0,"trial_type":"image-button-response","trial_index":127,"time_elapsed":415151,"internal_node_id":"0.0-4.0-0.60","subject_id":"60bb404e01d599dfb1c3d71c","study_id":"6197b3f67c2b5cd3b6d9596a","session_id":"619bfbdc36ed99c975f5fbc9","condition":"contingent","relevant_dimensions":["antennae","wings"],"bee_group":{"antennae":"A","wings":"1","pattern":"X","legs":"X"},"action":"harvest","summary":"good-harvest","bonus":0.9000000000000009},{"rt":716.5999999940395,"stimulus":"\n                    <p><b>Action: <em>harvest</em></b></p>\n                    <p>This is the bee that you just saw.</p>\n                    <img src=\"bees-with-color/bee-B2DF.svg\" width=\"200\">\n                    <p><span class=\"greenText\"><b>Successful harvest!</b></span><br>Your pay has increased by $0.02. Your bonus pay is now $0.58.</p>\n            ","response":0,"trial_type":"html-button-response","trial_index":128,"time_elapsed":415871,"internal_node_id":"0.0-4.0-1.60","subject_id":"60bb404e01d599dfb1c3d71c","study_id":"6197b3f67c2b5cd3b6d9596a","session_id":"619bfbdc36ed99c975f5fbc9","condition":"contingent","relevant_dimensions":["antennae","wings"],"bee_group":{"antennae":"A","wings":"1","pattern":"X","legs":"X"},"bonus":0.9000000000000009},{"rt":1749.3999999761581,"stimulus":"bees-with-color/bee-A1SM.svg","response":1,"trial_type":"image-button-response","trial_index":129,"time_elapsed":417622,"internal_node_id":"0.0-4.0-0.61","subject_id":"60bb404e01d599dfb1c3d71c","study_id":"6197b3f67c2b5cd3b6d9596a","session_id":"619bfbdc36ed99c975f5fbc9","condition":"contingent","relevant_dimensions":["antennae","wings"],"bee_group":{"antennae":"A","wings":"1","pattern":"X","legs":"X"},"action":"avoid","summary":"good-avoid","bonus":0.9000000000000009},{"rt":669.7999999821186,"stimulus":"\n                    <p><b>Action: <em>avoid</em></b></p>\n                    <p>This is the bee that you just saw.</p>\n                    <img src=\"bees-with-color/bee-A1SM.svg\" width=\"200\">\n                    <p><br>Your bonus pay is unchanged, and remains at $0.58.</p>\n            ","response":0,"trial_type":"html-button-response","trial_index":130,"time_elapsed":418294,"internal_node_id":"0.0-4.0-1.61","subject_id":"60bb404e01d599dfb1c3d71c","study_id":"6197b3f67c2b5cd3b6d9596a","session_id":"619bfbdc36ed99c975f5fbc9","condition":"contingent","relevant_dimensions":["antennae","wings"],"bee_group":{"antennae":"A","wings":"1","pattern":"X","legs":"X"},"bonus":0.9000000000000009},{"rt":1245.5,"stimulus":"bees-with-color/bee-A2SF.svg","response":1,"trial_type":"image-button-response","trial_index":131,"time_elapsed":419542,"internal_node_id":"0.0-4.0-0.62","subject_id":"60bb404e01d599dfb1c3d71c","study_id":"6197b3f67c2b5cd3b6d9596a","session_id":"619bfbdc36ed99c975f5fbc9","condition":"contingent","relevant_dimensions":["antennae","wings"],"bee_group":{"antennae":"A","wings":"1","pattern":"X","legs":"X"},"action":"avoid","summary":"bad-avoid","bonus":0.9000000000000009},{"rt":862.2999999821186,"stimulus":"\n                    <p><b>Action: <em>avoid</em></b></p>\n                    <p>This is the bee that you just saw.</p>\n                    <img src=\"bees-with-color/bee-A2SF.svg\" width=\"200\">\n                    <p><br>Your bonus pay is unchanged, and remains at $0.58.</p>\n            ","response":0,"trial_type":"html-button-response","trial_index":132,"time_elapsed":420407,"internal_node_id":"0.0-4.0-1.62","subject_id":"60bb404e01d599dfb1c3d71c","study_id":"6197b3f67c2b5cd3b6d9596a","session_id":"619bfbdc36ed99c975f5fbc9","condition":"contingent","relevant_dimensions":["antennae","wings"],"bee_group":{"antennae":"A","wings":"1","pattern":"X","legs":"X"},"bonus":0.9000000000000009},{"rt":1133.5,"stimulus":"bees-with-color/bee-A2SM.svg","response":1,"trial_type":"image-button-response","trial_index":133,"time_elapsed":421543,"internal_node_id":"0.0-4.0-0.63","subject_id":"60bb404e01d599dfb1c3d71c","study_id":"6197b3f67c2b5cd3b6d9596a","session_id":"619bfbdc36ed99c975f5fbc9","condition":"contingent","relevant_dimensions":["antennae","wings"],"bee_group":{"antennae":"A","wings":"1","pattern":"X","legs":"X"},"action":"avoid","summary":"bad-avoid","bonus":0.9000000000000009},{"rt":1068.7999999821186,"stimulus":"\n                    <p><b>Action: <em>avoid</em></b></p>\n                    <p>This is the bee that you just saw.</p>\n                    <img src=\"bees-with-color/bee-A2SM.svg\" width=\"200\">\n                    <p><br>Your bonus pay is unchanged, and remains at $0.58.</p>\n            ","response":0,"trial_type":"html-button-response","trial_index":134,"time_elapsed":422614,"internal_node_id":"0.0-4.0-1.63","subject_id":"60bb404e01d599dfb1c3d71c","study_id":"6197b3f67c2b5cd3b6d9596a","session_id":"619bfbdc36ed99c975f5fbc9","condition":"contingent","relevant_dimensions":["antennae","wings"],"bee_group":{"antennae":"A","wings":"1","pattern":"X","legs":"X"},"bonus":0.9000000000000009},{"rt":5836.5,"stimulus":"You have completed the first part of this experiment.<br><br>You will now begin a shorter second part, in which you will receive no feedback.<br>The same rules regarding bonus pay apply.<br><br>Press any key to begin.","response":" ","trial_type":"html-keyboard-response","trial_index":135,"time_elapsed":428454,"internal_node_id":"0.0-5.0","subject_id":"60bb404e01d599dfb1c3d71c","study_id":"6197b3f67c2b5cd3b6d9596a","session_id":"619bfbdc36ed99c975f5fbc9","condition":"contingent","relevant_dimensions":["antennae","wings"],"bee_group":{"antennae":"A","wings":"1","pattern":"X","legs":"X"},"bonus":0.9000000000000009},{"rt":3565,"stimulus":"bees-with-color/bee-B2DM.svg","response":0,"trial_type":"image-button-response","trial_index":136,"time_elapsed":432030,"internal_node_id":"0.0-6.0-0.0","subject_id":"60bb404e01d599dfb1c3d71c","study_id":"6197b3f67c2b5cd3b6d9596a","session_id":"619bfbdc36ed99c975f5fbc9","condition":"contingent","relevant_dimensions":["antennae","wings"],"bee_group":{"antennae":"A","wings":"1","pattern":"X","legs":"X"},"bonus":0.9000000000000009},{"rt":965.1999999880791,"stimulus":"bees-with-color/bee-B1SF.svg","response":0,"trial_type":"image-button-response","trial_index":137,"time_elapsed":432998,"internal_node_id":"0.0-6.0-0.1","subject_id":"60bb404e01d599dfb1c3d71c","study_id":"6197b3f67c2b5cd3b6d9596a","session_id":"619bfbdc36ed99c975f5fbc9","condition":"contingent","relevant_dimensions":["antennae","wings"],"bee_group":{"antennae":"A","wings":"1","pattern":"X","legs":"X"},"bonus":0.9000000000000009},{"rt":1037.4000000059605,"stimulus":"bees-with-color/bee-A2SM.svg","response":1,"trial_type":"image-button-response","trial_index":138,"time_elapsed":434038,"internal_node_id":"0.0-6.0-0.2","subject_id":"60bb404e01d599dfb1c3d71c","study_id":"6197b3f67c2b5cd3b6d9596a","session_id":"619bfbdc36ed99c975f5fbc9","condition":"contingent","relevant_dimensions":["antennae","wings"],"bee_group":{"antennae":"A","wings":"1","pattern":"X","legs":"X"},"bonus":0.9000000000000009},{"rt":644.5999999940395,"stimulus":"bees-with-color/bee-A1DM.svg","response":1,"trial_type":"image-button-response","trial_index":139,"time_elapsed":434687,"internal_node_id":"0.0-6.0-0.3","subject_id":"60bb404e01d599dfb1c3d71c","study_id":"6197b3f67c2b5cd3b6d9596a","session_id":"619bfbdc36ed99c975f5fbc9","condition":"contingent","relevant_dimensions":["antennae","wings"],"bee_group":{"antennae":"A","wings":"1","pattern":"X","legs":"X"},"bonus":0.9000000000000009},{"rt":812.3000000119209,"stimulus":"bees-with-color/bee-B1DF.svg","response":0,"trial_type":"image-button-response","trial_index":140,"time_elapsed":435502,"internal_node_id":"0.0-6.0-0.4","subject_id":"60bb404e01d599dfb1c3d71c","study_id":"6197b3f67c2b5cd3b6d9596a","session_id":"619bfbdc36ed99c975f5fbc9","condition":"contingent","relevant_dimensions":["antennae","wings"],"bee_group":{"antennae":"A","wings":"1","pattern":"X","legs":"X"},"bonus":0.9000000000000009},{"rt":677,"stimulus":"bees-with-color/bee-B2DF.svg","response":0,"trial_type":"image-button-response","trial_index":141,"time_elapsed":436183,"internal_node_id":"0.0-6.0-0.5","subject_id":"60bb404e01d599dfb1c3d71c","study_id":"6197b3f67c2b5cd3b6d9596a","session_id":"619bfbdc36ed99c975f5fbc9","condition":"contingent","relevant_dimensions":["antennae","wings"],"bee_group":{"antennae":"A","wings":"1","pattern":"X","legs":"X"},"bonus":0.9000000000000009},{"rt":868.4000000059605,"stimulus":"bees-with-color/bee-A1SF.svg","response":1,"trial_type":"image-button-response","trial_index":142,"time_elapsed":437055,"internal_node_id":"0.0-6.0-0.6","subject_id":"60bb404e01d599dfb1c3d71c","study_id":"6197b3f67c2b5cd3b6d9596a","session_id":"619bfbdc36ed99c975f5fbc9","condition":"contingent","relevant_dimensions":["antennae","wings"],"bee_group":{"antennae":"A","wings":"1","pattern":"X","legs":"X"},"bonus":0.9000000000000009},{"rt":548.4000000059605,"stimulus":"bees-with-color/bee-A2SF.svg","response":1,"trial_type":"image-button-response","trial_index":143,"time_elapsed":437606,"internal_node_id":"0.0-6.0-0.7","subject_id":"60bb404e01d599dfb1c3d71c","study_id":"6197b3f67c2b5cd3b6d9596a","session_id":"619bfbdc36ed99c975f5fbc9","condition":"contingent","relevant_dimensions":["antennae","wings"],"bee_group":{"antennae":"A","wings":"1","pattern":"X","legs":"X"},"bonus":0.9000000000000009},{"rt":580.8999999761581,"stimulus":"bees-with-color/bee-A2DM.svg","response":1,"trial_type":"image-button-response","trial_index":144,"time_elapsed":438190,"internal_node_id":"0.0-6.0-0.8","subject_id":"60bb404e01d599dfb1c3d71c","study_id":"6197b3f67c2b5cd3b6d9596a","session_id":"619bfbdc36ed99c975f5fbc9","condition":"contingent","relevant_dimensions":["antennae","wings"],"bee_group":{"antennae":"A","wings":"1","pattern":"X","legs":"X"},"bonus":0.9000000000000009},{"rt":629.9000000059605,"stimulus":"bees-with-color/bee-A1DF.svg","response":1,"trial_type":"image-button-response","trial_index":145,"time_elapsed":438823,"internal_node_id":"0.0-6.0-0.9","subject_id":"60bb404e01d599dfb1c3d71c","study_id":"6197b3f67c2b5cd3b6d9596a","session_id":"619bfbdc36ed99c975f5fbc9","condition":"contingent","relevant_dimensions":["antennae","wings"],"bee_group":{"antennae":"A","wings":"1","pattern":"X","legs":"X"},"bonus":0.9000000000000009},{"rt":1301.0999999940395,"stimulus":"bees-with-color/bee-B1SM.svg","response":0,"trial_type":"image-button-response","trial_index":146,"time_elapsed":440127,"internal_node_id":"0.0-6.0-0.10","subject_id":"60bb404e01d599dfb1c3d71c","study_id":"6197b3f67c2b5cd3b6d9596a","session_id":"619bfbdc36ed99c975f5fbc9","condition":"contingent","relevant_dimensions":["antennae","wings"],"bee_group":{"antennae":"A","wings":"1","pattern":"X","legs":"X"},"bonus":0.9000000000000009},{"rt":517.0999999940395,"stimulus":"bees-with-color/bee-B2SM.svg","response":0,"trial_type":"image-button-response","trial_index":147,"time_elapsed":440646,"internal_node_id":"0.0-6.0-0.11","subject_id":"60bb404e01d599dfb1c3d71c","study_id":"6197b3f67c2b5cd3b6d9596a","session_id":"619bfbdc36ed99c975f5fbc9","condition":"contingent","relevant_dimensions":["antennae","wings"],"bee_group":{"antennae":"A","wings":"1","pattern":"X","legs":"X"},"bonus":0.9000000000000009},{"rt":1228.8999999761581,"stimulus":"bees-with-color/bee-A1SM.svg","response":1,"trial_type":"image-button-response","trial_index":148,"time_elapsed":441879,"internal_node_id":"0.0-6.0-0.12","subject_id":"60bb404e01d599dfb1c3d71c","study_id":"6197b3f67c2b5cd3b6d9596a","session_id":"619bfbdc36ed99c975f5fbc9","condition":"contingent","relevant_dimensions":["antennae","wings"],"bee_group":{"antennae":"A","wings":"1","pattern":"X","legs":"X"},"bonus":0.9000000000000009},{"rt":1052.199999988079,"stimulus":"bees-with-color/bee-B2SF.svg","response":0,"trial_type":"image-button-response","trial_index":149,"time_elapsed":442934,"internal_node_id":"0.0-6.0-0.13","subject_id":"60bb404e01d599dfb1c3d71c","study_id":"6197b3f67c2b5cd3b6d9596a","session_id":"619bfbdc36ed99c975f5fbc9","condition":"contingent","relevant_dimensions":["antennae","wings"],"bee_group":{"antennae":"A","wings":"1","pattern":"X","legs":"X"},"bonus":0.9000000000000009},{"rt":820.4000000059605,"stimulus":"bees-with-color/bee-B1DM.svg","response":0,"trial_type":"image-button-response","trial_index":150,"time_elapsed":443758,"internal_node_id":"0.0-6.0-0.14","subject_id":"60bb404e01d599dfb1c3d71c","study_id":"6197b3f67c2b5cd3b6d9596a","session_id":"619bfbdc36ed99c975f5fbc9","condition":"contingent","relevant_dimensions":["antennae","wings"],"bee_group":{"antennae":"A","wings":"1","pattern":"X","legs":"X"},"bonus":0.9000000000000009},{"rt":805.4000000059605,"stimulus":"bees-with-color/bee-A2DF.svg","response":1,"trial_type":"image-button-response","trial_index":151,"time_elapsed":444566,"internal_node_id":"0.0-6.0-0.15","subject_id":"60bb404e01d599dfb1c3d71c","study_id":"6197b3f67c2b5cd3b6d9596a","session_id":"619bfbdc36ed99c975f5fbc9","condition":"contingent","relevant_dimensions":["antennae","wings"],"bee_group":{"antennae":"A","wings":"1","pattern":"X","legs":"X"},"bonus":0.9000000000000009},{"rt":1037.7999999821186,"stimulus":"bees-with-color/bee-A2SM.svg","response":1,"trial_type":"image-button-response","trial_index":152,"time_elapsed":445607,"internal_node_id":"0.0-6.0-0.16","subject_id":"60bb404e01d599dfb1c3d71c","study_id":"6197b3f67c2b5cd3b6d9596a","session_id":"619bfbdc36ed99c975f5fbc9","condition":"contingent","relevant_dimensions":["antennae","wings"],"bee_group":{"antennae":"A","wings":"1","pattern":"X","legs":"X"},"bonus":0.9000000000000009},{"rt":1141.5,"stimulus":"bees-with-color/bee-B2SF.svg","response":0,"trial_type":"image-button-response","trial_index":153,"time_elapsed":446751,"internal_node_id":"0.0-6.0-0.17","subject_id":"60bb404e01d599dfb1c3d71c","study_id":"6197b3f67c2b5cd3b6d9596a","session_id":"619bfbdc36ed99c975f5fbc9","condition":"contingent","relevant_dimensions":["antennae","wings"],"bee_group":{"antennae":"A","wings":"1","pattern":"X","legs":"X"},"bonus":0.9000000000000009},{"rt":1532.800000011921,"stimulus":"bees-with-color/bee-A1DF.svg","response":1,"trial_type":"image-button-response","trial_index":154,"time_elapsed":448286,"internal_node_id":"0.0-6.0-0.18","subject_id":"60bb404e01d599dfb1c3d71c","study_id":"6197b3f67c2b5cd3b6d9596a","session_id":"619bfbdc36ed99c975f5fbc9","condition":"contingent","relevant_dimensions":["antennae","wings"],"bee_group":{"antennae":"A","wings":"1","pattern":"X","legs":"X"},"bonus":0.9000000000000009},{"rt":1733,"stimulus":"bees-with-color/bee-A1DM.svg","response":1,"trial_type":"image-button-response","trial_index":155,"time_elapsed":450023,"internal_node_id":"0.0-6.0-0.19","subject_id":"60bb404e01d599dfb1c3d71c","study_id":"6197b3f67c2b5cd3b6d9596a","session_id":"619bfbdc36ed99c975f5fbc9","condition":"contingent","relevant_dimensions":["antennae","wings"],"bee_group":{"antennae":"A","wings":"1","pattern":"X","legs":"X"},"bonus":0.9000000000000009},{"rt":1365,"stimulus":"bees-with-color/bee-B2DF.svg","response":0,"trial_type":"image-button-response","trial_index":156,"time_elapsed":451390,"internal_node_id":"0.0-6.0-0.20","subject_id":"60bb404e01d599dfb1c3d71c","study_id":"6197b3f67c2b5cd3b6d9596a","session_id":"619bfbdc36ed99c975f5fbc9","condition":"contingent","relevant_dimensions":["antennae","wings"],"bee_group":{"antennae":"A","wings":"1","pattern":"X","legs":"X"},"bonus":0.9000000000000009},{"rt":885.5,"stimulus":"bees-with-color/bee-B1DF.svg","response":0,"trial_type":"image-button-response","trial_index":157,"time_elapsed":452279,"internal_node_id":"0.0-6.0-0.21","subject_id":"60bb404e01d599dfb1c3d71c","study_id":"6197b3f67c2b5cd3b6d9596a","session_id":"619bfbdc36ed99c975f5fbc9","condition":"contingent","relevant_dimensions":["antennae","wings"],"bee_group":{"antennae":"A","wings":"1","pattern":"X","legs":"X"},"bonus":0.9000000000000009},{"rt":1189.9000000059605,"stimulus":"bees-with-color/bee-B1DM.svg","response":0,"trial_type":"image-button-response","trial_index":158,"time_elapsed":453471,"internal_node_id":"0.0-6.0-0.22","subject_id":"60bb404e01d599dfb1c3d71c","study_id":"6197b3f67c2b5cd3b6d9596a","session_id":"619bfbdc36ed99c975f5fbc9","condition":"contingent","relevant_dimensions":["antennae","wings"],"bee_group":{"antennae":"A","wings":"1","pattern":"X","legs":"X"},"bonus":0.9000000000000009},{"rt":1149.0999999940395,"stimulus":"bees-with-color/bee-A2DM.svg","response":1,"trial_type":"image-button-response","trial_index":159,"time_elapsed":454623,"internal_node_id":"0.0-6.0-0.23","subject_id":"60bb404e01d599dfb1c3d71c","study_id":"6197b3f67c2b5cd3b6d9596a","session_id":"619bfbdc36ed99c975f5fbc9","condition":"contingent","relevant_dimensions":["antennae","wings"],"bee_group":{"antennae":"A","wings":"1","pattern":"X","legs":"X"},"bonus":0.9000000000000009},{"rt":972.9000000059605,"stimulus":"bees-with-color/bee-A2DF.svg","response":1,"trial_type":"image-button-response","trial_index":160,"time_elapsed":455598,"internal_node_id":"0.0-6.0-0.24","subject_id":"60bb404e01d599dfb1c3d71c","study_id":"6197b3f67c2b5cd3b6d9596a","session_id":"619bfbdc36ed99c975f5fbc9","condition":"contingent","relevant_dimensions":["antennae","wings"],"bee_group":{"antennae":"A","wings":"1","pattern":"X","legs":"X"},"bonus":0.9000000000000009},{"rt":1061.699999988079,"stimulus":"bees-with-color/bee-B2SM.svg","response":0,"trial_type":"image-button-response","trial_index":161,"time_elapsed":456662,"internal_node_id":"0.0-6.0-0.25","subject_id":"60bb404e01d599dfb1c3d71c","study_id":"6197b3f67c2b5cd3b6d9596a","session_id":"619bfbdc36ed99c975f5fbc9","condition":"contingent","relevant_dimensions":["antennae","wings"],"bee_group":{"antennae":"A","wings":"1","pattern":"X","legs":"X"},"bonus":0.9000000000000009},{"rt":1238.199999988079,"stimulus":"bees-with-color/bee-A2SF.svg","response":1,"trial_type":"image-button-response","trial_index":162,"time_elapsed":457903,"internal_node_id":"0.0-6.0-0.26","subject_id":"60bb404e01d599dfb1c3d71c","study_id":"6197b3f67c2b5cd3b6d9596a","session_id":"619bfbdc36ed99c975f5fbc9","condition":"contingent","re