[{"success":true,"trial_type":"fullscreen","trial_index":0,"time_elapsed":3911,"internal_node_id":"0.0-0.0","subject_id":"609ac40aa195e504d140fddd","study_id":"60edd13110225f80f9f3709b","session_id":"6196c70456194c9bf8c74a85","condition":"full-information","relevant_dimensions":["antennae","pattern"],"bee_group":{"antennae":"A","wings":"X","pattern":"D","legs":"X"},"bonus":1.8400000000000012},{"success":true,"timeout":false,"failed_images":[],"failed_audio":[],"failed_video":[],"trial_type":"preload","trial_index":1,"time_elapsed":5466,"internal_node_id":"0.0-1.0","subject_id":"609ac40aa195e504d140fddd","study_id":"60edd13110225f80f9f3709b","session_id":"6196c70456194c9bf8c74a85","condition":"full-information","relevant_dimensions":["antennae","pattern"],"bee_group":{"antennae":"A","wings":"X","pattern":"D","legs":"X"},"bonus":1.8400000000000012},{"rt":2970.600000023842,"stimulus":"Welcome! Press any key to begin.","response":"enter","trial_type":"html-keyboard-response","trial_index":2,"time_elapsed":8438,"internal_node_id":"0.0-2.0","subject_id":"609ac40aa195e504d140fddd","study_id":"60edd13110225f80f9f3709b","session_id":"6196c70456194c9bf8c74a85","condition":"full-information","relevant_dimensions":["antennae","pattern"],"bee_group":{"antennae":"A","wings":"X","pattern":"D","legs":"X"},"bonus":1.8400000000000012},{"view_history":[{"page_index":0,"viewing_time":3428.399999976158},{"page_index":1,"viewing_time":13359.699999988079},{"page_index":2,"viewing_time":14525.199999988079},{"page_index":3,"viewing_time":13673.900000035763},{"page_index":4,"viewing_time":6931.099999964237},{"page_index":5,"viewing_time":17364.700000047684},{"page_index":6,"viewing_time":9417.099999964237},{"page_index":7,"viewing_time":6185.400000035763},{"page_index":8,"viewing_time":35114.799999952316},{"page_index":9,"viewing_time":8615.800000011921},{"page_index":10,"viewing_time":7779.900000035763},{"page_index":11,"viewing_time":8048.199999988079},{"page_index":12,"viewing_time":10807.899999976158},{"page_index":13,"viewing_time":1254.9000000357628},{"page_index":14,"viewing_time":2321.199999988079}],"rt":158829.29999995232,"trial_type":"instructions","trial_index":3,"time_elapsed":167268,"internal_node_id":"0.0-3.0-0.0","subject_id":"609ac40aa195e504d140fddd","study_id":"60edd13110225f80f9f3709b","session_id":"6196c70456194c9bf8c74a85","condition":"full-information","relevant_dimensions":["antennae","pattern"],"bee_group":{"antennae":"A","wings":"X","pattern":"D","legs":"X"},"bonus":1.8400000000000012},{"rt":10648.5,"response":{"Q0":["Two or six legs","Stripes or spots on body","Single or double wings","Antennae or no antennae"]},"question_order":[0],"trial_type":"survey-multi-select","trial_index":4,"time_elapsed":177920,"internal_node_id":"0.0-3.0-1.0","subject_id":"609ac40aa195e504d140fddd","study_id":"60edd13110225f80f9f3709b","session_id":"6196c70456194c9bf8c74a85","condition":"full-information","relevant_dimensions":["antennae","pattern"],"bee_group":{"antennae":"A","wings":"X","pattern":"D","legs":"X"},"correct":true,"bonus":1.8400000000000012},{"rt":15364.400000095367,"response":{"Q1":"No.","Q2":"Based on the four features of the bee.","Q3":"You learn if it was friendly or dangerous, but do not alter your bonus."},"question_order":[0,1,2],"trial_type":"survey-multi-choice","trial_index":5,"time_elapsed":193289,"internal_node_id":"0.0-3.0-2.0","subject_id":"609ac40aa195e504d140fddd","study_id":"60edd13110225f80f9f3709b","session_id":"6196c70456194c9bf8c74a85","condition":"full-information","relevant_dimensions":["antennae","pattern"],"bee_group":{"antennae":"A","wings":"X","pattern":"D","legs":"X"},"correct":true,"bonus":1.8400000000000012},{"rt":2581.1999999284744,"stimulus":"<p>Congrats, you got everything right<br>When you're ready, click the button below to continue to the experiment.</p>","response":0,"trial_type":"html-button-response","trial_index":6,"time_elapsed":195874,"internal_node_id":"0.0-3.0-3.0","subject_id":"609ac40aa195e504d140fddd","study_id":"60edd13110225f80f9f3709b","session_id":"6196c70456194c9bf8c74a85","condition":"full-information","relevant_dimensions":["antennae","pattern"],"bee_group":{"antennae":"A","wings":"X","pattern":"D","legs":"X"},"bonus":1.8400000000000012},{"rt":6124.700000047684,"stimulus":"bees-with-color/bee-B2DF.svg","response":1,"trial_type":"image-button-response","trial_index":7,"time_elapsed":202001,"internal_node_id":"0.0-4.0-0.0","subject_id":"609ac40aa195e504d140fddd","study_id":"60edd13110225f80f9f3709b","session_id":"6196c70456194c9bf8c74a85","condition":"full-information","relevant_dimensions":["antennae","pattern"],"bee_group":{"antennae":"A","wings":"X","pattern":"D","legs":"X"},"action":"avoid","summary":"bad-avoid","bonus":1.8400000000000012},{"rt":28389,"stimulus":"\n                    <p><b>Action: <em>avoid</em></b></p>\n                    <p>This is the bee that you just saw.</p>\n                    <img src=\"bees-with-color/bee-B2DF.svg\" width=\"200\">\n                    <p><span class=\"redText\">Bad choice,</span> the bee was friendly.<br>Your bonus pay is unchanged, and remains at $0.54.</p>\n            ","response":0,"trial_type":"html-button-response","trial_index":8,"time_elapsed":230392,"internal_node_id":"0.0-4.0-1.0","subject_id":"609ac40aa195e504d140fddd","study_id":"60edd13110225f80f9f3709b","session_id":"6196c70456194c9bf8c74a85","condition":"full-information","relevant_dimensions":["antennae","pattern"],"bee_group":{"antennae":"A","wings":"X","pattern":"D","legs":"X"},"bonus":1.8400000000000012},{"rt":2615.2999999523163,"stimulus":"bees-with-color/bee-A1SM.svg","response":1,"trial_type":"image-button-response","trial_index":9,"time_elapsed":233010,"internal_node_id":"0.0-4.0-0.1","subject_id":"609ac40aa195e504d140fddd","study_id":"60edd13110225f80f9f3709b","session_id":"6196c70456194c9bf8c74a85","condition":"full-information","relevant_dimensions":["antennae","pattern"],"bee_group":{"antennae":"A","wings":"X","pattern":"D","legs":"X"},"action":"avoid","summary":"bad-avoid","bonus":1.8400000000000012},{"rt":26359.600000023842,"stimulus":"\n                    <p><b>Action: <em>avoid</em></b></p>\n                    <p>This is the bee that you just saw.</p>\n                    <img src=\"bees-with-color/bee-A1SM.svg\" width=\"200\">\n                    <p><span class=\"redText\">Bad choice,</span> the bee was friendly.<br>Your bonus pay is unchanged, and remains at $0.54.</p>\n            ","response":0,"trial_type":"html-button-response","trial_index":10,"time_elapsed":259371,"internal_node_id":"0.0-4.0-1.1","subject_id":"609ac40aa195e504d140fddd","study_id":"60edd13110225f80f9f3709b","session_id":"6196c70456194c9bf8c74a85","condition":"full-information","relevant_dimensions":["antennae","pattern"],"bee_group":{"antennae":"A","wings":"X","pattern":"D","legs":"X"},"bonus":1.8400000000000012},{"rt":2191.8000000715256,"stimulus":"bees-with-color/bee-B1DM.svg","response":1,"trial_type":"image-button-response","trial_index":11,"time_elapsed":261565,"internal_node_id":"0.0-4.0-0.2","subject_id":"609ac40aa195e504d140fddd","study_id":"60edd13110225f80f9f3709b","session_id":"6196c70456194c9bf8c74a85","condition":"full-information","relevant_dimensions":["antennae","pattern"],"bee_group":{"antennae":"A","wings":"X","pattern":"D","legs":"X"},"action":"avoid","summary":"bad-avoid","bonus":1.8400000000000012},{"rt":49354.300000071526,"stimulus":"\n                    <p><b>Action: <em>avoid</em></b></p>\n                    <p>This is the bee that you just saw.</p>\n                    <img src=\"bees-with-color/bee-B1DM.svg\" width=\"200\">\n                    <p><span class=\"redText\">Bad choice,</span> the bee was friendly.<br>Your bonus pay is unchanged, and remains at $0.54.</p>\n            ","response":0,"trial_type":"html-button-response","trial_index":12,"time_elapsed":310921,"internal_node_id":"0.0-4.0-1.2","subject_id":"609ac40aa195e504d140fddd","study_id":"60edd13110225f80f9f3709b","session_id":"6196c70456194c9bf8c74a85","condition":"full-information","relevant_dimensions":["antennae","pattern"],"bee_group":{"antennae":"A","wings":"X","pattern":"D","legs":"X"},"bonus":1.8400000000000012},{"rt":3610.9000000953674,"stimulus":"bees-with-color/bee-A2SF.svg","response":1,"trial_type":"image-button-response","trial_index":13,"time_elapsed":314535,"internal_node_id":"0.0-4.0-0.3","subject_id":"609ac40aa195e504d140fddd","study_id":"60edd13110225f80f9f3709b","session_id":"6196c70456194c9bf8c74a85","condition":"full-information","relevant_dimensions":["antennae","pattern"],"bee_group":{"antennae":"A","wings":"X","pattern":"D","legs":"X"},"action":"avoid","summary":"bad-avoid","bonus":1.8400000000000012},{"rt":25451,"stimulus":"\n                    <p><b>Action: <em>avoid</em></b></p>\n                    <p>This is the bee that you just saw.</p>\n                    <img src=\"bees-with-color/bee-A2SF.svg\" width=\"200\">\n                    <p><span class=\"redText\">Bad choice,</span> the bee was friendly.<br>Your bonus pay is unchanged, and remains at $0.54.</p>\n            ","response":0,"trial_type":"html-button-response","trial_index":14,"time_elapsed":339987,"internal_node_id":"0.0-4.0-1.3","subject_id":"609ac40aa195e504d140fddd","study_id":"60edd13110225f80f9f3709b","session_id":"6196c70456194c9bf8c74a85","condition":"full-information","relevant_dimensions":["antennae","pattern"],"bee_group":{"antennae":"A","wings":"X","pattern":"D","legs":"X"},"bonus":1.8400000000000012},{"rt":1380.8000000715256,"stimulus":"bees-with-color/bee-A1DF.svg","response":1,"trial_type":"image-button-response","trial_index":15,"time_elapsed":341369,"internal_node_id":"0.0-4.0-0.4","subject_id":"609ac40aa195e504d140fddd","study_id":"60edd13110225f80f9f3709b","session_id":"6196c70456194c9bf8c74a85","condition":"full-information","relevant_dimensions":["antennae","pattern"],"bee_group":{"antennae":"A","wings":"X","pattern":"D","legs":"X"},"action":"avoid","summary":"good-avoid","bonus":1.8400000000000012},{"rt":39819.5,"stimulus":"\n                    <p><b>Action: <em>avoid</em></b></p>\n                    <p>This is the bee that you just saw.</p>\n                    <img src=\"bees-with-color/bee-A1DF.svg\" width=\"200\">\n                    <p><span class=\"greenText\">Good choice!</span>  This bee would have stung you.<br>Your bonus pay is unchanged, and remains at $0.54.</p>\n            ","response":0,"trial_type":"html-button-response","trial_index":16,"time_elapsed":381190,"internal_node_id":"0.0-4.0-1.4","subject_id":"609ac40aa195e504d140fddd","study_id":"60edd13110225f80f9f3709b","session_id":"6196c70456194c9bf8c74a85","condition":"full-information","relevant_dimensions":["antennae","pattern"],"bee_group":{"antennae":"A","wings":"X","pattern":"D","legs":"X"},"bonus":1.8400000000000012},{"rt":13803.5,"stimulus":"bees-with-color/bee-A2DF.svg","response":1,"trial_type":"image-button-response","trial_index":17,"time_elapsed":394995,"internal_node_id":"0.0-4.0-0.5","subject_id":"609ac40aa195e504d140fddd","study_id":"60edd13110225f80f9f3709b","session_id":"6196c70456194c9bf8c74a85","condition":"full-information","relevant_dimensions":["antennae","pattern"],"bee_group":{"antennae":"A","wings":"X","pattern":"D","legs":"X"},"action":"avoid","summary":"good-avoid","bonus":1.8400000000000012},{"rt":29344.400000095367,"stimulus":"\n                    <p><b>Action: <em>avoid</em></b></p>\n                    <p>This is the bee that you just saw.</p>\n                    <img src=\"bees-with-color/bee-A2DF.svg\" width=\"200\">\n                    <p><span class=\"greenText\">Good choice!</span>  This bee would have stung you.<br>Your bonus pay is unchanged, and remains at $0.54.</p>\n            ","response":0,"trial_type":"html-button-response","trial_index":18,"time_elapsed":424341,"internal_node_id":"0.0-4.0-1.5","subject_id":"609ac40aa195e504d140fddd","study_id":"60edd13110225f80f9f3709b","session_id":"6196c70456194c9bf8c74a85","condition":"full-information","relevant_dimensions":["antennae","pattern"],"bee_group":{"antennae":"A","wings":"X","pattern":"D","legs":"X"},"bonus":1.8400000000000012},{"rt":8744.299999952316,"stimulus":"bees-with-color/bee-B2DM.svg","response":1,"trial_type":"image-button-response","trial_index":19,"time_elapsed":433088,"internal_node_id":"0.0-4.0-0.6","subject_id":"609ac40aa195e504d140fddd","study_id":"60edd13110225f80f9f3709b","session_id":"6196c70456194c9bf8c74a85","condition":"full-information","relevant_dimensions":["antennae","pattern"],"bee_group":{"antennae":"A","wings":"X","pattern":"D","legs":"X"},"action":"avoid","summary":"bad-avoid","bonus":1.8400000000000012},{"rt":18546.300000071526,"stimulus":"\n                    <p><b>Action: <em>avoid</em></b></p>\n                    <p>This is the bee that you just saw.</p>\n                    <img src=\"bees-with-color/bee-B2DM.svg\" width=\"200\">\n                    <p><span class=\"redText\">Bad choice,</span> the bee was friendly.<br>Your bonus pay is unchanged, and remains at $0.54.</p>\n            ","response":0,"trial_type":"html-button-response","trial_index":20,"time_elapsed":451636,"internal_node_id":"0.0-4.0-1.6","subject_id":"609ac40aa195e504d140fddd","study_id":"60edd13110225f80f9f3709b","session_id":"6196c70456194c9bf8c74a85","condition":"full-information","relevant_dimensions":["antennae","pattern"],"bee_group":{"antennae":"A","wings":"X","pattern":"D","legs":"X"},"bonus":1.8400000000000012},{"rt":1452,"stimulus":"bees-with-color/bee-B1DF.svg","response":0,"trial_type":"image-button-response","trial_index":21,"time_elapsed":453090,"internal_node_id":"0.0-4.0-0.7","subject_id":"609ac40aa195e504d140fddd","study_id":"60edd13110225f80f9f3709b","session_id":"6196c70456194c9bf8c74a85","condition":"full-information","relevant_dimensions":["antennae","pattern"],"bee_group":{"antennae":"A","wings":"X","pattern":"D","legs":"X"},"action":"harvest","summary":"good-harvest","bonus":1.8400000000000012},{"rt":32877.39999997616,"stimulus":"\n                    <p><b>Action: <em>harvest</em></b></p>\n                    <p>This is the bee that you just saw.</p>\n                    <img src=\"bees-with-color/bee-B1DF.svg\" width=\"200\">\n                    <p><span class=\"greenText\"><b>Successful harvest!</b></span><br>Your pay has increased by $0.02. Your bonus pay is now $0.56.</p>\n            ","response":0,"trial_type":"html-button-response","trial_index":22,"time_elapsed":485968,"internal_node_id":"0.0-4.0-1.7","subject_id":"609ac40aa195e504d140fddd","study_id":"60edd13110225f80f9f3709b","session_id":"6196c70456194c9bf8c74a85","condition":"full-information","relevant_dimensions":["antennae","pattern"],"bee_group":{"antennae":"A","wings":"X","pattern":"D","legs":"X"},"bonus":1.8400000000000012},{"rt":7077,"stimulus":"bees-with-color/bee-B2SM.svg","response":1,"trial_type":"image-button-response","trial_index":23,"time_elapsed":493047,"internal_node_id":"0.0-4.0-0.8","subject_id":"609ac40aa195e504d140fddd","study_id":"60edd13110225f80f9f3709b","session_id":"6196c70456194c9bf8c74a85","condition":"full-information","relevant_dimensions":["antennae","pattern"],"bee_group":{"antennae":"A","wings":"X","pattern":"D","legs":"X"},"action":"avoid","summary":"bad-avoid","bonus":1.8400000000000012},{"rt":27570.299999952316,"stimulus":"\n                    <p><b>Action: <em>avoid</em></b></p>\n                    <p>This is the bee that you just saw.</p>\n                    <img src=\"bees-with-color/bee-B2SM.svg\" width=\"200\">\n                    <p><span class=\"redText\">Bad choice,</span> the bee was friendly.<br>Your bonus pay is unchanged, and remains at $0.56.</p>\n            ","response":0,"trial_type":"html-button-response","trial_index":24,"time_elapsed":520620,"internal_node_id":"0.0-4.0-1.8","subject_id":"609ac40aa195e504d140fddd","study_id":"60edd13110225f80f9f3709b","session_id":"6196c70456194c9bf8c74a85","condition":"full-information","relevant_dimensions":["antennae","pattern"],"bee_group":{"antennae":"A","wings":"X","pattern":"D","legs":"X"},"bonus":1.8400000000000012},{"rt":9125.099999904633,"stimulus":"bees-with-color/bee-B2SF.svg","response":1,"trial_type":"image-button-response","trial_index":25,"time_elapsed":529747,"internal_node_id":"0.0-4.0-0.9","subject_id":"609ac40aa195e504d140fddd","study_id":"60edd13110225f80f9f3709b","session_id":"6196c70456194c9bf8c74a85","condition":"full-information","relevant_dimensions":["antennae","pattern"],"bee_group":{"antennae":"A","wings":"X","pattern":"D","legs":"X"},"action":"avoid","summary":"bad-avoid","bonus":1.8400000000000012},{"rt":21402.100000023842,"stimulus":"\n                    <p><b>Action: <em>avoid</em></b></p>\n                    <p>This is the bee that you just saw.</p>\n                    <img src=\"bees-with-color/bee-B2SF.svg\" width=\"200\">\n                    <p><span class=\"redText\">Bad choice,</span> the bee was friendly.<br>Your bonus pay is unchanged, and remains at $0.56.</p>\n            ","response":0,"trial_type":"html-button-response","trial_index":26,"time_elapsed":551150,"internal_node_id":"0.0-4.0-1.9","subject_id":"609ac40aa195e504d140fddd","study_id":"60edd13110225f80f9f3709b","session_id":"6196c70456194c9bf8c74a85","condition":"full-information","relevant_dimensions":["antennae","pattern"],"bee_group":{"antennae":"A","wings":"X","pattern":"D","legs":"X"},"bonus":1.8400000000000012},{"rt":5812.5,"stimulus":"bees-with-color/bee-A2DM.svg","response":1,"trial_type":"image-button-response","trial_index":27,"time_elapsed":556964,"internal_node_id":"0.0-4.0-0.10","subject_id":"609ac40aa195e504d140fddd","study_id":"60edd13110225f80f9f3709b","session_id":"6196c70456194c9bf8c74a85","condition":"full-information","relevant_dimensions":["antennae","pattern"],"bee_group":{"antennae":"A","wings":"X","pattern":"D","legs":"X"},"action":"avoid","summary":"good-avoid","bonus":1.8400000000000012},{"rt":919.3999999761581,"stimulus":"\n                    <p><b>Action: <em>avoid</em></b></p>\n                    <p>This is the bee that you just saw.</p>\n                    <img src=\"bees-with-color/bee-A2DM.svg\" width=\"200\">\n                    <p><span class=\"greenText\">Good choice!</span>  This bee would have stung you.<br>Your bonus pay is unchanged, and remains at $0.56.</p>\n            ","response":0,"trial_type":"html-button-response","trial_index":28,"time_elapsed":557885,"internal_node_id":"0.0-4.0-1.10","subject_id":"609ac40aa195e504d140fddd","study_id":"60edd13110225f80f9f3709b","session_id":"6196c70456194c9bf8c74a85","condition":"full-information","relevant_dimensions":["antennae","pattern"],"bee_group":{"antennae":"A","wings":"X","pattern":"D","legs":"X"},"bonus":1.8400000000000012},{"rt":1143.8999999761581,"stimulus":"bees-with-color/bee-A1DM.svg","response":1,"trial_type":"image-button-response","trial_index":29,"time_elapsed":559031,"internal_node_id":"0.0-4.0-0.11","subject_id":"609ac40aa195e504d140fddd","study_id":"60edd13110225f80f9f3709b","session_id":"6196c70456194c9bf8c74a85","condition":"full-information","relevant_dimensions":["antennae","pattern"],"bee_group":{"antennae":"A","wings":"X","pattern":"D","legs":"X"},"action":"avoid","summary":"good-avoid","bonus":1.8400000000000012},{"rt":913,"stimulus":"\n                    <p><b>Action: <em>avoid</em></b></p>\n                    <p>This is the bee that you just saw.</p>\n                    <img src=\"bees-with-color/bee-A1DM.svg\" width=\"200\">\n                    <p><span class=\"greenText\">Good choice!</span>  This bee would have stung you.<br>Your bonus pay is unchanged, and remains at $0.56.</p>\n            ","response":0,"trial_type":"html-button-response","trial_index":30,"time_elapsed":559945,"internal_node_id":"0.0-4.0-1.11","subject_id":"609ac40aa195e504d140fddd","study_id":"60edd13110225f80f9f3709b","session_id":"6196c70456194c9bf8c74a85","condition":"full-information","relevant_dimensions":["antennae","pattern"],"bee_group":{"antennae":"A","wings":"X","pattern":"D","legs":"X"},"bonus":1.8400000000000012},{"rt":4063.4000000953674,"stimulus":"bees-with-color/bee-B1SM.svg","response":0,"trial_type":"image-button-response","trial_index":31,"time_elapsed":564010,"internal_node_id":"0.0-4.0-0.12","subject_id":"609ac40aa195e504d140fddd","study_id":"60edd13110225f80f9f3709b","session_id":"6196c70456194c9bf8c74a85","condition":"full-information","relevant_dimensions":["antennae","pattern"],"bee_group":{"antennae":"A","wings":"X","pattern":"D","legs":"X"},"action":"harvest","summary":"good-harvest","bonus":1.8400000000000012},{"rt":771.9000000953674,"stimulus":"\n                    <p><b>Action: <em>harvest</em></b></p>\n                    <p>This is the bee that you just saw.</p>\n                    <img src=\"bees-with-color/bee-B1SM.svg\" width=\"200\">\n                    <p><span class=\"greenText\"><b>Successful harvest!</b></span><br>Your pay has increased by $0.02. Your bonus pay is now $0.58.</p>\n            ","response":0,"trial_type":"html-button-response","trial_index":32,"time_elapsed":564783,"internal_node_id":"0.0-4.0-1.12","subject_id":"609ac40aa195e504d140fddd","study_id":"60edd13110225f80f9f3709b","session_id":"6196c70456194c9bf8c74a85","condition":"full-information","relevant_dimensions":["antennae","pattern"],"bee_group":{"antennae":"A","wings":"X","pattern":"D","legs":"X"},"bonus":1.8400000000000012},{"rt":1770.6000000238419,"stimulus":"bees-with-color/bee-A2SM.svg","response":0,"trial_type":"image-button-response","trial_index":33,"time_elapsed":566555,"internal_node_id":"0.0-4.0-0.13","subject_id":"609ac40aa195e504d140fddd","study_id":"60edd13110225f80f9f3709b","session_id":"6196c70456194c9bf8c74a85","condition":"full-information","relevant_dimensions":["antennae","pattern"],"bee_group":{"antennae":"A","wings":"X","pattern":"D","legs":"X"},"action":"harvest","summary":"good-harvest","bonus":1.8400000000000012},{"rt":844.8000000715256,"stimulus":"\n                    <p><b>Action: <em>harvest</em></b></p>\n                    <p>This is the bee that you just saw.</p>\n                    <img src=\"bees-with-color/bee-A2SM.svg\" width=\"200\">\n                    <p><span class=\"greenText\"><b>Successful harvest!</b></span><br>Your pay has increased by $0.02. Your bonus pay is now $0.60.</p>\n            ","response":0,"trial_type":"html-button-response","trial_index":34,"time_elapsed":567401,"internal_node_id":"0.0-4.0-1.13","subject_id":"609ac40aa195e504d140fddd","study_id":"60edd13110225f80f9f3709b","session_id":"6196c70456194c9bf8c74a85","condition":"full-information","relevant_dimensions":["antennae","pattern"],"bee_group":{"antennae":"A","wings":"X","pattern":"D","legs":"X"},"bonus":1.8400000000000012},{"rt":15404.799999952316,"stimulus":"bees-with-color/bee-B1SF.svg","response":0,"trial_type":"image-button-response","trial_index":35,"time_elapsed":582807,"internal_node_id":"0.0-4.0-0.14","subject_id":"609ac40aa195e504d140fddd","study_id":"60edd13110225f80f9f3709b","session_id":"6196c70456194c9bf8c74a85","condition":"full-information","relevant_dimensions":["antennae","pattern"],"bee_group":{"antennae":"A","wings":"X","pattern":"D","legs":"X"},"action":"harvest","summary":"good-harvest","bonus":1.8400000000000012},{"rt":795.5,"stimulus":"\n                    <p><b>Action: <em>harvest</em></b></p>\n                    <p>This is the bee that you just saw.</p>\n                    <img src=\"bees-with-color/bee-B1SF.svg\" width=\"200\">\n                    <p><span class=\"greenText\"><b>Successful harvest!</b></span><br>Your pay has increased by $0.02. Your bonus pay is now $0.62.</p>\n            ","response":0,"trial_type":"html-button-response","trial_index":36,"time_elapsed":583604,"internal_node_id":"0.0-4.0-1.14","subject_id":"609ac40aa195e504d140fddd","study_id":"60edd13110225f80f9f3709b","session_id":"6196c70456194c9bf8c74a85","condition":"full-information","relevant_dimensions":["antennae","pattern"],"bee_group":{"antennae":"A","wings":"X","pattern":"D","legs":"X"},"bonus":1.8400000000000012},{"rt":1413.4000000953674,"stimulus":"bees-with-color/bee-A1SF.svg","response":0,"trial_type":"image-button-response","trial_index":37,"time_elapsed":585019,"internal_node_id":"0.0-4.0-0.15","subject_id":"609ac40aa195e504d140fddd","study_id":"60edd13110225f80f9f3709b","session_id":"6196c70456194c9bf8c74a85","condition":"full-information","relevant_dimensions":["antennae","pattern"],"bee_group":{"antennae":"A","wings":"X","pattern":"D","legs":"X"},"action":"harvest","summary":"good-harvest","bonus":1.8400000000000012},{"rt":783.3000000715256,"stimulus":"\n                    <p><b>Action: <em>harvest</em></b></p>\n                    <p>This is the bee that you just saw.</p>\n                    <img src=\"bees-with-color/bee-A1SF.svg\" width=\"200\">\n                    <p><span class=\"greenText\"><b>Successful harvest!</b></span><br>Your pay has increased by $0.02. Your bonus pay is now $0.64.</p>\n            ","response":0,"trial_type":"html-button-response","trial_index":38,"time_elapsed":585804,"internal_node_id":"0.0-4.0-1.15","subject_id":"609ac40aa195e504d140fddd","study_id":"60edd13110225f80f9f3709b","session_id":"6196c70456194c9bf8c74a85","condition":"full-information","relevant_dimensions":["antennae","pattern"],"bee_group":{"antennae":"A","wings":"X","pattern":"D","legs":"X"},"bonus":1.8400000000000012},{"rt":923.8000000715256,"stimulus":"bees-with-color/bee-B1SF.svg","response":0,"trial_type":"image-button-response","trial_index":39,"time_elapsed":586729,"internal_node_id":"0.0-4.0-0.16","subject_id":"609ac40aa195e504d140fddd","study_id":"60edd13110225f80f9f3709b","session_id":"6196c70456194c9bf8c74a85","condition":"full-information","relevant_dimensions":["antennae","pattern"],"bee_group":{"antennae":"A","wings":"X","pattern":"D","legs":"X"},"action":"harvest","summary":"good-harvest","bonus":1.8400000000000012},{"rt":731.7000000476837,"stimulus":"\n                    <p><b>Action: <em>harvest</em></b></p>\n                    <p>This is the bee that you just saw.</p>\n                    <img src=\"bees-with-color/bee-B1SF.svg\" width=\"200\">\n                    <p><span class=\"greenText\"><b>Successful harvest!</b></span><br>Your pay has increased by $0.02. Your bonus pay is now $0.66.</p>\n            ","response":0,"trial_type":"html-button-response","trial_index":40,"time_elapsed":587462,"internal_node_id":"0.0-4.0-1.16","subject_id":"609ac40aa195e504d140fddd","study_id":"60edd13110225f80f9f3709b","session_id":"6196c70456194c9bf8c74a85","condition":"full-information","relevant_dimensions":["antennae","pattern"],"bee_group":{"antennae":"A","wings":"X","pattern":"D","legs":"X"},"bonus":1.8400000000000012},{"rt":1523.8000000715256,"stimulus":"bees-with-color/bee-B2DF.svg","response":0,"trial_type":"image-button-response","trial_index":41,"time_elapsed":588987,"internal_node_id":"0.0-4.0-0.17","subject_id":"609ac40aa195e504d140fddd","study_id":"60edd13110225f80f9f3709b","session_id":"6196c70456194c9bf8c74a85","condition":"full-information","relevant_dimensions":["antennae","pattern"],"bee_group":{"antennae":"A","wings":"X","pattern":"D","legs":"X"},"action":"harvest","summary":"good-harvest","bonus":1.8400000000000012},{"rt":770.7000000476837,"stimulus":"\n                    <p><b>Action: <em>harvest</em></b></p>\n                    <p>This is the bee that you just saw.</p>\n                    <img src=\"bees-with-color/bee-B2DF.svg\" width=\"200\">\n                    <p><span class=\"greenText\"><b>Successful harvest!</b></span><br>Your pay has increased by $0.02. Your bonus pay is now $0.68.</p>\n            ","response":0,"trial_type":"html-button-response","trial_index":42,"time_elapsed":589759,"internal_node_id":"0.0-4.0-1.17","subject_id":"609ac40aa195e504d140fddd","study_id":"60edd13110225f80f9f3709b","session_id":"6196c70456194c9bf8c74a85","condition":"full-information","relevant_dimensions":["antennae","pattern"],"bee_group":{"antennae":"A","wings":"X","pattern":"D","legs":"X"},"bonus":1.8400000000000012},{"rt":1133.5,"stimulus":"bees-with-color/bee-A2SM.svg","response":0,"trial_type":"image-button-response","trial_index":43,"time_elapsed":590894,"internal_node_id":"0.0-4.0-0.18","subject_id":"609ac40aa195e504d140fddd","study_id":"60edd13110225f80f9f3709b","session_id":"6196c70456194c9bf8c74a85","condition":"full-information","relevant_dimensions":["antennae","pattern"],"bee_group":{"antennae":"A","wings":"X","pattern":"D","legs":"X"},"action":"harvest","summary":"good-harvest","bonus":1.8400000000000012},{"rt":633.6000000238419,"stimulus":"\n                    <p><b>Action: <em>harvest</em></b></p>\n                    <p>This is the bee that you just saw.</p>\n                    <img src=\"bees-with-color/bee-A2SM.svg\" width=\"200\">\n                    <p><span class=\"greenText\"><b>Successful harvest!</b></span><br>Your pay has increased by $0.02. Your bonus pay is now $0.70.</p>\n            ","response":0,"trial_type":"html-button-response","trial_index":44,"time_elapsed":591529,"internal_node_id":"0.0-4.0-1.18","subject_id":"609ac40aa195e504d140fddd","study_id":"60edd13110225f80f9f3709b","session_id":"6196c70456194c9bf8c74a85","condition":"full-information","relevant_dimensions":["antennae","pattern"],"bee_group":{"antennae":"A","wings":"X","pattern":"D","legs":"X"},"bonus":1.8400000000000012},{"rt":935.4000000953674,"stimulus":"bees-with-color/bee-A2SF.svg","response":0,"trial_type":"image-button-response","trial_index":45,"time_elapsed":592466,"internal_node_id":"0.0-4.0-0.19","subject_id":"609ac40aa195e504d140fddd","study_id":"60edd13110225f80f9f3709b","session_id":"6196c70456194c9bf8c74a85","condition":"full-information","relevant_dimensions":["antennae","pattern"],"bee_group":{"antennae":"A","wings":"X","pattern":"D","legs":"X"},"action":"harvest","summary":"good-harvest","bonus":1.8400000000000012},{"rt":596.1999999284744,"stimulus":"\n                    <p><b>Action: <em>harvest</em></b></p>\n                    <p>This is the bee that you just saw.</p>\n                    <img src=\"bees-with-color/bee-A2SF.svg\" width=\"200\">\n                    <p><span class=\"greenText\"><b>Successful harvest!</b></span><br>Your pay has increased by $0.02. Your bonus pay is now $0.72.</p>\n            ","response":0,"trial_type":"html-button-response","trial_index":46,"time_elapsed":593063,"internal_node_id":"0.0-4.0-1.19","subject_id":"609ac40aa195e504d140fddd","study_id":"60edd13110225f80f9f3709b","session_id":"6196c70456194c9bf8c74a85","condition":"full-information","relevant_dimensions":["antennae","pattern"],"bee_group":{"antennae":"A","wings":"X","pattern":"D","legs":"X"},"bonus":1.8400000000000012},{"rt":1330.6000000238419,"stimulus":"bees-with-color/bee-B2DM.svg","response":0,"trial_type":"image-button-response","trial_index":47,"time_elapsed":594395,"internal_node_id":"0.0-4.0-0.20","subject_id":"609ac40aa195e504d140fddd","study_id":"60edd13110225f80f9f3709b","session_id":"6196c70456194c9bf8c74a85","condition":"full-information","relevant_dimensions":["antennae","pattern"],"bee_group":{"antennae":"A","wings":"X","pattern":"D","legs":"X"},"action":"harvest","summary":"good-harvest","bonus":1.8400000000000012},{"rt":644.6000000238419,"stimulus":"\n                    <p><b>Action: <em>harvest</em></b></p>\n                    <p>This is the bee that you just saw.</p>\n                    <img src=\"bees-with-color/bee-B2DM.svg\" width=\"200\">\n                    <p><span class=\"greenText\"><b>Successful harvest!</b></span><br>Your pay has increased by $0.02. Your bonus pay is now $0.74.</p>\n            ","response":0,"trial_type":"html-button-response","trial_index":48,"time_elapsed":595041,"internal_node_id":"0.0-4.0-1.20","subject_id":"609ac40aa195e504d140fddd","study_id":"60edd13110225f80f9f3709b","session_id":"6196c70456194c9bf8c74a85","condition":"full-information","relevant_dimensions":["antennae","pattern"],"bee_group":{"antennae":"A","wings":"X","pattern":"D","legs":"X"},"bonus":1.8400000000000012},{"rt":1476.8999999761581,"stimulus":"bees-with-color/bee-A2DM.svg","response":1,"trial_type":"image-button-response","trial_index":49,"time_elapsed":596519,"internal_node_id":"0.0-4.0-0.21","subject_id":"609ac40aa195e504d140fddd","study_id":"60edd13110225f80f9f3709b","session_id":"6196c70456194c9bf8c74a85","condition":"full-information","relevant_dimensions":["antennae","pattern"],"bee_group":{"antennae":"A","wings":"X","pattern":"D","legs":"X"},"action":"avoid","summary":"good-avoid","bonus":1.8400000000000012},{"rt":715,"stimulus":"\n                    <p><b>Action: <em>avoid</em></b></p>\n                    <p>This is the bee that you just saw.</p>\n                    <img src=\"bees-with-color/bee-A2DM.svg\" width=\"200\">\n                    <p><span class=\"greenText\">Good choice!</span>  This bee would have stung you.<br>Your bonus pay is unchanged, and remains at $0.74.</p>\n            ","response":0,"trial_type":"html-button-response","trial_index":50,"time_elapsed":597236,"internal_node_id":"0.0-4.0-1.21","subject_id":"609ac40aa195e504d140fddd","study_id":"60edd13110225f80f9f3709b","session_id":"6196c70456194c9bf8c74a85","condition":"full-information","relevant_dimensions":["antennae","pattern"],"bee_group":{"antennae":"A","wings":"X","pattern":"D","legs":"X"},"bonus":1.8400000000000012},{"rt":847.6999999284744,"stimulus":"bees-with-color/bee-A2DF.svg","response":1,"trial_type":"image-button-response","trial_index":51,"time_elapsed":598085,"internal_node_id":"0.0-4.0-0.22","subject_id":"609ac40aa195e504d140fddd","study_id":"60edd13110225f80f9f3709b","session_id":"6196c70456194c9bf8c74a85","condition":"full-information","relevant_dimensions":["antennae","pattern"],"bee_group":{"antennae":"A","wings":"X","pattern":"D","legs":"X"},"action":"avoid","summary":"good-avoid","bonus":1.8400000000000012},{"rt":703.5,"stimulus":"\n                    <p><b>Action: <em>avoid</em></b></p>\n                    <p>This is the bee that you just saw.</p>\n                    <img src=\"bees-with-color/bee-A2DF.svg\" width=\"200\">\n                    <p><span class=\"greenText\">Good choice!</span>  This bee would have stung you.<br>Your bonus pay is unchanged, and remains at $0.74.</p>\n            ","response":0,"trial_type":"html-button-response","trial_index":52,"time_elapsed":598790,"internal_node_id":"0.0-4.0-1.22","subject_id":"609ac40aa195e504d140fddd","study_id":"60edd13110225f80f9f3709b","session_id":"6196c70456194c9bf8c74a85","condition":"full-information","relevant_dimensions":["antennae","pattern"],"bee_group":{"antennae":"A","wings":"X","pattern":"D","legs":"X"},"bonus":1.8400000000000012},{"rt":857.3999999761581,"stimulus":"bees-with-color/bee-B2SM.svg","response":0,"trial_type":"image-button-response","trial_index":53,"time_elapsed":599649,"internal_node_id":"0.0-4.0-0.23","subject_id":"609ac40aa195e504d140fddd","study_id":"60edd13110225f80f9f3709b","session_id":"6196c70456194c9bf8c74a85","condition":"full-information","relevant_dimensions":["antennae","pattern"],"bee_group":{"antennae":"A","wings":"X","pattern":"D","legs":"X"},"action":"harvest","summary":"good-harvest","bonus":1.8400000000000012},{"rt":688.6999999284744,"stimulus":"\n                    <p><b>Action: <em>harvest</em></b></p>\n                    <p>This is the bee that you just saw.</p>\n                    <img src=\"bees-with-color/bee-B2SM.svg\" width=\"200\">\n                    <p><span class=\"greenText\"><b>Successful harvest!</b></span><br>Your pay has increased by $0.02. Your bonus pay is now $0.76.</p>\n            ","response":0,"trial_type":"html-button-response","trial_index":54,"time_elapsed":600339,"internal_node_id":"0.0-4.0-1.23","subject_id":"609ac40aa195e504d140fddd","study_id":"60edd13110225f80f9f3709b","session_id":"6196c70456194c9bf8c74a85","condition":"full-information","relevant_dimensions":["antennae","pattern"],"bee_group":{"antennae":"A","wings":"X","pattern":"D","legs":"X"},"bonus":1.8400000000000012},{"rt":890.6000000238419,"stimulus":"bees-with-color/bee-A1DM.svg","response":1,"trial_type":"image-button-response","trial_index":55,"time_elapsed":601231,"internal_node_id":"0.0-4.0-0.24","subject_id":"609ac40aa195e504d140fddd","study_id":"60edd13110225f80f9f3709b","session_id":"6196c70456194c9bf8c74a85","condition":"full-information","relevant_dimensions":["antennae","pattern"],"bee_group":{"antennae":"A","wings":"X","pattern":"D","legs":"X"},"action":"avoid","summary":"good-avoid","bonus":1.8400000000000012},{"rt":723.5999999046326,"stimulus":"\n                    <p><b>Action: <em>avoid</em></b></p>\n                    <p>This is the bee that you just saw.</p>\n                    <img src=\"bees-with-color/bee-A1DM.svg\" width=\"200\">\n                    <p><span class=\"greenText\">Good choice!</span>  This bee would have stung you.<br>Your bonus pay is unchanged, and remains at $0.76.</p>\n            ","response":0,"trial_type":"html-button-response","trial_index":56,"time_elapsed":601956,"internal_node_id":"0.0-4.0-1.24","subject_id":"609ac40aa195e504d140fddd","study_id":"60edd13110225f80f9f3709b","session_id":"6196c70456194c9bf8c74a85","condition":"full-information","relevant_dimensions":["antennae","pattern"],"bee_group":{"antennae":"A","wings":"X","pattern":"D","legs":"X"},"bonus":1.8400000000000012},{"rt":1712.7999999523163,"stimulus":"bees-with-color/bee-B1DF.svg","response":0,"trial_type":"image-button-response","trial_index":57,"time_elapsed":603670,"internal_node_id":"0.0-4.0-0.25","subject_id":"609ac40aa195e504d140fddd","study_id":"60edd13110225f80f9f3709b","session_id":"6196c70456194c9bf8c74a85","condition":"full-information","relevant_dimensions":["antennae","pattern"],"bee_group":{"antennae":"A","wings":"X","pattern":"D","legs":"X"},"action":"harvest","summary":"good-harvest","bonus":1.8400000000000012},{"rt":532.9000000953674,"stimulus":"\n                    <p><b>Action: <em>harvest</em></b></p>\n                    <p>This is the bee that you just saw.</p>\n                    <img src=\"bees-with-color/bee-B1DF.svg\" width=\"200\">\n                    <p><span class=\"greenText\"><b>Successful harvest!</b></span><br>Your pay has increased by $0.02. Your bonus pay is now $0.78.</p>\n            ","response":0,"trial_type":"html-button-response","trial_index":58,"time_elapsed":604205,"internal_node_id":"0.0-4.0-1.25","subject_id":"609ac40aa195e504d140fddd","study_id":"60edd13110225f80f9f3709b","session_id":"6196c70456194c9bf8c74a85","condition":"full-information","relevant_dimensions":["antennae","pattern"],"bee_group":{"antennae":"A","wings":"X","pattern":"D","legs":"X"},"bonus":1.8400000000000012},{"rt":1097.8999999761581,"stimulus":"bees-with-color/bee-B2SF.svg","response":0,"trial_type":"image-button-response","trial_index":59,"time_elapsed":605304,"internal_node_id":"0.0-4.0-0.26","subject_id":"609ac40aa195e504d140fddd","study_id":"60edd13110225f80f9f3709b","session_id":"6196c70456194c9bf8c74a85","condition":"full-information","relevant_dimensions":["antennae","pattern"],"bee_group":{"antennae":"A","wings":"X","pattern":"D","legs":"X"},"action":"harvest","summary":"good-harvest","bonus":1.8400000000000012},{"rt":610,"stimulus":"\n                    <p><b>Action: <em>harvest</em></b></p>\n                    <p>This is the bee that you just saw.</p>\n                    <img src=\"bees-with-color/bee-B2SF.svg\" width=\"200\">\n                    <p><span class=\"greenText\"><b>Successful harvest!</b></span><br>Your pay has increased by $0.02. Your bonus pay is now $0.80.</p>\n            ","response":0,"trial_type":"html-button-response","trial_index":60,"time_elapsed":605915,"internal_node_id":"0.0-4.0-1.26","subject_id":"609ac40aa195e504d140fddd","study_id":"60edd13110225f80f9f3709b","session_id":"6196c70456194c9bf8c74a85","condition":"full-information","relevant_dimensions":["antennae","pattern"],"bee_group":{"antennae":"A","wings":"X","pattern":"D","legs":"X"},"bonus":1.8400000000000012},{"rt":1574.9000000953674,"stimulus":"bees-with-color/bee-A1DF.svg","response":1,"trial_type":"image-button-response","trial_index":61,"time_elapsed":607491,"internal_node_id":"0.0-4.0-0.27","subject_id":"609ac40aa195e504d140fddd","study_id":"60edd13110225f80f9f3709b","session_id":"6196c70456194c9bf8c74a85","condition":"full-information","relevant_dimensions":["antennae","pattern"],"bee_group":{"antennae":"A","wings":"X","pattern":"D","legs":"X"},"action":"avoid","summary":"good-avoid","bonus":1.8400000000000012},{"rt":1410.8999999761581,"stimulus":"\n                    <p><b>Action: <em>avoid</em></b></p>\n                    <p>This is the bee that you just saw.</p>\n                    <img src=\"bees-with-color/bee-A1DF.svg\" width=\"200\">\n                    <p><span class=\"greenText\">Good choice!</span>  This bee would have stung you.<br>Your bonus pay is unchanged, and remains at $0.80.</p>\n            ","response":0,"trial_type":"html-button-response","trial_index":62,"time_elapsed":608903,"internal_node_id":"0.0-4.0-1.27","subject_id":"609ac40aa195e504d140fddd","study_id":"60edd13110225f80f9f3709b","session_id":"6196c70456194c9bf8c74a85","condition":"full-information","relevant_dimensions":["antennae","pattern"],"bee_group":{"antennae":"A","wings":"X","pattern":"D","legs":"X"},"bonus":1.8400000000000012},{"rt":2011.8999999761581,"stimulus":"bees-with-color/bee-B1SM.svg","response":0,"trial_type":"image-button-response","trial_index":63,"time_elapsed":610916,"internal_node_id":"0.0-4.0-0.28","subject_id":"609ac40aa195e504d140fddd","study_id":"60edd13110225f80f9f3709b","session_id":"6196c70456194c9bf8c74a85","condition":"full-information","relevant_dimensions":["antennae","pattern"],"bee_group":{"antennae":"A","wings":"X","pattern":"D","legs":"X"},"action":"harvest","summary":"good-harvest","bonus":1.8400000000000012},{"rt":545.6000000238419,"stimulus":"\n                    <p><b>Action: <em>harvest</em></b></p>\n                    <p>This is the bee that you just saw.</p>\n                    <img src=\"bees-with-color/bee-B1SM.svg\" width=\"200\">\n                    <p><span class=\"greenText\"><b>Successful harvest!</b></span><br>Your pay has increased by $0.02. Your bonus pay is now $0.82.</p>\n            ","response":0,"trial_type":"html-button-response","trial_index":64,"time_elapsed":611463,"internal_node_id":"0.0-4.0-1.28","subject_id":"609ac40aa195e504d140fddd","study_id":"60edd13110225f80f9f3709b","session_id":"6196c70456194c9bf8c74a85","condition":"full-information","relevant_dimensions":["antennae","pattern"],"bee_group":{"antennae":"A","wings":"X","pattern":"D","legs":"X"},"bonus":1.8400000000000012},{"rt":925.9000000953674,"stimulus":"bees-with-color/bee-B1DM.svg","response":0,"trial_type":"image-button-response","trial_index":65,"time_elapsed":612390,"internal_node_id":"0.0-4.0-0.29","subject_id":"609ac40aa195e504d140fddd","study_id":"60edd13110225f80f9f3709b","session_id":"6196c70456194c9bf8c74a85","condition":"full-information","relevant_dimensions":["antennae","pattern"],"bee_group":{"antennae":"A","wings":"X","pattern":"D","legs":"X"},"action":"harvest","summary":"good-harvest","bonus":1.8400000000000012},{"rt":602.7000000476837,"stimulus":"\n                    <p><b>Action: <em>harvest</em></b></p>\n                    <p>This is the bee that you just saw.</p>\n                    <img src=\"bees-with-color/bee-B1DM.svg\" width=\"200\">\n                    <p><span class=\"greenText\"><b>Successful harvest!</b></span><br>Your pay has increased by $0.02. Your bonus pay is now $0.84.</p>\n            ","response":0,"trial_type":"html-button-response","trial_index":66,"time_elapsed":612994,"internal_node_id":"0.0-4.0-1.29","subject_id":"609ac40aa195e504d140fddd","study_id":"60edd13110225f80f9f3709b","session_id":"6196c70456194c9bf8c74a85","condition":"full-information","relevant_dimensions":["antennae","pattern"],"bee_group":{"antennae":"A","wings":"X","pattern":"D","legs":"X"},"bonus":1.8400000000000012},{"rt":1116.5,"stimulus":"bees-with-color/bee-A1SF.svg","response":0,"trial_type":"image-button-response","trial_index":67,"time_elapsed":614111,"internal_node_id":"0.0-4.0-0.30","subject_id":"609ac40aa195e504d140fddd","study_id":"60edd13110225f80f9f3709b","session_id":"6196c70456194c9bf8c74a85","condition":"full-information","relevant_dimensions":["antennae","pattern"],"bee_group":{"antennae":"A","wings":"X","pattern":"D","legs":"X"},"action":"harvest","summary":"good-harvest","bonus":1.8400000000000012},{"rt":594.7000000476837,"stimulus":"\n                    <p><b>Action: <em>harvest</em></b></p>\n                    <p>This is the bee that you just saw.</p>\n                    <img src=\"bees-with-color/bee-A1SF.svg\" width=\"200\">\n                    <p><span class=\"greenText\"><b>Successful harvest!</b></span><br>Your pay has increased by $0.02. Your bonus pay is now $0.86.</p>\n            ","response":0,"trial_type":"html-button-response","trial_index":68,"time_elapsed":614708,"internal_node_id":"0.0-4.0-1.30","subject_id":"609ac40aa195e504d140fddd","study_id":"60edd13110225f80f9f3709b","session_id":"6196c70456194c9bf8c74a85","condition":"full-information","relevant_dimensions":["antennae","pattern"],"bee_group":{"antennae":"A","wings":"X","pattern":"D","legs":"X"},"bonus":1.8400000000000012},{"rt":1360.6000000238419,"stimulus":"bees-with-color/bee-A1SM.svg","response":0,"trial_type":"image-button-response","trial_index":69,"time_elapsed":616070,"internal_node_id":"0.0-4.0-0.31","subject_id":"609ac40aa195e504d140fddd","study_id":"60edd13110225f80f9f3709b","session_id":"6196c70456194c9bf8c74a85","condition":"full-information","relevant_dimensions":["antennae","pattern"],"bee_group":{"antennae":"A","wings":"X","pattern":"D","legs":"X"},"action":"harvest","summary":"good-harvest","bonus":1.8400000000000012},{"rt":798.0999999046326,"stimulus":"\n                    <p><b>Action: <em>harvest</em></b></p>\n                    <p>This is the bee that you just saw.</p>\n                    <img src=\"bees-with-color/bee-A1SM.svg\" width=\"200\">\n                    <p><span class=\"greenText\"><b>Successful harvest!</b></span><br>Your pay has increased by $0.02. Your bonus pay is now $0.88.</p>\n            ","response":0,"trial_type":"html-button-response","trial_index":70,"time_elapsed":616869,"internal_node_id":"0.0-4.0-1.31","subject_id":"609ac40aa195e504d140fddd","study_id":"60edd13110225f80f9f3709b","session_id":"6196c70456194c9bf8c74a85","condition":"full-information","relevant_dimensions":["antennae","pattern"],"bee_group":{"antennae":"A","wings":"X","pattern":"D","legs":"X"},"bonus":1.8400000000000012},{"rt":1664.5,"stimulus":"bees-with-color/bee-B2SM.svg","response":0,"trial_type":"image-button-response","trial_index":71,"time_elapsed":618535,"internal_node_id":"0.0-4.0-0.32","subject_id":"609ac40aa195e504d140fddd","study_id":"60edd13110225f80f9f3709b","session_id":"6196c70456194c9bf8c74a85","condition":"full-information","relevant_dimensions":["antennae","pattern"],"bee_group":{"antennae":"A","wings":"X","pattern":"D","legs":"X"},"action":"harvest","summary":"good-harvest","bonus":1.8400000000000012},{"rt":644.5,"stimulus":"\n                    <p><b>Action: <em>harvest</em></b></p>\n                    <p>This is the bee that you just saw.</p>\n                    <img src=\"bees-with-color/bee-B2SM.svg\" width=\"200\">\n                    <p><span class=\"greenText\"><b>Successful harvest!</b></span><br>Your pay has increased by $0.02. Your bonus pay is now $0.90.</p>\n            ","response":0,"trial_type":"html-button-response","trial_index":72,"time_elapsed":619181,"internal_node_id":"0.0-4.0-1.32","subject_id":"609ac40aa195e504d140fddd","study_id":"60edd13110225f80f9f3709b","session_id":"6196c70456194c9bf8c74a85","condition":"full-information","relevant_dimensions":["antennae","pattern"],"bee_group":{"antennae":"A","wings":"X","pattern":"D","legs":"X"},"bonus":1.8400000000000012},{"rt":1074,"stimulus":"bees-with-color/bee-A1SM.svg","response":0,"trial_type":"image-button-response","trial_index":73,"time_elapsed":620257,"internal_node_id":"0.0-4.0-0.33","subject_id":"609ac40aa195e504d140fddd","study_id":"60edd13110225f80f9f3709b","session_id":"6196c70456194c9bf8c74a85","condition":"full-information","relevant_dimensions":["antennae","pattern"],"bee_group":{"antennae":"A","wings":"X","pattern":"D","legs":"X"},"action":"harvest","summary":"good-harvest","bonus":1.8400000000000012},{"rt":768.1000000238419,"stimulus":"\n                    <p><b>Action: <em>harvest</em></b></p>\n                    <p>This is the bee that you just saw.</p>\n                    <img src=\"bees-with-color/bee-A1SM.svg\" width=\"200\">\n                    <p><span class=\"greenText\"><b>Successful harvest!</b></span><br>Your pay has increased by $0.02. Your bonus pay is now $0.92.</p>\n            ","response":0,"trial_type":"html-button-response","trial_index":74,"time_elapsed":621026,"internal_node_id":"0.0-4.0-1.33","subject_id":"609ac40aa195e504d140fddd","study_id":"60edd13110225f80f9f3709b","session_id":"6196c70456194c9bf8c74a85","condition":"full-information","relevant_dimensions":["antennae","pattern"],"bee_group":{"antennae":"A","wings":"X","pattern":"D","legs":"X"},"bonus":1.8400000000000012},{"rt":2200.8000000715256,"stimulus":"bees-with-color/bee-B2SF.svg","response":0,"trial_type":"image-button-response","trial_index":75,"time_elapsed":623228,"internal_node_id":"0.0-4.0-0.34","subject_id":"609ac40aa195e504d140fddd","study_id":"60edd13110225f80f9f3709b","session_id":"6196c70456194c9bf8c74a85","condition":"full-information","relevant_dimensions":["antennae","pattern"],"bee_group":{"antennae":"A","wings":"X","pattern":"D","legs":"X"},"action":"harvest","summary":"good-harvest","bonus":1.8400000000000012},{"rt":639.7999999523163,"stimulus":"\n                    <p><b>Action: <em>harvest</em></b></p>\n                    <p>This is the bee that you just saw.</p>\n                    <img src=\"bees-with-color/bee-B2SF.svg\" width=\"200\">\n                    <p><span class=\"greenText\"><b>Successful harvest!</b></span><br>Your pay has increased by $0.02. Your bonus pay is now $0.94.</p>\n            ","response":0,"trial_type":"html-button-response","trial_index":76,"time_elapsed":623870,"internal_node_id":"0.0-4.0-1.34","subject_id":"609ac40aa195e504d140fddd","study_id":"60edd13110225f80f9f3709b","session_id":"6196c70456194c9bf8c74a85","condition":"full-information","relevant_dimensions":["antennae","pattern"],"bee_group":{"antennae":"A","wings":"X","pattern":"D","legs":"X"},"bonus":1.8400000000000012},{"rt":1538.2999999523163,"stimulus":"bees-with-color/bee-A2DM.svg","response":1,"trial_type":"image-button-response","trial_index":77,"time_elapsed":625410,"internal_node_id":"0.0-4.0-0.35","subject_id":"609ac40aa195e504d140fddd","study_id":"60edd13110225f80f9f3709b","session_id":"6196c70456194c9bf8c74a85","condition":"full-information","relevant_dimensions":["antennae","pattern"],"bee_group":{"antennae":"A","wings":"X","pattern":"D","legs":"X"},"action":"avoid","summary":"good-avoid","bonus":1.8400000000000012},{"rt":747.2000000476837,"stimulus":"\n                    <p><b>Action: <em>avoid</em></b></p>\n                    <p>This is the bee that you just saw.</p>\n                    <img src=\"bees-with-color/bee-A2DM.svg\" width=\"200\">\n                    <p><span class=\"greenText\">Good choice!</span>  This bee would have stung you.<br>Your bonus pay is unchanged, and remains at $0.94.</p>\n            ","response":0,"trial_type":"html-button-response","trial_index":78,"time_elapsed":626158,"internal_node_id":"0.0-4.0-1.35","subject_id":"609ac40aa195e504d140fddd","study_id":"60edd13110225f80f9f3709b","session_id":"6196c70456194c9bf8c74a85","condition":"full-information","relevant_dimensions":["antennae","pattern"],"bee_group":{"antennae":"A","wings":"X","pattern":"D","legs":"X"},"bonus":1.8400000000000012},{"rt":1033.7999999523163,"stimulus":"bees-with-color/bee-B1DF.svg","response":0,"trial_type":"image-button-response","trial_index":79,"time_elapsed":627193,"internal_node_id":"0.0-4.0-0.36","subject_id":"609ac40aa195e504d140fddd","study_id":"60edd13110225f80f9f3709b","session_id":"6196c70456194c9bf8c74a85","condition":"full-information","relevant_dimensions":["antennae","pattern"],"bee_group":{"antennae":"A","wings":"X","pattern":"D","legs":"X"},"action":"harvest","summary":"good-harvest","bonus":1.8400000000000012},{"rt":603.4000000953674,"stimulus":"\n                    <p><b>Action: <em>harvest</em></b></p>\n                    <p>This is the bee that you just saw.</p>\n                    <img src=\"bees-with-color/bee-B1DF.svg\" width=\"200\">\n                    <p><span class=\"greenText\"><b>Successful harvest!</b></span><br>Your pay has increased by $0.02. Your bonus pay is now $0.96.</p>\n            ","response":0,"trial_type":"html-button-response","trial_index":80,"time_elapsed":627798,"internal_node_id":"0.0-4.0-1.36","subject_id":"609ac40aa195e504d140fddd","study_id":"60edd13110225f80f9f3709b","session_id":"6196c70456194c9bf8c74a85","condition":"full-information","relevant_dimensions":["antennae","pattern"],"bee_group":{"antennae":"A","wings":"X","pattern":"D","legs":"X"},"bonus":1.8400000000000012},{"rt":753.6999999284744,"stimulus":"bees-with-color/bee-B2DF.svg","response":0,"trial_type":"image-button-response","trial_index":81,"time_elapsed":628553,"internal_node_id":"0.0-4.0-0.37","subject_id":"609ac40aa195e504d140fddd","study_id":"60edd13110225f80f9f3709b","session_id":"6196c70456194c9bf8c74a85","condition":"full-information","relevant_dimensions":["antennae","pattern"],"bee_group":{"antennae":"A","wings":"X","pattern":"D","legs":"X"},"action":"harvest","summary":"good-harvest","bonus":1.8400000000000012},{"rt":819.3000000715256,"stimulus":"\n                    <p><b>Action: <em>harvest</em></b></p>\n                    <p>This is the bee that you just saw.</p>\n                    <img src=\"bees-with-color/bee-B2DF.svg\" width=\"200\">\n                    <p><span class=\"greenText\"><b>Successful harvest!</b></span><br>Your pay has increased by $0.02. Your bonus pay is now $0.98.</p>\n            ","response":0,"trial_type":"html-button-response","trial_index":82,"time_elapsed":629374,"internal_node_id":"0.0-4.0-1.37","subject_id":"609ac40aa195e504d140fddd","study_id":"60edd13110225f80f9f3709b","session_id":"6196c70456194c9bf8c74a85","condition":"full-information","relevant_dimensions":["antennae","pattern"],"bee_group":{"antennae":"A","wings":"X","pattern":"D","legs":"X"},"bonus":1.8400000000000012},{"rt":1464.8999999761581,"stimulus":"bees-with-color/bee-A2SM.svg","response":0,"trial_type":"image-button-response","trial_index":83,"time_elapsed":630840,"internal_node_id":"0.0-4.0-0.38","subject_id":"609ac40aa195e504d140fddd","study_id":"60edd13110225f80f9f3709b","session_id":"6196c70456194c9bf8c74a85","condition":"full-information","relevant_dimensions":["antennae","pattern"],"bee_group":{"antennae":"A","wings":"X","pattern":"D","legs":"X"},"action":"harvest","summary":"good-harvest","bonus":1.8400000000000012},{"rt":592.5,"stimulus":"\n                    <p><b>Action: <em>harvest</em></b></p>\n                    <p>This is the bee that you just saw.</p>\n                    <img src=\"bees-with-color/bee-A2SM.svg\" width=\"200\">\n                    <p><span class=\"greenText\"><b>Successful harvest!</b></span><br>Your pay has increased by $0.02. Your bonus pay is now $1.00.</p>\n            ","response":0,"trial_type":"html-button-response","trial_index":84,"time_elapsed":631434,"internal_node_id":"0.0-4.0-1.38","subject_id":"609ac40aa195e504d140fddd","study_id":"60edd13110225f80f9f3709b","session_id":"6196c70456194c9bf8c74a85","condition":"full-information","relevant_dimensions":["antennae","pattern"],"bee_group":{"antennae":"A","wings":"X","pattern":"D","legs":"X"},"bonus":1.8400000000000012},{"rt":1128.5999999046326,"stimulus":"bees-with-color/bee-A1DF.svg","response":1,"trial_type":"image-button-response","trial_index":85,"time_elapsed":632564,"internal_node_id":"0.0-4.0-0.39","subject_id":"609ac40aa195e504d140fddd","study_id":"60edd13110225f80f9f3709b","session_id":"6196c70456194c9bf8c74a85","condition":"full-information","relevant_dimensions":["antennae","pattern"],"bee_group":{"antennae":"A","wings":"X","pattern":"D","legs":"X"},"action":"avoid","summary":"good-avoid","bonus":1.8400000000000012},{"rt":544.1000000238419,"stimulus":"\n                    <p><b>Action: <em>avoid</em></b></p>\n                    <p>This is the bee that you just saw.</p>\n                    <img src=\"bees-with-color/bee-A1DF.svg\" width=\"200\">\n                    <p><span class=\"greenText\">Good choice!</span>  This bee would have stung you.<br>Your bonus pay is unchanged, and remains at $1.00.</p>\n            ","response":0,"trial_type":"html-button-response","trial_index":86,"time_elapsed":633110,"internal_node_id":"0.0-4.0-1.39","subject_id":"609ac40aa195e504d140fddd","study_id":"60edd13110225f80f9f3709b","session_id":"6196c70456194c9bf8c74a85","condition":"full-information","relevant_dimensions":["antennae","pattern"],"bee_group":{"antennae":"A","wings":"X","pattern":"D","legs":"X"},"bonus":1.8400000000000012},{"rt":1018.5,"stimulus":"bees-with-color/bee-A1DM.svg","response":1,"trial_type":"image-button-response","trial_index":87,"time_elapsed":634130,"internal_node_id":"0.0-4.0-0.40","subject_id":"609ac40aa195e504d140fddd","study_id":"60edd13110225f80f9f3709b","session_id":"6196c70456194c9bf8c74a85","condition":"full-information","relevant_dimensions":["antennae","pattern"],"bee_group":{"antennae":"A","wings":"X","pattern":"D","legs":"X"},"action":"avoid","summary":"good-avoid","bonus":1.8400000000000012},{"rt":769.8999999761581,"stimulus":"\n                    <p><b>Action: <em>avoid</em></b></p>\n                    <p>This is the bee that you just saw.</p>\n                    <img src=\"bees-with-color/bee-A1DM.svg\" width=\"200\">\n                    <p><span class=\"greenText\">Good choice!</span>  This bee would have stung you.<br>Your bonus pay is unchanged, and remains at $1.00.</p>\n            ","response":0,"trial_type":"html-button-response","trial_index":88,"time_elapsed":634901,"internal_node_id":"0.0-4.0-1.40","subject_id":"609ac40aa195e504d140fddd","study_id":"60edd13110225f80f9f3709b","session_id":"6196c70456194c9bf8c74a85","condition":"full-information","relevant_dimensions":["antennae","pattern"],"bee_group":{"antennae":"A","wings":"X","pattern":"D","legs":"X"},"bonus":1.8400000000000012},{"rt":1328.1000000238419,"stimulus":"bees-with-color/bee-A2DF.svg","response":1,"trial_type":"image-button-response","trial_index":89,"time_elapsed":636230,"internal_node_id":"0.0-4.0-0.41","subject_id":"609ac40aa195e504d140fddd","study_id":"60edd13110225f80f9f3709b","session_id":"6196c70456194c9bf8c74a85","condition":"full-information","relevant_dimensions":["antennae","pattern"],"bee_group":{"antennae":"A","wings":"X","pattern":"D","legs":"X"},"action":"avoid","summary":"good-avoid","bonus":1.8400000000000012},{"rt":538.8999999761581,"stimulus":"\n                    <p><b>Action: <em>avoid</em></b></p>\n                    <p>This is the bee that you just saw.</p>\n                    <img src=\"bees-with-color/bee-A2DF.svg\" width=\"200\">\n                    <p><span class=\"greenText\">Good choice!</span>  This bee would have stung you.<br>Your bonus pay is unchanged, and remains at $1.00.</p>\n            ","response":0,"trial_type":"html-button-response","trial_index":90,"time_elapsed":636770,"internal_node_id":"0.0-4.0-1.41","subject_id":"609ac40aa195e504d140fddd","study_id":"60edd13110225f80f9f3709b","session_id":"6196c70456194c9bf8c74a85","condition":"full-information","relevant_dimensions":["antennae","pattern"],"bee_group":{"antennae":"A","wings":"X","pattern":"D","legs":"X"},"bonus":1.8400000000000012},{"rt":995.6999999284744,"stimulus":"bees-with-color/bee-B1SF.svg","response":0,"trial_type":"image-button-response","trial_index":91,"time_elapsed":637767,"internal_node_id":"0.0-4.0-0.42","subject_id":"609ac40aa195e504d140fddd","study_id":"60edd13110225f80f9f3709b","session_id":"6196c70456194c9bf8c74a85","condition":"full-information","relevant_dimensions":["antennae","pattern"],"bee_group":{"antennae":"A","wings":"X","pattern":"D","legs":"X"},"action":"harvest","summary":"good-harvest","bonus":1.8400000000000012},{"rt":745.7999999523163,"stimulus":"\n                    <p><b>Action: <em>harvest</em></b></p>\n                    <p>This is the bee that you just saw.</p>\n                    <img src=\"bees-with-color/bee-B1SF.svg\" width=\"200\">\n                    <p><span class=\"greenText\"><b>Successful harvest!</b></span><br>Your pay has increased by $0.02. Your bonus pay is now $1.02.</p>\n            ","response":0,"trial_type":"html-button-response","trial_index":92,"time_elapsed":638514,"internal_node_id":"0.0-4.0-1.42","subject_id":"609ac40aa195e504d140fddd","study_id":"60edd13110225f80f9f3709b","session_id":"6196c70456194c9bf8c74a85","condition":"full-information","relevant_dimensions":["antennae","pattern"],"bee_group":{"antennae":"A","wings":"X","pattern":"D","legs":"X"},"bonus":1.8400000000000012},{"rt":722.8999999761581,"stimulus":"bees-with-color/bee-B1SM.svg","response":0,"trial_type":"image-button-response","trial_index":93,"time_elapsed":639238,"internal_node_id":"0.0-4.0-0.43","subject_id":"609ac40aa195e504d140fddd","study_id":"60edd13110225f80f9f3709b","session_id":"6196c70456194c9bf8c74a85","condition":"full-information","relevant_dimensions":["antennae","pattern"],"bee_group":{"antennae":"A","wings":"X","pattern":"D","legs":"X"},"action":"harvest","summary":"good-harvest","bonus":1.8400000000000012},{"rt":587.7000000476837,"stimulus":"\n                    <p><b>Action: <em>harvest</em></b></p>\n                    <p>This is the bee that you just saw.</p>\n                    <img src=\"bees-with-color/bee-B1SM.svg\" width=\"200\">\n                    <p><span class=\"greenText\"><b>Successful harvest!</b></span><br>Your pay has increased by $0.02. Your bonus pay is now $1.04.</p>\n            ","response":0,"trial_type":"html-button-response","trial_index":94,"time_elapsed":639827,"internal_node_id":"0.0-4.0-1.43","subject_id":"609ac40aa195e504d140fddd","study_id":"60edd13110225f80f9f3709b","session_id":"6196c70456194c9bf8c74a85","condition":"full-information","relevant_dimensions":["antennae","pattern"],"bee_group":{"antennae":"A","wings":"X","pattern":"D","legs":"X"},"bonus":1.8400000000000012},{"rt":1008.6999999284744,"stimulus":"bees-with-color/bee-A1SF.svg","response":0,"trial_type":"image-button-response","trial_index":95,"time_elapsed":640837,"internal_node_id":"0.0-4.0-0.44","subject_id":"609ac40aa195e504d140fddd","study_id":"60edd13110225f80f9f3709b","session_id":"6196c70456194c9bf8c74a85","condition":"full-information","relevant_dimensions":["antennae","pattern"],"bee_group":{"antennae":"A","wings":"X","pattern":"D","legs":"X"},"action":"harvest","summary":"good-harvest","bonus":1.8400000000000012},{"rt":563.7999999523163,"stimulus":"\n                    <p><b>Action: <em>harvest</em></b></p>\n                    <p>This is the bee that you just saw.</p>\n                    <img src=\"bees-with-color/bee-A1SF.svg\" width=\"200\">\n                    <p><span class=\"greenText\"><b>Successful harvest!</b></span><br>Your pay has increased by $0.02. Your bonus pay is now $1.06.</p>\n            ","response":0,"trial_type":"html-button-response","trial_index":96,"time_elapsed":641402,"internal_node_id":"0.0-4.0-1.44","subject_id":"609ac40aa195e504d140fddd","study_id":"60edd13110225f80f9f3709b","session_id":"6196c70456194c9bf8c74a85","condition":"full-information","relevant_dimensions":["antennae","pattern"],"bee_group":{"antennae":"A","wings":"X","pattern":"D","legs":"X"},"bonus":1.8400000000000012},{"rt":1470.5999999046326,"stimulus":"bees-with-color/bee-B2DM.svg","response":0,"trial_type":"image-button-response","trial_index":97,"time_elapsed":642874,"internal_node_id":"0.0-4.0-0.45","subject_id":"609ac40aa195e504d140fddd","study_id":"60edd13110225f80f9f3709b","session_id":"6196c70456194c9bf8c74a85","condition":"full-information","relevant_dimensions":["antennae","pattern"],"bee_group":{"antennae":"A","wings":"X","pattern":"D","legs":"X"},"action":"harvest","summary":"good-harvest","bonus":1.8400000000000012},{"rt":578.6000000238419,"stimulus":"\n                    <p><b>Action: <em>harvest</em></b></p>\n                    <p>This is the bee that you just saw.</p>\n                    <img src=\"bees-with-color/bee-B2DM.svg\" width=\"200\">\n                    <p><span class=\"greenText\"><b>Successful harvest!</b></span><br>Your pay has increased by $0.02. Your bonus pay is now $1.08.</p>\n            ","response":0,"trial_type":"html-button-response","trial_index":98,"time_elapsed":643454,"internal_node_id":"0.0-4.0-1.45","subject_id":"609ac40aa195e504d140fddd","study_id":"60edd13110225f80f9f3709b","session_id":"6196c70456194c9bf8c74a85","condition":"full-information","relevant_dimensions":["antennae","pattern"],"bee_group":{"antennae":"A","wings":"X","pattern":"D","legs":"X"},"bonus":1.8400000000000012},{"rt":2342.2999999523163,"stimulus":"bees-with-color/bee-A2SF.svg","response":0,"trial_type":"image-button-response","trial_index":99,"time_elapsed":645797,"internal_node_id":"0.0-4.0-0.46","subject_id":"609ac40aa195e504d140fddd","study_id":"60edd13110225f80f9f3709b","session_id":"6196c70456194c9bf8c74a85","condition":"full-information","relevant_dimensions":["antennae","pattern"],"bee_group":{"antennae":"A","wings":"X","pattern":"D","legs":"X"},"action":"harvest","summary":"good-harvest","bonus":1.8400000000000012},{"rt":539.3999999761581,"stimulus":"\n                    <p><b>Action: <em>harvest</em></b></p>\n                    <p>This is the bee that you just saw.</p>\n                    <img src=\"bees-with-color/bee-A2SF.svg\" width=\"200\">\n                    <p><span class=\"greenText\"><b>Successful harvest!</b></span><br>Your pay has increased by $0.02. Your bonus pay is now $1.10.</p>\n            ","response":0,"trial_type":"html-button-response","trial_index":100,"time_elapsed":646338,"internal_node_id":"0.0-4.0-1.46","subject_id":"609ac40aa195e504d140fddd","study_id":"60edd13110225f80f9f3709b","session_id":"6196c70456194c9bf8c74a85","condition":"full-information","relevant_dimensions":["antennae","pattern"],"bee_group":{"antennae":"A","wings":"X","pattern":"D","legs":"X"},"bonus":1.8400000000000012},{"rt":1281.5,"stimulus":"bees-with-color/bee-B1DM.svg","response":0,"trial_type":"image-button-response","trial_index":101,"time_elapsed":647621,"internal_node_id":"0.0-4.0-0.47","subject_id":"609ac40aa195e504d140fddd","study_id":"60edd13110225f80f9f3709b","session_id":"6196c70456194c9bf8c74a85","condition":"full-information","relevant_dimensions":["antennae","pattern"],"bee_group":{"antennae":"A","wings":"X","pattern":"D","legs":"X"},"action":"harvest","summary":"good-harvest","bonus":1.8400000000000012},{"rt":646.7999999523163,"stimulus":"\n                    <p><b>Action: <em>harvest</em></b></p>\n                    <p>This is the bee that you just saw.</p>\n                    <img src=\"bees-with-color/bee-B1DM.svg\" width=\"200\">\n                    <p><span class=\"greenText\"><b>Successful harvest!</b></span><br>Your pay has increased by $0.02. Your bonus pay is now $1.12.</p>\n            ","response":0,"trial_type":"html-button-response","trial_index":102,"time_elapsed":648269,"internal_node_id":"0.0-4.0-1.47","subject_id":"609ac40aa195e504d140fddd","study_id":"60edd13110225f80f9f3709b","session_id":"6196c70456194c9bf8c74a85","condition":"full-information","relevant_dimensions":["antennae","pattern"],"bee_group":{"antennae":"A","wings":"X","pattern":"D","legs":"X"},"bonus":1.8400000000000012},{"rt":1039.5,"stimulus":"bees-with-color/bee-A2SM.svg","response":0,"trial_type":"image-button-response","trial_index":103,"time_elapsed":649310,"internal_node_id":"0.0-4.0-0.48","subject_id":"609ac40aa195e504d140fddd","study_id":"60edd13110225f80f9f3709b","session_id":"6196c70456194c9bf8c74a85","condition":"full-information","relevant_dimensions":["antennae","pattern"],"bee_group":{"antennae":"A","wings":"X","pattern":"D","legs":"X"},"action":"harvest","summary":"good-harvest","bonus":1.8400000000000012},{"rt":605.7000000476837,"stimulus":"\n                    <p><b>Action: <em>harvest</em></b></p>\n                    <p>This is the bee that you just saw.</p>\n                    <img src=\"bees-with-color/bee-A2SM.svg\" width=\"200\">\n                    <p><span class=\"greenText\"><b>Successful harvest!</b></span><br>Your pay has increased by $0.02. Your bonus pay is now $1.14.</p>\n            ","response":0,"trial_type":"html-button-response","trial_index":104,"time_elapsed":649917,"internal_node_id":"0.0-4.0-1.48","subject_id":"609ac40aa195e504d140fddd","study_id":"60edd13110225f80f9f3709b","session_id":"6196c70456194c9bf8c74a85","condition":"full-information","relevant_dimensions":["antennae","pattern"],"bee_group":{"antennae":"A","wings":"X","pattern":"D","legs":"X"},"bonus":1.8400000000000012},{"rt":847.7000000476837,"stimulus":"bees-with-color/bee-A2DM.svg","response":1,"trial_type":"image-button-response","trial_index":105,"time_elapsed":650766,"internal_node_id":"0.0-4.0-0.49","subject_id":"609ac40aa195e504d140fddd","study_id":"60edd13110225f80f9f3709b","session_id":"6196c70456194c9bf8c74a85","condition":"full-information","relevant_dimensions":["antennae","pattern"],"bee_group":{"antennae":"A","wings":"X","pattern":"D","legs":"X"},"action":"avoid","summary":"good-avoid","bonus":1.8400000000000012},{"rt":663.6999999284744,"stimulus":"\n                    <p><b>Action: <em>avoid</em></b></p>\n                    <p>This is the bee that you just saw.</p>\n                    <img src=\"bees-with-color/bee-A2DM.svg\" width=\"200\">\n                    <p><span class=\"greenText\">Good choice!</span>  This bee would have stung you.<br>Your bonus pay is unchanged, and remains at $1.14.</p>\n            ","response":0,"trial_type":"html-button-response","trial_index":106,"time_elapsed":651431,"internal_node_id":"0.0-4.0-1.49","subject_id":"609ac40aa195e504d140fddd","study_id":"60edd13110225f80f9f3709b","session_id":"6196c70456194c9bf8c74a85","condition":"full-information","relevant_dimensions":["antennae","pattern"],"bee_group":{"antennae":"A","wings":"X","pattern":"D","legs":"X"},"bonus":1.8400000000000012},{"rt":880.7000000476837,"stimulus":"bees-with-color/bee-B1SF.svg","response":0,"trial_type":"image-button-response","trial_index":107,"time_elapsed":652314,"internal_node_id":"0.0-4.0-0.50","subject_id":"609ac40aa195e504d140fddd","study_id":"60edd13110225f80f9f3709b","session_id":"6196c70456194c9bf8c74a85","condition":"full-information","relevant_dimensions":["antennae","pattern"],"bee_group":{"antennae":"A","wings":"X","pattern":"D","legs":"X"},"action":"harvest","summary":"good-harvest","bonus":1.8400000000000012},{"rt":712.5,"stimulus":"\n                    <p><b>Action: <em>harvest</em></b></p>\n                    <p>This is the bee that you just saw.</p>\n                    <img src=\"bees-with-color/bee-B1SF.svg\" width=\"200\">\n                    <p><span class=\"greenText\"><b>Successful harvest!</b></span><br>Your pay has increased by $0.02. Your bonus pay is now $1.16.</p>\n            ","response":0,"trial_type":"html-button-response","trial_index":108,"time_elapsed":653028,"internal_node_id":"0.0-4.0-1.50","subject_id":"609ac40aa195e504d140fddd","study_id":"60edd13110225f80f9f3709b","session_id":"6196c70456194c9bf8c74a85","condition":"full-information","relevant_dimensions":["antennae","pattern"],"bee_group":{"antennae":"A","wings":"X","pattern":"D","legs":"X"},"bonus":1.8400000000000012},{"rt":833.6999999284744,"stimulus":"bees-with-color/bee-A2SF.svg","response":0,"trial_type":"image-button-response","trial_index":109,"time_elapsed":653863,"internal_node_id":"0.0-4.0-0.51","subject_id":"609ac40aa195e504d140fddd","study_id":"60edd13110225f80f9f3709b","session_id":"6196c70456194c9bf8c74a85","condition":"full-information","relevant_dimensions":["antennae","pattern"],"bee_group":{"antennae":"A","wings":"X","pattern":"D","legs":"X"},"action":"harvest","summary":"good-harvest","bonus":1.8400000000000012},{"rt":630.5,"stimulus":"\n                    <p><b>Action: <em>harvest</em></b></p>\n                    <p>This is the bee that you just saw.</p>\n                    <img src=\"bees-with-color/bee-A2SF.svg\" width=\"200\">\n                    <p><span class=\"greenText\"><b>Successful harvest!</b></span><br>Your pay has increased by $0.02. Your bonus pay is now $1.18.</p>\n            ","response":0,"trial_type":"html-button-response","trial_index":110,"time_elapsed":654495,"internal_node_id":"0.0-4.0-1.51","subject_id":"609ac40aa195e504d140fddd","study_id":"60edd13110225f80f9f3709b","session_id":"6196c70456194c9bf8c74a85","condition":"full-information","relevant_dimensions":["antennae","pattern"],"bee_group":{"antennae":"A","wings":"X","pattern":"D","legs":"X"},"bonus":1.8400000000000012},{"rt":2507.600000023842,"stimulus":"bees-with-color/bee-B2DF.svg","response":0,"trial_type":"image-button-response","trial_index":111,"time_elapsed":657004,"internal_node_id":"0.0-4.0-0.52","subject_id":"609ac40aa195e504d140fddd","study_id":"60edd13110225f80f9f3709b","session_id":"6196c70456194c9bf8c74a85","condition":"full-information","relevant_dimensions":["antennae","pattern"],"bee_group":{"antennae":"A","wings":"X","pattern":"D","legs":"X"},"action":"harvest","summary":"good-harvest","bonus":1.8400000000000012},{"rt":495.59999990463257,"stimulus":"\n                    <p><b>Action: <em>harvest</em></b></p>\n                    <p>This is the bee that you just saw.</p>\n                    <img src=\"bees-with-color/bee-B2DF.svg\" width=\"200\">\n                    <p><span class=\"greenText\"><b>Successful harvest!</b></span><br>Your pay has increased by $0.02. Your bonus pay is now $1.20.</p>\n            ","response":0,"trial_type":"html-button-response","trial_index":112,"time_elapsed":657501,"internal_node_id":"0.0-4.0-1.52","subject_id":"609ac40aa195e504d140fddd","study_id":"60edd13110225f80f9f3709b","session_id":"6196c70456194c9bf8c74a85","condition":"full-information","relevant_dimensions":["antennae","pattern"],"bee_group":{"antennae":"A","wings":"X","pattern":"D","legs":"X"},"bonus":1.8400000000000012},{"rt":963.5,"stimulus":"bees-with-color/bee-A1DF.svg","response":1,"trial_type":"image-button-response","trial_index":113,"time_elapsed":658466,"internal_node_id":"0.0-4.0-0.53","subject_id":"609ac40aa195e504d140fddd","study_id":"60edd13110225f80f9f3709b","session_id":"6196c70456194c9bf8c74a85","condition":"full-information","relevant_dimensions":["antennae","pattern"],"bee_group":{"antennae":"A","wings":"X","pattern":"D","legs":"X"},"action":"avoid","summary":"good-avoid","bonus":1.8400000000000012},{"rt":570.2000000476837,"stimulus":"\n                    <p><b>Action: <em>avoid</em></b></p>\n                    <p>This is the bee that you just saw.</p>\n                    <img src=\"bees-with-color/bee-A1DF.svg\" width=\"200\">\n                    <p><span class=\"greenText\">Good choice!</span>  This bee would have stung you.<br>Your bonus pay is unchanged, and remains at $1.20.</p>\n            ","response":0,"trial_type":"html-button-response","trial_index":114,"time_elapsed":659038,"internal_node_id":"0.0-4.0-1.53","subject_id":"609ac40aa195e504d140fddd","study_id":"60edd13110225f80f9f3709b","session_id":"6196c70456194c9bf8c74a85","condition":"full-information","relevant_dimensions":["antennae","pattern"],"bee_group":{"antennae":"A","wings":"X","pattern":"D","legs":"X"},"bonus":1.8400000000000012},{"rt":1720,"stimulus":"bees-with-color/bee-B2DM.svg","response":0,"trial_type":"image-button-response","trial_index":115,"time_elapsed":660759,"internal_node_id":"0.0-4.0-0.54","subject_id":"609ac40aa195e504d140fddd","study_id":"60edd13110225f80f9f3709b","session_id":"6196c70456194c9bf8c74a85","condition":"full-information","relevant_dimensions":["antennae","pattern"],"bee_group":{"antennae":"A","wings":"X","pattern":"D","legs":"X"},"action":"harvest","summary":"good-harvest","bonus":1.8400000000000012},{"rt":562.9000000953674,"stimulus":"\n                    <p><b>Action: <em>harvest</em></b></p>\n                    <p>This is the bee that you just saw.</p>\n                    <img src=\"bees-with-color/bee-B2DM.svg\" width=\"200\">\n                    <p><span class=\"greenText\"><b>Successful harvest!</b></span><br>Your pay has increased by $0.02. Your bonus pay is now $1.22.</p>\n            ","response":0,"trial_type":"html-button-response","trial_index":116,"time_elapsed":661323,"internal_node_id":"0.0-4.0-1.54","subject_id":"609ac40aa195e504d140fddd","study_id":"60edd13110225f80f9f3709b","session_id":"6196c70456194c9bf8c74a85","condition":"full-information","relevant_dimensions":["antennae","pattern"],"bee_group":{"antennae":"A","wings":"X","pattern":"D","legs":"X"},"bonus":1.8400000000000012},{"rt":1065.8999999761581,"stimulus":"bees-with-color/bee-B2SF.svg","response":0,"trial_type":"image-button-response","trial_index":117,"time_elapsed":662390,"internal_node_id":"0.0-4.0-0.55","subject_id":"609ac40aa195e504d140fddd","study_id":"60edd13110225f80f9f3709b","session_id":"6196c70456194c9bf8c74a85","condition":"full-information","relevant_dimensions":["antennae","pattern"],"bee_group":{"antennae":"A","wings":"X","pattern":"D","legs":"X"},"action":"harvest","summary":"good-harvest","bonus":1.8400000000000012},{"rt":665.2999999523163,"stimulus":"\n                    <p><b>Action: <em>harvest</em></b></p>\n                    <p>This is the bee that you just saw.</p>\n                    <img src=\"bees-with-color/bee-B2SF.svg\" width=\"200\">\n                    <p><span class=\"greenText\"><b>Successful harvest!</b></span><br>Your pay has increased by $0.02. Your bonus pay is now $1.24.</p>\n            ","response":0,"trial_type":"html-button-response","trial_index":118,"time_elapsed":663057,"internal_node_id":"0.0-4.0-1.55","subject_id":"609ac40aa195e504d140fddd","study_id":"60edd13110225f80f9f3709b","session_id":"6196c70456194c9bf8c74a85","condition":"full-information","relevant_dimensions":["antennae","pattern"],"bee_group":{"antennae":"A","wings":"X","pattern":"D","legs":"X"},"bonus":1.8400000000000012},{"rt":1388.4000000953674,"stimulus":"bees-with-color/bee-B1SM.svg","response":0,"trial_type":"image-button-response","trial_index":119,"time_elapsed":664446,"internal_node_id":"0.0-4.0-0.56","subject_id":"609ac40aa195e504d140fddd","study_id":"60edd13110225f80f9f3709b","session_id":"6196c70456194c9bf8c74a85","condition":"full-information","relevant_dimensions":["antennae","pattern"],"bee_group":{"antennae":"A","wings":"X","pattern":"D","legs":"X"},"action":"harvest","summary":"good-harvest","bonus":1.8400000000000012},{"rt":637.6000000238419,"stimulus":"\n                    <p><b>Action: <em>harvest</em></b></p>\n                    <p>This is the bee that you just saw.</p>\n                    <img src=\"bees-with-color/bee-B1SM.svg\" width=\"200\">\n                    <p><span class=\"greenText\"><b>Successful harvest!</b></span><br>Your pay has increased by $0.02. Your bonus pay is now $1.26.</p>\n            ","response":0,"trial_type":"html-button-response","trial_index":120,"time_elapsed":665085,"internal_node_id":"0.0-4.0-1.56","subject_id":"609ac40aa195e504d140fddd","study_id":"60edd13110225f80f9f3709b","session_id":"6196c70456194c9bf8c74a85","condition":"full-information","relevant_dimensions":["antennae","pattern"],"bee_group":{"antennae":"A","wings":"X","pattern":"D","legs":"X"},"bonus":1.8400000000000012},{"rt":1170,"stimulus":"bees-with-color/bee-B2SM.svg","response":0,"trial_type":"image-button-response","trial_index":121,"time_elapsed":666256,"internal_node_id":"0.0-4.0-0.57","subject_id":"609ac40aa195e504d140fddd","study_id":"60edd13110225f80f9f3709b","session_id":"6196c70456194c9bf8c74a85","condition":"full-information","relevant_dimensions":["antennae","pattern"],"bee_group":{"antennae":"A","wings":"X","pattern":"D","legs":"X"},"action":"harvest","summary":"good-harvest","bonus":1.8400000000000012},{"rt":679,"stimulus":"\n                    <p><b>Action: <em>harvest</em></b></p>\n                    <p>This is the bee that you just saw.</p>\n                    <img src=\"bees-with-color/bee-B2SM.svg\" width=\"200\">\n                    <p><span class=\"greenText\"><b>Successful harvest!</b></span><br>Your pay has increased by $0.02. Your bonus pay is now $1.28.</p>\n            ","response":0,"trial_type":"html-button-response","trial_index":122,"time_elapsed":666937,"internal_node_id":"0.0-4.0-1.57","subject_id":"609ac40aa195e504d140fddd","study_id":"60edd13110225f80f9f3709b","session_id":"6196c70456194c9bf8c74a85","condition":"full-information","relevant_dimensions":["antennae","pattern"],"bee_group":{"antennae":"A","wings":"X","pattern":"D","legs":"X"},"bonus":1.8400000000000012},{"rt":940,"stimulus":"bees-with-color/bee-B1DF.svg","response":0,"trial_type":"image-button-response","trial_index":123,"time_elapsed":667878,"internal_node_id":"0.0-4.0-0.58","subject_id":"609ac40aa195e504d140fddd","study_id":"60edd13110225f80f9f3709b","session_id":"6196c70456194c9bf8c74a85","condition":"full-information","relevant_dimensions":["antennae","pattern"],"bee_group":{"antennae":"A","wings":"X","pattern":"D","legs":"X"},"action":"harvest","summary":"good-harvest","bonus":1.8400000000000012},{"rt":558.7999999523163,"stimulus":"\n                    <p><b>Action: <em>harvest</em></b></p>\n                    <p>This is the bee that you just saw.</p>\n                    <img src=\"bees-with-color/bee-B1DF.svg\" width=\"200\">\n                    <p><span class=\"greenText\"><b>Successful harvest!</b></span><br>Your pay has increased by $0.02. Your bonus pay is now $1.30.</p>\n            ","response":0,"trial_type":"html-button-response","trial_index":124,"time_elapsed":668438,"internal_node_id":"0.0-4.0-1.58","subject_id":"609ac40aa195e504d140fddd","study_id":"60edd13110225f80f9f3709b","session_id":"6196c70456194c9bf8c74a85","condition":"full-information","relevant_dimensions":["antennae","pattern"],"bee_group":{"antennae":"A","wings":"X","pattern":"D","legs":"X"},"bonus":1.8400000000000012},{"rt":805.7000000476837,"stimulus":"bees-with-color/bee-A1SF.svg","response":0,"trial_type":"image-button-response","trial_index":125,"time_elapsed":669245,"internal_node_id":"0.0-4.0-0.59","subject_id":"609ac40aa195e504d140fddd","study_id":"60edd13110225f80f9f3709b","session_id":"6196c70456194c9bf8c74a85","condition":"full-information","relevant_dimensions":["antennae","pattern"],"bee_group":{"antennae":"A","wings":"X","pattern":"D","legs":"X"},"action":"harvest","summary":"good-harvest","bonus":1.8400000000000012},{"rt":502.7000000476837,"stimulus":"\n                    <p><b>Action: <em>harvest</em></b></p>\n                    <p>This is the bee that you just saw.</p>\n                    <img src=\"bees-with-color/bee-A1SF.svg\" width=\"200\">\n                    <p><span class=\"greenText\"><b>Successful harvest!</b></span><br>Your pay has increased by $0.02. Your bonus pay is now $1.32.</p>\n            ","response":0,"trial_type":"html-button-response","trial_index":126,"time_elapsed":669749,"internal_node_id":"0.0-4.0-1.59","subject_id":"609ac40aa195e504d140fddd","study_id":"60edd13110225f80f9f3709b","session_id":"6196c70456194c9bf8c74a85","condition":"full-information","relevant_dimensions":["antennae","pattern"],"bee_group":{"antennae":"A","wings":"X","pattern":"D","legs":"X"},"bonus":1.8400000000000012},{"rt":958.7000000476837,"stimulus":"bees-with-color/bee-A1SM.svg","response":0,"trial_type":"image-button-response","trial_index":127,"time_elapsed":670709,"internal_node_id":"0.0-4.0-0.60","subject_id":"609ac40aa195e504d140fddd","study_id":"60edd13110225f80f9f3709b","session_id":"6196c70456194c9bf8c74a85","condition":"full-information","relevant_dimensions":["antennae","pattern"],"bee_group":{"antennae":"A","wings":"X","pattern":"D","legs":"X"},"action":"harvest","summary":"good-harvest","bonus":1.8400000000000012},{"rt":507.7000000476837,"stimulus":"\n                    <p><b>Action: <em>harvest</em></b></p>\n                    <p>This is the bee that you just saw.</p>\n                    <img src=\"bees-with-color/bee-A1SM.svg\" width=\"200\">\n                    <p><span class=\"greenText\"><b>Successful harvest!</b></span><br>Your pay has increased by $0.02. Your bonus pay is now $1.34.</p>\n            ","response":0,"trial_type":"html-button-response","trial_index":128,"time_elapsed":671218,"internal_node_id":"0.0-4.0-1.60","subject_id":"609ac40aa195e504d140fddd","study_id":"60edd13110225f80f9f3709b","session_id":"6196c70456194c9bf8c74a85","condition":"full-information","relevant_dimensions":["antennae","pattern"],"bee_group":{"antennae":"A","wings":"X","pattern":"D","legs":"X"},"bonus":1.8400000000000012},{"rt":864.8000000715256,"stimulus":"bees-with-color/bee-A1DM.svg","response":1,"trial_type":"image-button-response","trial_index":129,"time_elapsed":672084,"internal_node_id":"0.0-4.0-0.61","subject_id":"609ac40aa195e504d140fddd","study_id":"60edd13110225f80f9f3709b","session_id":"6196c70456194c9bf8c74a85","condition":"full-information","relevant_dimensions":["antennae","pattern"],"bee_group":{"antennae":"A","wings":"X","pattern":"D","legs":"X"},"action":"avoid","summary":"good-avoid","bonus":1.8400000000000012},{"rt":537.1000000238419,"stimulus":"\n                    <p><b>Action: <em>avoid</em></b></p>\n                    <p>This is the bee that you just saw.</p>\n                    <img src=\"bees-with-color/bee-A1DM.svg\" width=\"200\">\n                    <p><span class=\"greenText\">Good choice!</span>  This bee would have stung you.<br>Your bonus pay is unchanged, and remains at $1.34.</p>\n            ","response":0,"trial_type":"html-button-response","trial_index":130,"time_elapsed":672623,"internal_node_id":"0.0-4.0-1.61","subject_id":"609ac40aa195e504d140fddd","study_id":"60edd13110225f80f9f3709b","session_id":"6196c70456194c9bf8c74a85","condition":"full-information","relevant_dimensions":["antennae","pattern"],"bee_group":{"antennae":"A","wings":"X","pattern":"D","legs":"X"},"bonus":1.8400000000000012},{"rt":730.3000000715256,"stimulus":"bees-with-color/bee-B1DM.svg","response":0,"trial_type":"image-button-response","trial_index":131,"time_elapsed":673354,"internal_node_id":"0.0-4.0-0.62","subject_id":"609ac40aa195e504d140fddd","study_id":"60edd13110225f80f9f3709b","session_id":"6196c70456194c9bf8c74a85","condition":"full-information","relevant_dimensions":["antennae","pattern"],"bee_group":{"antennae":"A","wings":"X","pattern":"D","legs":"X"},"action":"harvest","summary":"good-harvest","bonus":1.8400000000000012},{"rt":473.8000000715256,"stimulus":"\n                    <p><b>Action: <em>harvest</em></b></p>\n                    <p>This is the bee that you just saw.</p>\n                    <img src=\"bees-with-color/bee-B1DM.svg\" width=\"200\">\n                    <p><span class=\"greenText\"><b>Successful harvest!</b></span><br>Your pay has increased by $0.02. Your bonus pay is now $1.36.</p>\n            ","response":0,"trial_type":"html-button-response","trial_index":132,"time_elapsed":673829,"internal_node_id":"0.0-4.0-1.62","subject_id":"609ac40aa195e504d140fddd","study_id":"60edd13110225f80f9f3709b","session_id":"6196c70456194c9bf8c74a85","condition":"full-information","relevant_dimensions":["antennae","pattern"],"bee_group":{"antennae":"A","wings":"X","pattern":"D","legs":"X"},"bonus":1.8400000000000012},{"rt":769.6000000238419,"stimulus":"bees-with-color/bee-A2DF.svg","response":1,"trial_type":"image-button-response","trial_index":133,"time_elapsed":674600,"internal_node_id":"0.0-4.0-0.63","subject_id":"609ac40aa195e504d140fddd","study_id":"60edd13110225f80f9f3709b","session_id":"6196c70456194c9bf8c74a85","condition":"full-information","relevant_dimensions":["antennae","pattern"],"bee_group":{"antennae":"A","wings":"X","pattern":"D","legs":"X"},"action":"avoid","summary":"good-avoid","bonus":1.8400000000000012},{"rt":600.3000000715256,"stimulus":"\n                    <p><b>Action: <em>avoid</em></b></p>\n                    <p>This is the bee that you just saw.</p>\n                    <img src=\"bees-with-color/bee-A2DF.svg\" width=\"200\">\n                    <p><span class=\"greenText\">Good choice!</span>  This bee would have stung you.<br>Your bonus pay is unchanged, and remains at $1.36.</p>\n            ","response":0,"trial_type":"html-button-response","trial_index":134,"time_elapsed":675202,"internal_node_id":"0.0-4.0-1.63","subject_id":"609ac40aa195e504d140fddd","study_id":"60edd13110225f80f9f3709b","session_id":"6196c70456194c9bf8c74a85","condition":"full-information","relevant_dimensions":["antennae","pattern"],"bee_group":{"antennae":"A","wings":"X","pattern":"D","legs":"X"},"bonus":1.8400000000000012},{"rt":3761.2999999523163,"stimulus":"You have completed the first part of this experiment.<br><br>You will now begin a shorter second part, in which you will receive no feedback.<br>The same rules regarding bonus pay apply.<br><br>Press any key to begin.","response":"enter","trial_type":"html-keyboard-response","trial_index":135,"time_elapsed":678965,"internal_node_id":"0.0-5.0","subject_id":"609ac40aa195e504d140fddd","study_id":"60edd13110225f80f9f3709b","session_id":"6196c70456194c9bf8c74a85","condition":"full-information","relevant_dimensions":["antennae","pattern"],"bee_group":{"antennae":"A","wings":"X","pattern":"D","legs":"X"},"bonus":1.8400000000000012},{"rt":4896.900000095367,"stimulus":"bees-with-color/bee-B1DM.svg","response":0,"trial_type":"image-button-response","trial_index":136,"time_elapsed":683872,"internal_node_id":"0.0-6.0-0.0","subject_id":"609ac40aa195e504d140fddd","study_id":"60edd13110225f80f9f3709b","session_id":"6196c70456194c9bf8c74a85","condition":"full-information","relevant_dimensions":["antennae","pattern"],"bee_group":{"antennae":"A","wings":"X","pattern":"D","legs":"X"},"bonus":1.8400000000000012},{"rt":2834.5,"stimulus":"bees-with-color/bee-A2SM.svg","response":0,"trial_type":"image-button-response","trial_index":137,"time_elapsed":686709,"internal_node_id":"0.0-6.0-0.1","subject_id":"609ac40aa195e504d140fddd","study_id":"60edd13110225f80f9f3709b","session_id":"6196c70456194c9bf8c74a85","condition":"full-information","relevant_dimensions":["antennae","pattern"],"bee_group":{"antennae":"A","wings":"X","pattern":"D","legs":"X"},"bonus":1.8400000000000012},{"rt":925,"stimulus":"bees-with-color/bee-A1DM.svg","response":1,"trial_type":"image-button-response","trial_index":138,"time_elapsed":687636,"internal_node_id":"0.0-6.0-0.2","subject_id":"609ac40aa195e504d140fddd","study_id":"60edd13110225f80f9f3709b","session_id":"6196c70456194c9bf8c74a85","condition":"full-information","relevant_dimensions":["antennae","pattern"],"bee_group":{"antennae":"A","wings":"X","pattern":"D","legs":"X"},"bonus":1.8400000000000012},{"rt":2950.2999999523163,"stimulus":"bees-with-color/bee-A1DF.svg","response":1,"trial_type":"image-button-response","trial_index":139,"time_elapsed":690588,"internal_node_id":"0.0-6.0-0.3","subject_id":"609ac40aa195e504d140fddd","study_id":"60edd13110225f80f9f3709b","session_id":"6196c70456194c9bf8c74a85","condition":"full-information","relevant_dimensions":["antennae","pattern"],"bee_group":{"antennae":"A","wings":"X","pattern":"D","legs":"X"},"bonus":1.8400000000000012},{"rt":1627.8999999761581,"stimulus":"bees-with-color/bee-B2SM.svg","response":0,"trial_type":"image-button-response","trial_index":140,"time_elapsed":692218,"internal_node_id":"0.0-6.0-0.4","subject_id":"609ac40aa195e504d140fddd","study_id":"60edd13110225f80f9f3709b","session_id":"6196c70456194c9bf8c74a85","condition":"full-information","relevant_dimensions":["antennae","pattern"],"bee_group":{"antennae":"A","wings":"X","pattern":"D","legs":"X"},"bonus":1.8400000000000012},{"rt":795.7999999523163,"stimulus":"bees-with-color/bee-B1SM.svg","response":0,"trial_type":"image-button-response","trial_index":141,"time_elapsed":693016,"internal_node_id":"0.0-6.0-0.5","subject_id":"609ac40aa195e504d140fddd","study_id":"60edd13110225f80f9f3709b","session_id":"6196c70456194c9bf8c74a85","condition":"full-information","relevant_dimensions":["antennae","pattern"],"bee_group":{"antennae":"A","wings":"X","pattern":"D","legs":"X"},"bonus":1.8400000000000012},{"rt":1633,"stimulus":"bees-with-color/bee-B2DM.svg","response":0,"trial_type":"image-button-response","trial_index":142,"time_elapsed":694651,"internal_node_id":"0.0-6.0-0.6","subject_id":"609ac40aa195e504d140fddd","study_id":"60edd13110225f80f9f3709b","session_id":"6196c70456194c9bf8c74a85","condition":"full-information","relevant_dimensions":["antennae","pattern"],"bee_group":{"antennae":"A","wings":"X","pattern":"D","legs":"X"},"bonus":1.8400000000000012},{"rt":1385.6000000238419,"stimulus":"bees-with-color/bee-A1SF.svg","response":0,"trial_type":"image-button-response","trial_index":143,"time_elapsed":696038,"internal_node_id":"0.0-6.0-0.7","subject_id":"609ac40aa195e504d140fddd","study_id":"60edd13110225f80f9f3709b","session_id":"6196c70456194c9bf8c74a85","condition":"full-information","relevant_dimensions":["antennae","pattern"],"bee_group":{"antennae":"A","wings":"X","pattern":"D","legs":"X"},"bonus":1.8400000000000012},{"rt":853,"stimulus":"bees-with-color/bee-B1DF.svg","response":0,"trial_type":"image-button-response","trial_index":144,"time_elapsed":696893,"internal_node_id":"0.0-6.0-0.8","subject_id":"609ac40aa195e504d140fddd","study_id":"60edd13110225f80f9f3709b","session_id":"6196c70456194c9bf8c74a85","condition":"full-information","relevant_dimensions":["antennae","pattern"],"bee_group":{"antennae":"A","wings":"X","pattern":"D","legs":"X"},"bonus":1.8400000000000012},{"rt":873.5999999046326,"stimulus":"bees-with-color/bee-B1SF.svg","response":0,"trial_type":"image-button-response","trial_index":145,"time_elapsed":697769,"internal_node_id":"0.0-6.0-0.9","subject_id":"609ac40aa195e504d140fddd","study_id":"60edd13110225f80f9f3709b","session_id":"6196c70456194c9bf8c74a85","condition":"full-information","relevant_dimensions":["antennae","pattern"],"bee_group":{"antennae":"A","wings":"X","pattern":"D","legs":"X"},"bonus":1.8400000000000012},{"rt":1167.3999999761581,"stimulus":"bees-with-color/bee-A2DM.svg","response":1,"trial_type":"image-button-response","trial_index":146,"time_elapsed":698938,"internal_node_id":"0.0-6.0-0.10","subject_id":"609ac40aa195e504d140fddd","study_id":"60edd13110225f80f9f3709b","session_id":"6196c70456194c9bf8c74a85","condition":"full-information","relevant_dimensions":["antennae","pattern"],"bee_group":{"antennae":"A","wings":"X","pattern":"D","legs":"X"},"bonus":1.8400000000000012},{"rt":703.3000000715256,"stimulus":"bees-with-color/bee-A2DF.svg","response":1,"trial_type":"image-button-response","trial_index":147,"time_elapsed":699643,"internal_node_id":"0.0-6.0-0.11","subject_id":"609ac40aa195e504d140fddd","study_id":"60edd13110225f80f9f3709b","session_id":"6196c70456194c9bf8c74a85","condition":"full-information","relevant_dimensions":["antennae","pattern"],"bee_group":{"antennae":"A","wings":"X","pattern":"D","legs":"X"},"bonus":1.8400000000000012},{"rt":917.3999999761581,"stimulus":"bees-with-color/bee-A1SM.svg","response":0,"trial_type":"image-button-response","trial_index":148,"time_elapsed":700562,"internal_node_id":"0.0-6.0-0.12","subject_id":"609ac40aa195e504d140fddd","study_id":"60edd13110225f80f9f3709b","session_id":"6196c70456194c9bf8c74a85","condition":"full-information","relevant_dimensions":["antennae","pattern"],"bee_group":{"antennae":"A","wings":"X","pattern":"D","legs":"X"},"bonus":1.8400000000000012},{"rt":789.6000000238419,"stimulus":"bees-with-color/bee-A2SF.svg","response":0,"trial_type":"image-button-response","trial_index":149,"time_elapsed":701353,"internal_node_id":"0.0-6.0-0.13","subject_id":"609ac40aa195e504d140fddd","study_id":"60edd13110225f80f9f3709b","session_id":"6196c70456194c9bf8c74a85","condition":"full-information","relevant_dimensions":["antennae","pattern"],"bee_group":{"antennae":"A","wings":"X","pattern":"D","legs":"X"},"bonus":1.8400000000000012},{"rt":1674.6000000238419,"stimulus":"bees-with-color/bee-B2DF.svg","response":0,"trial_type":"image-button-response","trial_index":150,"time_elapsed":703029,"internal_node_id":"0.0-6.0-0.14","subject_id":"609ac40aa195e504d140fddd","study_id":"60edd13110225f80f9f3709b","session_id":"6196c70456194c9bf8c74a85","condition":"full-information","relevant_dimensions":["antennae","pattern"],"bee_group":{"antennae":"A","wings":"X","pattern":"D","legs":"X"},"bonus":1.8400000000000012},{"rt":616.3999999761581,"stimulus":"bees-with-color/bee-B2SF.svg","response":0,"trial_type":"image-button-response","trial_index":151,"time_elapsed":703647,"internal_node_id":"0.0-6.0-0.15","subject_id":"609ac40aa195e504d140fddd","study_id":"60edd13110225f80f9f3709b","session_id":"6196c70456194c9bf8c74a85","condition":"full-information","relevant_dimensions":["antennae","pattern"],"bee_group":{"antennae":"A","wings":"X","pattern":"D","legs":"X"},"bonus":1.8400000000000012},{"rt":2558.7000000476837,"stimulus":"bees-with-color/bee-B1DM.svg","response":0,"trial_type":"image-button-response","trial_index":152,"time_elapsed":706208,"internal_node_id":"0.0-6.0-0.16","subject_id":"609ac40aa195e504d140fddd","study_id":"60edd13110225f80f9f3709b","session_id":"6196c70456194c9bf8c74a85","condition":"full-information","relevant_dimensions":["antennae","pattern"],"bee_group":{"antennae":"A","wings":"X","pattern":"D","legs":"X"},"bonus":1.8400000000000012},{"rt":632.2000000476837,"stimulus":"bees-with-color/bee-B2DF.svg","response":0,"trial_type":"image-button-response","trial_index":153,"time_elapsed":706842,"internal_node_id":"0.0-6.0-0.17","subject_id":"609ac40aa195e504d140fddd","study_id":"60edd13110225f80f9f3709b","session_id":"6196c70456194c9bf8c74a85","condition":"full-information","relevant_dimensions":["antennae","pattern"],"bee_group":{"antennae":"A","wings":"X","pattern":"D","legs":"X"},"bonus":1.8400000000000012},{"rt":630.5999999046326,"stimulus":"bees-with-color/bee-B1SF.svg","response":0,"trial_type":"image-button-response","trial_index":154,"time_elapsed":707474,"internal_node_id":"0.0-6.0-0.18","subject_id":"609ac40aa195e504d140fddd","study_id":"60edd13110225f80f9f3709b","session_id":"6196c70456194c9bf8c74a85","condition":"full-information","relevant_dimensions":["antennae","pattern"],"bee_group":{"antennae":"A","wings":"X","pattern":"D","legs":"X"},"bonus":1.8400000000000012},{"rt":811.5999999046326,"stimulus":"bees-with-color/bee-B2SM.svg","response":0,"trial_type":"image-button-response","trial_index":155,"time_elapsed":708286,"internal_node_id":"0.0-6.0-0.19","subject_id":"609ac40aa195e504d140fddd","study_id":"60edd13110225f80f9f3709b","session_id":"6196c70456194c9bf8c74a85","condition":"full-information","relevant_dimensions":["antennae","pattern"],"bee_group":{"antennae":"A","wings":"X","pattern":"D","legs":"X"},"bonus":1.8400000000000012},{"rt":1110,"stimulus":"bees-with-color/bee-A1SF.svg","response":0,"trial_type":"image-button-response","trial_index":156,"time_elapsed":709398,"internal_node_id":"0.0-6.0-0.20","subject_id":"609ac40aa195e504d140fddd","study_id":"60edd13110225f80f9f3709b","session_id":"6196c70456194c9bf8c74a85","condition":"full-information","relevant_dimensions":["antennae","pa