[{"success":true,"trial_type":"fullscreen","trial_index":0,"time_elapsed":10364,"internal_node_id":"0.0-0.0","subject_id":"6103a3ece71ab061d5624402","study_id":"6197b3f67c2b5cd3b6d9596a","session_id":"6197b9e542b83100fd9d049b","condition":"full-information","relevant_dimensions":["antennae","legs"],"bee_group":{"antennae":"B","wings":"X","pattern":"X","legs":"M"},"bonus":0.8400000000000014},{"success":true,"timeout":false,"failed_images":[],"failed_audio":[],"failed_video":[],"trial_type":"preload","trial_index":1,"time_elapsed":12959,"internal_node_id":"0.0-1.0","subject_id":"6103a3ece71ab061d5624402","study_id":"6197b3f67c2b5cd3b6d9596a","session_id":"6197b9e542b83100fd9d049b","condition":"full-information","relevant_dimensions":["antennae","legs"],"bee_group":{"antennae":"B","wings":"X","pattern":"X","legs":"M"},"bonus":0.8400000000000014},{"rt":2132.5,"stimulus":"Welcome! Press any key to begin.","response":" ","trial_type":"html-keyboard-response","trial_index":2,"time_elapsed":15094,"internal_node_id":"0.0-2.0","subject_id":"6103a3ece71ab061d5624402","study_id":"6197b3f67c2b5cd3b6d9596a","session_id":"6197b9e542b83100fd9d049b","condition":"full-information","relevant_dimensions":["antennae","legs"],"bee_group":{"antennae":"B","wings":"X","pattern":"X","legs":"M"},"bonus":0.8400000000000014},{"view_history":[{"page_index":0,"viewing_time":7096.9000000059605},{"page_index":1,"viewing_time":18609.79999998212},{"page_index":2,"viewing_time":15823.100000023842},{"page_index":3,"viewing_time":20345.79999998212},{"page_index":4,"viewing_time":8059.5999999940395},{"page_index":5,"viewing_time":11983.300000011921},{"page_index":6,"viewing_time":15159.5},{"page_index":7,"viewing_time":8884.09999999404},{"page_index":8,"viewing_time":7859.5999999940395},{"page_index":9,"viewing_time":5294.800000011921},{"page_index":10,"viewing_time":5959.300000011921},{"page_index":11,"viewing_time":14966.899999976158},{"page_index":12,"viewing_time":20646},{"page_index":13,"viewing_time":1466.800000011921},{"page_index":14,"viewing_time":2759.4000000059605}],"rt":164915.19999998808,"trial_type":"instructions","trial_index":3,"time_elapsed":180011,"internal_node_id":"0.0-3.0-0.0","subject_id":"6103a3ece71ab061d5624402","study_id":"6197b3f67c2b5cd3b6d9596a","session_id":"6197b9e542b83100fd9d049b","condition":"full-information","relevant_dimensions":["antennae","legs"],"bee_group":{"antennae":"B","wings":"X","pattern":"X","legs":"M"},"bonus":0.8400000000000014},{"rt":51697,"response":{"Q0":["Two or six legs","Stripes or spots on body","Single or double wings","Antennae or no antennae"]},"question_order":[0],"trial_type":"survey-multi-select","trial_index":4,"time_elapsed":231714,"internal_node_id":"0.0-3.0-1.0","subject_id":"6103a3ece71ab061d5624402","study_id":"6197b3f67c2b5cd3b6d9596a","session_id":"6197b9e542b83100fd9d049b","condition":"full-information","relevant_dimensions":["antennae","legs"],"bee_group":{"antennae":"B","wings":"X","pattern":"X","legs":"M"},"correct":true,"bonus":0.8400000000000014},{"rt":120679.59999999404,"response":{"Q1":"No.","Q2":"Based on the four features of the bee.","Q3":"You learn if it was friendly or dangerous and alter your bonus."},"question_order":[0,1,2],"trial_type":"survey-multi-choice","trial_index":5,"time_elapsed":352402,"internal_node_id":"0.0-3.0-2.0","subject_id":"6103a3ece71ab061d5624402","study_id":"6197b3f67c2b5cd3b6d9596a","session_id":"6197b9e542b83100fd9d049b","condition":"full-information","relevant_dimensions":["antennae","legs"],"bee_group":{"antennae":"B","wings":"X","pattern":"X","legs":"M"},"correct":false,"bonus":0.8400000000000014},{"rt":4001.5,"stimulus":"<p>You did not answer all comprehension questions correctly.<br>Press <b>continue</b> to review the instructions again.</p>","response":0,"trial_type":"html-button-response","trial_index":6,"time_elapsed":356412,"internal_node_id":"0.0-3.0-3.0","subject_id":"6103a3ece71ab061d5624402","study_id":"6197b3f67c2b5cd3b6d9596a","session_id":"6197b9e542b83100fd9d049b","condition":"full-information","relevant_dimensions":["antennae","legs"],"bee_group":{"antennae":"B","wings":"X","pattern":"X","legs":"M"},"bonus":0.8400000000000014},{"view_history":[{"page_index":0,"viewing_time":12809.59999999404},{"page_index":1,"viewing_time":26954.30000001192},{"page_index":2,"viewing_time":15018.09999999404},{"page_index":3,"viewing_time":11978.40000000596},{"page_index":4,"viewing_time":10589.199999988079},{"page_index":5,"viewing_time":2080.300000011921},{"page_index":6,"viewing_time":4809.799999982119},{"page_index":7,"viewing_time":2594},{"page_index":8,"viewing_time":648.5999999940395},{"page_index":9,"viewing_time":495.90000000596046},{"page_index":10,"viewing_time":664.8000000119209},{"page_index":11,"viewing_time":3068.699999988079},{"page_index":12,"viewing_time":1233.0999999940395},{"page_index":13,"viewing_time":1367.9000000059605},{"page_index":14,"viewing_time":1493.2000000178814}],"rt":95806.19999998808,"trial_type":"instructions","trial_index":7,"time_elapsed":452220,"internal_node_id":"0.0-3.0-4.0-0.0","subject_id":"6103a3ece71ab061d5624402","study_id":"6197b3f67c2b5cd3b6d9596a","session_id":"6197b9e542b83100fd9d049b","condition":"full-information","relevant_dimensions":["antennae","legs"],"bee_group":{"antennae":"B","wings":"X","pattern":"X","legs":"M"},"bonus":0.8400000000000014},{"rt":31973,"response":{"Q0":["Two or six legs","Stripes or spots on body","Single or double wings","Antennae or no antennae"]},"question_order":[0],"trial_type":"survey-multi-select","trial_index":8,"time_elapsed":484195,"internal_node_id":"0.0-3.0-4.0-1.0","subject_id":"6103a3ece71ab061d5624402","study_id":"6197b3f67c2b5cd3b6d9596a","session_id":"6197b9e542b83100fd9d049b","condition":"full-information","relevant_dimensions":["antennae","legs"],"bee_group":{"antennae":"B","wings":"X","pattern":"X","legs":"M"},"correct":true,"bonus":0.8400000000000014},{"rt":16419.59999999404,"response":{"Q1":"No.","Q2":"Based on the four features of the bee.","Q3":"You learn if it was friendly or dangerous, but do not alter your bonus."},"question_order":[0,1,2],"trial_type":"survey-multi-choice","trial_index":9,"time_elapsed":500623,"internal_node_id":"0.0-3.0-4.0-2.0","subject_id":"6103a3ece71ab061d5624402","study_id":"6197b3f67c2b5cd3b6d9596a","session_id":"6197b9e542b83100fd9d049b","condition":"full-information","relevant_dimensions":["antennae","legs"],"bee_group":{"antennae":"B","wings":"X","pattern":"X","legs":"M"},"correct":true,"bonus":0.8400000000000014},{"rt":1529.699999988079,"stimulus":"<p>Congrats, you got everything right<br>When you're ready, click the button below to continue to the experiment.</p>","response":0,"trial_type":"html-button-response","trial_index":10,"time_elapsed":502160,"internal_node_id":"0.0-3.0-4.0-3.0","subject_id":"6103a3ece71ab061d5624402","study_id":"6197b3f67c2b5cd3b6d9596a","session_id":"6197b9e542b83100fd9d049b","condition":"full-information","relevant_dimensions":["antennae","legs"],"bee_group":{"antennae":"B","wings":"X","pattern":"X","legs":"M"},"bonus":0.8400000000000014},{"rt":35105.90000000596,"stimulus":"bees-with-color/bee-B2SM.svg","response":0,"trial_type":"image-button-response","trial_index":11,"time_elapsed":537270,"internal_node_id":"0.0-4.0-0.0","subject_id":"6103a3ece71ab061d5624402","study_id":"6197b3f67c2b5cd3b6d9596a","session_id":"6197b9e542b83100fd9d049b","condition":"full-information","relevant_dimensions":["antennae","legs"],"bee_group":{"antennae":"B","wings":"X","pattern":"X","legs":"M"},"action":"harvest","summary":"bad-harvest","bonus":0.8400000000000014},{"rt":10865.899999976158,"stimulus":"\n                    <p><b>Action: <em>harvest</em></b></p>\n                    <p>This is the bee that you just saw.</p>\n                    <img src=\"bees-with-color/bee-B2SM.svg\" width=\"200\">\n                    <p><span class=\"redText\">Bad choice, the bee was angry.</span><br><b>You have been stung!</b><br>Your pay has been decreased by $0.10. Your bonus pay is now $0.44.</p>\n            ","response":0,"trial_type":"html-button-response","trial_index":12,"time_elapsed":548139,"internal_node_id":"0.0-4.0-1.0","subject_id":"6103a3ece71ab061d5624402","study_id":"6197b3f67c2b5cd3b6d9596a","session_id":"6197b9e542b83100fd9d049b","condition":"full-information","relevant_dimensions":["antennae","legs"],"bee_group":{"antennae":"B","wings":"X","pattern":"X","legs":"M"},"bonus":0.8400000000000014},{"rt":16261,"stimulus":"bees-with-color/bee-A2DM.svg","response":0,"trial_type":"image-button-response","trial_index":13,"time_elapsed":564403,"internal_node_id":"0.0-4.0-0.1","subject_id":"6103a3ece71ab061d5624402","study_id":"6197b3f67c2b5cd3b6d9596a","session_id":"6197b9e542b83100fd9d049b","condition":"full-information","relevant_dimensions":["antennae","legs"],"bee_group":{"antennae":"B","wings":"X","pattern":"X","legs":"M"},"action":"harvest","summary":"good-harvest","bonus":0.8400000000000014},{"rt":7686.100000023842,"stimulus":"\n                    <p><b>Action: <em>harvest</em></b></p>\n                    <p>This is the bee that you just saw.</p>\n                    <img src=\"bees-with-color/bee-A2DM.svg\" width=\"200\">\n                    <p><span class=\"greenText\"><b>Successful harvest!</b></span><br>Your pay has increased by $0.02. Your bonus pay is now $0.46.</p>\n            ","response":0,"trial_type":"html-button-response","trial_index":14,"time_elapsed":572090,"internal_node_id":"0.0-4.0-1.1","subject_id":"6103a3ece71ab061d5624402","study_id":"6197b3f67c2b5cd3b6d9596a","session_id":"6197b9e542b83100fd9d049b","condition":"full-information","relevant_dimensions":["antennae","legs"],"bee_group":{"antennae":"B","wings":"X","pattern":"X","legs":"M"},"bonus":0.8400000000000014},{"rt":27660.5,"stimulus":"bees-with-color/bee-A2SM.svg","response":0,"trial_type":"image-button-response","trial_index":15,"time_elapsed":599753,"internal_node_id":"0.0-4.0-0.2","subject_id":"6103a3ece71ab061d5624402","study_id":"6197b3f67c2b5cd3b6d9596a","session_id":"6197b9e542b83100fd9d049b","condition":"full-information","relevant_dimensions":["antennae","legs"],"bee_group":{"antennae":"B","wings":"X","pattern":"X","legs":"M"},"action":"harvest","summary":"good-harvest","bonus":0.8400000000000014},{"rt":5428.0999999940395,"stimulus":"\n                    <p><b>Action: <em>harvest</em></b></p>\n                    <p>This is the bee that you just saw.</p>\n                    <img src=\"bees-with-color/bee-A2SM.svg\" width=\"200\">\n                    <p><span class=\"greenText\"><b>Successful harvest!</b></span><br>Your pay has increased by $0.02. Your bonus pay is now $0.48.</p>\n            ","response":0,"trial_type":"html-button-response","trial_index":16,"time_elapsed":605183,"internal_node_id":"0.0-4.0-1.2","subject_id":"6103a3ece71ab061d5624402","study_id":"6197b3f67c2b5cd3b6d9596a","session_id":"6197b9e542b83100fd9d049b","condition":"full-information","relevant_dimensions":["antennae","legs"],"bee_group":{"antennae":"B","wings":"X","pattern":"X","legs":"M"},"bonus":0.8400000000000014},{"rt":17680.90000000596,"stimulus":"bees-with-color/bee-B1DF.svg","response":0,"trial_type":"image-button-response","trial_index":17,"time_elapsed":622867,"internal_node_id":"0.0-4.0-0.3","subject_id":"6103a3ece71ab061d5624402","study_id":"6197b3f67c2b5cd3b6d9596a","session_id":"6197b9e542b83100fd9d049b","condition":"full-information","relevant_dimensions":["antennae","legs"],"bee_group":{"antennae":"B","wings":"X","pattern":"X","legs":"M"},"action":"harvest","summary":"good-harvest","bonus":0.8400000000000014},{"rt":5066.9000000059605,"stimulus":"\n                    <p><b>Action: <em>harvest</em></b></p>\n                    <p>This is the bee that you just saw.</p>\n                    <img src=\"bees-with-color/bee-B1DF.svg\" width=\"200\">\n                    <p><span class=\"greenText\"><b>Successful harvest!</b></span><br>Your pay has increased by $0.02. Your bonus pay is now $0.50.</p>\n            ","response":0,"trial_type":"html-button-response","trial_index":18,"time_elapsed":627935,"internal_node_id":"0.0-4.0-1.3","subject_id":"6103a3ece71ab061d5624402","study_id":"6197b3f67c2b5cd3b6d9596a","session_id":"6197b9e542b83100fd9d049b","condition":"full-information","relevant_dimensions":["antennae","legs"],"bee_group":{"antennae":"B","wings":"X","pattern":"X","legs":"M"},"bonus":0.8400000000000014},{"rt":14521,"stimulus":"bees-with-color/bee-A2DF.svg","response":0,"trial_type":"image-button-response","trial_index":19,"time_elapsed":642458,"internal_node_id":"0.0-4.0-0.4","subject_id":"6103a3ece71ab061d5624402","study_id":"6197b3f67c2b5cd3b6d9596a","session_id":"6197b9e542b83100fd9d049b","condition":"full-information","relevant_dimensions":["antennae","legs"],"bee_group":{"antennae":"B","wings":"X","pattern":"X","legs":"M"},"action":"harvest","summary":"good-harvest","bonus":0.8400000000000014},{"rt":4780.299999982119,"stimulus":"\n                    <p><b>Action: <em>harvest</em></b></p>\n                    <p>This is the bee that you just saw.</p>\n                    <img src=\"bees-with-color/bee-A2DF.svg\" width=\"200\">\n                    <p><span class=\"greenText\"><b>Successful harvest!</b></span><br>Your pay has increased by $0.02. Your bonus pay is now $0.52.</p>\n            ","response":0,"trial_type":"html-button-response","trial_index":20,"time_elapsed":647240,"internal_node_id":"0.0-4.0-1.4","subject_id":"6103a3ece71ab061d5624402","study_id":"6197b3f67c2b5cd3b6d9596a","session_id":"6197b9e542b83100fd9d049b","condition":"full-information","relevant_dimensions":["antennae","legs"],"bee_group":{"antennae":"B","wings":"X","pattern":"X","legs":"M"},"bonus":0.8400000000000014},{"rt":26195,"stimulus":"bees-with-color/bee-A1DF.svg","response":0,"trial_type":"image-button-response","trial_index":21,"time_elapsed":673438,"internal_node_id":"0.0-4.0-0.5","subject_id":"6103a3ece71ab061d5624402","study_id":"6197b3f67c2b5cd3b6d9596a","session_id":"6197b9e542b83100fd9d049b","condition":"full-information","relevant_dimensions":["antennae","legs"],"bee_group":{"antennae":"B","wings":"X","pattern":"X","legs":"M"},"action":"harvest","summary":"good-harvest","bonus":0.8400000000000014},{"rt":3768,"stimulus":"\n                    <p><b>Action: <em>harvest</em></b></p>\n                    <p>This is the bee that you just saw.</p>\n                    <img src=\"bees-with-color/bee-A1DF.svg\" width=\"200\">\n                    <p><span class=\"greenText\"><b>Successful harvest!</b></span><br>Your pay has increased by $0.02. Your bonus pay is now $0.54.</p>\n            ","response":0,"trial_type":"html-button-response","trial_index":22,"time_elapsed":677207,"internal_node_id":"0.0-4.0-1.5","subject_id":"6103a3ece71ab061d5624402","study_id":"6197b3f67c2b5cd3b6d9596a","session_id":"6197b9e542b83100fd9d049b","condition":"full-information","relevant_dimensions":["antennae","legs"],"bee_group":{"antennae":"B","wings":"X","pattern":"X","legs":"M"},"bonus":0.8400000000000014},{"rt":12407.59999999404,"stimulus":"bees-with-color/bee-A1SM.svg","response":0,"trial_type":"image-button-response","trial_index":23,"time_elapsed":689617,"internal_node_id":"0.0-4.0-0.6","subject_id":"6103a3ece71ab061d5624402","study_id":"6197b3f67c2b5cd3b6d9596a","session_id":"6197b9e542b83100fd9d049b","condition":"full-information","relevant_dimensions":["antennae","legs"],"bee_group":{"antennae":"B","wings":"X","pattern":"X","legs":"M"},"action":"harvest","summary":"good-harvest","bonus":0.8400000000000014},{"rt":1079.800000011921,"stimulus":"\n                    <p><b>Action: <em>harvest</em></b></p>\n                    <p>This is the bee that you just saw.</p>\n                    <img src=\"bees-with-color/bee-A1SM.svg\" width=\"200\">\n                    <p><span class=\"greenText\"><b>Successful harvest!</b></span><br>Your pay has increased by $0.02. Your bonus pay is now $0.56.</p>\n            ","response":0,"trial_type":"html-button-response","trial_index":24,"time_elapsed":690698,"internal_node_id":"0.0-4.0-1.6","subject_id":"6103a3ece71ab061d5624402","study_id":"6197b3f67c2b5cd3b6d9596a","session_id":"6197b9e542b83100fd9d049b","condition":"full-information","relevant_dimensions":["antennae","legs"],"bee_group":{"antennae":"B","wings":"X","pattern":"X","legs":"M"},"bonus":0.8400000000000014},{"rt":26511.19999998808,"stimulus":"bees-with-color/bee-B2DM.svg","response":0,"trial_type":"image-button-response","trial_index":25,"time_elapsed":717211,"internal_node_id":"0.0-4.0-0.7","subject_id":"6103a3ece71ab061d5624402","study_id":"6197b3f67c2b5cd3b6d9596a","session_id":"6197b9e542b83100fd9d049b","condition":"full-information","relevant_dimensions":["antennae","legs"],"bee_group":{"antennae":"B","wings":"X","pattern":"X","legs":"M"},"action":"harvest","summary":"bad-harvest","bonus":0.8400000000000014},{"rt":4228,"stimulus":"\n                    <p><b>Action: <em>harvest</em></b></p>\n                    <p>This is the bee that you just saw.</p>\n                    <img src=\"bees-with-color/bee-B2DM.svg\" width=\"200\">\n                    <p><span class=\"redText\">Bad choice, the bee was angry.</span><br><b>You have been stung!</b><br>Your pay has been decreased by $0.10. Your bonus pay is now $0.46.</p>\n            ","response":0,"trial_type":"html-button-response","trial_index":26,"time_elapsed":721441,"internal_node_id":"0.0-4.0-1.7","subject_id":"6103a3ece71ab061d5624402","study_id":"6197b3f67c2b5cd3b6d9596a","session_id":"6197b9e542b83100fd9d049b","condition":"full-information","relevant_dimensions":["antennae","legs"],"bee_group":{"antennae":"B","wings":"X","pattern":"X","legs":"M"},"bonus":0.8400000000000014},{"rt":40845.80000001192,"stimulus":"bees-with-color/bee-B1SM.svg","response":0,"trial_type":"image-button-response","trial_index":27,"time_elapsed":762290,"internal_node_id":"0.0-4.0-0.8","subject_id":"6103a3ece71ab061d5624402","study_id":"6197b3f67c2b5cd3b6d9596a","session_id":"6197b9e542b83100fd9d049b","condition":"full-information","relevant_dimensions":["antennae","legs"],"bee_group":{"antennae":"B","wings":"X","pattern":"X","legs":"M"},"action":"harvest","summary":"bad-harvest","bonus":0.8400000000000014},{"rt":4028,"stimulus":"\n                    <p><b>Action: <em>harvest</em></b></p>\n                    <p>This is the bee that you just saw.</p>\n                    <img src=\"bees-with-color/bee-B1SM.svg\" width=\"200\">\n                    <p><span class=\"redText\">Bad choice, the bee was angry.</span><br><b>You have been stung!</b><br>Your pay has been decreased by $0.10. Your bonus pay is now $0.36.</p>\n            ","response":0,"trial_type":"html-button-response","trial_index":28,"time_elapsed":766320,"internal_node_id":"0.0-4.0-1.8","subject_id":"6103a3ece71ab061d5624402","study_id":"6197b3f67c2b5cd3b6d9596a","session_id":"6197b9e542b83100fd9d049b","condition":"full-information","relevant_dimensions":["antennae","legs"],"bee_group":{"antennae":"B","wings":"X","pattern":"X","legs":"M"},"bonus":0.8400000000000014},{"rt":33505.5,"stimulus":"bees-with-color/bee-A1SF.svg","response":0,"trial_type":"image-button-response","trial_index":29,"time_elapsed":799828,"internal_node_id":"0.0-4.0-0.9","subject_id":"6103a3ece71ab061d5624402","study_id":"6197b3f67c2b5cd3b6d9596a","session_id":"6197b9e542b83100fd9d049b","condition":"full-information","relevant_dimensions":["antennae","legs"],"bee_group":{"antennae":"B","wings":"X","pattern":"X","legs":"M"},"action":"harvest","summary":"good-harvest","bonus":0.8400000000000014},{"rt":4709.600000023842,"stimulus":"\n                    <p><b>Action: <em>harvest</em></b></p>\n                    <p>This is the bee that you just saw.</p>\n                    <img src=\"bees-with-color/bee-A1SF.svg\" width=\"200\">\n                    <p><span class=\"greenText\"><b>Successful harvest!</b></span><br>Your pay has increased by $0.02. Your bonus pay is now $0.38.</p>\n            ","response":0,"trial_type":"html-button-response","trial_index":30,"time_elapsed":804539,"internal_node_id":"0.0-4.0-1.9","subject_id":"6103a3ece71ab061d5624402","study_id":"6197b3f67c2b5cd3b6d9596a","session_id":"6197b9e542b83100fd9d049b","condition":"full-information","relevant_dimensions":["antennae","legs"],"bee_group":{"antennae":"B","wings":"X","pattern":"X","legs":"M"},"bonus":0.8400000000000014},{"rt":38069,"stimulus":"bees-with-color/bee-A2SF.svg","response":0,"trial_type":"image-button-response","trial_index":31,"time_elapsed":842611,"internal_node_id":"0.0-4.0-0.10","subject_id":"6103a3ece71ab061d5624402","study_id":"6197b3f67c2b5cd3b6d9596a","session_id":"6197b9e542b83100fd9d049b","condition":"full-information","relevant_dimensions":["antennae","legs"],"bee_group":{"antennae":"B","wings":"X","pattern":"X","legs":"M"},"action":"harvest","summary":"good-harvest","bonus":0.8400000000000014},{"rt":7321.199999988079,"stimulus":"\n                    <p><b>Action: <em>harvest</em></b></p>\n                    <p>This is the bee that you just saw.</p>\n                    <img src=\"bees-with-color/bee-A2SF.svg\" width=\"200\">\n                    <p><span class=\"greenText\"><b>Successful harvest!</b></span><br>Your pay has increased by $0.02. Your bonus pay is now $0.40.</p>\n            ","response":0,"trial_type":"html-button-response","trial_index":32,"time_elapsed":849934,"internal_node_id":"0.0-4.0-1.10","subject_id":"6103a3ece71ab061d5624402","study_id":"6197b3f67c2b5cd3b6d9596a","session_id":"6197b9e542b83100fd9d049b","condition":"full-information","relevant_dimensions":["antennae","legs"],"bee_group":{"antennae":"B","wings":"X","pattern":"X","legs":"M"},"bonus":0.8400000000000014},{"rt":35103.5,"stimulus":"bees-with-color/bee-B1SF.svg","response":1,"trial_type":"image-button-response","trial_index":33,"time_elapsed":885040,"internal_node_id":"0.0-4.0-0.11","subject_id":"6103a3ece71ab061d5624402","study_id":"6197b3f67c2b5cd3b6d9596a","session_id":"6197b9e542b83100fd9d049b","condition":"full-information","relevant_dimensions":["antennae","legs"],"bee_group":{"antennae":"B","wings":"X","pattern":"X","legs":"M"},"action":"avoid","summary":"bad-avoid","bonus":0.8400000000000014},{"rt":6717.4000000059605,"stimulus":"\n                    <p><b>Action: <em>avoid</em></b></p>\n                    <p>This is the bee that you just saw.</p>\n                    <img src=\"bees-with-color/bee-B1SF.svg\" width=\"200\">\n                    <p><span class=\"redText\">Bad choice,</span> the bee was friendly.<br>Your bonus pay is unchanged, and remains at $0.40.</p>\n            ","response":0,"trial_type":"html-button-response","trial_index":34,"time_elapsed":891759,"internal_node_id":"0.0-4.0-1.11","subject_id":"6103a3ece71ab061d5624402","study_id":"6197b3f67c2b5cd3b6d9596a","session_id":"6197b9e542b83100fd9d049b","condition":"full-information","relevant_dimensions":["antennae","legs"],"bee_group":{"antennae":"B","wings":"X","pattern":"X","legs":"M"},"bonus":0.8400000000000014},{"rt":35304.09999999404,"stimulus":"bees-with-color/bee-B2DF.svg","response":0,"trial_type":"image-button-response","trial_index":35,"time_elapsed":927064,"internal_node_id":"0.0-4.0-0.12","subject_id":"6103a3ece71ab061d5624402","study_id":"6197b3f67c2b5cd3b6d9596a","session_id":"6197b9e542b83100fd9d049b","condition":"full-information","relevant_dimensions":["antennae","legs"],"bee_group":{"antennae":"B","wings":"X","pattern":"X","legs":"M"},"action":"harvest","summary":"good-harvest","bonus":0.8400000000000014},{"rt":3924.0999999940395,"stimulus":"\n                    <p><b>Action: <em>harvest</em></b></p>\n                    <p>This is the bee that you just saw.</p>\n                    <img src=\"bees-with-color/bee-B2DF.svg\" width=\"200\">\n                    <p><span class=\"greenText\"><b>Successful harvest!</b></span><br>Your pay has increased by $0.02. Your bonus pay is now $0.42.</p>\n            ","response":0,"trial_type":"html-button-response","trial_index":36,"time_elapsed":930990,"internal_node_id":"0.0-4.0-1.12","subject_id":"6103a3ece71ab061d5624402","study_id":"6197b3f67c2b5cd3b6d9596a","session_id":"6197b9e542b83100fd9d049b","condition":"full-information","relevant_dimensions":["antennae","legs"],"bee_group":{"antennae":"B","wings":"X","pattern":"X","legs":"M"},"bonus":0.8400000000000014},{"rt":29088.19999998808,"stimulus":"bees-with-color/bee-B1DM.svg","response":0,"trial_type":"image-button-response","trial_index":37,"time_elapsed":960080,"internal_node_id":"0.0-4.0-0.13","subject_id":"6103a3ece71ab061d5624402","study_id":"6197b3f67c2b5cd3b6d9596a","session_id":"6197b9e542b83100fd9d049b","condition":"full-information","relevant_dimensions":["antennae","legs"],"bee_group":{"antennae":"B","wings":"X","pattern":"X","legs":"M"},"action":"harvest","summary":"bad-harvest","bonus":0.8400000000000014},{"rt":3738.4000000059605,"stimulus":"\n                    <p><b>Action: <em>harvest</em></b></p>\n                    <p>This is the bee that you just saw.</p>\n                    <img src=\"bees-with-color/bee-B1DM.svg\" width=\"200\">\n                    <p><span class=\"redText\">Bad choice, the bee was angry.</span><br><b>You have been stung!</b><br>Your pay has been decreased by $0.10. Your bonus pay is now $0.32.</p>\n            ","response":0,"trial_type":"html-button-response","trial_index":38,"time_elapsed":963820,"internal_node_id":"0.0-4.0-1.13","subject_id":"6103a3ece71ab061d5624402","study_id":"6197b3f67c2b5cd3b6d9596a","session_id":"6197b9e542b83100fd9d049b","condition":"full-information","relevant_dimensions":["antennae","legs"],"bee_group":{"antennae":"B","wings":"X","pattern":"X","legs":"M"},"bonus":0.8400000000000014},{"rt":8751.800000011921,"stimulus":"bees-with-color/bee-A1DM.svg","response":0,"trial_type":"image-button-response","trial_index":39,"time_elapsed":972574,"internal_node_id":"0.0-4.0-0.14","subject_id":"6103a3ece71ab061d5624402","study_id":"6197b3f67c2b5cd3b6d9596a","session_id":"6197b9e542b83100fd9d049b","condition":"full-information","relevant_dimensions":["antennae","legs"],"bee_group":{"antennae":"B","wings":"X","pattern":"X","legs":"M"},"action":"harvest","summary":"good-harvest","bonus":0.8400000000000014},{"rt":1471,"stimulus":"\n                    <p><b>Action: <em>harvest</em></b></p>\n                    <p>This is the bee that you just saw.</p>\n                    <img src=\"bees-with-color/bee-A1DM.svg\" width=\"200\">\n                    <p><span class=\"greenText\"><b>Successful harvest!</b></span><br>Your pay has increased by $0.02. Your bonus pay is now $0.34.</p>\n            ","response":0,"trial_type":"html-button-response","trial_index":40,"time_elapsed":974047,"internal_node_id":"0.0-4.0-1.14","subject_id":"6103a3ece71ab061d5624402","study_id":"6197b3f67c2b5cd3b6d9596a","session_id":"6197b9e542b83100fd9d049b","condition":"full-information","relevant_dimensions":["antennae","legs"],"bee_group":{"antennae":"B","wings":"X","pattern":"X","legs":"M"},"bonus":0.8400000000000014},{"rt":19320.30000001192,"stimulus":"bees-with-color/bee-B2SF.svg","response":0,"trial_type":"image-button-response","trial_index":41,"time_elapsed":993370,"internal_node_id":"0.0-4.0-0.15","subject_id":"6103a3ece71ab061d5624402","study_id":"6197b3f67c2b5cd3b6d9596a","session_id":"6197b9e542b83100fd9d049b","condition":"full-information","relevant_dimensions":["antennae","legs"],"bee_group":{"antennae":"B","wings":"X","pattern":"X","legs":"M"},"action":"harvest","summary":"good-harvest","bonus":0.8400000000000014},{"rt":886.5,"stimulus":"\n                    <p><b>Action: <em>harvest</em></b></p>\n                    <p>This is the bee that you just saw.</p>\n                    <img src=\"bees-with-color/bee-B2SF.svg\" width=\"200\">\n                    <p><span class=\"greenText\"><b>Successful harvest!</b></span><br>Your pay has increased by $0.02. Your bonus pay is now $0.36.</p>\n            ","response":0,"trial_type":"html-button-response","trial_index":42,"time_elapsed":994258,"internal_node_id":"0.0-4.0-1.15","subject_id":"6103a3ece71ab061d5624402","study_id":"6197b3f67c2b5cd3b6d9596a","session_id":"6197b9e542b83100fd9d049b","condition":"full-information","relevant_dimensions":["antennae","legs"],"bee_group":{"antennae":"B","wings":"X","pattern":"X","legs":"M"},"bonus":0.8400000000000014},{"rt":9715.5,"stimulus":"bees-with-color/bee-B2DM.svg","response":1,"trial_type":"image-button-response","trial_index":43,"time_elapsed":1003975,"internal_node_id":"0.0-4.0-0.16","subject_id":"6103a3ece71ab061d5624402","study_id":"6197b3f67c2b5cd3b6d9596a","session_id":"6197b9e542b83100fd9d049b","condition":"full-information","relevant_dimensions":["antennae","legs"],"bee_group":{"antennae":"B","wings":"X","pattern":"X","legs":"M"},"action":"avoid","summary":"good-avoid","bonus":0.8400000000000014},{"rt":2784,"stimulus":"\n                    <p><b>Action: <em>avoid</em></b></p>\n                    <p>This is the bee that you just saw.</p>\n                    <img src=\"bees-with-color/bee-B2DM.svg\" width=\"200\">\n                    <p><span class=\"greenText\">Good choice!</span>  This bee would have stung you.<br>Your bonus pay is unchanged, and remains at $0.36.</p>\n            ","response":0,"trial_type":"html-button-response","trial_index":44,"time_elapsed":1006761,"internal_node_id":"0.0-4.0-1.16","subject_id":"6103a3ece71ab061d5624402","study_id":"6197b3f67c2b5cd3b6d9596a","session_id":"6197b9e542b83100fd9d049b","condition":"full-information","relevant_dimensions":["antennae","legs"],"bee_group":{"antennae":"B","wings":"X","pattern":"X","legs":"M"},"bonus":0.8400000000000014},{"rt":35151.5,"stimulus":"bees-with-color/bee-A2DM.svg","response":0,"trial_type":"image-button-response","trial_index":45,"time_elapsed":1041914,"internal_node_id":"0.0-4.0-0.17","subject_id":"6103a3ece71ab061d5624402","study_id":"6197b3f67c2b5cd3b6d9596a","session_id":"6197b9e542b83100fd9d049b","condition":"full-information","relevant_dimensions":["antennae","legs"],"bee_group":{"antennae":"B","wings":"X","pattern":"X","legs":"M"},"action":"harvest","summary":"good-harvest","bonus":0.8400000000000014},{"rt":18258.80000001192,"stimulus":"\n                    <p><b>Action: <em>harvest</em></b></p>\n                    <p>This is the bee that you just saw.</p>\n                    <img src=\"bees-with-color/bee-A2DM.svg\" width=\"200\">\n                    <p><span class=\"greenText\"><b>Successful harvest!</b></span><br>Your pay has increased by $0.02. Your bonus pay is now $0.38.</p>\n            ","response":0,"trial_type":"html-button-response","trial_index":46,"time_elapsed":1060174,"internal_node_id":"0.0-4.0-1.17","subject_id":"6103a3ece71ab061d5624402","study_id":"6197b3f67c2b5cd3b6d9596a","session_id":"6197b9e542b83100fd9d049b","condition":"full-information","relevant_dimensions":["antennae","legs"],"bee_group":{"antennae":"B","wings":"X","pattern":"X","legs":"M"},"bonus":0.8400000000000014},{"rt":23558,"stimulus":"bees-with-color/bee-A1DF.svg","response":0,"trial_type":"image-button-response","trial_index":47,"time_elapsed":1083734,"internal_node_id":"0.0-4.0-0.18","subject_id":"6103a3ece71ab061d5624402","study_id":"6197b3f67c2b5cd3b6d9596a","session_id":"6197b9e542b83100fd9d049b","condition":"full-information","relevant_dimensions":["antennae","legs"],"bee_group":{"antennae":"B","wings":"X","pattern":"X","legs":"M"},"action":"harvest","summary":"good-harvest","bonus":0.8400000000000014},{"rt":20004.19999998808,"stimulus":"\n                    <p><b>Action: <em>harvest</em></b></p>\n                    <p>This is the bee that you just saw.</p>\n                    <img src=\"bees-with-color/bee-A1DF.svg\" width=\"200\">\n                    <p><span class=\"greenText\"><b>Successful harvest!</b></span><br>Your pay has increased by $0.02. Your bonus pay is now $0.40.</p>\n            ","response":0,"trial_type":"html-button-response","trial_index":48,"time_elapsed":1103740,"internal_node_id":"0.0-4.0-1.18","subject_id":"6103a3ece71ab061d5624402","study_id":"6197b3f67c2b5cd3b6d9596a","session_id":"6197b9e542b83100fd9d049b","condition":"full-information","relevant_dimensions":["antennae","legs"],"bee_group":{"antennae":"B","wings":"X","pattern":"X","legs":"M"},"bonus":0.8400000000000014},{"rt":23854.40000000596,"stimulus":"bees-with-color/bee-A1SF.svg","response":0,"trial_type":"image-button-response","trial_index":49,"time_elapsed":1127596,"internal_node_id":"0.0-4.0-0.19","subject_id":"6103a3ece71ab061d5624402","study_id":"6197b3f67c2b5cd3b6d9596a","session_id":"6197b9e542b83100fd9d049b","condition":"full-information","relevant_dimensions":["antennae","legs"],"bee_group":{"antennae":"B","wings":"X","pattern":"X","legs":"M"},"action":"harvest","summary":"good-harvest","bonus":0.8400000000000014},{"rt":802.0999999940395,"stimulus":"\n                    <p><b>Action: <em>harvest</em></b></p>\n                    <p>This is the bee that you just saw.</p>\n                    <img src=\"bees-with-color/bee-A1SF.svg\" width=\"200\">\n                    <p><span class=\"greenText\"><b>Successful harvest!</b></span><br>Your pay has increased by $0.02. Your bonus pay is now $0.42.</p>\n            ","response":0,"trial_type":"html-button-response","trial_index":50,"time_elapsed":1128400,"internal_node_id":"0.0-4.0-1.19","subject_id":"6103a3ece71ab061d5624402","study_id":"6197b3f67c2b5cd3b6d9596a","session_id":"6197b9e542b83100fd9d049b","condition":"full-information","relevant_dimensions":["antennae","legs"],"bee_group":{"antennae":"B","wings":"X","pattern":"X","legs":"M"},"bonus":0.8400000000000014},{"rt":11812,"stimulus":"bees-with-color/bee-B1SF.svg","response":0,"trial_type":"image-button-response","trial_index":51,"time_elapsed":1140214,"internal_node_id":"0.0-4.0-0.20","subject_id":"6103a3ece71ab061d5624402","study_id":"6197b3f67c2b5cd3b6d9596a","session_id":"6197b9e542b83100fd9d049b","condition":"full-information","relevant_dimensions":["antennae","legs"],"bee_group":{"antennae":"B","wings":"X","pattern":"X","legs":"M"},"action":"harvest","summary":"good-harvest","bonus":0.8400000000000014},{"rt":875.0999999940395,"stimulus":"\n                    <p><b>Action: <em>harvest</em></b></p>\n                    <p>This is the bee that you just saw.</p>\n                    <img src=\"bees-with-color/bee-B1SF.svg\" width=\"200\">\n                    <p><span class=\"greenText\"><b>Successful harvest!</b></span><br>Your pay has increased by $0.02. Your bonus pay is now $0.44.</p>\n            ","response":0,"trial_type":"html-button-response","trial_index":52,"time_elapsed":1141090,"internal_node_id":"0.0-4.0-1.20","subject_id":"6103a3ece71ab061d5624402","study_id":"6197b3f67c2b5cd3b6d9596a","session_id":"6197b9e542b83100fd9d049b","condition":"full-information","relevant_dimensions":["antennae","legs"],"bee_group":{"antennae":"B","wings":"X","pattern":"X","legs":"M"},"bonus":0.8400000000000014},{"rt":6448.5999999940395,"stimulus":"bees-with-color/bee-B2SM.svg","response":1,"trial_type":"image-button-response","trial_index":53,"time_elapsed":1147542,"internal_node_id":"0.0-4.0-0.21","subject_id":"6103a3ece71ab061d5624402","study_id":"6197b3f67c2b5cd3b6d9596a","session_id":"6197b9e542b83100fd9d049b","condition":"full-information","relevant_dimensions":["antennae","legs"],"bee_group":{"antennae":"B","wings":"X","pattern":"X","legs":"M"},"action":"avoid","summary":"good-avoid","bonus":0.8400000000000014},{"rt":978.1999999880791,"stimulus":"\n                    <p><b>Action: <em>avoid</em></b></p>\n                    <p>This is the bee that you just saw.</p>\n                    <img src=\"bees-with-color/bee-B2SM.svg\" width=\"200\">\n                    <p><span class=\"greenText\">Good choice!</span>  This bee would have stung you.<br>Your bonus pay is unchanged, and remains at $0.44.</p>\n            ","response":0,"trial_type":"html-button-response","trial_index":54,"time_elapsed":1148522,"internal_node_id":"0.0-4.0-1.21","subject_id":"6103a3ece71ab061d5624402","study_id":"6197b3f67c2b5cd3b6d9596a","session_id":"6197b9e542b83100fd9d049b","condition":"full-information","relevant_dimensions":["antennae","legs"],"bee_group":{"antennae":"B","wings":"X","pattern":"X","legs":"M"},"bonus":0.8400000000000014},{"rt":16026.40000000596,"stimulus":"bees-with-color/bee-A1DM.svg","response":0,"trial_type":"image-button-response","trial_index":55,"time_elapsed":1164550,"internal_node_id":"0.0-4.0-0.22","subject_id":"6103a3ece71ab061d5624402","study_id":"6197b3f67c2b5cd3b6d9596a","session_id":"6197b9e542b83100fd9d049b","condition":"full-information","relevant_dimensions":["antennae","legs"],"bee_group":{"antennae":"B","wings":"X","pattern":"X","legs":"M"},"action":"harvest","summary":"good-harvest","bonus":0.8400000000000014},{"rt":915.4000000059605,"stimulus":"\n                    <p><b>Action: <em>harvest</em></b></p>\n                    <p>This is the bee that you just saw.</p>\n                    <img src=\"bees-with-color/bee-A1DM.svg\" width=\"200\">\n                    <p><span class=\"greenText\"><b>Successful harvest!</b></span><br>Your pay has increased by $0.02. Your bonus pay is now $0.46.</p>\n            ","response":0,"trial_type":"html-button-response","trial_index":56,"time_elapsed":1165467,"internal_node_id":"0.0-4.0-1.22","subject_id":"6103a3ece71ab061d5624402","study_id":"6197b3f67c2b5cd3b6d9596a","session_id":"6197b9e542b83100fd9d049b","condition":"full-information","relevant_dimensions":["antennae","legs"],"bee_group":{"antennae":"B","wings":"X","pattern":"X","legs":"M"},"bonus":0.8400000000000014},{"rt":42070.90000000596,"stimulus":"bees-with-color/bee-A1SM.svg","response":0,"trial_type":"image-button-response","trial_index":57,"time_elapsed":1207540,"internal_node_id":"0.0-4.0-0.23","subject_id":"6103a3ece71ab061d5624402","study_id":"6197b3f67c2b5cd3b6d9596a","session_id":"6197b9e542b83100fd9d049b","condition":"full-information","relevant_dimensions":["antennae","legs"],"bee_group":{"antennae":"B","wings":"X","pattern":"X","legs":"M"},"action":"harvest","summary":"good-harvest","bonus":0.8400000000000014},{"rt":17506.40000000596,"stimulus":"\n                    <p><b>Action: <em>harvest</em></b></p>\n                    <p>This is the bee that you just saw.</p>\n                    <img src=\"bees-with-color/bee-A1SM.svg\" width=\"200\">\n                    <p><span class=\"greenText\"><b>Successful harvest!</b></span><br>Your pay has increased by $0.02. Your bonus pay is now $0.48.</p>\n            ","response":0,"trial_type":"html-button-response","trial_index":58,"time_elapsed":1225048,"internal_node_id":"0.0-4.0-1.23","subject_id":"6103a3ece71ab061d5624402","study_id":"6197b3f67c2b5cd3b6d9596a","session_id":"6197b9e542b83100fd9d049b","condition":"full-information","relevant_dimensions":["antennae","legs"],"bee_group":{"antennae":"B","wings":"X","pattern":"X","legs":"M"},"bonus":0.8400000000000014},{"rt":9379,"stimulus":"bees-with-color/bee-B2DF.svg","response":1,"trial_type":"image-button-response","trial_index":59,"time_elapsed":1234429,"internal_node_id":"0.0-4.0-0.24","subject_id":"6103a3ece71ab061d5624402","study_id":"6197b3f67c2b5cd3b6d9596a","session_id":"6197b9e542b83100fd9d049b","condition":"full-information","relevant_dimensions":["antennae","legs"],"bee_group":{"antennae":"B","wings":"X","pattern":"X","legs":"M"},"action":"avoid","summary":"bad-avoid","bonus":0.8400000000000014},{"rt":29517,"stimulus":"\n                    <p><b>Action: <em>avoid</em></b></p>\n                    <p>This is the bee that you just saw.</p>\n                    <img src=\"bees-with-color/bee-B2DF.svg\" width=\"200\">\n                    <p><span class=\"redText\">Bad choice,</span> the bee was friendly.<br>Your bonus pay is unchanged, and remains at $0.48.</p>\n            ","response":0,"trial_type":"html-button-response","trial_index":60,"time_elapsed":1263948,"internal_node_id":"0.0-4.0-1.24","subject_id":"6103a3ece71ab061d5624402","study_id":"6197b3f67c2b5cd3b6d9596a","session_id":"6197b9e542b83100fd9d049b","condition":"full-information","relevant_dimensions":["antennae","legs"],"bee_group":{"antennae":"B","wings":"X","pattern":"X","legs":"M"},"bonus":0.8400000000000014},{"rt":24841.80000001192,"stimulus":"bees-with-color/bee-B2SF.svg","response":0,"trial_type":"image-button-response","trial_index":61,"time_elapsed":1288792,"internal_node_id":"0.0-4.0-0.25","subject_id":"6103a3ece71ab061d5624402","study_id":"6197b3f67c2b5cd3b6d9596a","session_id":"6197b9e542b83100fd9d049b","condition":"full-information","relevant_dimensions":["antennae","legs"],"bee_group":{"antennae":"B","wings":"X","pattern":"X","legs":"M"},"action":"harvest","summary":"good-harvest","bonus":0.8400000000000014},{"rt":936.4000000059605,"stimulus":"\n                    <p><b>Action: <em>harvest</em></b></p>\n                    <p>This is the bee that you just saw.</p>\n                    <img src=\"bees-with-color/bee-B2SF.svg\" width=\"200\">\n                    <p><span class=\"greenText\"><b>Successful harvest!</b></span><br>Your pay has increased by $0.02. Your bonus pay is now $0.50.</p>\n            ","response":0,"trial_type":"html-button-response","trial_index":62,"time_elapsed":1289730,"internal_node_id":"0.0-4.0-1.25","subject_id":"6103a3ece71ab061d5624402","study_id":"6197b3f67c2b5cd3b6d9596a","session_id":"6197b9e542b83100fd9d049b","condition":"full-information","relevant_dimensions":["antennae","legs"],"bee_group":{"antennae":"B","wings":"X","pattern":"X","legs":"M"},"bonus":0.8400000000000014},{"rt":20755.30000001192,"stimulus":"bees-with-color/bee-A2DF.svg","response":0,"trial_type":"image-button-response","trial_index":63,"time_elapsed":1310487,"internal_node_id":"0.0-4.0-0.26","subject_id":"6103a3ece71ab061d5624402","study_id":"6197b3f67c2b5cd3b6d9596a","session_id":"6197b9e542b83100fd9d049b","condition":"full-information","relevant_dimensions":["antennae","legs"],"bee_group":{"antennae":"B","wings":"X","pattern":"X","legs":"M"},"action":"harvest","summary":"good-harvest","bonus":0.8400000000000014},{"rt":746.5999999940395,"stimulus":"\n                    <p><b>Action: <em>harvest</em></b></p>\n                    <p>This is the bee that you just saw.</p>\n                    <img src=\"bees-with-color/bee-A2DF.svg\" width=\"200\">\n                    <p><span class=\"greenText\"><b>Successful harvest!</b></span><br>Your pay has increased by $0.02. Your bonus pay is now $0.52.</p>\n            ","response":0,"trial_type":"html-button-response","trial_index":64,"time_elapsed":1311236,"internal_node_id":"0.0-4.0-1.26","subject_id":"6103a3ece71ab061d5624402","study_id":"6197b3f67c2b5cd3b6d9596a","session_id":"6197b9e542b83100fd9d049b","condition":"full-information","relevant_dimensions":["antennae","legs"],"bee_group":{"antennae":"B","wings":"X","pattern":"X","legs":"M"},"bonus":0.8400000000000014},{"rt":17034.5,"stimulus":"bees-with-color/bee-B1DM.svg","response":1,"trial_type":"image-button-response","trial_index":65,"time_elapsed":1328272,"internal_node_id":"0.0-4.0-0.27","subject_id":"6103a3ece71ab061d5624402","study_id":"6197b3f67c2b5cd3b6d9596a","session_id":"6197b9e542b83100fd9d049b","condition":"full-information","relevant_dimensions":["antennae","legs"],"bee_group":{"antennae":"B","wings":"X","pattern":"X","legs":"M"},"action":"avoid","summary":"good-avoid","bonus":0.8400000000000014},{"rt":1082.4000000059605,"stimulus":"\n                    <p><b>Action: <em>avoid</em></b></p>\n                    <p>This is the bee that you just saw.</p>\n                    <img src=\"bees-with-color/bee-B1DM.svg\" width=\"200\">\n                    <p><span class=\"greenText\">Good choice!</span>  This bee would have stung you.<br>Your bonus pay is unchanged, and remains at $0.52.</p>\n            ","response":0,"trial_type":"html-button-response","trial_index":66,"time_elapsed":1329356,"internal_node_id":"0.0-4.0-1.27","subject_id":"6103a3ece71ab061d5624402","study_id":"6197b3f67c2b5cd3b6d9596a","session_id":"6197b9e542b83100fd9d049b","condition":"full-information","relevant_dimensions":["antennae","legs"],"bee_group":{"antennae":"B","wings":"X","pattern":"X","legs":"M"},"bonus":0.8400000000000014},{"rt":38833.79999998212,"stimulus":"bees-with-color/bee-A2SM.svg","response":1,"trial_type":"image-button-response","trial_index":67,"time_elapsed":1368193,"internal_node_id":"0.0-4.0-0.28","subject_id":"6103a3ece71ab061d5624402","study_id":"6197b3f67c2b5cd3b6d9596a","session_id":"6197b9e542b83100fd9d049b","condition":"full-information","relevant_dimensions":["antennae","legs"],"bee_group":{"antennae":"B","wings":"X","pattern":"X","legs":"M"},"action":"avoid","summary":"bad-avoid","bonus":0.8400000000000014},{"rt":18383.399999976158,"stimulus":"\n                    <p><b>Action: <em>avoid</em></b></p>\n                    <p>This is the bee that you just saw.</p>\n                    <img src=\"bees-with-color/bee-A2SM.svg\" width=\"200\">\n                    <p><span class=\"redText\">Bad choice,</span> the bee was friendly.<br>Your bonus pay is unchanged, and remains at $0.52.</p>\n            ","response":0,"trial_type":"html-button-response","trial_index":68,"time_elapsed":1386578,"internal_node_id":"0.0-4.0-1.28","subject_id":"6103a3ece71ab061d5624402","study_id":"6197b3f67c2b5cd3b6d9596a","session_id":"6197b9e542b83100fd9d049b","condition":"full-information","relevant_dimensions":["antennae","legs"],"bee_group":{"antennae":"B","wings":"X","pattern":"X","legs":"M"},"bonus":0.8400000000000014},{"rt":25419.09999999404,"stimulus":"bees-with-color/bee-B1SM.svg","response":1,"trial_type":"image-button-response","trial_index":69,"time_elapsed":1411999,"internal_node_id":"0.0-4.0-0.29","subject_id":"6103a3ece71ab061d5624402","study_id":"6197b3f67c2b5cd3b6d9596a","session_id":"6197b9e542b83100fd9d049b","condition":"full-information","relevant_dimensions":["antennae","legs"],"bee_group":{"antennae":"B","wings":"X","pattern":"X","legs":"M"},"action":"avoid","summary":"good-avoid","bonus":0.8400000000000014},{"rt":22928.90000000596,"stimulus":"\n                    <p><b>Action: <em>avoid</em></b></p>\n                    <p>This is the bee that you just saw.</p>\n                    <img src=\"bees-with-color/bee-B1SM.svg\" width=\"200\">\n                    <p><span class=\"greenText\">Good choice!</span>  This bee would have stung you.<br>Your bonus pay is unchanged, and remains at $0.52.</p>\n            ","response":0,"trial_type":"html-button-response","trial_index":70,"time_elapsed":1434929,"internal_node_id":"0.0-4.0-1.29","subject_id":"6103a3ece71ab061d5624402","study_id":"6197b3f67c2b5cd3b6d9596a","session_id":"6197b9e542b83100fd9d049b","condition":"full-information","relevant_dimensions":["antennae","legs"],"bee_group":{"antennae":"B","wings":"X","pattern":"X","legs":"M"},"bonus":0.8400000000000014},{"rt":35851.69999998808,"stimulus":"bees-with-color/bee-A2SF.svg","response":0,"trial_type":"image-button-response","trial_index":71,"time_elapsed":1470783,"internal_node_id":"0.0-4.0-0.30","subject_id":"6103a3ece71ab061d5624402","study_id":"6197b3f67c2b5cd3b6d9596a","session_id":"6197b9e542b83100fd9d049b","condition":"full-information","relevant_dimensions":["antennae","legs"],"bee_group":{"antennae":"B","wings":"X","pattern":"X","legs":"M"},"action":"harvest","summary":"good-harvest","bonus":0.8400000000000014},{"rt":890.5999999940395,"stimulus":"\n                    <p><b>Action: <em>harvest</em></b></p>\n                    <p>This is the bee that you just saw.</p>\n                    <img src=\"bees-with-color/bee-A2SF.svg\" width=\"200\">\n                    <p><span class=\"greenText\"><b>Successful harvest!</b></span><br>Your pay has increased by $0.02. Your bonus pay is now $0.54.</p>\n            ","response":0,"trial_type":"html-button-response","trial_index":72,"time_elapsed":1471675,"internal_node_id":"0.0-4.0-1.30","subject_id":"6103a3ece71ab061d5624402","study_id":"6197b3f67c2b5cd3b6d9596a","session_id":"6197b9e542b83100fd9d049b","condition":"full-information","relevant_dimensions":["antennae","legs"],"bee_group":{"antennae":"B","wings":"X","pattern":"X","legs":"M"},"bonus":0.8400000000000014},{"rt":21364.30000001192,"stimulus":"bees-with-color/bee-B1DF.svg","response":0,"trial_type":"image-button-response","trial_index":73,"time_elapsed":1493041,"internal_node_id":"0.0-4.0-0.31","subject_id":"6103a3ece71ab061d5624402","study_id":"6197b3f67c2b5cd3b6d9596a","session_id":"6197b9e542b83100fd9d049b","condition":"full-information","relevant_dimensions":["antennae","legs"],"bee_group":{"antennae":"B","wings":"X","pattern":"X","legs":"M"},"action":"harvest","summary":"good-harvest","bonus":0.8400000000000014},{"rt":786.9000000059605,"stimulus":"\n                    <p><b>Action: <em>harvest</em></b></p>\n                    <p>This is the bee that you just saw.</p>\n                    <img src=\"bees-with-color/bee-B1DF.svg\" width=\"200\">\n                    <p><span class=\"greenText\"><b>Successful harvest!</b></span><br>Your pay has increased by $0.02. Your bonus pay is now $0.56.</p>\n            ","response":0,"trial_type":"html-button-response","trial_index":74,"time_elapsed":1493830,"internal_node_id":"0.0-4.0-1.31","subject_id":"6103a3ece71ab061d5624402","study_id":"6197b3f67c2b5cd3b6d9596a","session_id":"6197b9e542b83100fd9d049b","condition":"full-information","relevant_dimensions":["antennae","legs"],"bee_group":{"antennae":"B","wings":"X","pattern":"X","legs":"M"},"bonus":0.8400000000000014},{"rt":29948.69999998808,"stimulus":"bees-with-color/bee-B1SM.svg","response":0,"trial_type":"image-button-response","trial_index":75,"time_elapsed":1523781,"internal_node_id":"0.0-4.0-0.32","subject_id":"6103a3ece71ab061d5624402","study_id":"6197b3f67c2b5cd3b6d9596a","session_id":"6197b9e542b83100fd9d049b","condition":"full-information","relevant_dimensions":["antennae","legs"],"bee_group":{"antennae":"B","wings":"X","pattern":"X","legs":"M"},"action":"harvest","summary":"bad-harvest","bonus":0.8400000000000014},{"rt":10584.09999999404,"stimulus":"\n                    <p><b>Action: <em>harvest</em></b></p>\n                    <p>This is the bee that you just saw.</p>\n                    <img src=\"bees-with-color/bee-B1SM.svg\" width=\"200\">\n                    <p><span class=\"redText\">Bad choice, the bee was angry.</span><br><b>You have been stung!</b><br>Your pay has been decreased by $0.10. Your bonus pay is now $0.46.</p>\n            ","response":0,"trial_type":"html-button-response","trial_index":76,"time_elapsed":1534367,"internal_node_id":"0.0-4.0-1.32","subject_id":"6103a3ece71ab061d5624402","study_id":"6197b3f67c2b5cd3b6d9596a","session_id":"6197b9e542b83100fd9d049b","condition":"full-information","relevant_dimensions":["antennae","legs"],"bee_group":{"antennae":"B","wings":"X","pattern":"X","legs":"M"},"bonus":0.8400000000000014},{"rt":43391.40000000596,"stimulus":"bees-with-color/bee-A2DM.svg","response":1,"trial_type":"image-button-response","trial_index":77,"time_elapsed":1577761,"internal_node_id":"0.0-4.0-0.33","subject_id":"6103a3ece71ab061d5624402","study_id":"6197b3f67c2b5cd3b6d9596a","session_id":"6197b9e542b83100fd9d049b","condition":"full-information","relevant_dimensions":["antennae","legs"],"bee_group":{"antennae":"B","wings":"X","pattern":"X","legs":"M"},"action":"avoid","summary":"bad-avoid","bonus":0.8400000000000014},{"rt":13393.5,"stimulus":"\n                    <p><b>Action: <em>avoid</em></b></p>\n                    <p>This is the bee that you just saw.</p>\n                    <img src=\"bees-with-color/bee-A2DM.svg\" width=\"200\">\n                    <p><span class=\"redText\">Bad choice,</span> the bee was friendly.<br>Your bonus pay is unchanged, and remains at $0.46.</p>\n            ","response":0,"trial_type":"html-button-response","trial_index":78,"time_elapsed":1591156,"internal_node_id":"0.0-4.0-1.33","subject_id":"6103a3ece71ab061d5624402","study_id":"6197b3f67c2b5cd3b6d9596a","session_id":"6197b9e542b83100fd9d049b","condition":"full-information","relevant_dimensions":["antennae","legs"],"bee_group":{"antennae":"B","wings":"X","pattern":"X","legs":"M"},"bonus":0.8400000000000014},{"rt":15629.40000000596,"stimulus":"bees-with-color/bee-A1SM.svg","response":0,"trial_type":"image-button-response","trial_index":79,"time_elapsed":1606788,"internal_node_id":"0.0-4.0-0.34","subject_id":"6103a3ece71ab061d5624402","study_id":"6197b3f67c2b5cd3b6d9596a","session_id":"6197b9e542b83100fd9d049b","condition":"full-information","relevant_dimensions":["antennae","legs"],"bee_group":{"antennae":"B","wings":"X","pattern":"X","legs":"M"},"action":"harvest","summary":"good-harvest","bonus":0.8400000000000014},{"rt":5248.199999988079,"stimulus":"\n                    <p><b>Action: <em>harvest</em></b></p>\n                    <p>This is the bee that you just saw.</p>\n                    <img src=\"bees-with-color/bee-A1SM.svg\" width=\"200\">\n                    <p><span class=\"greenText\"><b>Successful harvest!</b></span><br>Your pay has increased by $0.02. Your bonus pay is now $0.48.</p>\n            ","response":0,"trial_type":"html-button-response","trial_index":80,"time_elapsed":1612038,"internal_node_id":"0.0-4.0-1.34","subject_id":"6103a3ece71ab061d5624402","study_id":"6197b3f67c2b5cd3b6d9596a","session_id":"6197b9e542b83100fd9d049b","condition":"full-information","relevant_dimensions":["antennae","legs"],"bee_group":{"antennae":"B","wings":"X","pattern":"X","legs":"M"},"bonus":0.8400000000000014},{"rt":13933.09999999404,"stimulus":"bees-with-color/bee-B2DF.svg","response":0,"trial_type":"image-button-response","trial_index":81,"time_elapsed":1625973,"internal_node_id":"0.0-4.0-0.35","subject_id":"6103a3ece71ab061d5624402","study_id":"6197b3f67c2b5cd3b6d9596a","session_id":"6197b9e542b83100fd9d049b","condition":"full-information","relevant_dimensions":["antennae","legs"],"bee_group":{"antennae":"B","wings":"X","pattern":"X","legs":"M"},"action":"harvest","summary":"good-harvest","bonus":0.8400000000000014},{"rt":875.8000000119209,"stimulus":"\n                    <p><b>Action: <em>harvest</em></b></p>\n                    <p>This is the bee that you just saw.</p>\n                    <img src=\"bees-with-color/bee-B2DF.svg\" width=\"200\">\n                    <p><span class=\"greenText\"><b>Successful harvest!</b></span><br>Your pay has increased by $0.02. Your bonus pay is now $0.50.</p>\n            ","response":0,"trial_type":"html-button-response","trial_index":82,"time_elapsed":1626850,"internal_node_id":"0.0-4.0-1.35","subject_id":"6103a3ece71ab061d5624402","study_id":"6197b3f67c2b5cd3b6d9596a","session_id":"6197b9e542b83100fd9d049b","condition":"full-information","relevant_dimensions":["antennae","legs"],"bee_group":{"antennae":"B","wings":"X","pattern":"X","legs":"M"},"bonus":0.8400000000000014},{"rt":41233.60000002384,"stimulus":"bees-with-color/bee-A1DM.svg","response":0,"trial_type":"image-button-response","trial_index":83,"time_elapsed":1668085,"internal_node_id":"0.0-4.0-0.36","subject_id":"6103a3ece71ab061d5624402","study_id":"6197b3f67c2b5cd3b6d9596a","session_id":"6197b9e542b83100fd9d049b","condition":"full-information","relevant_dimensions":["antennae","legs"],"bee_group":{"antennae":"B","wings":"X","pattern":"X","legs":"M"},"action":"harvest","summary":"good-harvest","bonus":0.8400000000000014},{"rt":16250.40000000596,"stimulus":"\n                    <p><b>Action: <em>harvest</em></b></p>\n                    <p>This is the bee that you just saw.</p>\n                    <img src=\"bees-with-color/bee-A1DM.svg\" width=\"200\">\n                    <p><span class=\"greenText\"><b>Successful harvest!</b></span><br>Your pay has increased by $0.02. Your bonus pay is now $0.52.</p>\n            ","response":0,"trial_type":"html-button-response","trial_index":84,"time_elapsed":1684338,"internal_node_id":"0.0-4.0-1.36","subject_id":"6103a3ece71ab061d5624402","study_id":"6197b3f67c2b5cd3b6d9596a","session_id":"6197b9e542b83100fd9d049b","condition":"full-information","relevant_dimensions":["antennae","legs"],"bee_group":{"antennae":"B","wings":"X","pattern":"X","legs":"M"},"bonus":0.8400000000000014},{"rt":19433.59999999404,"stimulus":"bees-with-color/bee-B1SF.svg","response":0,"trial_type":"image-button-response","trial_index":85,"time_elapsed":1703773,"internal_node_id":"0.0-4.0-0.37","subject_id":"6103a3ece71ab061d5624402","study_id":"6197b3f67c2b5cd3b6d9596a","session_id":"6197b9e542b83100fd9d049b","condition":"full-information","relevant_dimensions":["antennae","legs"],"bee_group":{"antennae":"B","wings":"X","pattern":"X","legs":"M"},"action":"harvest","summary":"good-harvest","bonus":0.8400000000000014},{"rt":965.5999999940395,"stimulus":"\n                    <p><b>Action: <em>harvest</em></b></p>\n                    <p>This is the bee that you just saw.</p>\n                    <img src=\"bees-with-color/bee-B1SF.svg\" width=\"200\">\n                    <p><span class=\"greenText\"><b>Successful harvest!</b></span><br>Your pay has increased by $0.02. Your bonus pay is now $0.54.</p>\n            ","response":0,"trial_type":"html-button-response","trial_index":86,"time_elapsed":1704741,"internal_node_id":"0.0-4.0-1.37","subject_id":"6103a3ece71ab061d5624402","study_id":"6197b3f67c2b5cd3b6d9596a","session_id":"6197b9e542b83100fd9d049b","condition":"full-information","relevant_dimensions":["antennae","legs"],"bee_group":{"antennae":"B","wings":"X","pattern":"X","legs":"M"},"bonus":0.8400000000000014},{"rt":39284.60000002384,"stimulus":"bees-with-color/bee-A2SF.svg","response":0,"trial_type":"image-button-response","trial_index":87,"time_elapsed":1744027,"internal_node_id":"0.0-4.0-0.38","subject_id":"6103a3ece71ab061d5624402","study_id":"6197b3f67c2b5cd3b6d9596a","session_id":"6197b9e542b83100fd9d049b","condition":"full-information","relevant_dimensions":["antennae","legs"],"bee_group":{"antennae":"B","wings":"X","pattern":"X","legs":"M"},"action":"harvest","summary":"good-harvest","bonus":0.8400000000000014},{"rt":690.1999999880791,"stimulus":"\n                    <p><b>Action: <em>harvest</em></b></p>\n                    <p>This is the bee that you just saw.</p>\n                    <img src=\"bees-with-color/bee-A2SF.svg\" width=\"200\">\n                    <p><span class=\"greenText\"><b>Successful harvest!</b></span><br>Your pay has increased by $0.02. Your bonus pay is now $0.56.</p>\n            ","response":0,"trial_type":"html-button-response","trial_index":88,"time_elapsed":1744719,"internal_node_id":"0.0-4.0-1.38","subject_id":"6103a3ece71ab061d5624402","study_id":"6197b3f67c2b5cd3b6d9596a","session_id":"6197b9e542b83100fd9d049b","condition":"full-information","relevant_dimensions":["antennae","legs"],"bee_group":{"antennae":"B","wings":"X","pattern":"X","legs":"M"},"bonus":0.8400000000000014},{"rt":32530.5,"stimulus":"bees-with-color/bee-B2SM.svg","response":1,"trial_type":"image-button-response","trial_index":89,"time_elapsed":1777252,"internal_node_id":"0.0-4.0-0.39","subject_id":"6103a3ece71ab061d5624402","study_id":"6197b3f67c2b5cd3b6d9596a","session_id":"6197b9e542b83100fd9d049b","condition":"full-information","relevant_dimensions":["antennae","legs"],"bee_group":{"antennae":"B","wings":"X","pattern":"X","legs":"M"},"action":"avoid","summary":"good-avoid","bonus":0.8400000000000014},{"rt":1091.300000011921,"stimulus":"\n                    <p><b>Action: <em>avoid</em></b></p>\n                    <p>This is the bee that you just saw.</p>\n                    <img src=\"bees-with-color/bee-B2SM.svg\" width=\"200\">\n                    <p><span class=\"greenText\">Good choice!</span>  This bee would have stung you.<br>Your bonus pay is unchanged, and remains at $0.56.</p>\n            ","response":0,"trial_type":"html-button-response","trial_index":90,"time_elapsed":1778345,"internal_node_id":"0.0-4.0-1.39","subject_id":"6103a3ece71ab061d5624402","study_id":"6197b3f67c2b5cd3b6d9596a","session_id":"6197b9e542b83100fd9d049b","condition":"full-information","relevant_dimensions":["antennae","legs"],"bee_group":{"antennae":"B","wings":"X","pattern":"X","legs":"M"},"bonus":0.8400000000000014},{"rt":11243.59999999404,"stimulus":"bees-with-color/bee-A2SM.svg","response":0,"trial_type":"image-button-response","trial_index":91,"time_elapsed":1789590,"internal_node_id":"0.0-4.0-0.40","subject_id":"6103a3ece71ab061d5624402","study_id":"6197b3f67c2b5cd3b6d9596a","session_id":"6197b9e542b83100fd9d049b","condition":"full-information","relevant_dimensions":["antennae","legs"],"bee_group":{"antennae":"B","wings":"X","pattern":"X","legs":"M"},"action":"harvest","summary":"good-harvest","bonus":0.8400000000000014},{"rt":793.9000000059605,"stimulus":"\n                    <p><b>Action: <em>harvest</em></b></p>\n                    <p>This is the bee that you just saw.</p>\n                    <img src=\"bees-with-color/bee-A2SM.svg\" width=\"200\">\n                    <p><span class=\"greenText\"><b>Successful harvest!</b></span><br>Your pay has increased by $0.02. Your bonus pay is now $0.58.</p>\n            ","response":0,"trial_type":"html-button-response","trial_index":92,"time_elapsed":1790386,"internal_node_id":"0.0-4.0-1.40","subject_id":"6103a3ece71ab061d5624402","study_id":"6197b3f67c2b5cd3b6d9596a","session_id":"6197b9e542b83100fd9d049b","condition":"full-information","relevant_dimensions":["antennae","legs"],"bee_group":{"antennae":"B","wings":"X","pattern":"X","legs":"M"},"bonus":0.8400000000000014},{"rt":44877.59999999404,"stimulus":"bees-with-color/bee-B2SF.svg","response":1,"trial_type":"image-button-response","trial_index":93,"time_elapsed":1835266,"internal_node_id":"0.0-4.0-0.41","subject_id":"6103a3ece71ab061d5624402","study_id":"6197b3f67c2b5cd3b6d9596a","session_id":"6197b9e542b83100fd9d049b","condition":"full-information","relevant_dimensions":["antennae","legs"],"bee_group":{"antennae":"B","wings":"X","pattern":"X","legs":"M"},"action":"avoid","summary":"bad-avoid","bonus":0.8400000000000014},{"rt":16993.90000000596,"stimulus":"\n                    <p><b>Action: <em>avoid</em></b></p>\n                    <p>This is the bee that you just saw.</p>\n                    <img src=\"bees-with-color/bee-B2SF.svg\" width=\"200\">\n                    <p><span class=\"redText\">Bad choice,</span> the bee was friendly.<br>Your bonus pay is unchanged, and remains at $0.58.</p>\n            ","response":0,"trial_type":"html-button-response","trial_index":94,"time_elapsed":1852261,"internal_node_id":"0.0-4.0-1.41","subject_id":"6103a3ece71ab061d5624402","study_id":"6197b3f67c2b5cd3b6d9596a","session_id":"6197b9e542b83100fd9d049b","condition":"full-information","relevant_dimensions":["antennae","legs"],"bee_group":{"antennae":"B","wings":"X","pattern":"X","legs":"M"},"bonus":0.8400000000000014},{"rt":20476.30000001192,"stimulus":"bees-with-color/bee-B1DM.svg","response":1,"trial_type":"image-button-response","trial_index":95,"time_elapsed":1872739,"internal_node_id":"0.0-4.0-0.42","subject_id":"6103a3ece71ab061d5624402","study_id":"6197b3f67c2b5cd3b6d9596a","session_id":"6197b9e542b83100fd9d049b","condition":"full-information","relevant_dimensions":["antennae","legs"],"bee_group":{"antennae":"B","wings":"X","pattern":"X","legs":"M"},"action":"avoid","summary":"good-avoid","bonus":0.8400000000000014},{"rt":1283.2999999821186,"stimulus":"\n                    <p><b>Action: <em>avoid</em></b></p>\n                    <p>This is the bee that you just saw.</p>\n                    <img src=\"bees-with-color/bee-B1DM.svg\" width=\"200\">\n                    <p><span class=\"greenText\">Good choice!</span>  This bee would have stung you.<br>Your bonus pay is unchanged, and remains at $0.58.</p>\n            ","response":0,"trial_type":"html-button-response","trial_index":96,"time_elapsed":1874024,"internal_node_id":"0.0-4.0-1.42","subject_id":"6103a3ece71ab061d5624402","study_id":"6197b3f67c2b5cd3b6d9596a","session_id":"6197b9e542b83100fd9d049b","condition":"full-information","relevant_dimensions":["antennae","legs"],"bee_group":{"antennae":"B","wings":"X","pattern":"X","legs":"M"},"bonus":0.8400000000000014},{"rt":5493.799999982119,"stimulus":"bees-with-color/bee-B1DF.svg","response":0,"trial_type":"image-button-response","trial_index":97,"time_elapsed":1879520,"internal_node_id":"0.0-4.0-0.43","subject_id":"6103a3ece71ab061d5624402","study_id":"6197b3f67c2b5cd3b6d9596a","session_id":"6197b9e542b83100fd9d049b","condition":"full-information","relevant_dimensions":["antennae","legs"],"bee_group":{"antennae":"B","wings":"X","pattern":"X","legs":"M"},"action":"harvest","summary":"good-harvest","bonus":0.8400000000000014},{"rt":861.3000000119209,"stimulus":"\n                    <p><b>Action: <em>harvest</em></b></p>\n                    <p>This is the bee that you just saw.</p>\n                    <img src=\"bees-with-color/bee-B1DF.svg\" width=\"200\">\n                    <p><span class=\"greenText\"><b>Successful harvest!</b></span><br>Your pay has increased by $0.02. Your bonus pay is now $0.60.</p>\n            ","response":0,"trial_type":"html-button-response","trial_index":98,"time_elapsed":1880383,"internal_node_id":"0.0-4.0-1.43","subject_id":"6103a3ece71ab061d5624402","study_id":"6197b3f67c2b5cd3b6d9596a","session_id":"6197b9e542b83100fd9d049b","condition":"full-information","relevant_dimensions":["antennae","legs"],"bee_group":{"antennae":"B","wings":"X","pattern":"X","legs":"M"},"bonus":0.8400000000000014},{"rt":13449.09999999404,"stimulus":"bees-with-color/bee-A1DF.svg","response":0,"trial_type":"image-button-response","trial_index":99,"time_elapsed":1893834,"internal_node_id":"0.0-4.0-0.44","subject_id":"6103a3ece71ab061d5624402","study_id":"6197b3f67c2b5cd3b6d9596a","session_id":"6197b9e542b83100fd9d049b","condition":"full-information","relevant_dimensions":["antennae","legs"],"bee_group":{"antennae":"B","wings":"X","pattern":"X","legs":"M"},"action":"harvest","summary":"good-harvest","bonus":0.8400000000000014},{"rt":738.3000000119209,"stimulus":"\n                    <p><b>Action: <em>harvest</em></b></p>\n                    <p>This is the bee that you just saw.</p>\n                    <img src=\"bees-with-color/bee-A1DF.svg\" width=\"200\">\n                    <p><span class=\"greenText\"><b>Successful harvest!</b></span><br>Your pay has increased by $0.02. Your bonus pay is now $0.62.</p>\n            ","response":0,"trial_type":"html-button-response","trial_index":100,"time_elapsed":1894574,"internal_node_id":"0.0-4.0-1.44","subject_id":"6103a3ece71ab061d5624402","study_id":"6197b3f67c2b5cd3b6d9596a","session_id":"6197b9e542b83100fd9d049b","condition":"full-information","relevant_dimensions":["antennae","legs"],"bee_group":{"antennae":"B","wings":"X","pattern":"X","legs":"M"},"bonus":0.8400000000000014},{"rt":11652.09999999404,"stimulus":"bees-with-color/bee-A1SF.svg","response":0,"trial_type":"image-button-response","trial_index":101,"time_elapsed":1906228,"internal_node_id":"0.0-4.0-0.45","subject_id":"6103a3ece71ab061d5624402","study_id":"6197b3f67c2b5cd3b6d9596a","session_id":"6197b9e542b83100fd9d049b","condition":"full-information","relevant_dimensions":["antennae","legs"],"bee_group":{"antennae":"B","wings":"X","pattern":"X","legs":"M"},"action":"harvest","summary":"good-harvest","bonus":0.8400000000000014},{"rt":742.6000000238419,"stimulus":"\n                    <p><b>Action: <em>harvest</em></b></p>\n                    <p>This is the bee that you just saw.</p>\n                    <img src=\"bees-with-color/bee-A1SF.svg\" width=\"200\">\n                    <p><span class=\"greenText\"><b>Successful harvest!</b></span><br>Your pay has increased by $0.02. Your bonus pay is now $0.64.</p>\n            ","response":0,"trial_type":"html-button-response","trial_index":102,"time_elapsed":1906972,"internal_node_id":"0.0-4.0-1.45","subject_id":"6103a3ece71ab061d5624402","study_id":"6197b3f67c2b5cd3b6d9596a","session_id":"6197b9e542b83100fd9d049b","condition":"full-information","relevant_dimensions":["antennae","legs"],"bee_group":{"antennae":"B","wings":"X","pattern":"X","legs":"M"},"bonus":0.8400000000000014},{"rt":6903,"stimulus":"bees-with-color/bee-B2DM.svg","response":1,"trial_type":"image-button-response","trial_index":103,"time_elapsed":1913877,"internal_node_id":"0.0-4.0-0.46","subject_id":"6103a3ece71ab061d5624402","study_id":"6197b3f67c2b5cd3b6d9596a","session_id":"6197b9e542b83100fd9d049b","condition":"full-information","relevant_dimensions":["antennae","legs"],"bee_group":{"antennae":"B","wings":"X","pattern":"X","legs":"M"},"action":"avoid","summary":"good-avoid","bonus":0.8400000000000014},{"rt":853.1999999880791,"stimulus":"\n                    <p><b>Action: <em>avoid</em></b></p>\n                    <p>This is the bee that you just saw.</p>\n                    <img src=\"bees-with-color/bee-B2DM.svg\" width=\"200\">\n                    <p><span class=\"greenText\">Good choice!</span>  This bee would have stung you.<br>Your bonus pay is unchanged, and remains at $0.64.</p>\n            ","response":0,"trial_type":"html-button-response","trial_index":104,"time_elapsed":1914732,"internal_node_id":"0.0-4.0-1.46","subject_id":"6103a3ece71ab061d5624402","study_id":"6197b3f67c2b5cd3b6d9596a","session_id":"6197b9e542b83100fd9d049b","condition":"full-information","relevant_dimensions":["antennae","legs"],"bee_group":{"antennae":"B","wings":"X","pattern":"X","legs":"M"},"bonus":0.8400000000000014},{"rt":11615.800000011921,"stimulus":"bees-with-color/bee-A2DF.svg","response":0,"trial_type":"image-button-response","trial_index":105,"time_elapsed":1926350,"internal_node_id":"0.0-4.0-0.47","subject_id":"6103a3ece71ab061d5624402","study_id":"6197b3f67c2b5cd3b6d9596a","session_id":"6197b9e542b83100fd9d049b","condition":"full-information","relevant_dimensions":["antennae","legs"],"bee_group":{"antennae":"B","wings":"X","pattern":"X","legs":"M"},"action":"harvest","summary":"good-harvest","bonus":0.8400000000000014},{"rt":786.3000000119209,"stimulus":"\n                    <p><b>Action: <em>harvest</em></b></p>\n                    <p>This is the bee that you just saw.</p>\n                    <img src=\"bees-with-color/bee-A2DF.svg\" width=\"200\">\n                    <p><span class=\"greenText\"><b>Successful harvest!</b></span><br>Your pay has increased by $0.02. Your bonus pay is now $0.66.</p>\n            ","response":0,"trial_type":"html-button-response","trial_index":106,"time_elapsed":1927138,"internal_node_id":"0.0-4.0-1.47","subject_id":"6103a3ece71ab061d5624402","study_id":"6197b3f67c2b5cd3b6d9596a","session_id":"6197b9e542b83100fd9d049b","condition":"full-information","relevant_dimensions":["antennae","legs"],"bee_group":{"antennae":"B","wings":"X","pattern":"X","legs":"M"},"bonus":0.8400000000000014},{"rt":11428.300000011921,"stimulus":"bees-with-color/bee-B1SF.svg","response":0,"trial_type":"image-button-response","trial_index":107,"time_elapsed":1938568,"internal_node_id":"0.0-4.0-0.48","subject_id":"6103a3ece71ab061d5624402","study_id":"6197b3f67c2b5cd3b6d9596a","session_id":"6197b9e542b83100fd9d049b","condition":"full-information","relevant_dimensions":["antennae","legs"],"bee_group":{"antennae":"B","wings":"X","pattern":"X","legs":"M"},"action":"harvest","summary":"good-harvest","bonus":0.8400000000000014},{"rt":810.2000000178814,"stimulus":"\n                    <p><b>Action: <em>harvest</em></b></p>\n                    <p>This is the bee that you just saw.</p>\n                    <img src=\"bees-with-color/bee-B1SF.svg\" width=\"200\">\n                    <p><span class=\"greenText\"><b>Successful harvest!</b></span><br>Your pay has increased by $0.02. Your bonus pay is now $0.68.</p>\n            ","response":0,"trial_type":"html-button-response","trial_index":108,"time_elapsed":1939380,"internal_node_id":"0.0-4.0-1.48","subject_id":"6103a3ece71ab061d5624402","study_id":"6197b3f67c2b5cd3b6d9596a","session_id":"6197b9e542b83100fd9d049b","condition":"full-information","relevant_dimensions":["antennae","legs"],"bee_group":{"antennae":"B","wings":"X","pattern":"X","legs":"M"},"bonus":0.8400000000000014},{"rt":13597.399999976158,"stimulus":"bees-with-color/bee-B2DM.svg","response":0,"trial_type":"image-button-response","trial_index":109,"time_elapsed":1952979,"internal_node_id":"0.0-4.0-0.49","subject_id":"6103a3ece71ab061d5624402","study_id":"6197b3f67c2b5cd3b6d9596a","session_id":"6197b9e542b83100fd9d049b","condition":"full-information","relevant_dimensions":["antennae","legs"],"bee_group":{"antennae":"B","wings":"X","pattern":"X","legs":"M"},"action":"harvest","summary":"bad-harvest","bonus":0.8400000000000014},{"rt":2262.5999999940395,"stimulus":"\n                    <p><b>Action: <em>harvest</em></b></p>\n                    <p>This is the bee that you just saw.</p>\n                    <img src=\"bees-with-color/bee-B2DM.svg\" width=\"200\">\n                    <p><span class=\"redText\">Bad choice, the bee was angry.</span><br><b>You have been stung!</b><br>Your pay has been decreased by $0.10. Your bonus pay is now $0.58.</p>\n            ","response":0,"trial_type":"html-button-response","trial_index":110,"time_elapsed":1955243,"internal_node_id":"0.0-4.0-1.49","subject_id":"6103a3ece71ab061d5624402","study_id":"6197b3f67c2b5cd3b6d9596a","session_id":"6197b9e542b83100fd9d049b","condition":"full-information","relevant_dimensions":["antennae","legs"],"bee_group":{"antennae":"B","wings":"X","pattern":"X","legs":"M"},"bonus":0.8400000000000014},{"rt":22730.09999999404,"stimulus":"bees-with-color/bee-A1DF.svg","response":0,"trial_type":"image-button-response","trial_index":111,"time_elapsed":1977976,"internal_node_id":"0.0-4.0-0.50","subject_id":"6103a3ece71ab061d5624402","study_id":"6197b3f67c2b5cd3b6d9596a","session_id":"6197b9e542b83100fd9d049b","condition":"full-information","relevant_dimensions":["antennae","legs"],"bee_group":{"antennae":"B","wings":"X","pattern":"X","legs":"M"},"action":"harvest","summary":"good-harvest","bonus":0.8400000000000014},{"rt":7081.200000017881,"stimulus":"\n                    <p><b>Action: <em>harvest</em></b></p>\n                    <p>This is the bee that you just saw.</p>\n                    <img src=\"bees-with-color/bee-A1DF.svg\" width=\"200\">\n                    <p><span class=\"greenText\"><b>Successful harvest!</b></span><br>Your pay has increased by $0.02. Your bonus pay is now $0.60.</p>\n            ","response":0,"trial_type":"html-button-response","trial_index":112,"time_elapsed":1985059,"internal_node_id":"0.0-4.0-1.50","subject_id":"6103a3ece71ab061d5624402","study_id":"6197b3f67c2b5cd3b6d9596a","session_id":"6197b9e542b83100fd9d049b","condition":"full-information","relevant_dimensions":["antennae","legs"],"bee_group":{"antennae":"B","wings":"X","pattern":"X","legs":"M"},"bonus":0.8400000000000014},{"rt":35884.09999999404,"stimulus":"bees-with-color/bee-A2DF.svg","response":1,"trial_type":"image-button-response","trial_index":113,"time_elapsed":2020945,"internal_node_id":"0.0-4.0-0.51","subject_id":"6103a3ece71ab061d5624402","study_id":"6197b3f67c2b5cd3b6d9596a","session_id":"6197b9e542b83100fd9d049b","condition":"full-information","relevant_dimensions":["antennae","legs"],"bee_group":{"antennae":"B","wings":"X","pattern":"X","legs":"M"},"action":"avoid","summary":"bad-avoid","bonus":0.8400000000000014},{"rt":15551,"stimulus":"\n                    <p><b>Action: <em>avoid</em></b></p>\n                    <p>This is the bee that you just saw.</p>\n                    <img src=\"bees-with-color/bee-A2DF.svg\" width=\"200\">\n                    <p><span class=\"redText\">Bad choice,</span> the bee was friendly.<br>Your bonus pay is unchanged, and remains at $0.60.</p>\n            ","response":0,"trial_type":"html-button-response","trial_index":114,"time_elapsed":2036498,"internal_node_id":"0.0-4.0-1.51","subject_id":"6103a3ece71ab061d5624402","study_id":"6197b3f67c2b5cd3b6d9596a","session_id":"6197b9e542b83100fd9d049b","condition":"full-information","relevant_dimensions":["antennae","legs"],"bee_group":{"antennae":"B","wings":"X","pattern":"X","legs":"M"},"bonus":0.8400000000000014},{"rt":9666.200000017881,"stimulus":"bees-with-color/bee-A1DM.svg","response":0,"trial_type":"image-button-response","trial_index":115,"time_elapsed":2046166,"internal_node_id":"0.0-4.0-0.52","subject_id":"6103a3ece71ab061d5624402","study_id":"6197b3f67c2b5cd3b6d9596a","session_id":"6197b9e542b83100fd9d049b","condition":"full-information","relevant_dimensions":["antennae","legs"],"bee_group":{"antennae":"B","wings":"X","pattern":"X","legs":"M"},"action":"harvest","summary":"good-harvest","bonus":0.8400000000000014},{"rt":27896.80000001192,"stimulus":"\n                    <p><b>Action: <em>harvest</em></b></p>\n                    <p>This is the bee that you just saw.</p>\n                    <img src=\"bees-with-color/bee-A1DM.svg\" width=\"200\">\n                    <p><span class=\"greenText\"><b>Successful harvest!</b></span><br>Your pay has increased by $0.02. Your bonus pay is now $0.62.</p>\n            ","response":0,"trial_type":"html-button-response","trial_index":116,"time_elapsed":2074065,"internal_node_id":"0.0-4.0-1.52","subject_id":"6103a3ece71ab061d5624402","study_id":"6197b3f67c2b5cd3b6d9596a","session_id":"6197b9e542b83100fd9d049b","condition":"full-information","relevant_dimensions":["antennae","legs"],"bee_group":{"antennae":"B","wings":"X","pattern":"X","legs":"M"},"bonus":0.8400000000000014},{"rt":8614.09999999404,"stimulus":"bees-with-color/bee-B1DF.svg","response":0,"trial_type":"image-button-response","trial_index":117,"time_elapsed":2082680,"internal_node_id":"0.0-4.0-0.53","subject_id":"6103a3ece71ab061d5624402","study_id":"6197b3f67c2b5cd3b6d9596a","session_id":"6197b9e542b83100fd9d049b","condition":"full-information","relevant_dimensions":["antennae","legs"],"bee_group":{"antennae":"B","wings":"X","pattern":"X","legs":"M"},"action":"harvest","summary":"good-harvest","bonus":0.8400000000000014},{"rt":774.1999999880791,"stimulus":"\n                    <p><b>Action: <em>harvest</em></b></p>\n                    <p>This is the bee that you just saw.</p>\n                    <img src=\"bees-with-color/bee-B1DF.svg\" width=\"200\">\n                    <p><span class=\"greenText\"><b>Successful harvest!</b></span><br>Your pay has increased by $0.02. Your bonus pay is now $0.64.</p>\n            ","response":0,"trial_type":"html-button-response","trial_index":118,"time_elapsed":2083456,"internal_node_id":"0.0-4.0-1.53","subject_id":"6103a3ece71ab061d5624402","study_id":"6197b3f67c2b5cd3b6d9596a","session_id":"6197b9e542b83100fd9d049b","condition":"full-information","relevant_dimensions":["antennae","legs"],"bee_group":{"antennae":"B","wings":"X","pattern":"X","legs":"M"},"bonus":0.8400000000000014},{"rt":15263.100000023842,"stimulus":"bees-with-color/bee-B1SM.svg","response":0,"trial_type":"image-button-response","trial_index":119,"time_elapsed":2098721,"internal_node_id":"0.0-4.0-0.54","subject_id":"6103a3ece71ab061d5624402","study_id":"6197b3f67c2b5cd3b6d9596a","session_id":"6197b9e542b83100fd9d049b","condition":"full-information","relevant_dimensions":["antennae","legs"],"bee_group":{"antennae":"B","wings":"X","pattern":"X","legs":"M"},"action":"harvest","summary":"bad-harvest","bonus":0.8400000000000014},{"rt":19110.19999998808,"stimulus":"\n                    <p><b>Action: <em>harvest</em></b></p>\n                    <p>This is the bee that you just saw.</p>\n                    <img src=\"bees-with-color/bee-B1SM.svg\" width=\"200\">\n                    <p><span class=\"redText\">Bad choice, the bee was angry.</span><br><b>You have been stung!</b><br>Your pay has been decreased by $0.10. Your bonus pay is now $0.54.</p>\n            ","response":0,"trial_type":"html-button-response","trial_index":120,"time_elapsed":2117833,"internal_node_id":"0.0-4.0-1.54","subject_id":"6103a3ece71ab061d5624402","study_id":"6197b3f67c2b5cd3b6d9596a","session_id":"6197b9e542b83100fd9d049b","condition":"full-information","relevant_dimensions":["antennae","legs"],"bee_group":{"antennae":"B","wings":"X","pattern":"X","legs":"M"},"bonus":0.8400000000000014},{"rt":6494.200000017881,"stimulus":"bees-with-color/bee-B2DF.svg","response":0,"trial_type":"image-button-response","trial_index":121,"time_elapsed":2124329,"internal_node_id":"0.0-4.0-0.55","subject_id":"6103a3ece71ab061d5624402","study_id":"6197b3f67c2b5cd3b6d9596a","session_id":"6197b9e542b83100fd9d049b","condition":"full-information","relevant_dimensions":["antennae","legs"],"bee_group":{"antennae":"B","wings":"X","pattern":"X","legs":"M"},"action":"harvest","summary":"good-harvest","bonus":0.8400000000000014},{"rt":954.3999999761581,"stimulus":"\n                    <p><b>Action: <em>harvest</em></b></p>\n                    <p>This is the bee that you just saw.</p>\n                    <img src=\"bees-with-color/bee-B2DF.svg\" width=\"200\">\n                    <p><span class=\"greenText\"><b>Successful harvest!</b></span><br>Your pay has increased by $0.02. Your bonus pay is now $0.56.</p>\n            ","response":0,"trial_type":"html-button-response","trial_index":122,"time_elapsed":2125285,"internal_node_id":"0.0-4.0-1.55","subject_id":"6103a3ece71ab061d5624402","study_id":"6197b3f67c2b5cd3b6d9596a","session_id":"6197b9e542b83100fd9d049b","condition":"full-information","relevant_dimensions":["antennae","legs"],"bee_group":{"antennae":"B","wings":"X","pattern":"X","legs":"M"},"bonus":0.8400000000000014},{"rt":41086.79999998212,"stimulus":"bees-with-color/bee-B2SF.svg","response":0,"trial_type":"image-button-response","trial_index":123,"time_elapsed":2166375,"internal_node_id":"0.0-4.0-0.56","subject_id":"6103a3ece71ab061d5624402","study_id":"6197b3f67c2b5cd3b6d9596a","session_id":"6197b9e542b83100fd9d049b","condition":"full-information","relevant_dimensions":["antennae","legs"],"bee_group":{"antennae":"B","wings":"X","pattern":"X","legs":"M"},"action":"harvest","summary":"good-harvest","bonus":0.8400000000000014},{"rt":1370.4000000059605,"stimulus":"\n                    <p><b>Action: <em>harvest</em></b></p>\n                    <p>This is the bee that you just saw.</p>\n                    <img src=\"bees-with-color/bee-B2SF.svg\" width=\"200\">\n                    <p><span class=\"greenText\"><b>Successful harvest!</b></span><br>Your pay has increased by $0.02. Your bonus pay is now $0.58.</p>\n            ","response":0,"trial_type":"html-button-response","trial_index":124,"time_elapsed":2167746,"internal_node_id":"0.0-4.0-1.56","subject_id":"6103a3ece71ab061d5624402","study_id":"6197b3f67c2b5cd3b6d9596a","session_id":"6197b9e542b83100fd9d049b","condition":"full-information","relevant_dimensions":["antennae","legs"],"bee_group":{"antennae":"B","wings":"X","pattern":"X","legs":"M"},"bonus":0.8400000000000014},{"rt":22974.19999998808,"stimulus":"bees-with-color/bee-A1SM.svg","response":0,"trial_type":"image-button-response","trial_index":125,"time_elapsed":2190723,"internal_node_id":"0.0-4.0-0.57","subject_id":"6103a3ece71ab061d5624402","study_id":"6197b3f67c2b5cd3b6d9596a","session_id":"6197b9e542b83100fd9d049b","condition":"full-information","relevant_dimensions":["antennae","legs"],"bee_group":{"antennae":"B","wings":"X","pattern":"X","legs":"M"},"action":"harvest","summary":"good-harvest","bonus":0.8400000000000014},{"rt":5951.199999988079,"stimulus":"\n                    <p><b>Action: <em>harvest</em></b></p>\n                    <p>This is the bee that you just saw.</p>\n                    <img src=\"bees-with-color/bee-A1SM.svg\" width=\"200\">\n                    <p><span class=\"greenText\"><b>Successful harvest!</b></span><br>Your pay has increased by $0.02. Your bonus pay is now $0.60.</p>\n            ","response":0,"trial_type":"html-button-response","trial_index":126,"time_elapsed":2196675,"internal_node_id":"0.0-4.0-1.57","subject_id":"6103a3ece71ab061d5624402","study_id":"6197b3f67c2b5cd3b6d9596a","session_id":"6197b9e542b83100fd9d049b","condition":"full-information","relevant_dimensions":["antennae","legs"],"bee_group":{"antennae":"B","wings":"X","pattern":"X","legs":"M"},"bonus":0.8400000000000014},{"rt":44662.80000001192,"stimulus":"bees-with-color/bee-A2SF.svg","response":0,"trial_type":"image-button-response","trial_index":127,"time_elapsed":2241340,"internal_node_id":"0.0-4.0-0.58","subject_id":"6103a3ece71ab061d5624402","study_id":"6197b3f67c2b5cd3b6d9596a","session_id":"6197b9e542b83100fd9d049b","condition":"full-information","relevant_dimensions":["antennae","legs"],"bee_group":{"antennae":"B","wings":"X","pattern":"X","legs":"M"},"action":"harvest","summary":"good-harvest","bonus":0.8400000000000014},{"rt":734.4000000059605,"stimulus":"\n                    <p><b>Action: <em>harvest</em></b></p>\n                    <p>This is the bee that you just saw.</p>\n                    <img src=\"bees-with-color/bee-A2SF.svg\" width=\"200\">\n                    <p><span class=\"greenText\"><b>Successful harvest!</b></span><br>Your pay has increased by $0.02. Your bonus pay is now $0.62.</p>\n            ","response":0,"trial_type":"html-button-response","trial_index":128,"time_elapsed":2242076,"internal_node_id":"0.0-4.0-1.58","subject_id":"6103a3ece71ab061d5624402","study_id":"6197b3f67c2b5cd3b6d9596a","session_id":"6197b9e542b83100fd9d049b","condition":"full-information","relevant_dimensions":["antennae","legs"],"bee_group":{"antennae":"B","wings":"X","pattern":"X","legs":"M"},"bonus":0.8400000000000014},{"rt":16114,"stimulus":"bees-with-color/bee-A2SM.svg","response":0,"trial_type":"image-button-response","trial_index":129,"time_elapsed":2258192,"internal_node_id":"0.0-4.0-0.59","subject_id":"6103a3ece71ab061d5624402","study_id":"6197b3f67c2b5cd3b6d9596a","session_id":"6197b9e542b83100fd9d049b","condition":"full-information","relevant_dimensions":["antennae","legs"],"bee_group":{"antennae":"B","wings":"X","pattern":"X","legs":"M"},"action":"harvest","summary":"good-harvest","bonus":0.8400000000000014},{"rt":812.1999999880791,"stimulus":"\n                    <p><b>Action: <em>harvest</em></b></p>\n                    <p>This is the bee that you just saw.</p>\n                    <img src=\"bees-with-color/bee-A2SM.svg\" width=\"200\">\n                    <p><span class=\"greenText\"><b>Successful harvest!</b></span><br>Your pay has increased by $0.02. Your bonus pay is now $0.64.</p>\n            ","response":0,"trial_type":"html-button-response","trial_index":130,"time_elapsed":2259006,"internal_node_id":"0.0-4.0-1.59","subject_id":"6103a3ece71ab061d5624402","study_id":"6197b3f67c2b5cd3b6d9596a","session_id":"6197b9e542b83100fd9d049b","condition":"full-information","relevant_dimensions":["antennae","legs"],"bee_group":{"antennae":"B","wings":"X","pattern":"X","legs":"M"},"bonus":0.8400000000000014},{"rt":24084.79999998212,"stimulus":"bees-with-color/bee-A1SF.svg","response":0,"trial_type":"image-button-response","trial_index":131,"time_elapsed":2283092,"internal_node_id":"0.0-4.0-0.60","subject_id":"6103a3ece71ab061d5624402","study_id":"6197b3f67c2b5cd3b6d9596a","session_id":"6197b9e542b83100fd9d049b","condition":"full-information","relevant_dimensions":["antennae","legs"],"bee_group":{"antennae":"B","wings":"X","pattern":"X","legs":"M"},"action":"harvest","summary":"good-harvest","bonus":0.8400000000000014},{"rt":846.2000000178814,"stimulus":"\n                    <p><b>Action: <em>harvest</em></b></p>\n                    <p>This is the bee that you just saw.</p>\n                    <img src=\"bees-with-color/bee-A1SF.svg\" width=\"200\">\n                    <p><span class=\"greenText\"><b>Successful harvest!</b></span><br>Your pay has increased by $0.02. Your bonus pay is now $0.66.</p>\n            ","response":0,"trial_type":"html-button-response","trial_index":132,"time_elapsed":2283940,"internal_node_id":"0.0-4.0-1.60","subject_id":"6103a3ece71ab061d5624402","study_id":"6197b3f67c2b5cd3b6d9596a","session_id":"6197b9e542b83100fd9d049b","condition":"full-information","relevant_dimensions":["antennae","legs"],"bee_group":{"antennae":"B","wings":"X","pattern":"X","legs":"M"},"bonus":0.8400000000000014},{"rt":29185.80000001192,"stimulus":"bees-with-color/bee-B1DM.svg","response":1,"trial_type":"image-button-response","trial_index":133,"time_elapsed":2313128,"internal_node_id":"0.0-4.0-0.61","subject_id":"6103a3ece71ab061d5624402","study_id":"6197b3f67c2b5cd3b6d9596a","session_id":"6197b9e542b83100fd9d049b","condition":"full-information","relevant_dimensions":["antennae","legs"],"bee_group":{"antennae":"B","wings":"X","pattern":"X","legs":"M"},"action":"avoid","summary":"good-avoid","bonus":0.8400000000000014},{"rt":1335.2999999821186,"stimulus":"\n                    <p><b>Action: <em>avoid</em></b></p>\n                    <p>This is the bee that you just saw.</p>\n                    <img src=\"bees-with-color/bee-B1DM.svg\" width=\"200\">\n                    <p><span class=\"greenText\">Good choice!</span>  This bee would have stung you.<br>Your bonus pay is unchanged, and remains at $0.66.</p>\n            ","response":0,"trial_type":"html-button-response","trial_index":134,"time_elapsed":2314464,"internal_node_id":"0.0-4.0-1.61","subject_id":"6103a3ece71ab061d5624402","study_id":"6197b3f67c2b5cd3b6d9596a","session_id":"6197b9e542b83100fd9d049b","condition":"full-information","relevant_dimensions":["antennae","legs"],"bee_group":{"antennae":"B","wings":"X","pattern":"X","legs":"M"},"bonus":0.8400000000000014},{"rt":11262.5,"stimulus":"bees-with-color/bee-A2DM.svg","response":0,"trial_type":"image-button-response","trial_index":135,"time_elapsed":2325729,"internal_node_id":"0.0-4.0-0.62","subject_id":"6103a3ece71ab061d5624402","study_id":"6197b3f67c2b5cd3b6d9596a","session_id":"6197b9e542b83100fd9d049b","condition":"full-information","relevant_dimensions":["antennae","legs"],"bee_group":{"antennae":"B","wings":"X","pattern":"X","legs":"M"},"action":"harvest","summary":"good-harvest","bonus":0.8400000000000014},{"rt":971.2000000178814,"stimulus":"\n                    <p><b>Action: <em>harvest</em></b></p>\n                    <p>This is the bee that you just saw.</p>\n                    <img src=\"bees-with-color/bee-A2DM.svg\" width=\"200\">\n                    <p><span class=\"greenText\"><b>Successful harvest!</b></span><br>Your pay has increased by $0.02. Your bonus pay is now $0.68.</p>\n            ","response":0,"trial_type":"html-button-response","trial_index":136,"time_elapsed":2326702,"internal_node_id":"0.0-4.0-1.62","subject_id":"6103a3ece71ab061d5624402","study_id":"6197b3f67c2b5cd3b6d9596a","session_id":"6197b9e542b83100fd9d049b","condition":"full-information","relevant_dimensions":["antennae","legs"],"bee_group":{"antennae":"B","wings":"X","pattern":"X","legs":"M"},"bonus":0.8400000000000014},{"rt":27858.90000000596,"stimulus":"bees-with-color/bee-B2SM.svg","response":1,"trial_type":"image-button-response","trial_index":137,"time_elapsed":2354563,"internal_node_id":"0.0-4.0-0.63","subject_id":"6103a3ece71ab061d5624402","study_id":"6197b3f67c2b5cd3b6d9596a","session_id":"6197b9e542b83100fd9d049b","condition":"full-information","relevant_dimensions":["antennae","legs"],"bee_group":{"antennae":"B","wings":"X","pattern":"X","legs":"M"},"action":"avoid","summary":"good-avoid","bonus":0.8400000000000014},{"rt":919.5999999940395,"stimulus":"\n                    <p><b>Action: <em>avoid</em></b></p>\n                    <p>This is the bee that you just saw.</p>\n                    <img src=\"bees-with-color/bee-B2SM.svg\" width=\"200\">\n                    <p><span class=\"greenText\">Good choice!</span>  This bee would have stung you.<br>Your bonus pay is unchanged, and remains at $0.68.</p>\n            ","response":0,"trial_type":"html-button-response","trial_index":138,"time_elapsed":2355484,"internal_node_id":"0.0-4.0-1.63","subject_id":"6103a3ece71ab061d5624402","study_id":"6197b3f67c2b5cd3b6d9596a","session_id":"6197b9e542b83100fd9d049b","condition":"full-information","relevant_dimensions":["antennae","legs"],"bee_group":{"antennae":"B","wings":"X","pattern":"X","legs":"M"},"bonus":0.8400000000000014},{"rt":2684.5999999940395,"stimulus":"You have completed the first part of this experiment.<br><br>You will now begin a shorter second part, in which you will receive no feedback.<br>The same rules regarding bonus pay apply.<br><br>Press any key to begin.","response":" ","trial_type":"html-keyboard-response","trial_index":139,"time_elapsed":2358171,"internal_node_id":"0.0-5.0","subject_id":"6103a3ece71ab061d5624402","study_id":"6197b3f67c2b5cd3b6d9596a","session_id":"6197b9e542b83100fd9d049b","condition":"full-information","relevant_dimensions":["antennae","legs"],"bee_group":{"antennae":"B","wings":"X","pattern":"X","legs":"M"},"bonus":0.8400000000000014},{"rt":12318.90000000596,"stimulus":"bees-with-color/bee-A2DF.svg","response":0,"trial_type":"image-button-response","trial_index":140,"time_elapsed":2370503,"internal_node_id":"0.0-6.0-0.0","subject_id":"6103a3ece71ab061d5624402","study_id":"6197b3f67c2b5cd3b6d9596a","session_id":"6197b9e542b83100fd9d049b","condition":"full-information","relevant_dimensions":["antennae","legs"],"bee_group":{"antennae":"B","wings":"X","pattern":"X","legs":"M"},"bonus":0.8400000000000014},{"rt":26562.5,"stimulus":"bees-with-color/bee-B2SF.svg","response":0,"trial_type":"image-button-response","trial_index":141,"time_elapsed":2397069,"internal_node_id":"0.0-6.0-0.1","subject_id":"6103a3ece71ab061d5624402","study_id":"6197b3f67c2b5cd3b6d9596a","session_id":"6197b9e542b83100fd9d049b","condition":"full-information","relevant_dimensions":["antennae","legs"],"bee_group":{"antennae":"B","wings":"X","pattern":"X","legs":"M"},"bonus":0.8400000000000014},{"rt":34682.19999998808,"stimulus":"bees-with-color/bee-B1DF.svg","response":0,"trial_type":"image-button-response","trial_index":142,"time_elapsed":2431754,"internal_node_id":"0.0-6.0-0.2","subject_id":"6103a3ece71ab061d5624402","study_id":"6197b3f67c2b5cd3b6d9596a","session_id":"6197b9e542b83100fd9d049b","condition":"full-information","relevant_dimensions":["antennae","legs"],"bee_group":{"antennae":"B","wings":"X","pattern":"X","legs":"M"},"bonus":0.8400000000000014},{"rt":41401.90000000596,"stimulus":"bees-with-color/bee-A2DM.svg","response":0,"trial_type":"image-button-response","trial_index":143,"time_elapsed":2473159,"internal_node_id":"0.0-6.0-0.3","subject_id":"6103a3ece71ab061d5624402","study_id":"6197b3f67c2b5cd3b6d9596a","session_id":"6197b9e542b83100fd9d049b","condition":"full-information","relevant_dimensions":["antennae","legs"],"bee_group":{"antennae":"B","wings":"X","pattern":"X","legs":"M"},"bonus":0.8400000000000014},{"rt":12051.09999999404,"stimulus":"bees-with-color/bee-A2SM.svg","response":0,"trial_type":"image-button-response","trial_index":144,"time_elapsed":2485213,"internal_node_id":"0.0-6.0-0.4","subject_id":"6103a3ece71ab061d5624402","study_id":"6197b3f67c2b5cd3b6d9596a","session_id":"6197b9e542b83100fd9d049b","condition":"full-information","relevant_dimensions":["antennae","legs"],"bee_group":{"antennae":"B","wings":"X","pattern":"X","legs":"M"},"bonus":0.8400000000000014},{"rt":13458.800000011921,"stimulus":"bees-with-color/bee-B1SM.svg","response":0,"trial_type":"image-button-response","trial_index":145,"time_elapsed":2498675,"internal_node_id":"0.0-6.0-0.5","subject_id":"6103a3ece71ab061d5624402","study_id":"6197b3f67c2b5cd3b6d9596a","session_id":"6197b9e542b83100fd9d049b","condition":"full-information","relevant_dimensions":["antennae","legs"],"bee_group":{"antennae":"B","wings":"X","pattern":"X","legs":"M"},"bonus":0.8400000000000014},{"rt":27129.79999998212,"stimulus":"bees-with-color/bee-B2SM.svg","response":0,"trial_type":"image-button-response","trial_index":146,"time_elapsed":2525808,"internal_node_id":"0.0-6.0-0.6","subject_id":"6103a3ece71ab061d5624402","study_id":"6197b3f67c2b5cd3b6d9596a","session_id":"6197b9e542b83100fd9d049b","condition":"full-information","relevant_dimensions":["antennae","legs"],"bee_group":{"antennae":"B","wings":"X","pattern":"X","legs":"M"},"bonus":0.8400000000000014},{"rt":8059.300000011921,"stimulus":"bees-with-color/bee-B1SF.svg","response":0,"trial_type":"image-button-response","trial_index":147,"time_elapsed":2533869,"internal_node_id":"0.0-6.0-0.7","subject_id":"6103a3ece71ab061d5624402","study_id":"6197b3f67c2b5cd3b6d9596a","session_id":"6197b9e542b83100fd9d049b","condition":"full-information","relevant_dimensions":["antennae","legs"],"bee_group":{"antennae":"B","wings":"X","pattern":"X","legs":"M"},"bonus":0.8400000000000014},{"rt":18353.30000001192,"stimulus":"bees-with-color/bee-A2SF.svg","response":0,"trial_type":"image-button-response","trial_index":148,"time_elapsed":2552226,"internal_node_id":"0.0-6.0-0.8","subject_id":"6103a3ece71ab061d5624402","study_id":"6197b3f67c2b5cd3b6d9596a","session_id":"6197b9e542b83100fd9d049b","condition":"full-information","relevant_dimensions":["antennae","legs"],"bee_group":{"antennae":"B","wings":"X","pattern":"X","legs":"M"},"bonus":0.8400000000000014},{"rt":15836.09999999404,"stimulus":"bees-with-color/bee-A1DF.svg","response":0,"trial_type":"image-button-response","trial_index":149,"time_elapsed":2568066,"internal_node_id":"0.0-6.0-0.9","subject_id":"6103a3ece71ab061d5624402","study_id":"6197b3f67c2b5cd3b6d9596a","session_id":"6197b9e542b83100fd9d049b","condition":"full-information","relevant_dimensions":["antennae","legs"],"bee_group":{"antennae":"B","wings":"X","pattern":"X","legs":"M"},"bonus":0.8400000000000014},{"rt":17654,"stimulus":"bees-with-color/bee-A1SM.svg","response":0,"trial_type":"image-button-response","trial_index":150,"time_elapsed":2585723,"internal_node_id":"0.0-6.0-0.10","subject_id":"6103a3ece71ab061d5624402","study_id":"6197b3f67c2b5cd3b6d9596a","session_id":"6197b9e542b83100fd9d049b","condition":"full-information","relevant_dimensions":["antennae","legs"],"bee_group":{"antennae":"B","wings":"X","pattern":"X","legs":"M"},"bonus":0.8400000000000014},{"rt":7521.5,"stimulus":"bees-with-color/bee-B2DF.svg","response":0,"trial_type":"image-button-response","trial_index":151,"time_elapsed":2593247,"internal_node_id":"0.0-6.0-0.11","subject_id":"6103a3ece71ab061d5624402","study_id":"6197b3f67c2b5cd3b6d9596a","session_id":"6197b9e542b83100fd9d049b","condition":"full-information","relevant_dimensions":["antennae","legs"],"bee_group":{"antennae":"B","wings":"X","pattern":"X","legs":"M"},"bonus":0.8400000000000014},{"rt":16872.69999998808,"stimulus":"bees-with-color/bee-A1SF.svg","response":0,"trial_type":"image-button-response","trial_index":152,"time_elapsed":2610123,"internal_node_id":"0.0-6.0-0.12","subject_id":"6103a3ece71ab061d5624402","study_id":"6197b3f67c2b5cd3b6d9596a","session_id":"6197b9e542b83100fd9d049b","condition":"full-information","relevant_dimensions":["antennae","legs"],"bee_group":{"antennae":"B","wings":"X","pattern":"X","legs":"M"},"bonus":0.8400000000000014},{"rt":23048.09999999404,"stimulus":"bees-with-color/bee-A1DM.svg","response":0,"trial_type":"image-button-response","trial_index":153,"time_elapsed":2633174,"internal_node_id":"0.0-6.0-0.13","subject_id":"6103a3ece71ab061d5624402","study_id":"6197b3f67c2b5cd3b6d9596a","session_id":"6197b9e542b83100fd9d049b","condition":"full-information","relevant_dimensions":["antennae","legs"],"bee_group":{"antennae":"B","wings":"X","pattern":"X","legs":"M"},"bonus":0.8400000000000014},{"rt":27026.30000001192,"stimulus":"bees-with-color/bee-B2DM.svg","response":1,"trial_type":"image-button-response","trial_index":154,"time_elapsed":2660205,"internal_node_id":"0.0-6.0-0.14","subject_id":"6103a3ece71ab061d5624402","study_id":"6197b3f67c2b5cd3b6d9596a","session_id":"6197b9e542b83100fd9d049b","condition":"full-information","relevant_dimensions":["antennae","legs"],"bee_group":{"antennae":"B","w