[{"success":true,"trial_type":"fullscreen","trial_index":0,"time_elapsed":4008,"internal_node_id":"0.0-0.0","subject_id":"60db9a1eb82917b04a2f99fa","study_id":"6197b3f67c2b5cd3b6d9596a","session_id":"619be31d4200fc8e84df2dd5","condition":"contingent","relevant_dimensions":["antennae","legs"],"bee_group":{"antennae":"B","wings":"X","pattern":"X","legs":"F"},"bonus":1.0800000000000007},{"success":true,"timeout":false,"failed_images":[],"failed_audio":[],"failed_video":[],"trial_type":"preload","trial_index":1,"time_elapsed":5039,"internal_node_id":"0.0-1.0","subject_id":"60db9a1eb82917b04a2f99fa","study_id":"6197b3f67c2b5cd3b6d9596a","session_id":"619be31d4200fc8e84df2dd5","condition":"contingent","relevant_dimensions":["antennae","legs"],"bee_group":{"antennae":"B","wings":"X","pattern":"X","legs":"F"},"bonus":1.0800000000000007},{"rt":1394.5,"stimulus":"Welcome! Press any key to begin.","response":"audiovolumedown","trial_type":"html-keyboard-response","trial_index":2,"time_elapsed":6435,"internal_node_id":"0.0-2.0","subject_id":"60db9a1eb82917b04a2f99fa","study_id":"6197b3f67c2b5cd3b6d9596a","session_id":"619be31d4200fc8e84df2dd5","condition":"contingent","relevant_dimensions":["antennae","legs"],"bee_group":{"antennae":"B","wings":"X","pattern":"X","legs":"F"},"bonus":1.0800000000000007},{"view_history":[{"page_index":0,"viewing_time":5674.399999991059},{"page_index":1,"viewing_time":10082.10000000894},{"page_index":2,"viewing_time":8894.5},{"page_index":3,"viewing_time":13110.79999999702},{"page_index":4,"viewing_time":5609},{"page_index":5,"viewing_time":4312.5},{"page_index":6,"viewing_time":10034.79999999702},{"page_index":7,"viewing_time":5042.600000008941},{"page_index":8,"viewing_time":4791.399999991059},{"page_index":9,"viewing_time":3906.5},{"page_index":10,"viewing_time":2010.2999999970198},{"page_index":11,"viewing_time":6902.20000000298},{"page_index":12,"viewing_time":13347.10000000894},{"page_index":13,"viewing_time":1299.199999988079},{"page_index":14,"viewing_time":2468.1000000089407}],"rt":97485.89999999106,"trial_type":"instructions","trial_index":3,"time_elapsed":103922,"internal_node_id":"0.0-3.0-0.0","subject_id":"60db9a1eb82917b04a2f99fa","study_id":"6197b3f67c2b5cd3b6d9596a","session_id":"619be31d4200fc8e84df2dd5","condition":"contingent","relevant_dimensions":["antennae","legs"],"bee_group":{"antennae":"B","wings":"X","pattern":"X","legs":"F"},"bonus":1.0800000000000007},{"rt":15251.59999999404,"response":{"Q0":["Stripes or spots on body","Single or double wings","Antennae or no antennae"]},"question_order":[0],"trial_type":"survey-multi-select","trial_index":4,"time_elapsed":119181,"internal_node_id":"0.0-3.0-1.0","subject_id":"60db9a1eb82917b04a2f99fa","study_id":"6197b3f67c2b5cd3b6d9596a","session_id":"619be31d4200fc8e84df2dd5","condition":"contingent","relevant_dimensions":["antennae","legs"],"bee_group":{"antennae":"B","wings":"X","pattern":"X","legs":"F"},"correct":false,"bonus":1.0800000000000007},{"rt":20893.10000000894,"response":{"Q1":"No.","Q2":"Based on the four features of the bee.","Q3":"You do not learn if it was friendly or dangerous, and do not alter your bonus."},"question_order":[0,1,2],"trial_type":"survey-multi-choice","trial_index":5,"time_elapsed":140078,"internal_node_id":"0.0-3.0-2.0","subject_id":"60db9a1eb82917b04a2f99fa","study_id":"6197b3f67c2b5cd3b6d9596a","session_id":"619be31d4200fc8e84df2dd5","condition":"contingent","relevant_dimensions":["antennae","legs"],"bee_group":{"antennae":"B","wings":"X","pattern":"X","legs":"F"},"correct":true,"bonus":1.0800000000000007},{"rt":2596.0999999940395,"stimulus":"<p>You did not answer all comprehension questions correctly.<br>Press <b>continue</b> to review the instructions again.</p>","response":0,"trial_type":"html-button-response","trial_index":6,"time_elapsed":142678,"internal_node_id":"0.0-3.0-3.0","subject_id":"60db9a1eb82917b04a2f99fa","study_id":"6197b3f67c2b5cd3b6d9596a","session_id":"619be31d4200fc8e84df2dd5","condition":"contingent","relevant_dimensions":["antennae","legs"],"bee_group":{"antennae":"B","wings":"X","pattern":"X","legs":"F"},"bonus":1.0800000000000007},{"view_history":[{"page_index":0,"viewing_time":1103.7999999970198},{"page_index":1,"viewing_time":1597.300000011921},{"page_index":2,"viewing_time":1466.8999999910593},{"page_index":3,"viewing_time":2366.2999999970198},{"page_index":4,"viewing_time":4319.600000008941},{"page_index":5,"viewing_time":4849.0999999940395},{"page_index":6,"viewing_time":5267},{"page_index":7,"viewing_time":2839},{"page_index":8,"viewing_time":1013.4000000059605},{"page_index":9,"viewing_time":383},{"page_index":10,"viewing_time":378.20000000298023},{"page_index":11,"viewing_time":1421.8999999910593},{"page_index":12,"viewing_time":903.2000000029802},{"page_index":13,"viewing_time":804},{"page_index":14,"viewing_time":717.2999999970198}],"rt":29430.40000000596,"trial_type":"instructions","trial_index":7,"time_elapsed":172108,"internal_node_id":"0.0-3.0-4.0-0.0","subject_id":"60db9a1eb82917b04a2f99fa","study_id":"6197b3f67c2b5cd3b6d9596a","session_id":"619be31d4200fc8e84df2dd5","condition":"contingent","relevant_dimensions":["antennae","legs"],"bee_group":{"antennae":"B","wings":"X","pattern":"X","legs":"F"},"bonus":1.0800000000000007},{"rt":6139.5,"response":{"Q0":["Two or six legs","Stripes or spots on body","Single or double wings","Antennae or no antennae"]},"question_order":[0],"trial_type":"survey-multi-select","trial_index":8,"time_elapsed":178250,"internal_node_id":"0.0-3.0-4.0-1.0","subject_id":"60db9a1eb82917b04a2f99fa","study_id":"6197b3f67c2b5cd3b6d9596a","session_id":"619be31d4200fc8e84df2dd5","condition":"contingent","relevant_dimensions":["antennae","legs"],"bee_group":{"antennae":"B","wings":"X","pattern":"X","legs":"F"},"correct":true,"bonus":1.0800000000000007},{"rt":9322.5,"response":{"Q1":"No.","Q2":"Based on the four features of the bee.","Q3":"You do not learn if it was friendly or dangerous, and do not alter your bonus."},"question_order":[0,1,2],"trial_type":"survey-multi-choice","trial_index":9,"time_elapsed":187576,"internal_node_id":"0.0-3.0-4.0-2.0","subject_id":"60db9a1eb82917b04a2f99fa","study_id":"6197b3f67c2b5cd3b6d9596a","session_id":"619be31d4200fc8e84df2dd5","condition":"contingent","relevant_dimensions":["antennae","legs"],"bee_group":{"antennae":"B","wings":"X","pattern":"X","legs":"F"},"correct":true,"bonus":1.0800000000000007},{"rt":1336.7000000029802,"stimulus":"<p>Congrats, you got everything right<br>When you're ready, click the button below to continue to the experiment.</p>","response":0,"trial_type":"html-button-response","trial_index":10,"time_elapsed":188916,"internal_node_id":"0.0-3.0-4.0-3.0","subject_id":"60db9a1eb82917b04a2f99fa","study_id":"6197b3f67c2b5cd3b6d9596a","session_id":"619be31d4200fc8e84df2dd5","condition":"contingent","relevant_dimensions":["antennae","legs"],"bee_group":{"antennae":"B","wings":"X","pattern":"X","legs":"F"},"bonus":1.0800000000000007},{"rt":4807.20000000298,"stimulus":"bees-with-color/bee-B1DF.svg","response":0,"trial_type":"image-button-response","trial_index":11,"time_elapsed":193725,"internal_node_id":"0.0-4.0-0.0","subject_id":"60db9a1eb82917b04a2f99fa","study_id":"6197b3f67c2b5cd3b6d9596a","session_id":"619be31d4200fc8e84df2dd5","condition":"contingent","relevant_dimensions":["antennae","legs"],"bee_group":{"antennae":"B","wings":"X","pattern":"X","legs":"F"},"action":"harvest","summary":"bad-harvest","bonus":1.0800000000000007},{"rt":48152.70000000298,"stimulus":"\n                    <p><b>Action: <em>harvest</em></b></p>\n                    <p>This is the bee that you just saw.</p>\n                    <img src=\"bees-with-color/bee-B1DF.svg\" width=\"200\">\n                    <p><span class=\"redText\">Bad choice, the bee was angry.</span><br><b>You have been stung!</b><br>Your pay has been decreased by $0.10. Your bonus pay is now $0.44.</p>\n            ","response":0,"trial_type":"html-button-response","trial_index":12,"time_elapsed":241880,"internal_node_id":"0.0-4.0-1.0","subject_id":"60db9a1eb82917b04a2f99fa","study_id":"6197b3f67c2b5cd3b6d9596a","session_id":"619be31d4200fc8e84df2dd5","condition":"contingent","relevant_dimensions":["antennae","legs"],"bee_group":{"antennae":"B","wings":"X","pattern":"X","legs":"F"},"bonus":1.0800000000000007},{"rt":2283.4000000059605,"stimulus":"bees-with-color/bee-A2DM.svg","response":0,"trial_type":"image-button-response","trial_index":13,"time_elapsed":244165,"internal_node_id":"0.0-4.0-0.1","subject_id":"60db9a1eb82917b04a2f99fa","study_id":"6197b3f67c2b5cd3b6d9596a","session_id":"619be31d4200fc8e84df2dd5","condition":"contingent","relevant_dimensions":["antennae","legs"],"bee_group":{"antennae":"B","wings":"X","pattern":"X","legs":"F"},"action":"harvest","summary":"good-harvest","bonus":1.0800000000000007},{"rt":33138.60000000894,"stimulus":"\n                    <p><b>Action: <em>harvest</em></b></p>\n                    <p>This is the bee that you just saw.</p>\n                    <img src=\"bees-with-color/bee-A2DM.svg\" width=\"200\">\n                    <p><span class=\"greenText\"><b>Successful harvest!</b></span><br>Your pay has increased by $0.02. Your bonus pay is now $0.46.</p>\n            ","response":0,"trial_type":"html-button-response","trial_index":14,"time_elapsed":277304,"internal_node_id":"0.0-4.0-1.1","subject_id":"60db9a1eb82917b04a2f99fa","study_id":"6197b3f67c2b5cd3b6d9596a","session_id":"619be31d4200fc8e84df2dd5","condition":"contingent","relevant_dimensions":["antennae","legs"],"bee_group":{"antennae":"B","wings":"X","pattern":"X","legs":"F"},"bonus":1.0800000000000007},{"rt":3434.3999999910593,"stimulus":"bees-with-color/bee-B2SM.svg","response":0,"trial_type":"image-button-response","trial_index":15,"time_elapsed":280740,"internal_node_id":"0.0-4.0-0.2","subject_id":"60db9a1eb82917b04a2f99fa","study_id":"6197b3f67c2b5cd3b6d9596a","session_id":"619be31d4200fc8e84df2dd5","condition":"contingent","relevant_dimensions":["antennae","legs"],"bee_group":{"antennae":"B","wings":"X","pattern":"X","legs":"F"},"action":"harvest","summary":"good-harvest","bonus":1.0800000000000007},{"rt":35029.5,"stimulus":"\n                    <p><b>Action: <em>harvest</em></b></p>\n                    <p>This is the bee that you just saw.</p>\n                    <img src=\"bees-with-color/bee-B2SM.svg\" width=\"200\">\n                    <p><span class=\"greenText\"><b>Successful harvest!</b></span><br>Your pay has increased by $0.02. Your bonus pay is now $0.48.</p>\n            ","response":0,"trial_type":"html-button-response","trial_index":16,"time_elapsed":315771,"internal_node_id":"0.0-4.0-1.2","subject_id":"60db9a1eb82917b04a2f99fa","study_id":"6197b3f67c2b5cd3b6d9596a","session_id":"619be31d4200fc8e84df2dd5","condition":"contingent","relevant_dimensions":["antennae","legs"],"bee_group":{"antennae":"B","wings":"X","pattern":"X","legs":"F"},"bonus":1.0800000000000007},{"rt":3288.0999999940395,"stimulus":"bees-with-color/bee-A1DM.svg","response":1,"trial_type":"image-button-response","trial_index":17,"time_elapsed":319060,"internal_node_id":"0.0-4.0-0.3","subject_id":"60db9a1eb82917b04a2f99fa","study_id":"6197b3f67c2b5cd3b6d9596a","session_id":"619be31d4200fc8e84df2dd5","condition":"contingent","relevant_dimensions":["antennae","legs"],"bee_group":{"antennae":"B","wings":"X","pattern":"X","legs":"F"},"action":"avoid","summary":"bad-avoid","bonus":1.0800000000000007},{"rt":5007.4000000059605,"stimulus":"\n                    <p><b>Action: <em>avoid</em></b></p>\n                    <p>This is the bee that you just saw.</p>\n                    <img src=\"bees-with-color/bee-A1DM.svg\" width=\"200\">\n                    <p><br>Your bonus pay is unchanged, and remains at $0.48.</p>\n            ","response":0,"trial_type":"html-button-response","trial_index":18,"time_elapsed":324069,"internal_node_id":"0.0-4.0-1.3","subject_id":"60db9a1eb82917b04a2f99fa","study_id":"6197b3f67c2b5cd3b6d9596a","session_id":"619be31d4200fc8e84df2dd5","condition":"contingent","relevant_dimensions":["antennae","legs"],"bee_group":{"antennae":"B","wings":"X","pattern":"X","legs":"F"},"bonus":1.0800000000000007},{"rt":4344.5999999940395,"stimulus":"bees-with-color/bee-B2SF.svg","response":0,"trial_type":"image-button-response","trial_index":19,"time_elapsed":328415,"internal_node_id":"0.0-4.0-0.4","subject_id":"60db9a1eb82917b04a2f99fa","study_id":"6197b3f67c2b5cd3b6d9596a","session_id":"619be31d4200fc8e84df2dd5","condition":"contingent","relevant_dimensions":["antennae","legs"],"bee_group":{"antennae":"B","wings":"X","pattern":"X","legs":"F"},"action":"harvest","summary":"bad-harvest","bonus":1.0800000000000007},{"rt":8873.70000000298,"stimulus":"\n                    <p><b>Action: <em>harvest</em></b></p>\n                    <p>This is the bee that you just saw.</p>\n                    <img src=\"bees-with-color/bee-B2SF.svg\" width=\"200\">\n                    <p><span class=\"redText\">Bad choice, the bee was angry.</span><br><b>You have been stung!</b><br>Your pay has been decreased by $0.10. Your bonus pay is now $0.38.</p>\n            ","response":0,"trial_type":"html-button-response","trial_index":20,"time_elapsed":337289,"internal_node_id":"0.0-4.0-1.4","subject_id":"60db9a1eb82917b04a2f99fa","study_id":"6197b3f67c2b5cd3b6d9596a","session_id":"619be31d4200fc8e84df2dd5","condition":"contingent","relevant_dimensions":["antennae","legs"],"bee_group":{"antennae":"B","wings":"X","pattern":"X","legs":"F"},"bonus":1.0800000000000007},{"rt":3240.0999999940395,"stimulus":"bees-with-color/bee-B1SM.svg","response":0,"trial_type":"image-button-response","trial_index":21,"time_elapsed":340531,"internal_node_id":"0.0-4.0-0.5","subject_id":"60db9a1eb82917b04a2f99fa","study_id":"6197b3f67c2b5cd3b6d9596a","session_id":"619be31d4200fc8e84df2dd5","condition":"contingent","relevant_dimensions":["antennae","legs"],"bee_group":{"antennae":"B","wings":"X","pattern":"X","legs":"F"},"action":"harvest","summary":"good-harvest","bonus":1.0800000000000007},{"rt":1318.9000000059605,"stimulus":"\n                    <p><b>Action: <em>harvest</em></b></p>\n                    <p>This is the bee that you just saw.</p>\n                    <img src=\"bees-with-color/bee-B1SM.svg\" width=\"200\">\n                    <p><span class=\"greenText\"><b>Successful harvest!</b></span><br>Your pay has increased by $0.02. Your bonus pay is now $0.40.</p>\n            ","response":0,"trial_type":"html-button-response","trial_index":22,"time_elapsed":341851,"internal_node_id":"0.0-4.0-1.5","subject_id":"60db9a1eb82917b04a2f99fa","study_id":"6197b3f67c2b5cd3b6d9596a","session_id":"619be31d4200fc8e84df2dd5","condition":"contingent","relevant_dimensions":["antennae","legs"],"bee_group":{"antennae":"B","wings":"X","pattern":"X","legs":"F"},"bonus":1.0800000000000007},{"rt":3917.0999999940395,"stimulus":"bees-with-color/bee-B2DM.svg","response":0,"trial_type":"image-button-response","trial_index":23,"time_elapsed":345769,"internal_node_id":"0.0-4.0-0.6","subject_id":"60db9a1eb82917b04a2f99fa","study_id":"6197b3f67c2b5cd3b6d9596a","session_id":"619be31d4200fc8e84df2dd5","condition":"contingent","relevant_dimensions":["antennae","legs"],"bee_group":{"antennae":"B","wings":"X","pattern":"X","legs":"F"},"action":"harvest","summary":"good-harvest","bonus":1.0800000000000007},{"rt":2308.4000000059605,"stimulus":"\n                    <p><b>Action: <em>harvest</em></b></p>\n                    <p>This is the bee that you just saw.</p>\n                    <img src=\"bees-with-color/bee-B2DM.svg\" width=\"200\">\n                    <p><span class=\"greenText\"><b>Successful harvest!</b></span><br>Your pay has increased by $0.02. Your bonus pay is now $0.42.</p>\n            ","response":0,"trial_type":"html-button-response","trial_index":24,"time_elapsed":348079,"internal_node_id":"0.0-4.0-1.6","subject_id":"60db9a1eb82917b04a2f99fa","study_id":"6197b3f67c2b5cd3b6d9596a","session_id":"619be31d4200fc8e84df2dd5","condition":"contingent","relevant_dimensions":["antennae","legs"],"bee_group":{"antennae":"B","wings":"X","pattern":"X","legs":"F"},"bonus":1.0800000000000007},{"rt":1377.8999999910593,"stimulus":"bees-with-color/bee-A2DF.svg","response":1,"trial_type":"image-button-response","trial_index":25,"time_elapsed":349458,"internal_node_id":"0.0-4.0-0.7","subject_id":"60db9a1eb82917b04a2f99fa","study_id":"6197b3f67c2b5cd3b6d9596a","session_id":"619be31d4200fc8e84df2dd5","condition":"contingent","relevant_dimensions":["antennae","legs"],"bee_group":{"antennae":"B","wings":"X","pattern":"X","legs":"F"},"action":"avoid","summary":"bad-avoid","bonus":1.0800000000000007},{"rt":1402.4000000059605,"stimulus":"\n                    <p><b>Action: <em>avoid</em></b></p>\n                    <p>This is the bee that you just saw.</p>\n                    <img src=\"bees-with-color/bee-A2DF.svg\" width=\"200\">\n                    <p><br>Your bonus pay is unchanged, and remains at $0.42.</p>\n            ","response":0,"trial_type":"html-button-response","trial_index":26,"time_elapsed":350861,"internal_node_id":"0.0-4.0-1.7","subject_id":"60db9a1eb82917b04a2f99fa","study_id":"6197b3f67c2b5cd3b6d9596a","session_id":"619be31d4200fc8e84df2dd5","condition":"contingent","relevant_dimensions":["antennae","legs"],"bee_group":{"antennae":"B","wings":"X","pattern":"X","legs":"F"},"bonus":1.0800000000000007},{"rt":3048,"stimulus":"bees-with-color/bee-B2DF.svg","response":1,"trial_type":"image-button-response","trial_index":27,"time_elapsed":353910,"internal_node_id":"0.0-4.0-0.8","subject_id":"60db9a1eb82917b04a2f99fa","study_id":"6197b3f67c2b5cd3b6d9596a","session_id":"619be31d4200fc8e84df2dd5","condition":"contingent","relevant_dimensions":["antennae","legs"],"bee_group":{"antennae":"B","wings":"X","pattern":"X","legs":"F"},"action":"avoid","summary":"good-avoid","bonus":1.0800000000000007},{"rt":617.1000000089407,"stimulus":"\n                    <p><b>Action: <em>avoid</em></b></p>\n                    <p>This is the bee that you just saw.</p>\n                    <img src=\"bees-with-color/bee-B2DF.svg\" width=\"200\">\n                    <p><br>Your bonus pay is unchanged, and remains at $0.42.</p>\n            ","response":0,"trial_type":"html-button-response","trial_index":28,"time_elapsed":354528,"internal_node_id":"0.0-4.0-1.8","subject_id":"60db9a1eb82917b04a2f99fa","study_id":"6197b3f67c2b5cd3b6d9596a","session_id":"619be31d4200fc8e84df2dd5","condition":"contingent","relevant_dimensions":["antennae","legs"],"bee_group":{"antennae":"B","wings":"X","pattern":"X","legs":"F"},"bonus":1.0800000000000007},{"rt":3307.5999999940395,"stimulus":"bees-with-color/bee-A2SF.svg","response":1,"trial_type":"image-button-response","trial_index":29,"time_elapsed":357837,"internal_node_id":"0.0-4.0-0.9","subject_id":"60db9a1eb82917b04a2f99fa","study_id":"6197b3f67c2b5cd3b6d9596a","session_id":"619be31d4200fc8e84df2dd5","condition":"contingent","relevant_dimensions":["antennae","legs"],"bee_group":{"antennae":"B","wings":"X","pattern":"X","legs":"F"},"action":"avoid","summary":"bad-avoid","bonus":1.0800000000000007},{"rt":764.7000000029802,"stimulus":"\n                    <p><b>Action: <em>avoid</em></b></p>\n                    <p>This is the bee that you just saw.</p>\n                    <img src=\"bees-with-color/bee-A2SF.svg\" width=\"200\">\n                    <p><br>Your bonus pay is unchanged, and remains at $0.42.</p>\n            ","response":0,"trial_type":"html-button-response","trial_index":30,"time_elapsed":358603,"internal_node_id":"0.0-4.0-1.9","subject_id":"60db9a1eb82917b04a2f99fa","study_id":"6197b3f67c2b5cd3b6d9596a","session_id":"619be31d4200fc8e84df2dd5","condition":"contingent","relevant_dimensions":["antennae","legs"],"bee_group":{"antennae":"B","wings":"X","pattern":"X","legs":"F"},"bonus":1.0800000000000007},{"rt":2056.9000000059605,"stimulus":"bees-with-color/bee-B1DM.svg","response":0,"trial_type":"image-button-response","trial_index":31,"time_elapsed":360661,"internal_node_id":"0.0-4.0-0.10","subject_id":"60db9a1eb82917b04a2f99fa","study_id":"6197b3f67c2b5cd3b6d9596a","session_id":"619be31d4200fc8e84df2dd5","condition":"contingent","relevant_dimensions":["antennae","legs"],"bee_group":{"antennae":"B","wings":"X","pattern":"X","legs":"F"},"action":"harvest","summary":"good-harvest","bonus":1.0800000000000007},{"rt":1094,"stimulus":"\n                    <p><b>Action: <em>harvest</em></b></p>\n                    <p>This is the bee that you just saw.</p>\n                    <img src=\"bees-with-color/bee-B1DM.svg\" width=\"200\">\n                    <p><span class=\"greenText\"><b>Successful harvest!</b></span><br>Your pay has increased by $0.02. Your bonus pay is now $0.44.</p>\n            ","response":0,"trial_type":"html-button-response","trial_index":32,"time_elapsed":361756,"internal_node_id":"0.0-4.0-1.10","subject_id":"60db9a1eb82917b04a2f99fa","study_id":"6197b3f67c2b5cd3b6d9596a","session_id":"619be31d4200fc8e84df2dd5","condition":"contingent","relevant_dimensions":["antennae","legs"],"bee_group":{"antennae":"B","wings":"X","pattern":"X","legs":"F"},"bonus":1.0800000000000007},{"rt":1025.1000000089407,"stimulus":"bees-with-color/bee-A1SF.svg","response":0,"trial_type":"image-button-response","trial_index":33,"time_elapsed":362782,"internal_node_id":"0.0-4.0-0.11","subject_id":"60db9a1eb82917b04a2f99fa","study_id":"6197b3f67c2b5cd3b6d9596a","session_id":"619be31d4200fc8e84df2dd5","condition":"contingent","relevant_dimensions":["antennae","legs"],"bee_group":{"antennae":"B","wings":"X","pattern":"X","legs":"F"},"action":"harvest","summary":"good-harvest","bonus":1.0800000000000007},{"rt":1276,"stimulus":"\n                    <p><b>Action: <em>harvest</em></b></p>\n                    <p>This is the bee that you just saw.</p>\n                    <img src=\"bees-with-color/bee-A1SF.svg\" width=\"200\">\n                    <p><span class=\"greenText\"><b>Successful harvest!</b></span><br>Your pay has increased by $0.02. Your bonus pay is now $0.46.</p>\n            ","response":0,"trial_type":"html-button-response","trial_index":34,"time_elapsed":364059,"internal_node_id":"0.0-4.0-1.11","subject_id":"60db9a1eb82917b04a2f99fa","study_id":"6197b3f67c2b5cd3b6d9596a","session_id":"619be31d4200fc8e84df2dd5","condition":"contingent","relevant_dimensions":["antennae","legs"],"bee_group":{"antennae":"B","wings":"X","pattern":"X","legs":"F"},"bonus":1.0800000000000007},{"rt":1218.2999999970198,"stimulus":"bees-with-color/bee-A2SM.svg","response":0,"trial_type":"image-button-response","trial_index":35,"time_elapsed":365278,"internal_node_id":"0.0-4.0-0.12","subject_id":"60db9a1eb82917b04a2f99fa","study_id":"6197b3f67c2b5cd3b6d9596a","session_id":"619be31d4200fc8e84df2dd5","condition":"contingent","relevant_dimensions":["antennae","legs"],"bee_group":{"antennae":"B","wings":"X","pattern":"X","legs":"F"},"action":"harvest","summary":"good-harvest","bonus":1.0800000000000007},{"rt":992.9000000059605,"stimulus":"\n                    <p><b>Action: <em>harvest</em></b></p>\n                    <p>This is the bee that you just saw.</p>\n                    <img src=\"bees-with-color/bee-A2SM.svg\" width=\"200\">\n                    <p><span class=\"greenText\"><b>Successful harvest!</b></span><br>Your pay has increased by $0.02. Your bonus pay is now $0.48.</p>\n            ","response":0,"trial_type":"html-button-response","trial_index":36,"time_elapsed":366272,"internal_node_id":"0.0-4.0-1.12","subject_id":"60db9a1eb82917b04a2f99fa","study_id":"6197b3f67c2b5cd3b6d9596a","session_id":"619be31d4200fc8e84df2dd5","condition":"contingent","relevant_dimensions":["antennae","legs"],"bee_group":{"antennae":"B","wings":"X","pattern":"X","legs":"F"},"bonus":1.0800000000000007},{"rt":1010.5,"stimulus":"bees-with-color/bee-A1DF.svg","response":1,"trial_type":"image-button-response","trial_index":37,"time_elapsed":367284,"internal_node_id":"0.0-4.0-0.13","subject_id":"60db9a1eb82917b04a2f99fa","study_id":"6197b3f67c2b5cd3b6d9596a","session_id":"619be31d4200fc8e84df2dd5","condition":"contingent","relevant_dimensions":["antennae","legs"],"bee_group":{"antennae":"B","wings":"X","pattern":"X","legs":"F"},"action":"avoid","summary":"bad-avoid","bonus":1.0800000000000007},{"rt":558.8999999910593,"stimulus":"\n                    <p><b>Action: <em>avoid</em></b></p>\n                    <p>This is the bee that you just saw.</p>\n                    <img src=\"bees-with-color/bee-A1DF.svg\" width=\"200\">\n                    <p><br>Your bonus pay is unchanged, and remains at $0.48.</p>\n            ","response":0,"trial_type":"html-button-response","trial_index":38,"time_elapsed":367844,"internal_node_id":"0.0-4.0-1.13","subject_id":"60db9a1eb82917b04a2f99fa","study_id":"6197b3f67c2b5cd3b6d9596a","session_id":"619be31d4200fc8e84df2dd5","condition":"contingent","relevant_dimensions":["antennae","legs"],"bee_group":{"antennae":"B","wings":"X","pattern":"X","legs":"F"},"bonus":1.0800000000000007},{"rt":6372.600000008941,"stimulus":"bees-with-color/bee-B1SF.svg","response":1,"trial_type":"image-button-response","trial_index":39,"time_elapsed":374217,"internal_node_id":"0.0-4.0-0.14","subject_id":"60db9a1eb82917b04a2f99fa","study_id":"6197b3f67c2b5cd3b6d9596a","session_id":"619be31d4200fc8e84df2dd5","condition":"contingent","relevant_dimensions":["antennae","legs"],"bee_group":{"antennae":"B","wings":"X","pattern":"X","legs":"F"},"action":"avoid","summary":"good-avoid","bonus":1.0800000000000007},{"rt":1646.4000000059605,"stimulus":"\n                    <p><b>Action: <em>avoid</em></b></p>\n                    <p>This is the bee that you just saw.</p>\n                    <img src=\"bees-with-color/bee-B1SF.svg\" width=\"200\">\n                    <p><br>Your bonus pay is unchanged, and remains at $0.48.</p>\n            ","response":0,"trial_type":"html-button-response","trial_index":40,"time_elapsed":375864,"internal_node_id":"0.0-4.0-1.14","subject_id":"60db9a1eb82917b04a2f99fa","study_id":"6197b3f67c2b5cd3b6d9596a","session_id":"619be31d4200fc8e84df2dd5","condition":"contingent","relevant_dimensions":["antennae","legs"],"bee_group":{"antennae":"B","wings":"X","pattern":"X","legs":"F"},"bonus":1.0800000000000007},{"rt":1136.4000000059605,"stimulus":"bees-with-color/bee-A1SM.svg","response":0,"trial_type":"image-button-response","trial_index":41,"time_elapsed":377002,"internal_node_id":"0.0-4.0-0.15","subject_id":"60db9a1eb82917b04a2f99fa","study_id":"6197b3f67c2b5cd3b6d9596a","session_id":"619be31d4200fc8e84df2dd5","condition":"contingent","relevant_dimensions":["antennae","legs"],"bee_group":{"antennae":"B","wings":"X","pattern":"X","legs":"F"},"action":"harvest","summary":"good-harvest","bonus":1.0800000000000007},{"rt":991.8999999910593,"stimulus":"\n                    <p><b>Action: <em>harvest</em></b></p>\n                    <p>This is the bee that you just saw.</p>\n                    <img src=\"bees-with-color/bee-A1SM.svg\" width=\"200\">\n                    <p><span class=\"greenText\"><b>Successful harvest!</b></span><br>Your pay has increased by $0.02. Your bonus pay is now $0.50.</p>\n            ","response":0,"trial_type":"html-button-response","trial_index":42,"time_elapsed":377995,"internal_node_id":"0.0-4.0-1.15","subject_id":"60db9a1eb82917b04a2f99fa","study_id":"6197b3f67c2b5cd3b6d9596a","session_id":"619be31d4200fc8e84df2dd5","condition":"contingent","relevant_dimensions":["antennae","legs"],"bee_group":{"antennae":"B","wings":"X","pattern":"X","legs":"F"},"bonus":1.0800000000000007},{"rt":7688.899999991059,"stimulus":"bees-with-color/bee-A2DF.svg","response":1,"trial_type":"image-button-response","trial_index":43,"time_elapsed":385684,"internal_node_id":"0.0-4.0-0.16","subject_id":"60db9a1eb82917b04a2f99fa","study_id":"6197b3f67c2b5cd3b6d9596a","session_id":"619be31d4200fc8e84df2dd5","condition":"contingent","relevant_dimensions":["antennae","legs"],"bee_group":{"antennae":"B","wings":"X","pattern":"X","legs":"F"},"action":"avoid","summary":"bad-avoid","bonus":1.0800000000000007},{"rt":747.2000000029802,"stimulus":"\n                    <p><b>Action: <em>avoid</em></b></p>\n                    <p>This is the bee that you just saw.</p>\n                    <img src=\"bees-with-color/bee-A2DF.svg\" width=\"200\">\n                    <p><br>Your bonus pay is unchanged, and remains at $0.50.</p>\n            ","response":0,"trial_type":"html-button-response","trial_index":44,"time_elapsed":386432,"internal_node_id":"0.0-4.0-1.16","subject_id":"60db9a1eb82917b04a2f99fa","study_id":"6197b3f67c2b5cd3b6d9596a","session_id":"619be31d4200fc8e84df2dd5","condition":"contingent","relevant_dimensions":["antennae","legs"],"bee_group":{"antennae":"B","wings":"X","pattern":"X","legs":"F"},"bonus":1.0800000000000007},{"rt":9052.90000000596,"stimulus":"bees-with-color/bee-B1DF.svg","response":1,"trial_type":"image-button-response","trial_index":45,"time_elapsed":395487,"internal_node_id":"0.0-4.0-0.17","subject_id":"60db9a1eb82917b04a2f99fa","study_id":"6197b3f67c2b5cd3b6d9596a","session_id":"619be31d4200fc8e84df2dd5","condition":"contingent","relevant_dimensions":["antennae","legs"],"bee_group":{"antennae":"B","wings":"X","pattern":"X","legs":"F"},"action":"avoid","summary":"good-avoid","bonus":1.0800000000000007},{"rt":1036.3999999910593,"stimulus":"\n                    <p><b>Action: <em>avoid</em></b></p>\n                    <p>This is the bee that you just saw.</p>\n                    <img src=\"bees-with-color/bee-B1DF.svg\" width=\"200\">\n                    <p><br>Your bonus pay is unchanged, and remains at $0.50.</p>\n            ","response":0,"trial_type":"html-button-response","trial_index":46,"time_elapsed":396524,"internal_node_id":"0.0-4.0-1.17","subject_id":"60db9a1eb82917b04a2f99fa","study_id":"6197b3f67c2b5cd3b6d9596a","session_id":"619be31d4200fc8e84df2dd5","condition":"contingent","relevant_dimensions":["antennae","legs"],"bee_group":{"antennae":"B","wings":"X","pattern":"X","legs":"F"},"bonus":1.0800000000000007},{"rt":4153.20000000298,"stimulus":"bees-with-color/bee-B1SF.svg","response":1,"trial_type":"image-button-response","trial_index":47,"time_elapsed":400678,"internal_node_id":"0.0-4.0-0.18","subject_id":"60db9a1eb82917b04a2f99fa","study_id":"6197b3f67c2b5cd3b6d9596a","session_id":"619be31d4200fc8e84df2dd5","condition":"contingent","relevant_dimensions":["antennae","legs"],"bee_group":{"antennae":"B","wings":"X","pattern":"X","legs":"F"},"action":"avoid","summary":"good-avoid","bonus":1.0800000000000007},{"rt":657.1000000089407,"stimulus":"\n                    <p><b>Action: <em>avoid</em></b></p>\n                    <p>This is the bee that you just saw.</p>\n                    <img src=\"bees-with-color/bee-B1SF.svg\" width=\"200\">\n                    <p><br>Your bonus pay is unchanged, and remains at $0.50.</p>\n            ","response":0,"trial_type":"html-button-response","trial_index":48,"time_elapsed":401336,"internal_node_id":"0.0-4.0-1.18","subject_id":"60db9a1eb82917b04a2f99fa","study_id":"6197b3f67c2b5cd3b6d9596a","session_id":"619be31d4200fc8e84df2dd5","condition":"contingent","relevant_dimensions":["antennae","legs"],"bee_group":{"antennae":"B","wings":"X","pattern":"X","legs":"F"},"bonus":1.0800000000000007},{"rt":1166.7999999970198,"stimulus":"bees-with-color/bee-A1DM.svg","response":0,"trial_type":"image-button-response","trial_index":49,"time_elapsed":402504,"internal_node_id":"0.0-4.0-0.19","subject_id":"60db9a1eb82917b04a2f99fa","study_id":"6197b3f67c2b5cd3b6d9596a","session_id":"619be31d4200fc8e84df2dd5","condition":"contingent","relevant_dimensions":["antennae","legs"],"bee_group":{"antennae":"B","wings":"X","pattern":"X","legs":"F"},"action":"harvest","summary":"good-harvest","bonus":1.0800000000000007},{"rt":29017.40000000596,"stimulus":"\n                    <p><b>Action: <em>harvest</em></b></p>\n                    <p>This is the bee that you just saw.</p>\n                    <img src=\"bees-with-color/bee-A1DM.svg\" width=\"200\">\n                    <p><span class=\"greenText\"><b>Successful harvest!</b></span><br>Your pay has increased by $0.02. Your bonus pay is now $0.52.</p>\n            ","response":0,"trial_type":"html-button-response","trial_index":50,"time_elapsed":431523,"internal_node_id":"0.0-4.0-1.19","subject_id":"60db9a1eb82917b04a2f99fa","study_id":"6197b3f67c2b5cd3b6d9596a","session_id":"619be31d4200fc8e84df2dd5","condition":"contingent","relevant_dimensions":["antennae","legs"],"bee_group":{"antennae":"B","wings":"X","pattern":"X","legs":"F"},"bonus":1.0800000000000007},{"rt":2629,"stimulus":"bees-with-color/bee-B2DM.svg","response":0,"trial_type":"image-button-response","trial_index":51,"time_elapsed":434153,"internal_node_id":"0.0-4.0-0.20","subject_id":"60db9a1eb82917b04a2f99fa","study_id":"6197b3f67c2b5cd3b6d9596a","session_id":"619be31d4200fc8e84df2dd5","condition":"contingent","relevant_dimensions":["antennae","legs"],"bee_group":{"antennae":"B","wings":"X","pattern":"X","legs":"F"},"action":"harvest","summary":"good-harvest","bonus":1.0800000000000007},{"rt":2258.1000000089407,"stimulus":"\n                    <p><b>Action: <em>harvest</em></b></p>\n                    <p>This is the bee that you just saw.</p>\n                    <img src=\"bees-with-color/bee-B2DM.svg\" width=\"200\">\n                    <p><span class=\"greenText\"><b>Successful harvest!</b></span><br>Your pay has increased by $0.02. Your bonus pay is now $0.54.</p>\n            ","response":0,"trial_type":"html-button-response","trial_index":52,"time_elapsed":436412,"internal_node_id":"0.0-4.0-1.20","subject_id":"60db9a1eb82917b04a2f99fa","study_id":"6197b3f67c2b5cd3b6d9596a","session_id":"619be31d4200fc8e84df2dd5","condition":"contingent","relevant_dimensions":["antennae","legs"],"bee_group":{"antennae":"B","wings":"X","pattern":"X","legs":"F"},"bonus":1.0800000000000007},{"rt":4661.5,"stimulus":"bees-with-color/bee-B2SM.svg","response":1,"trial_type":"image-button-response","trial_index":53,"time_elapsed":441075,"internal_node_id":"0.0-4.0-0.21","subject_id":"60db9a1eb82917b04a2f99fa","study_id":"6197b3f67c2b5cd3b6d9596a","session_id":"619be31d4200fc8e84df2dd5","condition":"contingent","relevant_dimensions":["antennae","legs"],"bee_group":{"antennae":"B","wings":"X","pattern":"X","legs":"F"},"action":"avoid","summary":"bad-avoid","bonus":1.0800000000000007},{"rt":724,"stimulus":"\n                    <p><b>Action: <em>avoid</em></b></p>\n                    <p>This is the bee that you just saw.</p>\n                    <img src=\"bees-with-color/bee-B2SM.svg\" width=\"200\">\n                    <p><br>Your bonus pay is unchanged, and remains at $0.54.</p>\n            ","response":0,"trial_type":"html-button-response","trial_index":54,"time_elapsed":441800,"internal_node_id":"0.0-4.0-1.21","subject_id":"60db9a1eb82917b04a2f99fa","study_id":"6197b3f67c2b5cd3b6d9596a","session_id":"619be31d4200fc8e84df2dd5","condition":"contingent","relevant_dimensions":["antennae","legs"],"bee_group":{"antennae":"B","wings":"X","pattern":"X","legs":"F"},"bonus":1.0800000000000007},{"rt":3712.5,"stimulus":"bees-with-color/bee-A2SF.svg","response":0,"trial_type":"image-button-response","trial_index":55,"time_elapsed":445513,"internal_node_id":"0.0-4.0-0.22","subject_id":"60db9a1eb82917b04a2f99fa","study_id":"6197b3f67c2b5cd3b6d9596a","session_id":"619be31d4200fc8e84df2dd5","condition":"contingent","relevant_dimensions":["antennae","legs"],"bee_group":{"antennae":"B","wings":"X","pattern":"X","legs":"F"},"action":"harvest","summary":"good-harvest","bonus":1.0800000000000007},{"rt":1957.7999999970198,"stimulus":"\n                    <p><b>Action: <em>harvest</em></b></p>\n                    <p>This is the bee that you just saw.</p>\n                    <img src=\"bees-with-color/bee-A2SF.svg\" width=\"200\">\n                    <p><span class=\"greenText\"><b>Successful harvest!</b></span><br>Your pay has increased by $0.02. Your bonus pay is now $0.56.</p>\n            ","response":0,"trial_type":"html-button-response","trial_index":56,"time_elapsed":447472,"internal_node_id":"0.0-4.0-1.22","subject_id":"60db9a1eb82917b04a2f99fa","study_id":"6197b3f67c2b5cd3b6d9596a","session_id":"619be31d4200fc8e84df2dd5","condition":"contingent","relevant_dimensions":["antennae","legs"],"bee_group":{"antennae":"B","wings":"X","pattern":"X","legs":"F"},"bonus":1.0800000000000007},{"rt":2064.5,"stimulus":"bees-with-color/bee-B1DM.svg","response":0,"trial_type":"image-button-response","trial_index":57,"time_elapsed":449537,"internal_node_id":"0.0-4.0-0.23","subject_id":"60db9a1eb82917b04a2f99fa","study_id":"6197b3f67c2b5cd3b6d9596a","session_id":"619be31d4200fc8e84df2dd5","condition":"contingent","relevant_dimensions":["antennae","legs"],"bee_group":{"antennae":"B","wings":"X","pattern":"X","legs":"F"},"action":"harvest","summary":"good-harvest","bonus":1.0800000000000007},{"rt":985.1000000089407,"stimulus":"\n                    <p><b>Action: <em>harvest</em></b></p>\n                    <p>This is the bee that you just saw.</p>\n                    <img src=\"bees-with-color/bee-B1DM.svg\" width=\"200\">\n                    <p><span class=\"greenText\"><b>Successful harvest!</b></span><br>Your pay has increased by $0.02. Your bonus pay is now $0.58.</p>\n            ","response":0,"trial_type":"html-button-response","trial_index":58,"time_elapsed":450524,"internal_node_id":"0.0-4.0-1.23","subject_id":"60db9a1eb82917b04a2f99fa","study_id":"6197b3f67c2b5cd3b6d9596a","session_id":"619be31d4200fc8e84df2dd5","condition":"contingent","relevant_dimensions":["antennae","legs"],"bee_group":{"antennae":"B","wings":"X","pattern":"X","legs":"F"},"bonus":1.0800000000000007},{"rt":2838.9000000059605,"stimulus":"bees-with-color/bee-B2DF.svg","response":1,"trial_type":"image-button-response","trial_index":59,"time_elapsed":453364,"internal_node_id":"0.0-4.0-0.24","subject_id":"60db9a1eb82917b04a2f99fa","study_id":"6197b3f67c2b5cd3b6d9596a","session_id":"619be31d4200fc8e84df2dd5","condition":"contingent","relevant_dimensions":["antennae","legs"],"bee_group":{"antennae":"B","wings":"X","pattern":"X","legs":"F"},"action":"avoid","summary":"good-avoid","bonus":1.0800000000000007},{"rt":598.3000000119209,"stimulus":"\n                    <p><b>Action: <em>avoid</em></b></p>\n                    <p>This is the bee that you just saw.</p>\n                    <img src=\"bees-with-color/bee-B2DF.svg\" width=\"200\">\n                    <p><br>Your bonus pay is unchanged, and remains at $0.58.</p>\n            ","response":0,"trial_type":"html-button-response","trial_index":60,"time_elapsed":453963,"internal_node_id":"0.0-4.0-1.24","subject_id":"60db9a1eb82917b04a2f99fa","study_id":"6197b3f67c2b5cd3b6d9596a","session_id":"619be31d4200fc8e84df2dd5","condition":"contingent","relevant_dimensions":["antennae","legs"],"bee_group":{"antennae":"B","wings":"X","pattern":"X","legs":"F"},"bonus":1.0800000000000007},{"rt":1903.4000000059605,"stimulus":"bees-with-color/bee-A1SM.svg","response":0,"trial_type":"image-button-response","trial_index":61,"time_elapsed":455867,"internal_node_id":"0.0-4.0-0.25","subject_id":"60db9a1eb82917b04a2f99fa","study_id":"6197b3f67c2b5cd3b6d9596a","session_id":"619be31d4200fc8e84df2dd5","condition":"contingent","relevant_dimensions":["antennae","legs"],"bee_group":{"antennae":"B","wings":"X","pattern":"X","legs":"F"},"action":"harvest","summary":"good-harvest","bonus":1.0800000000000007},{"rt":1504.0999999940395,"stimulus":"\n                    <p><b>Action: <em>harvest</em></b></p>\n                    <p>This is the bee that you just saw.</p>\n                    <img src=\"bees-with-color/bee-A1SM.svg\" width=\"200\">\n                    <p><span class=\"greenText\"><b>Successful harvest!</b></span><br>Your pay has increased by $0.02. Your bonus pay is now $0.60.</p>\n            ","response":0,"trial_type":"html-button-response","trial_index":62,"time_elapsed":457373,"internal_node_id":"0.0-4.0-1.25","subject_id":"60db9a1eb82917b04a2f99fa","study_id":"6197b3f67c2b5cd3b6d9596a","session_id":"619be31d4200fc8e84df2dd5","condition":"contingent","relevant_dimensions":["antennae","legs"],"bee_group":{"antennae":"B","wings":"X","pattern":"X","legs":"F"},"bonus":1.0800000000000007},{"rt":1568.4000000059605,"stimulus":"bees-with-color/bee-B1SM.svg","response":1,"trial_type":"image-button-response","trial_index":63,"time_elapsed":458942,"internal_node_id":"0.0-4.0-0.26","subject_id":"60db9a1eb82917b04a2f99fa","study_id":"6197b3f67c2b5cd3b6d9596a","session_id":"619be31d4200fc8e84df2dd5","condition":"contingent","relevant_dimensions":["antennae","legs"],"bee_group":{"antennae":"B","wings":"X","pattern":"X","legs":"F"},"action":"avoid","summary":"bad-avoid","bonus":1.0800000000000007},{"rt":633,"stimulus":"\n                    <p><b>Action: <em>avoid</em></b></p>\n                    <p>This is the bee that you just saw.</p>\n                    <img src=\"bees-with-color/bee-B1SM.svg\" width=\"200\">\n                    <p><br>Your bonus pay is unchanged, and remains at $0.60.</p>\n            ","response":0,"trial_type":"html-button-response","trial_index":64,"time_elapsed":459576,"internal_node_id":"0.0-4.0-1.26","subject_id":"60db9a1eb82917b04a2f99fa","study_id":"6197b3f67c2b5cd3b6d9596a","session_id":"619be31d4200fc8e84df2dd5","condition":"contingent","relevant_dimensions":["antennae","legs"],"bee_group":{"antennae":"B","wings":"X","pattern":"X","legs":"F"},"bonus":1.0800000000000007},{"rt":986.1000000089407,"stimulus":"bees-with-color/bee-A2SM.svg","response":0,"trial_type":"image-button-response","trial_index":65,"time_elapsed":460563,"internal_node_id":"0.0-4.0-0.27","subject_id":"60db9a1eb82917b04a2f99fa","study_id":"6197b3f67c2b5cd3b6d9596a","session_id":"619be31d4200fc8e84df2dd5","condition":"contingent","relevant_dimensions":["antennae","legs"],"bee_group":{"antennae":"B","wings":"X","pattern":"X","legs":"F"},"action":"harvest","summary":"good-harvest","bonus":1.0800000000000007},{"rt":873,"stimulus":"\n                    <p><b>Action: <em>harvest</em></b></p>\n                    <p>This is the bee that you just saw.</p>\n                    <img src=\"bees-with-color/bee-A2SM.svg\" width=\"200\">\n                    <p><span class=\"greenText\"><b>Successful harvest!</b></span><br>Your pay has increased by $0.02. Your bonus pay is now $0.62.</p>\n            ","response":0,"trial_type":"html-button-response","trial_index":66,"time_elapsed":461437,"internal_node_id":"0.0-4.0-1.27","subject_id":"60db9a1eb82917b04a2f99fa","study_id":"6197b3f67c2b5cd3b6d9596a","session_id":"619be31d4200fc8e84df2dd5","condition":"contingent","relevant_dimensions":["antennae","legs"],"bee_group":{"antennae":"B","wings":"X","pattern":"X","legs":"F"},"bonus":1.0800000000000007},{"rt":1808.2999999970198,"stimulus":"bees-with-color/bee-B2SF.svg","response":1,"trial_type":"image-button-response","trial_index":67,"time_elapsed":463246,"internal_node_id":"0.0-4.0-0.28","subject_id":"60db9a1eb82917b04a2f99fa","study_id":"6197b3f67c2b5cd3b6d9596a","session_id":"619be31d4200fc8e84df2dd5","condition":"contingent","relevant_dimensions":["antennae","legs"],"bee_group":{"antennae":"B","wings":"X","pattern":"X","legs":"F"},"action":"avoid","summary":"good-avoid","bonus":1.0800000000000007},{"rt":516.1999999880791,"stimulus":"\n                    <p><b>Action: <em>avoid</em></b></p>\n                    <p>This is the bee that you just saw.</p>\n                    <img src=\"bees-with-color/bee-B2SF.svg\" width=\"200\">\n                    <p><br>Your bonus pay is unchanged, and remains at $0.62.</p>\n            ","response":0,"trial_type":"html-button-response","trial_index":68,"time_elapsed":463763,"internal_node_id":"0.0-4.0-1.28","subject_id":"60db9a1eb82917b04a2f99fa","study_id":"6197b3f67c2b5cd3b6d9596a","session_id":"619be31d4200fc8e84df2dd5","condition":"contingent","relevant_dimensions":["antennae","legs"],"bee_group":{"antennae":"B","wings":"X","pattern":"X","legs":"F"},"bonus":1.0800000000000007},{"rt":975.5999999940395,"stimulus":"bees-with-color/bee-A2DM.svg","response":0,"trial_type":"image-button-response","trial_index":69,"time_elapsed":464740,"internal_node_id":"0.0-4.0-0.29","subject_id":"60db9a1eb82917b04a2f99fa","study_id":"6197b3f67c2b5cd3b6d9596a","session_id":"619be31d4200fc8e84df2dd5","condition":"contingent","relevant_dimensions":["antennae","legs"],"bee_group":{"antennae":"B","wings":"X","pattern":"X","legs":"F"},"action":"harvest","summary":"good-harvest","bonus":1.0800000000000007},{"rt":2009.7000000029802,"stimulus":"\n                    <p><b>Action: <em>harvest</em></b></p>\n                    <p>This is the bee that you just saw.</p>\n                    <img src=\"bees-with-color/bee-A2DM.svg\" width=\"200\">\n                    <p><span class=\"greenText\"><b>Successful harvest!</b></span><br>Your pay has increased by $0.02. Your bonus pay is now $0.64.</p>\n            ","response":0,"trial_type":"html-button-response","trial_index":70,"time_elapsed":466751,"internal_node_id":"0.0-4.0-1.29","subject_id":"60db9a1eb82917b04a2f99fa","study_id":"6197b3f67c2b5cd3b6d9596a","session_id":"619be31d4200fc8e84df2dd5","condition":"contingent","relevant_dimensions":["antennae","legs"],"bee_group":{"antennae":"B","wings":"X","pattern":"X","legs":"F"},"bonus":1.0800000000000007},{"rt":1454.2000000029802,"stimulus":"bees-with-color/bee-A1SF.svg","response":1,"trial_type":"image-button-response","trial_index":71,"time_elapsed":468206,"internal_node_id":"0.0-4.0-0.30","subject_id":"60db9a1eb82917b04a2f99fa","study_id":"6197b3f67c2b5cd3b6d9596a","session_id":"619be31d4200fc8e84df2dd5","condition":"contingent","relevant_dimensions":["antennae","legs"],"bee_group":{"antennae":"B","wings":"X","pattern":"X","legs":"F"},"action":"avoid","summary":"bad-avoid","bonus":1.0800000000000007},{"rt":661.2000000029802,"stimulus":"\n                    <p><b>Action: <em>avoid</em></b></p>\n                    <p>This is the bee that you just saw.</p>\n                    <img src=\"bees-with-color/bee-A1SF.svg\" width=\"200\">\n                    <p><br>Your bonus pay is unchanged, and remains at $0.64.</p>\n            ","response":0,"trial_type":"html-button-response","trial_index":72,"time_elapsed":468868,"internal_node_id":"0.0-4.0-1.30","subject_id":"60db9a1eb82917b04a2f99fa","study_id":"6197b3f67c2b5cd3b6d9596a","session_id":"619be31d4200fc8e84df2dd5","condition":"contingent","relevant_dimensions":["antennae","legs"],"bee_group":{"antennae":"B","wings":"X","pattern":"X","legs":"F"},"bonus":1.0800000000000007},{"rt":1326.2000000029802,"stimulus":"bees-with-color/bee-A1DF.svg","response":1,"trial_type":"image-button-response","trial_index":73,"time_elapsed":470195,"internal_node_id":"0.0-4.0-0.31","subject_id":"60db9a1eb82917b04a2f99fa","study_id":"6197b3f67c2b5cd3b6d9596a","session_id":"619be31d4200fc8e84df2dd5","condition":"contingent","relevant_dimensions":["antennae","legs"],"bee_group":{"antennae":"B","wings":"X","pattern":"X","legs":"F"},"action":"avoid","summary":"bad-avoid","bonus":1.0800000000000007},{"rt":597,"stimulus":"\n                    <p><b>Action: <em>avoid</em></b></p>\n                    <p>This is the bee that you just saw.</p>\n                    <img src=\"bees-with-color/bee-A1DF.svg\" width=\"200\">\n                    <p><br>Your bonus pay is unchanged, and remains at $0.64.</p>\n            ","response":0,"trial_type":"html-button-response","trial_index":74,"time_elapsed":470793,"internal_node_id":"0.0-4.0-1.31","subject_id":"60db9a1eb82917b04a2f99fa","study_id":"6197b3f67c2b5cd3b6d9596a","session_id":"619be31d4200fc8e84df2dd5","condition":"contingent","relevant_dimensions":["antennae","legs"],"bee_group":{"antennae":"B","wings":"X","pattern":"X","legs":"F"},"bonus":1.0800000000000007},{"rt":844.2999999970198,"stimulus":"bees-with-color/bee-B1SF.svg","response":1,"trial_type":"image-button-response","trial_index":75,"time_elapsed":471638,"internal_node_id":"0.0-4.0-0.32","subject_id":"60db9a1eb82917b04a2f99fa","study_id":"6197b3f67c2b5cd3b6d9596a","session_id":"619be31d4200fc8e84df2dd5","condition":"contingent","relevant_dimensions":["antennae","legs"],"bee_group":{"antennae":"B","wings":"X","pattern":"X","legs":"F"},"action":"avoid","summary":"good-avoid","bonus":1.0800000000000007},{"rt":649.8999999910593,"stimulus":"\n                    <p><b>Action: <em>avoid</em></b></p>\n                    <p>This is the bee that you just saw.</p>\n                    <img src=\"bees-with-color/bee-B1SF.svg\" width=\"200\">\n                    <p><br>Your bonus pay is unchanged, and remains at $0.64.</p>\n            ","response":0,"trial_type":"html-button-response","trial_index":76,"time_elapsed":472289,"internal_node_id":"0.0-4.0-1.32","subject_id":"60db9a1eb82917b04a2f99fa","study_id":"6197b3f67c2b5cd3b6d9596a","session_id":"619be31d4200fc8e84df2dd5","condition":"contingent","relevant_dimensions":["antennae","legs"],"bee_group":{"antennae":"B","wings":"X","pattern":"X","legs":"F"},"bonus":1.0800000000000007},{"rt":908.0999999940395,"stimulus":"bees-with-color/bee-A2DM.svg","response":0,"trial_type":"image-button-response","trial_index":77,"time_elapsed":473198,"internal_node_id":"0.0-4.0-0.33","subject_id":"60db9a1eb82917b04a2f99fa","study_id":"6197b3f67c2b5cd3b6d9596a","session_id":"619be31d4200fc8e84df2dd5","condition":"contingent","relevant_dimensions":["antennae","legs"],"bee_group":{"antennae":"B","wings":"X","pattern":"X","legs":"F"},"action":"harvest","summary":"good-harvest","bonus":1.0800000000000007},{"rt":728.2000000029802,"stimulus":"\n                    <p><b>Action: <em>harvest</em></b></p>\n                    <p>This is the bee that you just saw.</p>\n                    <img src=\"bees-with-color/bee-A2DM.svg\" width=\"200\">\n                    <p><span class=\"greenText\"><b>Successful harvest!</b></span><br>Your pay has increased by $0.02. Your bonus pay is now $0.66.</p>\n            ","response":0,"trial_type":"html-button-response","trial_index":78,"time_elapsed":473927,"internal_node_id":"0.0-4.0-1.33","subject_id":"60db9a1eb82917b04a2f99fa","study_id":"6197b3f67c2b5cd3b6d9596a","session_id":"619be31d4200fc8e84df2dd5","condition":"contingent","relevant_dimensions":["antennae","legs"],"bee_group":{"antennae":"B","wings":"X","pattern":"X","legs":"F"},"bonus":1.0800000000000007},{"rt":1529.7999999970198,"stimulus":"bees-with-color/bee-B2SM.svg","response":0,"trial_type":"image-button-response","trial_index":79,"time_elapsed":475458,"internal_node_id":"0.0-4.0-0.34","subject_id":"60db9a1eb82917b04a2f99fa","study_id":"6197b3f67c2b5cd3b6d9596a","session_id":"619be31d4200fc8e84df2dd5","condition":"contingent","relevant_dimensions":["antennae","legs"],"bee_group":{"antennae":"B","wings":"X","pattern":"X","legs":"F"},"action":"harvest","summary":"good-harvest","bonus":1.0800000000000007},{"rt":715.5,"stimulus":"\n                    <p><b>Action: <em>harvest</em></b></p>\n                    <p>This is the bee that you just saw.</p>\n                    <img src=\"bees-with-color/bee-B2SM.svg\" width=\"200\">\n                    <p><span class=\"greenText\"><b>Successful harvest!</b></span><br>Your pay has increased by $0.02. Your bonus pay is now $0.68.</p>\n            ","response":0,"trial_type":"html-button-response","trial_index":80,"time_elapsed":476175,"internal_node_id":"0.0-4.0-1.34","subject_id":"60db9a1eb82917b04a2f99fa","study_id":"6197b3f67c2b5cd3b6d9596a","session_id":"619be31d4200fc8e84df2dd5","condition":"contingent","relevant_dimensions":["antennae","legs"],"bee_group":{"antennae":"B","wings":"X","pattern":"X","legs":"F"},"bonus":1.0800000000000007},{"rt":701.9000000059605,"stimulus":"bees-with-color/bee-B1DF.svg","response":1,"trial_type":"image-button-response","trial_index":81,"time_elapsed":476878,"internal_node_id":"0.0-4.0-0.35","subject_id":"60db9a1eb82917b04a2f99fa","study_id":"6197b3f67c2b5cd3b6d9596a","session_id":"619be31d4200fc8e84df2dd5","condition":"contingent","relevant_dimensions":["antennae","legs"],"bee_group":{"antennae":"B","wings":"X","pattern":"X","legs":"F"},"action":"avoid","summary":"good-avoid","bonus":1.0800000000000007},{"rt":517,"stimulus":"\n                    <p><b>Action: <em>avoid</em></b></p>\n                    <p>This is the bee that you just saw.</p>\n                    <img src=\"bees-with-color/bee-B1DF.svg\" width=\"200\">\n                    <p><br>Your bonus pay is unchanged, and remains at $0.68.</p>\n            ","response":0,"trial_type":"html-button-response","trial_index":82,"time_elapsed":477396,"internal_node_id":"0.0-4.0-1.35","subject_id":"60db9a1eb82917b04a2f99fa","study_id":"6197b3f67c2b5cd3b6d9596a","session_id":"619be31d4200fc8e84df2dd5","condition":"contingent","relevant_dimensions":["antennae","legs"],"bee_group":{"antennae":"B","wings":"X","pattern":"X","legs":"F"},"bonus":1.0800000000000007},{"rt":912.2999999970198,"stimulus":"bees-with-color/bee-A1DM.svg","response":0,"trial_type":"image-button-response","trial_index":83,"time_elapsed":478309,"internal_node_id":"0.0-4.0-0.36","subject_id":"60db9a1eb82917b04a2f99fa","study_id":"6197b3f67c2b5cd3b6d9596a","session_id":"619be31d4200fc8e84df2dd5","condition":"contingent","relevant_dimensions":["antennae","legs"],"bee_group":{"antennae":"B","wings":"X","pattern":"X","legs":"F"},"action":"harvest","summary":"good-harvest","bonus":1.0800000000000007},{"rt":488,"stimulus":"\n                    <p><b>Action: <em>harvest</em></b></p>\n                    <p>This is the bee that you just saw.</p>\n                    <img src=\"bees-with-color/bee-A1DM.svg\" width=\"200\">\n                    <p><span class=\"greenText\"><b>Successful harvest!</b></span><br>Your pay has increased by $0.02. Your bonus pay is now $0.70.</p>\n            ","response":0,"trial_type":"html-button-response","trial_index":84,"time_elapsed":478798,"internal_node_id":"0.0-4.0-1.36","subject_id":"60db9a1eb82917b04a2f99fa","study_id":"6197b3f67c2b5cd3b6d9596a","session_id":"619be31d4200fc8e84df2dd5","condition":"contingent","relevant_dimensions":["antennae","legs"],"bee_group":{"antennae":"B","wings":"X","pattern":"X","legs":"F"},"bonus":1.0800000000000007},{"rt":797.4000000059605,"stimulus":"bees-with-color/bee-A1SM.svg","response":0,"trial_type":"image-button-response","trial_index":85,"time_elapsed":479596,"internal_node_id":"0.0-4.0-0.37","subject_id":"60db9a1eb82917b04a2f99fa","study_id":"6197b3f67c2b5cd3b6d9596a","session_id":"619be31d4200fc8e84df2dd5","condition":"contingent","relevant_dimensions":["antennae","legs"],"bee_group":{"antennae":"B","wings":"X","pattern":"X","legs":"F"},"action":"harvest","summary":"good-harvest","bonus":1.0800000000000007},{"rt":777,"stimulus":"\n                    <p><b>Action: <em>harvest</em></b></p>\n                    <p>This is the bee that you just saw.</p>\n                    <img src=\"bees-with-color/bee-A1SM.svg\" width=\"200\">\n                    <p><span class=\"greenText\"><b>Successful harvest!</b></span><br>Your pay has increased by $0.02. Your bonus pay is now $0.72.</p>\n            ","response":0,"trial_type":"html-button-response","trial_index":86,"time_elapsed":480374,"internal_node_id":"0.0-4.0-1.37","subject_id":"60db9a1eb82917b04a2f99fa","study_id":"6197b3f67c2b5cd3b6d9596a","session_id":"619be31d4200fc8e84df2dd5","condition":"contingent","relevant_dimensions":["antennae","legs"],"bee_group":{"antennae":"B","wings":"X","pattern":"X","legs":"F"},"bonus":1.0800000000000007},{"rt":1039.4000000059605,"stimulus":"bees-with-color/bee-A1DF.svg","response":1,"trial_type":"image-button-response","trial_index":87,"time_elapsed":481414,"internal_node_id":"0.0-4.0-0.38","subject_id":"60db9a1eb82917b04a2f99fa","study_id":"6197b3f67c2b5cd3b6d9596a","session_id":"619be31d4200fc8e84df2dd5","condition":"contingent","relevant_dimensions":["antennae","legs"],"bee_group":{"antennae":"B","wings":"X","pattern":"X","legs":"F"},"action":"avoid","summary":"bad-avoid","bonus":1.0800000000000007},{"rt":459.29999999701977,"stimulus":"\n                    <p><b>Action: <em>avoid</em></b></p>\n                    <p>This is the bee that you just saw.</p>\n                    <img src=\"bees-with-color/bee-A1DF.svg\" width=\"200\">\n                    <p><br>Your bonus pay is unchanged, and remains at $0.72.</p>\n            ","response":0,"trial_type":"html-button-response","trial_index":88,"time_elapsed":481874,"internal_node_id":"0.0-4.0-1.38","subject_id":"60db9a1eb82917b04a2f99fa","study_id":"6197b3f67c2b5cd3b6d9596a","session_id":"619be31d4200fc8e84df2dd5","condition":"contingent","relevant_dimensions":["antennae","legs"],"bee_group":{"antennae":"B","wings":"X","pattern":"X","legs":"F"},"bonus":1.0800000000000007},{"rt":717.0999999940395,"stimulus":"bees-with-color/bee-A1SF.svg","response":1,"trial_type":"image-button-response","trial_index":89,"time_elapsed":482592,"internal_node_id":"0.0-4.0-0.39","subject_id":"60db9a1eb82917b04a2f99fa","study_id":"6197b3f67c2b5cd3b6d9596a","session_id":"619be31d4200fc8e84df2dd5","condition":"contingent","relevant_dimensions":["antennae","legs"],"bee_group":{"antennae":"B","wings":"X","pattern":"X","legs":"F"},"action":"avoid","summary":"bad-avoid","bonus":1.0800000000000007},{"rt":489.20000000298023,"stimulus":"\n                    <p><b>Action: <em>avoid</em></b></p>\n                    <p>This is the bee that you just saw.</p>\n                    <img src=\"bees-with-color/bee-A1SF.svg\" width=\"200\">\n                    <p><br>Your bonus pay is unchanged, and remains at $0.72.</p>\n            ","response":0,"trial_type":"html-button-response","trial_index":90,"time_elapsed":483082,"internal_node_id":"0.0-4.0-1.39","subject_id":"60db9a1eb82917b04a2f99fa","study_id":"6197b3f67c2b5cd3b6d9596a","session_id":"619be31d4200fc8e84df2dd5","condition":"contingent","relevant_dimensions":["antennae","legs"],"bee_group":{"antennae":"B","wings":"X","pattern":"X","legs":"F"},"bonus":1.0800000000000007},{"rt":745.4000000059605,"stimulus":"bees-with-color/bee-B2DF.svg","response":1,"trial_type":"image-button-response","trial_index":91,"time_elapsed":483829,"internal_node_id":"0.0-4.0-0.40","subject_id":"60db9a1eb82917b04a2f99fa","study_id":"6197b3f67c2b5cd3b6d9596a","session_id":"619be31d4200fc8e84df2dd5","condition":"contingent","relevant_dimensions":["antennae","legs"],"bee_group":{"antennae":"B","wings":"X","pattern":"X","legs":"F"},"action":"avoid","summary":"good-avoid","bonus":1.0800000000000007},{"rt":458.5,"stimulus":"\n                    <p><b>Action: <em>avoid</em></b></p>\n                    <p>This is the bee that you just saw.</p>\n                    <img src=\"bees-with-color/bee-B2DF.svg\" width=\"200\">\n                    <p><br>Your bonus pay is unchanged, and remains at $0.72.</p>\n            ","response":0,"trial_type":"html-button-response","trial_index":92,"time_elapsed":484288,"internal_node_id":"0.0-4.0-1.40","subject_id":"60db9a1eb82917b04a2f99fa","study_id":"6197b3f67c2b5cd3b6d9596a","session_id":"619be31d4200fc8e84df2dd5","condition":"contingent","relevant_dimensions":["antennae","legs"],"bee_group":{"antennae":"B","wings":"X","pattern":"X","legs":"F"},"bonus":1.0800000000000007},{"rt":859.4000000059605,"stimulus":"bees-with-color/bee-A2SM.svg","response":0,"trial_type":"image-button-response","trial_index":93,"time_elapsed":485148,"internal_node_id":"0.0-4.0-0.41","subject_id":"60db9a1eb82917b04a2f99fa","study_id":"6197b3f67c2b5cd3b6d9596a","session_id":"619be31d4200fc8e84df2dd5","condition":"contingent","relevant_dimensions":["antennae","legs"],"bee_group":{"antennae":"B","wings":"X","pattern":"X","legs":"F"},"action":"harvest","summary":"good-harvest","bonus":1.0800000000000007},{"rt":758.5,"stimulus":"\n                    <p><b>Action: <em>harvest</em></b></p>\n                    <p>This is the bee that you just saw.</p>\n                    <img src=\"bees-with-color/bee-A2SM.svg\" width=\"200\">\n                    <p><span class=\"greenText\"><b>Successful harvest!</b></span><br>Your pay has increased by $0.02. Your bonus pay is now $0.74.</p>\n            ","response":0,"trial_type":"html-button-response","trial_index":94,"time_elapsed":485908,"internal_node_id":"0.0-4.0-1.41","subject_id":"60db9a1eb82917b04a2f99fa","study_id":"6197b3f67c2b5cd3b6d9596a","session_id":"619be31d4200fc8e84df2dd5","condition":"contingent","relevant_dimensions":["antennae","legs"],"bee_group":{"antennae":"B","wings":"X","pattern":"X","legs":"F"},"bonus":1.0800000000000007},{"rt":1428.3999999910593,"stimulus":"bees-with-color/bee-B1DM.svg","response":1,"trial_type":"image-button-response","trial_index":95,"time_elapsed":487337,"internal_node_id":"0.0-4.0-0.42","subject_id":"60db9a1eb82917b04a2f99fa","study_id":"6197b3f67c2b5cd3b6d9596a","session_id":"619be31d4200fc8e84df2dd5","condition":"contingent","relevant_dimensions":["antennae","legs"],"bee_group":{"antennae":"B","wings":"X","pattern":"X","legs":"F"},"action":"avoid","summary":"bad-avoid","bonus":1.0800000000000007},{"rt":577,"stimulus":"\n                    <p><b>Action: <em>avoid</em></b></p>\n                    <p>This is the bee that you just saw.</p>\n                    <img src=\"bees-with-color/bee-B1DM.svg\" width=\"200\">\n                    <p><br>Your bonus pay is unchanged, and remains at $0.74.</p>\n            ","response":0,"trial_type":"html-button-response","trial_index":96,"time_elapsed":487915,"internal_node_id":"0.0-4.0-1.42","subject_id":"60db9a1eb82917b04a2f99fa","study_id":"6197b3f67c2b5cd3b6d9596a","session_id":"619be31d4200fc8e84df2dd5","condition":"contingent","relevant_dimensions":["antennae","legs"],"bee_group":{"antennae":"B","wings":"X","pattern":"X","legs":"F"},"bonus":1.0800000000000007},{"rt":1484.3999999910593,"stimulus":"bees-with-color/bee-A2SF.svg","response":1,"trial_type":"image-button-response","trial_index":97,"time_elapsed":489400,"internal_node_id":"0.0-4.0-0.43","subject_id":"60db9a1eb82917b04a2f99fa","study_id":"6197b3f67c2b5cd3b6d9596a","session_id":"619be31d4200fc8e84df2dd5","condition":"contingent","relevant_dimensions":["antennae","legs"],"bee_group":{"antennae":"B","wings":"X","pattern":"X","legs":"F"},"action":"avoid","summary":"bad-avoid","bonus":1.0800000000000007},{"rt":419.79999999701977,"stimulus":"\n                    <p><b>Action: <em>avoid</em></b></p>\n                    <p>This is the bee that you just saw.</p>\n                    <img src=\"bees-with-color/bee-A2SF.svg\" width=\"200\">\n                    <p><br>Your bonus pay is unchanged, and remains at $0.74.</p>\n            ","response":0,"trial_type":"html-button-response","trial_index":98,"time_elapsed":489821,"internal_node_id":"0.0-4.0-1.43","subject_id":"60db9a1eb82917b04a2f99fa","study_id":"6197b3f67c2b5cd3b6d9596a","session_id":"619be31d4200fc8e84df2dd5","condition":"contingent","relevant_dimensions":["antennae","legs"],"bee_group":{"antennae":"B","wings":"X","pattern":"X","legs":"F"},"bonus":1.0800000000000007},{"rt":1859.5,"stimulus":"bees-with-color/bee-B1SM.svg","response":1,"trial_type":"image-button-response","trial_index":99,"time_elapsed":491681,"internal_node_id":"0.0-4.0-0.44","subject_id":"60db9a1eb82917b04a2f99fa","study_id":"6197b3f67c2b5cd3b6d9596a","session_id":"619be31d4200fc8e84df2dd5","condition":"contingent","relevant_dimensions":["antennae","legs"],"bee_group":{"antennae":"B","wings":"X","pattern":"X","legs":"F"},"action":"avoid","summary":"bad-avoid","bonus":1.0800000000000007},{"rt":453.09999999403954,"stimulus":"\n                    <p><b>Action: <em>avoid</em></b></p>\n                    <p>This is the bee that you just saw.</p>\n                    <img src=\"bees-with-color/bee-B1SM.svg\" width=\"200\">\n                    <p><br>Your bonus pay is unchanged, and remains at $0.74.</p>\n            ","response":0,"trial_type":"html-button-response","trial_index":100,"time_elapsed":492135,"internal_node_id":"0.0-4.0-1.44","subject_id":"60db9a1eb82917b04a2f99fa","study_id":"6197b3f67c2b5cd3b6d9596a","session_id":"619be31d4200fc8e84df2dd5","condition":"contingent","relevant_dimensions":["antennae","legs"],"bee_group":{"antennae":"B","wings":"X","pattern":"X","legs":"F"},"bonus":1.0800000000000007},{"rt":769.2999999970198,"stimulus":"bees-with-color/bee-A2DF.svg","response":1,"trial_type":"image-button-response","trial_index":101,"time_elapsed":492905,"internal_node_id":"0.0-4.0-0.45","subject_id":"60db9a1eb82917b04a2f99fa","study_id":"6197b3f67c2b5cd3b6d9596a","session_id":"619be31d4200fc8e84df2dd5","condition":"contingent","relevant_dimensions":["antennae","legs"],"bee_group":{"antennae":"B","wings":"X","pattern":"X","legs":"F"},"action":"avoid","summary":"bad-avoid","bonus":1.0800000000000007},{"rt":369,"stimulus":"\n                    <p><b>Action: <em>avoid</em></b></p>\n                    <p>This is the bee that you just saw.</p>\n                    <img src=\"bees-with-color/bee-A2DF.svg\" width=\"200\">\n                    <p><br>Your bonus pay is unchanged, and remains at $0.74.</p>\n            ","response":0,"trial_type":"html-button-response","trial_index":102,"time_elapsed":493276,"internal_node_id":"0.0-4.0-1.45","subject_id":"60db9a1eb82917b04a2f99fa","study_id":"6197b3f67c2b5cd3b6d9596a","session_id":"619be31d4200fc8e84df2dd5","condition":"contingent","relevant_dimensions":["antennae","legs"],"bee_group":{"antennae":"B","wings":"X","pattern":"X","legs":"F"},"bonus":1.0800000000000007},{"rt":1037,"stimulus":"bees-with-color/bee-B2SF.svg","response":1,"trial_type":"image-button-response","trial_index":103,"time_elapsed":494314,"internal_node_id":"0.0-4.0-0.46","subject_id":"60db9a1eb82917b04a2f99fa","study_id":"6197b3f67c2b5cd3b6d9596a","session_id":"619be31d4200fc8e84df2dd5","condition":"contingent","relevant_dimensions":["antennae","legs"],"bee_group":{"antennae":"B","wings":"X","pattern":"X","legs":"F"},"action":"avoid","summary":"good-avoid","bonus":1.0800000000000007},{"rt":648.0999999940395,"stimulus":"\n                    <p><b>Action: <em>avoid</em></b></p>\n                    <p>This is the bee that you just saw.</p>\n                    <img src=\"bees-with-color/bee-B2SF.svg\" width=\"200\">\n                    <p><br>Your bonus pay is unchanged, and remains at $0.74.</p>\n            ","response":0,"trial_type":"html-button-response","trial_index":104,"time_elapsed":494963,"internal_node_id":"0.0-4.0-1.46","subject_id":"60db9a1eb82917b04a2f99fa","study_id":"6197b3f67c2b5cd3b6d9596a","session_id":"619be31d4200fc8e84df2dd5","condition":"contingent","relevant_dimensions":["antennae","legs"],"bee_group":{"antennae":"B","wings":"X","pattern":"X","legs":"F"},"bonus":1.0800000000000007},{"rt":1318,"stimulus":"bees-with-color/bee-B2DM.svg","response":0,"trial_type":"image-button-response","trial_index":105,"time_elapsed":496282,"internal_node_id":"0.0-4.0-0.47","subject_id":"60db9a1eb82917b04a2f99fa","study_id":"6197b3f67c2b5cd3b6d9596a","session_id":"619be31d4200fc8e84df2dd5","condition":"contingent","relevant_dimensions":["antennae","legs"],"bee_group":{"antennae":"B","wings":"X","pattern":"X","legs":"F"},"action":"harvest","summary":"good-harvest","bonus":1.0800000000000007},{"rt":1316.2999999970198,"stimulus":"\n                    <p><b>Action: <em>harvest</em></b></p>\n                    <p>This is the bee that you just saw.</p>\n                    <img src=\"bees-with-color/bee-B2DM.svg\" width=\"200\">\n                    <p><span class=\"greenText\"><b>Successful harvest!</b></span><br>Your pay has increased by $0.02. Your bonus pay is now $0.76.</p>\n            ","response":0,"trial_type":"html-button-response","trial_index":106,"time_elapsed":497599,"internal_node_id":"0.0-4.0-1.47","subject_id":"60db9a1eb82917b04a2f99fa","study_id":"6197b3f67c2b5cd3b6d9596a","session_id":"619be31d4200fc8e84df2dd5","condition":"contingent","relevant_dimensions":["antennae","legs"],"bee_group":{"antennae":"B","wings":"X","pattern":"X","legs":"F"},"bonus":1.0800000000000007},{"rt":2104.9000000059605,"stimulus":"bees-with-color/bee-B2SF.svg","response":1,"trial_type":"image-button-response","trial_index":107,"time_elapsed":499705,"internal_node_id":"0.0-4.0-0.48","subject_id":"60db9a1eb82917b04a2f99fa","study_id":"6197b3f67c2b5cd3b6d9596a","session_id":"619be31d4200fc8e84df2dd5","condition":"contingent","relevant_dimensions":["antennae","legs"],"bee_group":{"antennae":"B","wings":"X","pattern":"X","legs":"F"},"action":"avoid","summary":"good-avoid","bonus":1.0800000000000007},{"rt":895,"stimulus":"\n                    <p><b>Action: <em>avoid</em></b></p>\n                    <p>This is the bee that you just saw.</p>\n                    <img src=\"bees-with-color/bee-B2SF.svg\" width=\"200\">\n                    <p><br>Your bonus pay is unchanged, and remains at $0.76.</p>\n            ","response":0,"trial_type":"html-button-response","trial_index":108,"time_elapsed":500601,"internal_node_id":"0.0-4.0-1.48","subject_id":"60db9a1eb82917b04a2f99fa","study_id":"6197b3f67c2b5cd3b6d9596a","session_id":"619be31d4200fc8e84df2dd5","condition":"contingent","relevant_dimensions":["antennae","legs"],"bee_group":{"antennae":"B","wings":"X","pattern":"X","legs":"F"},"bonus":1.0800000000000007},{"rt":814.1000000089407,"stimulus":"bees-with-color/bee-A1DF.svg","response":1,"trial_type":"image-button-response","trial_index":109,"time_elapsed":501416,"internal_node_id":"0.0-4.0-0.49","subject_id":"60db9a1eb82917b04a2f99fa","study_id":"6197b3f67c2b5cd3b6d9596a","session_id":"619be31d4200fc8e84df2dd5","condition":"contingent","relevant_dimensions":["antennae","legs"],"bee_group":{"antennae":"B","wings":"X","pattern":"X","legs":"F"},"action":"avoid","summary":"bad-avoid","bonus":1.0800000000000007},{"rt":575.9000000059605,"stimulus":"\n                    <p><b>Action: <em>avoid</em></b></p>\n                    <p>This is the bee that you just saw.</p>\n                    <img src=\"bees-with-color/bee-A1DF.svg\" width=\"200\">\n                    <p><br>Your bonus pay is unchanged, and remains at $0.76.</p>\n            ","response":0,"trial_type":"html-button-response","trial_index":110,"time_elapsed":501993,"internal_node_id":"0.0-4.0-1.49","subject_id":"60db9a1eb82917b04a2f99fa","study_id":"6197b3f67c2b5cd3b6d9596a","session_id":"619be31d4200fc8e84df2dd5","condition":"contingent","relevant_dimensions":["antennae","legs"],"bee_group":{"antennae":"B","wings":"X","pattern":"X","legs":"F"},"bonus":1.0800000000000007},{"rt":1408.5999999940395,"stimulus":"bees-with-color/bee-B1DF.svg","response":1,"trial_type":"image-button-response","trial_index":111,"time_elapsed":503403,"internal_node_id":"0.0-4.0-0.50","subject_id":"60db9a1eb82917b04a2f99fa","study_id":"6197b3f67c2b5cd3b6d9596a","session_id":"619be31d4200fc8e84df2dd5","condition":"contingent","relevant_dimensions":["antennae","legs"],"bee_group":{"antennae":"B","wings":"X","pattern":"X","legs":"F"},"action":"avoid","summary":"good-avoid","bonus":1.0800000000000007},{"rt":998.7000000029802,"stimulus":"\n                    <p><b>Action: <em>avoid</em></b></p>\n                    <p>This is the bee that you just saw.</p>\n                    <img src=\"bees-with-color/bee-B1DF.svg\" width=\"200\">\n                    <p><br>Your bonus pay is unchanged, and remains at $0.76.</p>\n            ","response":0,"trial_type":"html-button-response","trial_index":112,"time_elapsed":504402,"internal_node_id":"0.0-4.0-1.50","subject_id":"60db9a1eb82917b04a2f99fa","study_id":"6197b3f67c2b5cd3b6d9596a","session_id":"619be31d4200fc8e84df2dd5","condition":"contingent","relevant_dimensions":["antennae","legs"],"bee_group":{"antennae":"B","wings":"X","pattern":"X","legs":"F"},"bonus":1.0800000000000007},{"rt":655.7000000029802,"stimulus":"bees-with-color/bee-A2SF.svg","response":1,"trial_type":"image-button-response","trial_index":113,"time_elapsed":505059,"internal_node_id":"0.0-4.0-0.51","subject_id":"60db9a1eb82917b04a2f99fa","study_id":"6197b3f67c2b5cd3b6d9596a","session_id":"619be31d4200fc8e84df2dd5","condition":"contingent","relevant_dimensions":["antennae","legs"],"bee_group":{"antennae":"B","wings":"X","pattern":"X","legs":"F"},"action":"avoid","summary":"bad-avoid","bonus":1.0800000000000007},{"rt":442.09999999403954,"stimulus":"\n                    <p><b>Action: <em>avoid</em></b></p>\n                    <p>This is the bee that you just saw.</p>\n                    <img src=\"bees-with-color/bee-A2SF.svg\" width=\"200\">\n                    <p><br>Your bonus pay is unchanged, and remains at $0.76.</p>\n            ","response":0,"trial_type":"html-button-response","trial_index":114,"time_elapsed":505502,"internal_node_id":"0.0-4.0-1.51","subject_id":"60db9a1eb82917b04a2f99fa","study_id":"6197b3f67c2b5cd3b6d9596a","session_id":"619be31d4200fc8e84df2dd5","condition":"contingent","relevant_dimensions":["antennae","legs"],"bee_group":{"antennae":"B","wings":"X","pattern":"X","legs":"F"},"bonus":1.0800000000000007},{"rt":779.2999999970198,"stimulus":"bees-with-color/bee-A2DM.svg","response":0,"trial_type":"image-button-response","trial_index":115,"time_elapsed":506282,"internal_node_id":"0.0-4.0-0.52","subject_id":"60db9a1eb82917b04a2f99fa","study_id":"6197b3f67c2b5cd3b6d9596a","session_id":"619be31d4200fc8e84df2dd5","condition":"contingent","relevant_dimensions":["antennae","legs"],"bee_group":{"antennae":"B","wings":"X","pattern":"X","legs":"F"},"action":"harvest","summary":"good-harvest","bonus":1.0800000000000007},{"rt":736.0999999940395,"stimulus":"\n                    <p><b>Action: <em>harvest</em></b></p>\n                    <p>This is the bee that you just saw.</p>\n                    <img src=\"bees-with-color/bee-A2DM.svg\" width=\"200\">\n                    <p><span class=\"greenText\"><b>Successful harvest!</b></span><br>Your pay has increased by $0.02. Your bonus pay is now $0.78.</p>\n            ","response":0,"trial_type":"html-button-response","trial_index":116,"time_elapsed":507019,"internal_node_id":"0.0-4.0-1.52","subject_id":"60db9a1eb82917b04a2f99fa","study_id":"6197b3f67c2b5cd3b6d9596a","session_id":"619be31d4200fc8e84df2dd5","condition":"contingent","relevant_dimensions":["antennae","legs"],"bee_group":{"antennae":"B","wings":"X","pattern":"X","legs":"F"},"bonus":1.0800000000000007},{"rt":1221.1000000089407,"stimulus":"bees-with-color/bee-B2SM.svg","response":0,"trial_type":"image-button-response","trial_index":117,"time_elapsed":508241,"internal_node_id":"0.0-4.0-0.53","subject_id":"60db9a1eb82917b04a2f99fa","study_id":"6197b3f67c2b5cd3b6d9596a","session_id":"619be31d4200fc8e84df2dd5","condition":"contingent","relevant_dimensions":["antennae","legs"],"bee_group":{"antennae":"B","wings":"X","pattern":"X","legs":"F"},"action":"harvest","summary":"good-harvest","bonus":1.0800000000000007},{"rt":794.2000000029802,"stimulus":"\n                    <p><b>Action: <em>harvest</em></b></p>\n                    <p>This is the bee that you just saw.</p>\n                    <img src=\"bees-with-color/bee-B2SM.svg\" width=\"200\">\n                    <p><span class=\"greenText\"><b>Successful harvest!</b></span><br>Your pay has increased by $0.02. Your bonus pay is now $0.80.</p>\n            ","response":0,"trial_type":"html-button-response","trial_index":118,"time_elapsed":509036,"internal_node_id":"0.0-4.0-1.53","subject_id":"60db9a1eb82917b04a2f99fa","study_id":"6197b3f67c2b5cd3b6d9596a","session_id":"619be31d4200fc8e84df2dd5","condition":"contingent","relevant_dimensions":["antennae","legs"],"bee_group":{"antennae":"B","wings":"X","pattern":"X","legs":"F"},"bonus":1.0800000000000007},{"rt":845.2000000029802,"stimulus":"bees-with-color/bee-A1SM.svg","response":0,"trial_type":"image-button-response","trial_index":119,"time_elapsed":509882,"internal_node_id":"0.0-4.0-0.54","subject_id":"60db9a1eb82917b04a2f99fa","study_id":"6197b3f67c2b5cd3b6d9596a","session_id":"619be31d4200fc8e84df2dd5","condition":"contingent","relevant_dimensions":["antennae","legs"],"bee_group":{"antennae":"B","wings":"X","pattern":"X","legs":"F"},"action":"harvest","summary":"good-harvest","bonus":1.0800000000000007},{"rt":611.1000000089407,"stimulus":"\n                    <p><b>Action: <em>harvest</em></b></p>\n                    <p>This is the bee that you just saw.</p>\n                    <img src=\"bees-with-color/bee-A1SM.svg\" width=\"200\">\n                    <p><span class=\"greenText\"><b>Successful harvest!</b></span><br>Your pay has increased by $0.02. Your bonus pay is now $0.82.</p>\n            ","response":0,"trial_type":"html-button-response","trial_index":120,"time_elapsed":510494,"internal_node_id":"0.0-4.0-1.54","subject_id":"60db9a1eb82917b04a2f99fa","study_id":"6197b3f67c2b5cd3b6d9596a","session_id":"619be31d4200fc8e84df2dd5","condition":"contingent","relevant_dimensions":["antennae","legs"],"bee_group":{"antennae":"B","wings":"X","pattern":"X","legs":"F"},"bonus":1.0800000000000007},{"rt":995.2000000029802,"stimulus":"bees-with-color/bee-B1SM.svg","response":0,"trial_type":"image-button-response","trial_index":121,"time_elapsed":511491,"internal_node_id":"0.0-4.0-0.55","subject_id":"60db9a1eb82917b04a2f99fa","study_id":"6197b3f67c2b5cd3b6d9596a","session_id":"619be31d4200fc8e84df2dd5","condition":"contingent","relevant_dimensions":["antennae","legs"],"bee_group":{"antennae":"B","wings":"X","pattern":"X","legs":"F"},"action":"harvest","summary":"good-harvest","bonus":1.0800000000000007},{"rt":918.1999999880791,"stimulus":"\n                    <p><b>Action: <em>harvest</em></b></p>\n                    <p>This is the bee that you just saw.</p>\n                    <img src=\"bees-with-color/bee-B1SM.svg\" width=\"200\">\n                    <p><span class=\"greenText\"><b>Successful harvest!</b></span><br>Your pay has increased by $0.02. Your bonus pay is now $0.84.</p>\n            ","response":0,"trial_type":"html-button-response","trial_index":122,"time_elapsed":512410,"internal_node_id":"0.0-4.0-1.55","subject_id":"60db9a1eb82917b04a2f99fa","study_id":"6197b3f67c2b5cd3b6d9596a","session_id":"619be31d4200fc8e84df2dd5","condition":"contingent","relevant_dimensions":["antennae","legs"],"bee_group":{"antennae":"B","wings":"X","pattern":"X","legs":"F"},"bonus":1.0800000000000007},{"rt":673.5,"stimulus":"bees-with-color/bee-B2DF.svg","response":1,"trial_type":"image-button-response","trial_index":123,"time_elapsed":513084,"internal_node_id":"0.0-4.0-0.56","subject_id":"60db9a1eb82917b04a2f99fa","study_id":"6197b3f67c2b5cd3b6d9596a","session_id":"619be31d4200fc8e84df2dd5","condition":"contingent","relevant_dimensions":["antennae","legs"],"bee_group":{"antennae":"B","wings":"X","pattern":"X","legs":"F"},"action":"avoid","summary":"good-avoid","bonus":1.0800000000000007},{"rt":460.5,"stimulus":"\n                    <p><b>Action: <em>avoid</em></b></p>\n                    <p>This is the bee that you just saw.</p>\n                    <img src=\"bees-with-color/bee-B2DF.svg\" width=\"200\">\n                    <p><br>Your bonus pay is unchanged, and remains at $0.84.</p>\n            ","response":0,"trial_type":"html-button-response","trial_index":124,"time_elapsed":513546,"internal_node_id":"0.0-4.0-1.56","subject_id":"60db9a1eb82917b04a2f99fa","study_id":"6197b3f67c2b5cd3b6d9596a","session_id":"619be31d4200fc8e84df2dd5","condition":"contingent","relevant_dimensions":["antennae","legs"],"bee_group":{"antennae":"B","wings":"X","pattern":"X","legs":"F"},"bonus":1.0800000000000007},{"rt":835.0999999940395,"stimulus":"bees-with-color/bee-A1DM.svg","response":0,"trial_type":"image-button-response","trial_index":125,"time_elapsed":514382,"internal_node_id":"0.0-4.0-0.57","subject_id":"60db9a1eb82917b04a2f99fa","study_id":"6197b3f67c2b5cd3b6d9596a","session_id":"619be31d4200fc8e84df2dd5","condition":"contingent","relevant_dimensions":["antennae","legs"],"bee_group":{"antennae":"B","wings":"X","pattern":"X","legs":"F"},"action":"harvest","summary":"good-harvest","bonus":1.0800000000000007},{"rt":752.0999999940395,"stimulus":"\n                    <p><b>Action: <em>harvest</em></b></p>\n                    <p>This is the bee that you just saw.</p>\n                    <img src=\"bees-with-color/bee-A1DM.svg\" width=\"200\">\n                    <p><span class=\"greenText\"><b>Successful harvest!</b></span><br>Your pay has increased by $0.02. Your bonus pay is now $0.86.</p>\n            ","response":0,"trial_type":"html-button-response","trial_index":126,"time_elapsed":515135,"internal_node_id":"0.0-4.0-1.57","subject_id":"60db9a1eb82917b04a2f99fa","study_id":"6197b3f67c2b5cd3b6d9596a","session_id":"619be31d4200fc8e84df2dd5","condition":"contingent","relevant_dimensions":["antennae","legs"],"bee_group":{"antennae":"B","wings":"X","pattern":"X","legs":"F"},"bonus":1.0800000000000007},{"rt":746.1999999880791,"stimulus":"bees-with-color/bee-B1SF.svg","response":1,"trial_type":"image-button-response","trial_index":127,"time_elapsed":515882,"internal_node_id":"0.0-4.0-0.58","subject_id":"60db9a1eb82917b04a2f99fa","study_id":"6197b3f67c2b5cd3b6d9596a","session_id":"619be31d4200fc8e84df2dd5","condition":"contingent","relevant_dimensions":["antennae","legs"],"bee_group":{"antennae":"B","wings":"X","pattern":"X","legs":"F"},"action":"avoid","summary":"good-avoid","bonus":1.0800000000000007},{"rt":791.8999999910593,"stimulus":"\n                    <p><b>Action: <em>avoid</em></b></p>\n                    <p>This is the bee that you just saw.</p>\n                    <img src=\"bees-with-color/bee-B1SF.svg\" width=\"200\">\n                    <p><br>Your bonus pay is unchanged, and remains at $0.86.</p>\n            ","response":0,"trial_type":"html-button-response","trial_index":128,"time_elapsed":516675,"internal_node_id":"0.0-4.0-1.58","subject_id":"60db9a1eb82917b04a2f99fa","study_id":"6197b3f67c2b5cd3b6d9596a","session_id":"619be31d4200fc8e84df2dd5","condition":"contingent","relevant_dimensions":["antennae","legs"],"bee_group":{"antennae":"B","wings":"X","pattern":"X","legs":"F"},"bonus":1.0800000000000007},{"rt":1134.300000011921,"stimulus":"bees-with-color/bee-B1DM.svg","response":0,"trial_type":"image-button-response","trial_index":129,"time_elapsed":517810,"internal_node_id":"0.0-4.0-0.59","subject_id":"60db9a1eb82917b04a2f99fa","study_id":"6197b3f67c2b5cd3b6d9596a","session_id":"619be31d4200fc8e84df2dd5","condition":"contingent","relevant_dimensions":["antennae","legs"],"bee_group":{"antennae":"B","wings":"X","pattern":"X","legs":"F"},"action":"harvest","summary":"good-harvest","bonus":1.0800000000000007},{"rt":853.1999999880791,"stimulus":"\n                    <p><b>Action: <em>harvest</em></b></p>\n                    <p>This is the bee that you just saw.</p>\n                    <img src=\"bees-with-color/bee-B1DM.svg\" width=\"200\">\n                    <p><span class=\"greenText\"><b>Successful harvest!</b></span><br>Your pay has increased by $0.02. Your bonus pay is now $0.88.</p>\n            ","response":0,"trial_type":"html-button-response","trial_index":130,"time_elapsed":518665,"internal_node_id":"0.0-4.0-1.59","subject_id":"60db9a1eb82917b04a2f99fa","study_id":"6197b3f67c2b5cd3b6d9596a","session_id":"619be31d4200fc8e84df2dd5","condition":"contingent","relevant_dimensions":["antennae","legs"],"bee_group":{"antennae":"B","wings":"X","pattern":"X","legs":"F"},"bonus":1.0800000000000007},{"rt":833,"stimulus":"bees-with-color/bee-A2DF.svg","response":1,"trial_type":"image-button-response","trial_index":131,"time_elapsed":519499,"internal_node_id":"0.0-4.0-0.60","subject_id":"60db9a1eb82917b04a2f99fa","study_id":"6197b3f67c2b5cd3b6d9596a","session_id":"619be31d4200fc8e84df2dd5","condition":"contingent","relevant_dimensions":["antennae","legs"],"bee_group":{"antennae":"B","wings":"X","pattern":"X","legs":"F"},"action":"avoid","summary":"bad-avoid","bonus":1.0800000000000007},{"rt":483.90000000596046,"stimulus":"\n                    <p><b>Action: <em>avoid</em></b></p>\n                    <p>This is the bee that you just saw.</p>\n                    <img src=\"bees-with-color/bee-A2DF.svg\" width=\"200\">\n                    <p><br>Your bonus pay is unchanged, and remains at $0.88.</p>\n            ","response":0,"trial_type":"html-button-response","trial_index":132,"time_elapsed":519984,"internal_node_id":"0.0-4.0-1.60","subject_id":"60db9a1eb82917b04a2f99fa","study_id":"6197b3f67c2b5cd3b6d9596a","session_id":"619be31d4200fc8e84df2dd5","condition":"contingent","relevant_dimensions":["antennae","legs"],"bee_group":{"antennae":"B","wings":"X","pattern":"X","legs":"F"},"bonus":1.0800000000000007},{"rt":1476.2999999970198,"stimulus":"bees-with-color/bee-A1SF.svg","response":1,"trial_type":"image-button-response","trial_index":133,"time_elapsed":521461,"internal_node_id":"0.0-4.0-0.61","subject_id":"60db9a1eb82917b04a2f99fa","study_id":"6197b3f67c2b5cd3b6d9596a","session_id":"619be31d4200fc8e84df2dd5","condition":"contingent","relevant_dimensions":["antennae","legs"],"bee_group":{"antennae":"B","wings":"X","pattern":"X","legs":"F"},"action":"avoid","summary":"bad-avoid","bonus":1.0800000000000007},{"rt":942,"stimulus":"\n                    <p><b>Action: <em>avoid</em></b></p>\n                    <p>This is the bee that you just saw.</p>\n                    <img src=\"bees-with-color/bee-A1SF.svg\" width=\"200\">\n                    <p><br>Your bonus pay is unchanged, and remains at $0.88.</p>\n            ","response":0,"trial_type":"html-button-response","trial_index":134,"time_elapsed":522404,"internal_node_id":"0.0-4.0-1.61","subject_id":"60db9a1eb82917b04a2f99fa","study_id":"6197b3f67c2b5cd3b6d9596a","session_id":"619be31d4200fc8e84df2dd5","condition":"contingent","relevant_dimensions":["antennae","legs"],"bee_group":{"antennae":"B","wings":"X","pattern":"X","legs":"F"},"bonus":1.0800000000000007},{"rt":749.5,"stimulus":"bees-with-color/bee-B2DM.svg","response":0,"trial_type":"image-button-response","trial_index":135,"time_elapsed":523154,"internal_node_id":"0.0-4.0-0.62","subject_id":"60db9a1eb82917b04a2f99fa","study_id":"6197b3f67c2b5cd3b6d9596a","session_id":"619be31d4200fc8e84df2dd5","condition":"contingent","relevant_dimensions":["antennae","legs"],"bee_group":{"antennae":"B","wings":"X","pattern":"X","legs":"F"},"action":"harvest","summary":"good-harvest","bonus":1.0800000000000007},{"rt":799,"stimulus":"\n                    <p><b>Action: <em>harvest</em></b></p>\n                    <p>This is the bee that you just saw.</p>\n                    <img src=\"bees-with-color/bee-B2DM.svg\" width=\"200\">\n                    <p><span class=\"greenText\"><b>Successful harvest!</b></span><br>Your pay has increased by $0.02. Your bonus pay is now $0.90.</p>\n            ","response":0,"trial_type":"html-button-response","trial_index":136,"time_elapsed":523954,"internal_node_id":"0.0-4.0-1.62","subject_id":"60db9a1eb82917b04a2f99fa","study_id":"6197b3f67c2b5cd3b6d9596a","session_id":"619be31d4200fc8e84df2dd5","condition":"contingent","relevant_dimensions":["antennae","legs"],"bee_group":{"antennae":"B","wings":"X","pattern":"X","legs":"F"},"bonus":1.0800000000000007},{"rt":1075,"stimulus":"bees-with-color/bee-A2SM.svg","response":0,"trial_type":"image-button-response","trial_index":137,"time_elapsed":525030,"internal_node_id":"0.0-4.0-0.63","subject_id":"60db9a1eb82917b04a2f99fa","study_id":"6197b3f67c2b5cd3b6d9596a","session_id":"619be31d4200fc8e84df2dd5","condition":"contingent","relevant_dimensions":["antennae","legs"],"bee_group":{"antennae":"B","wings":"X","pattern":"X","legs":"F"},"action":"harvest","summary":"good-harvest","bonus":1.0800000000000007},{"rt":806,"stimulus":"\n                    <p><b>Action: <em>harvest</em></b></p>\n                    <p>This is the bee that you just saw.</p>\n                    <img src=\"bees-with-color/bee-A2SM.svg\" width=\"200\">\n                    <p><span class=\"greenText\"><b>Successful harvest!</b></span><br>Your pay has increased by $0.02. Your bonus pay is now $0.92.</p>\n            ","response":0,"trial_type":"html-button-response","trial_index":138,"time_elapsed":525837,"internal_node_id":"0.0-4.0-1.63","subject_id":"60db9a1eb82917b04a2f99fa","study_id":"6197b3f67c2b5cd3b6d9596a","session_id":"619be31d4200fc8e84df2dd5","condition":"contingent","relevant_dimensions":["antennae","legs"],"bee_group":{"antennae":"B","wings":"X","pattern":"X","legs":"F"},"bonus":1.0800000000000007},{"rt":7516.29999999702,"stimulus":"You have completed the first part of this experiment.<br><br>You will now begin a shorter second part, in which you will receive no feedback.<br>The same rules regarding bonus pay apply.<br><br>Press any key to begin.","response":" ","trial_type":"html-keyboard-response","trial_index":139,"time_elapsed":533355,"internal_node_id":"0.0-5.0","subject_id":"60db9a1eb82917b04a2f99fa","study_id":"6197b3f67c2b5cd3b6d9596a","session_id":"619be31d4200fc8e84df2dd5","condition":"contingent","relevant_dimensions":["antennae","legs"],"bee_group":{"antennae":"B","wings":"X","pattern":"X","legs":"F"},"bonus":1.0800000000000007},{"rt":2534.0999999940395,"stimulus":"bees-with-color/bee-A1DF.svg","response":1,"trial_type":"image-button-response","trial_index":140,"time_elapsed":535895,"internal_node_id":"0.0-6.0-0.0","subject_id":"60db9a1eb82917b04a2f99fa","study_id":"6197b3f67c2b5cd3b6d9596a","session_id":"619be31d4200fc8e84df2dd5","condition":"contingent","relevant_dimensions":["antennae","legs"],"bee_group":{"antennae":"B","wings":"X","pattern":"X","legs":"F"},"bonus":1.0800000000000007},{"rt":773.2999999970198,"stimulus":"bees-with-color/bee-B2SF.svg","response":1,"trial_type":"image-button-response","trial_index":141,"time_elapsed":536670,"internal_node_id":"0.0-6.0-0.1","subject_id":"60db9a1eb82917b04a2f99fa","study_id":"6197b3f67c2b5cd3b6d9596a","session_id":"619be31d4200fc8e84df2dd5","condition":"contingent","relevant_dimensions":["antennae","legs"],"bee_group":{"antennae":"B","wings":"X","pattern":"X","legs":"F"},"bonus":1.0800000000000007},{"rt":1555.5999999940395,"stimulus":"bees-with-color/bee-B2DF.svg","response":1,"trial_type":"image-button-response","trial_index":142,"time_elapsed":538227,"internal_node_id":"0.0-6.0-0.2","subject_id":"60db9a1eb82917b04a2f99fa","study_id":"6197b3f67c2b5cd3b6d9596a","session_id":"619be31d4200fc8e84df2dd5","condition":"contingent","relevant_dimensions":["antennae","legs"],"bee_group":{"antennae":"B","wings":"X","pattern":"X","legs":"F"},"bonus":1.0800000000000007},{"rt":1010.5,"stimulus":"bees-with-color/bee-B2SM.svg","response":0,"trial_type":"image-button-response","trial_index":143,"time_elapsed":539239,"internal_node_id":"0.0-6.0-0.3","subject_id":"60db9a1eb82917b04a2f99fa","study_id":"6197b3f67c2b5cd3b6d9596a","session_id":"619be31d4200fc8e84df2dd5","condition":"contingent","relevant_dimensions":["antennae","legs"],"bee_group":{"antennae":"B","wings":"X","pattern":"X","legs":"F"},"bonus":1.0800000000000007},{"rt":1095.8999999910593,"stimulus":"bees-with-color/bee-A2DF.svg","response":1,"trial_type":"image-button-response","trial_index":144,"time_elapsed":540336,"internal_node_id":"0.0-6.0-0.4","subject_id":"60db9a1eb82917b04a2f99fa","study_id":"6197b3f67c2b5cd3b6d9596a","session_id":"619be31d4200fc8e84df2dd5","condition":"contingent","relevant_dimensions":["antennae","legs"],"bee_group":{"antennae":"B","wings":"X","pattern":"X","legs":"F"},"bonus":1.0800000000000007},{"rt":650.8000000119209,"stimulus":"bees-with-color/bee-A2SF.svg","response":1,"trial_type":"image-button-response","trial_index":145,"time_elapsed":540988,"internal_node_id":"0.0-6.0-0.5","subject_id":"60db9a1eb82917b04a2f99fa","study_id":"6197b3f67c2b5cd3b6d9596a","session_id":"619be31d4200fc8e84df2dd5","condition":"contingent","relevant_dimensions":["antennae","legs"],"bee_group":{"antennae":"B","wings":"X","pattern":"X","legs":"F"},"bonus":1.0800000000000007},{"rt":996.7000000029802,"stimulus":"bees-with-color/bee-B1SM.svg","response":1,"trial_type":"image-button-response","trial_index":146,"time_elapsed":541986,"internal_node_id":"0.0-6.0-0.6","subject_id":"60db9a1eb82917b04a2f99fa","study_id":"6197b3f67c2b5cd3b6d9596a","session_id":"619be31d4200fc8e84df2dd5","condition":"contingent","relevant_dimensions":["antennae","legs"],"bee_group":{"antennae":"B","wings":"X","pattern":"X","legs":"F"},"bonus":1.0800000000000007},{"rt":1769.800000011921,"stimulus":"bees-with-color/bee-B2DM.svg","response":0,"trial_type":"image-button-response","trial_index":147,"time_elapsed":543758,"internal_node_id":"0.0-6.0-0.7","subject_id":"60db9a1eb82917b04a2f99fa","study_id":"6197b3f67c2b5cd3b6d9596a","session_id":"619be31d4200fc8e84df2dd5","condition":"contingent","relevant_dimensions":["antennae","legs"],"bee_group":{"antennae":"B","wings":"X","pattern":"X","legs":"F"},"bonus":1.0800000000000007},{"rt":893.6000000089407,"stimulus":"bees-with-color/bee-A1SM.svg","response":1,"trial_type":"image-button-response","trial_index":148,"time_elapsed":544652,"internal_node_id":"0.0-6.0-0.8","subject_id":"60db9a1eb82917b04a2f99fa","study_id":"6197b3f67c2b5cd3b6d9596a","session_id":"619be31d4200fc8e84df2dd5","condition":"contingent","relevant_dimensions":["antennae","legs"],"bee_group":{"antennae":"B","wings":"X","pattern":"X","legs":"F"},"bonus":1.0800000000000007},{"rt":1333.0999999940395,"stimulus":"bees-with-color/bee-B1DM.svg","response":1,"trial_type":"image-button-response","trial_index":149,"time_elapsed":545987,"internal_node_id":"0.0-6.0-0.9","subject_id":"60db9a1eb82917b04a2f99fa","study_id":"6197b3f67c2b5cd3b6d9596a","session_id":"619be31d4200fc8e84df2dd5","condition":"contingent","relevant_dimensions":["antennae","legs"],"bee_group":{"antennae":"B","wings":"X","pattern":"X","legs":"F"},"bonus":1.0800000000000007},{"rt":1432.5999999940395,"stimulus":"bees-with-color/bee-A2DM.svg","response":0,"trial_type":"image-button-response","trial_index":150,"time_elapsed":547421,"internal_node_id":"0.0-6.0-0.10","subject_id":"60db9a1eb82917b04a2f99fa","study_id":"6197b3f67c2b5cd3b6d9596a","session_id":"619be31d4200fc8e84df2dd5","condition":"contingent","relevant_dimensions":["antennae","legs"],"bee_group":{"antennae":"B","wings":"X","pattern":"X","legs":"F"},"bonus":1.0800000000000007},{"rt":562.3000000119209,"stimulus":"bees-with-color/bee-A1SF.svg","response":1,"trial_type":"image-button-response","trial_index":151,"time_elapsed":547985,"internal_node_id":"0.0-6.0-0.11","subject_id":"60db9a1eb82917b04a2f99fa","study_id":"6197b3f67c2b5cd3b6d9596a","session_id":"619be31d4200fc8e84df2dd5","condition":"contingent","relevant_dimensions":["antennae","legs"],"bee_group":{"antennae":"B","wings":"X","pattern":"X","legs":"F"},"bonus":1.0800000000000007},{"rt":473.1000000089407,"stimulus":"bees-with-color/bee-B1SF.svg","response":1,"trial_type":"image-button-response","trial_index":152,"time_elapsed":548459,"internal_node_id":"0.0-6.0-0.12","subject_id":"60db9a1eb82917b04a2f99fa","study_id":"6197b3f67c2b5cd3b6d9596a","session_id":"619be31d4200fc8e84df2dd5","condition":"contingent","relevant_dimensions":["antennae","legs"],"bee_group":{"antennae":"B","wings":"X","pattern":"X","legs":"F"},"bonus":1.0800000000000007},{"rt":1336.7000000029802,"stimulus":"bees-with-color/bee-A2SM.svg","response":0,"trial_type":"image-button-response","trial_index":153,"time_elapsed":549797,"internal_node_id":"0.0-6.0-0.13","subject_id":"60db9a1eb82917b04a2f99fa","study_id":"6197b3f67c2b5cd3b6d9596a","session_id":"619be31d4200fc8e84df2dd5","condition":"contingent","relevant_dimensions":["antennae","legs"],"bee_group":{"antennae":"B","wings":"X","pattern":"X","legs":"F"},"bonus":1.0800000000000007},{"rt":2163,"stimulus":"bees-with-color/bee-A1DM.svg","response":1,"trial_type":"image-button-response","trial_index":154,"time_elapsed":551961,"internal_node_id":"0.0-6.0-0.14","subject_id":"60db9a1eb82917b04a2f99fa","study_id":"6197b3f67c2b5cd3b6d9596a","session_id":"619be31d4200fc8e84df2dd5","condition":"contingent","relevant_dimensions":["antennae","legs"],"bee_group":{"antennae":"B","wings":"X","pattern":"X","legs":"F"},"bonus":1.0800000000000007},{"rt":497.59999999403954,"stimulus":"bees-with-color/bee-B1DF.svg","response":1,"trial_type":"image-button-response","trial_index":155,"time_elapsed":552461,"internal_node_id":"0.0-6.0-0.15","subject_id":"60db9a1eb82917b04a2f99fa","study_id":"6197b3f67c2b5cd3b6d9596a","session_id":"619be31d4200fc8e84df2dd5","condition":"contingent","relevant_dimensions":["antennae","legs"],"bee_group":{"antennae":"B","wings":"X","pattern":"X","legs":"F"},"bonus":1.0800000000000007},{"rt":985.9000000059605,"stimulus":"bees-with-color/bee-B2SM.svg","response":0,"trial_type":"image-button-response","trial_index":156,"time_elapsed":553448,"internal_node_id":"0.0-6.0-0.16","subject_id":"60db9a1eb82917b04a2f99fa","study_id":"6197b3f67c2b5cd3b6d9596a","session_id":"619be31d4200fc8e84df2dd5","condition":"contingent","relevant_dimensions":["antennae","legs"],"bee_group":{"antennae":"B","wings":"X","pattern":"X","legs":"F"},"bonus":1.0800000000000007},{"rt":515.4000000059605,"stimulus":"bees-with-color/bee-B1SM.svg","response":1,"trial_type":"image-button-response","trial_index":157,"time_elapsed":553964,"internal_node_id":"0.0-6.0-0.17","subject_id":"60db9a1eb82917b04a2f99fa","study_id":"6197b3f67c2b5cd3b6d9596a","session_id":"619be31d4200fc8e84df2dd5","condition":"contingent","relevant_dimensions":["antennae","legs"],"bee_group":{"antennae":"B","wings":"X","pattern":"X","legs":"F"},"bonus":1.0800000000000007},{"rt":807,"stimulus":"bees-with-color/bee-B2DM.svg","response":0,"trial_type":"image-button-response","trial_index":158,"time_elapsed":554773,"internal_node_id":"0.0-6.0-0.18","subject_id":"60db9a1eb82917b04a2f99fa","study_id":"6197b3f67c2b5cd3b6d9596a","session_id":"619be31d4200fc8e84df2dd5","condition":"contingent","relevant_dimensions":["antennae","legs"],"bee_group":{"antennae":"B","wings":"X","pattern":"X","legs":"F"},"bonus":1.0800000000000007},{"rt":462.8999999910593,"stimulus":"bees-with-color/bee-B1DF.svg","response":1,"trial_type":"image-button-response","trial_index":159,"time_elapsed":555237,"internal_node_id":"0.0-6.0-0.19","subject_id":"60db9a1eb82917b04a2f99fa","study_id":"6197b3f67c2b5cd3b6d9596a","session_id":"619be31d4200fc8e84df2dd5","condition":"contingent","relevant_dimensions":["antennae","legs"],"bee_group":{"antennae":"B","wings":"X","pattern":"X","legs":"F"},"bonus":1.0800000000000007},{"rt":638.7999999970198,"stimulus":"bees-with-color/bee-A2SM.svg","response":0,"trial_type":"image-button-response","trial_index":160,"time_elapsed":555877,"internal_node_id":"0.0-6.0-0.20","subject_id":"60db9a1eb82917b04a2f99fa","study_id":"6197b3f67c2b5cd3b6d9596a","session_id":"619be31d4200fc8e84df2dd5","condition":"contingent","relevant_dimensions":["antennae","legs"],"bee_group":{"antennae":"B","wings":"X","pattern":"X","legs":"F"},"bonus":1.0800000000000007},{"rt":432,"stimulus":"bees-with-color/bee-A1SM.svg","response":1,"trial_type":"image-button-response","trial_index":161,"time_elapsed":556310,"internal_node_id":"0.0-6.0-0.21","subject_id":"60db9a1eb82917b04a2f99fa","study_id":"6197b3f67c2b5cd3b6d9596a","session_id":"619be31d4200fc8e84df2dd5","condition":"contingent","relevant_dimensions":["antennae","legs"],"bee_group":{"antennae":"B","wings":"X","pattern":"X","legs":"F"},"bonus":1.0800000000000007},{"rt":681.7000000029802,"stimulus":"bees-with-color/bee-B1SF.svg","response":1,"trial_type":"image-button-response","trial_index":162,"time_elapsed":556993,"internal_node_id":"0.0-6.0-0.22","subject_id":"60db9a1eb82917b04a2f99fa","study_id":"6197b3f67c2b5cd3b6d9596a","session_id":"619be31d4200fc8e84df2dd5","condition":"contingent","relevant_dimensions":["antennae","legs"],"bee_group":{"antennae":"B","wings":"X","pattern":"X","legs":"F"},"bonus":1.0800000000000007},{"rt":774.599999994039