[{"success":true,"trial_type":"fullscreen","trial_index":0,"time_elapsed":9760,"internal_node_id":"0.0-0.0","subject_id":"5ea9690bb6019a050f5dc013","study_id":"60edd13110225f80f9f3709b","session_id":"6196c4a8ad07d1ac97e675df","condition":"contingent","relevant_dimensions":["pattern","legs"],"bee_group":{"antennae":"X","wings":"X","pattern":"S","legs":"F"},"bonus":1.140000000000001},{"success":true,"timeout":false,"failed_images":[],"failed_audio":[],"failed_video":[],"trial_type":"preload","trial_index":1,"time_elapsed":11882,"internal_node_id":"0.0-1.0","subject_id":"5ea9690bb6019a050f5dc013","study_id":"60edd13110225f80f9f3709b","session_id":"6196c4a8ad07d1ac97e675df","condition":"contingent","relevant_dimensions":["pattern","legs"],"bee_group":{"antennae":"X","wings":"X","pattern":"S","legs":"F"},"bonus":1.140000000000001},{"rt":2647.300000000745,"stimulus":"Welcome! Press any key to begin.","response":" ","trial_type":"html-keyboard-response","trial_index":2,"time_elapsed":14530,"internal_node_id":"0.0-2.0","subject_id":"5ea9690bb6019a050f5dc013","study_id":"60edd13110225f80f9f3709b","session_id":"6196c4a8ad07d1ac97e675df","condition":"contingent","relevant_dimensions":["pattern","legs"],"bee_group":{"antennae":"X","wings":"X","pattern":"S","legs":"F"},"bonus":1.140000000000001},{"view_history":[{"page_index":0,"viewing_time":3235.5},{"page_index":1,"viewing_time":14072.900000000373},{"page_index":2,"viewing_time":11338.099999999627},{"page_index":3,"viewing_time":15876},{"page_index":4,"viewing_time":7736.5999999996275},{"page_index":5,"viewing_time":6608.9000000003725},{"page_index":6,"viewing_time":10833.199999999255},{"page_index":7,"viewing_time":5503.4000000003725},{"page_index":8,"viewing_time":4360.0999999996275},{"page_index":9,"viewing_time":3033},{"page_index":10,"viewing_time":2487.5},{"page_index":11,"viewing_time":8993},{"page_index":12,"viewing_time":6716.300000000745},{"page_index":13,"viewing_time":1015.9000000003725},{"page_index":14,"viewing_time":2256.5999999996275}],"rt":104067.19999999925,"trial_type":"instructions","trial_index":3,"time_elapsed":118598,"internal_node_id":"0.0-3.0-0.0","subject_id":"5ea9690bb6019a050f5dc013","study_id":"60edd13110225f80f9f3709b","session_id":"6196c4a8ad07d1ac97e675df","condition":"contingent","relevant_dimensions":["pattern","legs"],"bee_group":{"antennae":"X","wings":"X","pattern":"S","legs":"F"},"bonus":1.140000000000001},{"rt":11301.099999999627,"response":{"Q0":["Two or six legs","Stripes or spots on body","Single or double wings","Antennae or no antennae"]},"question_order":[0],"trial_type":"survey-multi-select","trial_index":4,"time_elapsed":129904,"internal_node_id":"0.0-3.0-1.0","subject_id":"5ea9690bb6019a050f5dc013","study_id":"60edd13110225f80f9f3709b","session_id":"6196c4a8ad07d1ac97e675df","condition":"contingent","relevant_dimensions":["pattern","legs"],"bee_group":{"antennae":"X","wings":"X","pattern":"S","legs":"F"},"correct":true,"bonus":1.140000000000001},{"rt":20758.39999999851,"response":{"Q1":"No.","Q2":"Based on the four features of the bee.","Q3":"You do not learn if it was friendly or dangerous, and do not alter your bonus."},"question_order":[0,1,2],"trial_type":"survey-multi-choice","trial_index":5,"time_elapsed":150664,"internal_node_id":"0.0-3.0-2.0","subject_id":"5ea9690bb6019a050f5dc013","study_id":"60edd13110225f80f9f3709b","session_id":"6196c4a8ad07d1ac97e675df","condition":"contingent","relevant_dimensions":["pattern","legs"],"bee_group":{"antennae":"X","wings":"X","pattern":"S","legs":"F"},"correct":true,"bonus":1.140000000000001},{"rt":2770.5,"stimulus":"<p>Congrats, you got everything right<br>When you're ready, click the button below to continue to the experiment.</p>","response":0,"trial_type":"html-button-response","trial_index":6,"time_elapsed":153436,"internal_node_id":"0.0-3.0-3.0","subject_id":"5ea9690bb6019a050f5dc013","study_id":"60edd13110225f80f9f3709b","session_id":"6196c4a8ad07d1ac97e675df","condition":"contingent","relevant_dimensions":["pattern","legs"],"bee_group":{"antennae":"X","wings":"X","pattern":"S","legs":"F"},"bonus":1.140000000000001},{"rt":184047.90000000037,"stimulus":"bees-with-color/bee-B1DM.svg","response":0,"trial_type":"image-button-response","trial_index":7,"time_elapsed":337486,"internal_node_id":"0.0-4.0-0.0","subject_id":"5ea9690bb6019a050f5dc013","study_id":"60edd13110225f80f9f3709b","session_id":"6196c4a8ad07d1ac97e675df","condition":"contingent","relevant_dimensions":["pattern","legs"],"bee_group":{"antennae":"X","wings":"X","pattern":"S","legs":"F"},"action":"harvest","summary":"good-harvest","bonus":1.140000000000001},{"rt":6865.5999999996275,"stimulus":"\n                    <p><b>Action: <em>harvest</em></b></p>\n                    <p>This is the bee that you just saw.</p>\n                    <img src=\"bees-with-color/bee-B1DM.svg\" width=\"200\">\n                    <p><span class=\"greenText\"><b>Successful harvest!</b></span><br>Your pay has increased by $0.02. Your bonus pay is now $0.56.</p>\n            ","response":0,"trial_type":"html-button-response","trial_index":8,"time_elapsed":344355,"internal_node_id":"0.0-4.0-1.0","subject_id":"5ea9690bb6019a050f5dc013","study_id":"60edd13110225f80f9f3709b","session_id":"6196c4a8ad07d1ac97e675df","condition":"contingent","relevant_dimensions":["pattern","legs"],"bee_group":{"antennae":"X","wings":"X","pattern":"S","legs":"F"},"bonus":1.140000000000001},{"rt":16830.799999998882,"stimulus":"bees-with-color/bee-A2SM.svg","response":0,"trial_type":"image-button-response","trial_index":9,"time_elapsed":361187,"internal_node_id":"0.0-4.0-0.1","subject_id":"5ea9690bb6019a050f5dc013","study_id":"60edd13110225f80f9f3709b","session_id":"6196c4a8ad07d1ac97e675df","condition":"contingent","relevant_dimensions":["pattern","legs"],"bee_group":{"antennae":"X","wings":"X","pattern":"S","legs":"F"},"action":"harvest","summary":"good-harvest","bonus":1.140000000000001},{"rt":3182.300000000745,"stimulus":"\n                    <p><b>Action: <em>harvest</em></b></p>\n                    <p>This is the bee that you just saw.</p>\n                    <img src=\"bees-with-color/bee-A2SM.svg\" width=\"200\">\n                    <p><span class=\"greenText\"><b>Successful harvest!</b></span><br>Your pay has increased by $0.02. Your bonus pay is now $0.58.</p>\n            ","response":0,"trial_type":"html-button-response","trial_index":10,"time_elapsed":364371,"internal_node_id":"0.0-4.0-1.1","subject_id":"5ea9690bb6019a050f5dc013","study_id":"60edd13110225f80f9f3709b","session_id":"6196c4a8ad07d1ac97e675df","condition":"contingent","relevant_dimensions":["pattern","legs"],"bee_group":{"antennae":"X","wings":"X","pattern":"S","legs":"F"},"bonus":1.140000000000001},{"rt":15102.900000000373,"stimulus":"bees-with-color/bee-B1SM.svg","response":0,"trial_type":"image-button-response","trial_index":11,"time_elapsed":379476,"internal_node_id":"0.0-4.0-0.2","subject_id":"5ea9690bb6019a050f5dc013","study_id":"60edd13110225f80f9f3709b","session_id":"6196c4a8ad07d1ac97e675df","condition":"contingent","relevant_dimensions":["pattern","legs"],"bee_group":{"antennae":"X","wings":"X","pattern":"S","legs":"F"},"action":"harvest","summary":"good-harvest","bonus":1.140000000000001},{"rt":9480,"stimulus":"\n                    <p><b>Action: <em>harvest</em></b></p>\n                    <p>This is the bee that you just saw.</p>\n                    <img src=\"bees-with-color/bee-B1SM.svg\" width=\"200\">\n                    <p><span class=\"greenText\"><b>Successful harvest!</b></span><br>Your pay has increased by $0.02. Your bonus pay is now $0.60.</p>\n            ","response":0,"trial_type":"html-button-response","trial_index":12,"time_elapsed":388957,"internal_node_id":"0.0-4.0-1.2","subject_id":"5ea9690bb6019a050f5dc013","study_id":"60edd13110225f80f9f3709b","session_id":"6196c4a8ad07d1ac97e675df","condition":"contingent","relevant_dimensions":["pattern","legs"],"bee_group":{"antennae":"X","wings":"X","pattern":"S","legs":"F"},"bonus":1.140000000000001},{"rt":3222.699999999255,"stimulus":"bees-with-color/bee-A1SF.svg","response":0,"trial_type":"image-button-response","trial_index":13,"time_elapsed":392181,"internal_node_id":"0.0-4.0-0.3","subject_id":"5ea9690bb6019a050f5dc013","study_id":"60edd13110225f80f9f3709b","session_id":"6196c4a8ad07d1ac97e675df","condition":"contingent","relevant_dimensions":["pattern","legs"],"bee_group":{"antennae":"X","wings":"X","pattern":"S","legs":"F"},"action":"harvest","summary":"bad-harvest","bonus":1.140000000000001},{"rt":23004,"stimulus":"\n                    <p><b>Action: <em>harvest</em></b></p>\n                    <p>This is the bee that you just saw.</p>\n                    <img src=\"bees-with-color/bee-A1SF.svg\" width=\"200\">\n                    <p><span class=\"redText\">Bad choice, the bee was angry.</span><br><b>You have been stung!</b><br>Your pay has been decreased by $0.10. Your bonus pay is now $0.50.</p>\n            ","response":0,"trial_type":"html-button-response","trial_index":14,"time_elapsed":415187,"internal_node_id":"0.0-4.0-1.3","subject_id":"5ea9690bb6019a050f5dc013","study_id":"60edd13110225f80f9f3709b","session_id":"6196c4a8ad07d1ac97e675df","condition":"contingent","relevant_dimensions":["pattern","legs"],"bee_group":{"antennae":"X","wings":"X","pattern":"S","legs":"F"},"bonus":1.140000000000001},{"rt":2246.7000000011176,"stimulus":"bees-with-color/bee-B2DF.svg","response":0,"trial_type":"image-button-response","trial_index":15,"time_elapsed":417435,"internal_node_id":"0.0-4.0-0.4","subject_id":"5ea9690bb6019a050f5dc013","study_id":"60edd13110225f80f9f3709b","session_id":"6196c4a8ad07d1ac97e675df","condition":"contingent","relevant_dimensions":["pattern","legs"],"bee_group":{"antennae":"X","wings":"X","pattern":"S","legs":"F"},"action":"harvest","summary":"good-harvest","bonus":1.140000000000001},{"rt":27573,"stimulus":"\n                    <p><b>Action: <em>harvest</em></b></p>\n                    <p>This is the bee that you just saw.</p>\n                    <img src=\"bees-with-color/bee-B2DF.svg\" width=\"200\">\n                    <p><span class=\"greenText\"><b>Successful harvest!</b></span><br>Your pay has increased by $0.02. Your bonus pay is now $0.52.</p>\n            ","response":0,"trial_type":"html-button-response","trial_index":16,"time_elapsed":445009,"internal_node_id":"0.0-4.0-1.4","subject_id":"5ea9690bb6019a050f5dc013","study_id":"60edd13110225f80f9f3709b","session_id":"6196c4a8ad07d1ac97e675df","condition":"contingent","relevant_dimensions":["pattern","legs"],"bee_group":{"antennae":"X","wings":"X","pattern":"S","legs":"F"},"bonus":1.140000000000001},{"rt":4966,"stimulus":"bees-with-color/bee-A2SF.svg","response":0,"trial_type":"image-button-response","trial_index":17,"time_elapsed":449977,"internal_node_id":"0.0-4.0-0.5","subject_id":"5ea9690bb6019a050f5dc013","study_id":"60edd13110225f80f9f3709b","session_id":"6196c4a8ad07d1ac97e675df","condition":"contingent","relevant_dimensions":["pattern","legs"],"bee_group":{"antennae":"X","wings":"X","pattern":"S","legs":"F"},"action":"harvest","summary":"bad-harvest","bonus":1.140000000000001},{"rt":11656,"stimulus":"\n                    <p><b>Action: <em>harvest</em></b></p>\n                    <p>This is the bee that you just saw.</p>\n                    <img src=\"bees-with-color/bee-A2SF.svg\" width=\"200\">\n                    <p><span class=\"redText\">Bad choice, the bee was angry.</span><br><b>You have been stung!</b><br>Your pay has been decreased by $0.10. Your bonus pay is now $0.42.</p>\n            ","response":0,"trial_type":"html-button-response","trial_index":18,"time_elapsed":461635,"internal_node_id":"0.0-4.0-1.5","subject_id":"5ea9690bb6019a050f5dc013","study_id":"60edd13110225f80f9f3709b","session_id":"6196c4a8ad07d1ac97e675df","condition":"contingent","relevant_dimensions":["pattern","legs"],"bee_group":{"antennae":"X","wings":"X","pattern":"S","legs":"F"},"bonus":1.140000000000001},{"rt":15135.199999999255,"stimulus":"bees-with-color/bee-B1DF.svg","response":0,"trial_type":"image-button-response","trial_index":19,"time_elapsed":476772,"internal_node_id":"0.0-4.0-0.6","subject_id":"5ea9690bb6019a050f5dc013","study_id":"60edd13110225f80f9f3709b","session_id":"6196c4a8ad07d1ac97e675df","condition":"contingent","relevant_dimensions":["pattern","legs"],"bee_group":{"antennae":"X","wings":"X","pattern":"S","legs":"F"},"action":"harvest","summary":"good-harvest","bonus":1.140000000000001},{"rt":15163,"stimulus":"\n                    <p><b>Action: <em>harvest</em></b></p>\n                    <p>This is the bee that you just saw.</p>\n                    <img src=\"bees-with-color/bee-B1DF.svg\" width=\"200\">\n                    <p><span class=\"greenText\"><b>Successful harvest!</b></span><br>Your pay has increased by $0.02. Your bonus pay is now $0.44.</p>\n            ","response":0,"trial_type":"html-button-response","trial_index":20,"time_elapsed":491936,"internal_node_id":"0.0-4.0-1.6","subject_id":"5ea9690bb6019a050f5dc013","study_id":"60edd13110225f80f9f3709b","session_id":"6196c4a8ad07d1ac97e675df","condition":"contingent","relevant_dimensions":["pattern","legs"],"bee_group":{"antennae":"X","wings":"X","pattern":"S","legs":"F"},"bonus":1.140000000000001},{"rt":15424.300000000745,"stimulus":"bees-with-color/bee-A1SM.svg","response":0,"trial_type":"image-button-response","trial_index":21,"time_elapsed":507362,"internal_node_id":"0.0-4.0-0.7","subject_id":"5ea9690bb6019a050f5dc013","study_id":"60edd13110225f80f9f3709b","session_id":"6196c4a8ad07d1ac97e675df","condition":"contingent","relevant_dimensions":["pattern","legs"],"bee_group":{"antennae":"X","wings":"X","pattern":"S","legs":"F"},"action":"harvest","summary":"good-harvest","bonus":1.140000000000001},{"rt":15447.5,"stimulus":"\n                    <p><b>Action: <em>harvest</em></b></p>\n                    <p>This is the bee that you just saw.</p>\n                    <img src=\"bees-with-color/bee-A1SM.svg\" width=\"200\">\n                    <p><span class=\"greenText\"><b>Successful harvest!</b></span><br>Your pay has increased by $0.02. Your bonus pay is now $0.46.</p>\n            ","response":0,"trial_type":"html-button-response","trial_index":22,"time_elapsed":522811,"internal_node_id":"0.0-4.0-1.7","subject_id":"5ea9690bb6019a050f5dc013","study_id":"60edd13110225f80f9f3709b","session_id":"6196c4a8ad07d1ac97e675df","condition":"contingent","relevant_dimensions":["pattern","legs"],"bee_group":{"antennae":"X","wings":"X","pattern":"S","legs":"F"},"bonus":1.140000000000001},{"rt":11450.300000000745,"stimulus":"bees-with-color/bee-A2DM.svg","response":0,"trial_type":"image-button-response","trial_index":23,"time_elapsed":534264,"internal_node_id":"0.0-4.0-0.8","subject_id":"5ea9690bb6019a050f5dc013","study_id":"60edd13110225f80f9f3709b","session_id":"6196c4a8ad07d1ac97e675df","condition":"contingent","relevant_dimensions":["pattern","legs"],"bee_group":{"antennae":"X","wings":"X","pattern":"S","legs":"F"},"action":"harvest","summary":"good-harvest","bonus":1.140000000000001},{"rt":16600,"stimulus":"\n                    <p><b>Action: <em>harvest</em></b></p>\n                    <p>This is the bee that you just saw.</p>\n                    <img src=\"bees-with-color/bee-A2DM.svg\" width=\"200\">\n                    <p><span class=\"greenText\"><b>Successful harvest!</b></span><br>Your pay has increased by $0.02. Your bonus pay is now $0.48.</p>\n            ","response":0,"trial_type":"html-button-response","trial_index":24,"time_elapsed":550865,"internal_node_id":"0.0-4.0-1.8","subject_id":"5ea9690bb6019a050f5dc013","study_id":"60edd13110225f80f9f3709b","session_id":"6196c4a8ad07d1ac97e675df","condition":"contingent","relevant_dimensions":["pattern","legs"],"bee_group":{"antennae":"X","wings":"X","pattern":"S","legs":"F"},"bonus":1.140000000000001},{"rt":4605.800000000745,"stimulus":"bees-with-color/bee-B2SM.svg","response":0,"trial_type":"image-button-response","trial_index":25,"time_elapsed":555473,"internal_node_id":"0.0-4.0-0.9","subject_id":"5ea9690bb6019a050f5dc013","study_id":"60edd13110225f80f9f3709b","session_id":"6196c4a8ad07d1ac97e675df","condition":"contingent","relevant_dimensions":["pattern","legs"],"bee_group":{"antennae":"X","wings":"X","pattern":"S","legs":"F"},"action":"harvest","summary":"good-harvest","bonus":1.140000000000001},{"rt":13599.900000000373,"stimulus":"\n                    <p><b>Action: <em>harvest</em></b></p>\n                    <p>This is the bee that you just saw.</p>\n                    <img src=\"bees-with-color/bee-B2SM.svg\" width=\"200\">\n                    <p><span class=\"greenText\"><b>Successful harvest!</b></span><br>Your pay has increased by $0.02. Your bonus pay is now $0.50.</p>\n            ","response":0,"trial_type":"html-button-response","trial_index":26,"time_elapsed":569074,"internal_node_id":"0.0-4.0-1.9","subject_id":"5ea9690bb6019a050f5dc013","study_id":"60edd13110225f80f9f3709b","session_id":"6196c4a8ad07d1ac97e675df","condition":"contingent","relevant_dimensions":["pattern","legs"],"bee_group":{"antennae":"X","wings":"X","pattern":"S","legs":"F"},"bonus":1.140000000000001},{"rt":3502.9000000003725,"stimulus":"bees-with-color/bee-B1SF.svg","response":0,"trial_type":"image-button-response","trial_index":27,"time_elapsed":572579,"internal_node_id":"0.0-4.0-0.10","subject_id":"5ea9690bb6019a050f5dc013","study_id":"60edd13110225f80f9f3709b","session_id":"6196c4a8ad07d1ac97e675df","condition":"contingent","relevant_dimensions":["pattern","legs"],"bee_group":{"antennae":"X","wings":"X","pattern":"S","legs":"F"},"action":"harvest","summary":"bad-harvest","bonus":1.140000000000001},{"rt":21164.299999998882,"stimulus":"\n                    <p><b>Action: <em>harvest</em></b></p>\n                    <p>This is the bee that you just saw.</p>\n                    <img src=\"bees-with-color/bee-B1SF.svg\" width=\"200\">\n                    <p><span class=\"redText\">Bad choice, the bee was angry.</span><br><b>You have been stung!</b><br>Your pay has been decreased by $0.10. Your bonus pay is now $0.40.</p>\n            ","response":0,"trial_type":"html-button-response","trial_index":28,"time_elapsed":593744,"internal_node_id":"0.0-4.0-1.10","subject_id":"5ea9690bb6019a050f5dc013","study_id":"60edd13110225f80f9f3709b","session_id":"6196c4a8ad07d1ac97e675df","condition":"contingent","relevant_dimensions":["pattern","legs"],"bee_group":{"antennae":"X","wings":"X","pattern":"S","legs":"F"},"bonus":1.140000000000001},{"rt":12983.099999999627,"stimulus":"bees-with-color/bee-A2DF.svg","response":0,"trial_type":"image-button-response","trial_index":29,"time_elapsed":606730,"internal_node_id":"0.0-4.0-0.11","subject_id":"5ea9690bb6019a050f5dc013","study_id":"60edd13110225f80f9f3709b","session_id":"6196c4a8ad07d1ac97e675df","condition":"contingent","relevant_dimensions":["pattern","legs"],"bee_group":{"antennae":"X","wings":"X","pattern":"S","legs":"F"},"action":"harvest","summary":"good-harvest","bonus":1.140000000000001},{"rt":22039.700000001118,"stimulus":"\n                    <p><b>Action: <em>harvest</em></b></p>\n                    <p>This is the bee that you just saw.</p>\n                    <img src=\"bees-with-color/bee-A2DF.svg\" width=\"200\">\n                    <p><span class=\"greenText\"><b>Successful harvest!</b></span><br>Your pay has increased by $0.02. Your bonus pay is now $0.42.</p>\n            ","response":0,"trial_type":"html-button-response","trial_index":30,"time_elapsed":628771,"internal_node_id":"0.0-4.0-1.11","subject_id":"5ea9690bb6019a050f5dc013","study_id":"60edd13110225f80f9f3709b","session_id":"6196c4a8ad07d1ac97e675df","condition":"contingent","relevant_dimensions":["pattern","legs"],"bee_group":{"antennae":"X","wings":"X","pattern":"S","legs":"F"},"bonus":1.140000000000001},{"rt":12122.89999999851,"stimulus":"bees-with-color/bee-A1DF.svg","response":0,"trial_type":"image-button-response","trial_index":31,"time_elapsed":640896,"internal_node_id":"0.0-4.0-0.12","subject_id":"5ea9690bb6019a050f5dc013","study_id":"60edd13110225f80f9f3709b","session_id":"6196c4a8ad07d1ac97e675df","condition":"contingent","relevant_dimensions":["pattern","legs"],"bee_group":{"antennae":"X","wings":"X","pattern":"S","legs":"F"},"action":"harvest","summary":"good-harvest","bonus":1.140000000000001},{"rt":22504.599999999627,"stimulus":"\n                    <p><b>Action: <em>harvest</em></b></p>\n                    <p>This is the bee that you just saw.</p>\n                    <img src=\"bees-with-color/bee-A1DF.svg\" width=\"200\">\n                    <p><span class=\"greenText\"><b>Successful harvest!</b></span><br>Your pay has increased by $0.02. Your bonus pay is now $0.44.</p>\n            ","response":0,"trial_type":"html-button-response","trial_index":32,"time_elapsed":663401,"internal_node_id":"0.0-4.0-1.12","subject_id":"5ea9690bb6019a050f5dc013","study_id":"60edd13110225f80f9f3709b","session_id":"6196c4a8ad07d1ac97e675df","condition":"contingent","relevant_dimensions":["pattern","legs"],"bee_group":{"antennae":"X","wings":"X","pattern":"S","legs":"F"},"bonus":1.140000000000001},{"rt":12911.099999999627,"stimulus":"bees-with-color/bee-A1DM.svg","response":0,"trial_type":"image-button-response","trial_index":33,"time_elapsed":676314,"internal_node_id":"0.0-4.0-0.13","subject_id":"5ea9690bb6019a050f5dc013","study_id":"60edd13110225f80f9f3709b","session_id":"6196c4a8ad07d1ac97e675df","condition":"contingent","relevant_dimensions":["pattern","legs"],"bee_group":{"antennae":"X","wings":"X","pattern":"S","legs":"F"},"action":"harvest","summary":"good-harvest","bonus":1.140000000000001},{"rt":34189.5,"stimulus":"\n                    <p><b>Action: <em>harvest</em></b></p>\n                    <p>This is the bee that you just saw.</p>\n                    <img src=\"bees-with-color/bee-A1DM.svg\" width=\"200\">\n                    <p><span class=\"greenText\"><b>Successful harvest!</b></span><br>Your pay has increased by $0.02. Your bonus pay is now $0.46.</p>\n            ","response":0,"trial_type":"html-button-response","trial_index":34,"time_elapsed":710504,"internal_node_id":"0.0-4.0-1.13","subject_id":"5ea9690bb6019a050f5dc013","study_id":"60edd13110225f80f9f3709b","session_id":"6196c4a8ad07d1ac97e675df","condition":"contingent","relevant_dimensions":["pattern","legs"],"bee_group":{"antennae":"X","wings":"X","pattern":"S","legs":"F"},"bonus":1.140000000000001},{"rt":798,"stimulus":"bees-with-color/bee-B2SF.svg","response":0,"trial_type":"image-button-response","trial_index":35,"time_elapsed":711304,"internal_node_id":"0.0-4.0-0.14","subject_id":"5ea9690bb6019a050f5dc013","study_id":"60edd13110225f80f9f3709b","session_id":"6196c4a8ad07d1ac97e675df","condition":"contingent","relevant_dimensions":["pattern","legs"],"bee_group":{"antennae":"X","wings":"X","pattern":"S","legs":"F"},"action":"harvest","summary":"bad-harvest","bonus":1.140000000000001},{"rt":23548.699999999255,"stimulus":"\n                    <p><b>Action: <em>harvest</em></b></p>\n                    <p>This is the bee that you just saw.</p>\n                    <img src=\"bees-with-color/bee-B2SF.svg\" width=\"200\">\n                    <p><span class=\"redText\">Bad choice, the bee was angry.</span><br><b>You have been stung!</b><br>Your pay has been decreased by $0.10. Your bonus pay is now $0.36.</p>\n            ","response":0,"trial_type":"html-button-response","trial_index":36,"time_elapsed":734854,"internal_node_id":"0.0-4.0-1.14","subject_id":"5ea9690bb6019a050f5dc013","study_id":"60edd13110225f80f9f3709b","session_id":"6196c4a8ad07d1ac97e675df","condition":"contingent","relevant_dimensions":["pattern","legs"],"bee_group":{"antennae":"X","wings":"X","pattern":"S","legs":"F"},"bonus":1.140000000000001},{"rt":2023.0999999996275,"stimulus":"bees-with-color/bee-B2DM.svg","response":0,"trial_type":"image-button-response","trial_index":37,"time_elapsed":736879,"internal_node_id":"0.0-4.0-0.15","subject_id":"5ea9690bb6019a050f5dc013","study_id":"60edd13110225f80f9f3709b","session_id":"6196c4a8ad07d1ac97e675df","condition":"contingent","relevant_dimensions":["pattern","legs"],"bee_group":{"antennae":"X","wings":"X","pattern":"S","legs":"F"},"action":"harvest","summary":"good-harvest","bonus":1.140000000000001},{"rt":638.5,"stimulus":"\n                    <p><b>Action: <em>harvest</em></b></p>\n                    <p>This is the bee that you just saw.</p>\n                    <img src=\"bees-with-color/bee-B2DM.svg\" width=\"200\">\n                    <p><span class=\"greenText\"><b>Successful harvest!</b></span><br>Your pay has increased by $0.02. Your bonus pay is now $0.38.</p>\n            ","response":0,"trial_type":"html-button-response","trial_index":38,"time_elapsed":737518,"internal_node_id":"0.0-4.0-1.15","subject_id":"5ea9690bb6019a050f5dc013","study_id":"60edd13110225f80f9f3709b","session_id":"6196c4a8ad07d1ac97e675df","condition":"contingent","relevant_dimensions":["pattern","legs"],"bee_group":{"antennae":"X","wings":"X","pattern":"S","legs":"F"},"bonus":1.140000000000001},{"rt":1494.9000000003725,"stimulus":"bees-with-color/bee-A1SF.svg","response":1,"trial_type":"image-button-response","trial_index":39,"time_elapsed":739014,"internal_node_id":"0.0-4.0-0.16","subject_id":"5ea9690bb6019a050f5dc013","study_id":"60edd13110225f80f9f3709b","session_id":"6196c4a8ad07d1ac97e675df","condition":"contingent","relevant_dimensions":["pattern","legs"],"bee_group":{"antennae":"X","wings":"X","pattern":"S","legs":"F"},"action":"avoid","summary":"good-avoid","bonus":1.140000000000001},{"rt":815.5,"stimulus":"\n                    <p><b>Action: <em>avoid</em></b></p>\n                    <p>This is the bee that you just saw.</p>\n                    <img src=\"bees-with-color/bee-A1SF.svg\" width=\"200\">\n                    <p><br>Your bonus pay is unchanged, and remains at $0.38.</p>\n            ","response":0,"trial_type":"html-button-response","trial_index":40,"time_elapsed":739831,"internal_node_id":"0.0-4.0-1.16","subject_id":"5ea9690bb6019a050f5dc013","study_id":"60edd13110225f80f9f3709b","session_id":"6196c4a8ad07d1ac97e675df","condition":"contingent","relevant_dimensions":["pattern","legs"],"bee_group":{"antennae":"X","wings":"X","pattern":"S","legs":"F"},"bonus":1.140000000000001},{"rt":1038.9000000003725,"stimulus":"bees-with-color/bee-A2DF.svg","response":1,"trial_type":"image-button-response","trial_index":41,"time_elapsed":740871,"internal_node_id":"0.0-4.0-0.17","subject_id":"5ea9690bb6019a050f5dc013","study_id":"60edd13110225f80f9f3709b","session_id":"6196c4a8ad07d1ac97e675df","condition":"contingent","relevant_dimensions":["pattern","legs"],"bee_group":{"antennae":"X","wings":"X","pattern":"S","legs":"F"},"action":"avoid","summary":"bad-avoid","bonus":1.140000000000001},{"rt":559.1999999992549,"stimulus":"\n                    <p><b>Action: <em>avoid</em></b></p>\n                    <p>This is the bee that you just saw.</p>\n                    <img src=\"bees-with-color/bee-A2DF.svg\" width=\"200\">\n                    <p><br>Your bonus pay is unchanged, and remains at $0.38.</p>\n            ","response":0,"trial_type":"html-button-response","trial_index":42,"time_elapsed":741431,"internal_node_id":"0.0-4.0-1.17","subject_id":"5ea9690bb6019a050f5dc013","study_id":"60edd13110225f80f9f3709b","session_id":"6196c4a8ad07d1ac97e675df","condition":"contingent","relevant_dimensions":["pattern","legs"],"bee_group":{"antennae":"X","wings":"X","pattern":"S","legs":"F"},"bonus":1.140000000000001},{"rt":582.8000000007451,"stimulus":"bees-with-color/bee-B1DM.svg","response":0,"trial_type":"image-button-response","trial_index":43,"time_elapsed":742015,"internal_node_id":"0.0-4.0-0.18","subject_id":"5ea9690bb6019a050f5dc013","study_id":"60edd13110225f80f9f3709b","session_id":"6196c4a8ad07d1ac97e675df","condition":"contingent","relevant_dimensions":["pattern","legs"],"bee_group":{"antennae":"X","wings":"X","pattern":"S","legs":"F"},"action":"harvest","summary":"good-harvest","bonus":1.140000000000001},{"rt":534.2999999988824,"stimulus":"\n                    <p><b>Action: <em>harvest</em></b></p>\n                    <p>This is the bee that you just saw.</p>\n                    <img src=\"bees-with-color/bee-B1DM.svg\" width=\"200\">\n                    <p><span class=\"greenText\"><b>Successful harvest!</b></span><br>Your pay has increased by $0.02. Your bonus pay is now $0.40.</p>\n            ","response":0,"trial_type":"html-button-response","trial_index":44,"time_elapsed":742550,"internal_node_id":"0.0-4.0-1.18","subject_id":"5ea9690bb6019a050f5dc013","study_id":"60edd13110225f80f9f3709b","session_id":"6196c4a8ad07d1ac97e675df","condition":"contingent","relevant_dimensions":["pattern","legs"],"bee_group":{"antennae":"X","wings":"X","pattern":"S","legs":"F"},"bonus":1.140000000000001},{"rt":1015.0999999996275,"stimulus":"bees-with-color/bee-A1DF.svg","response":1,"trial_type":"image-button-response","trial_index":45,"time_elapsed":743567,"internal_node_id":"0.0-4.0-0.19","subject_id":"5ea9690bb6019a050f5dc013","study_id":"60edd13110225f80f9f3709b","session_id":"6196c4a8ad07d1ac97e675df","condition":"contingent","relevant_dimensions":["pattern","legs"],"bee_group":{"antennae":"X","wings":"X","pattern":"S","legs":"F"},"action":"avoid","summary":"bad-avoid","bonus":1.140000000000001},{"rt":422.3999999985099,"stimulus":"\n                    <p><b>Action: <em>avoid</em></b></p>\n                    <p>This is the bee that you just saw.</p>\n                    <img src=\"bees-with-color/bee-A1DF.svg\" width=\"200\">\n                    <p><br>Your bonus pay is unchanged, and remains at $0.40.</p>\n            ","response":0,"trial_type":"html-button-response","trial_index":46,"time_elapsed":743990,"internal_node_id":"0.0-4.0-1.19","subject_id":"5ea9690bb6019a050f5dc013","study_id":"60edd13110225f80f9f3709b","session_id":"6196c4a8ad07d1ac97e675df","condition":"contingent","relevant_dimensions":["pattern","legs"],"bee_group":{"antennae":"X","wings":"X","pattern":"S","legs":"F"},"bonus":1.140000000000001},{"rt":1247.800000000745,"stimulus":"bees-with-color/bee-A2DM.svg","response":0,"trial_type":"image-button-response","trial_index":47,"time_elapsed":745239,"internal_node_id":"0.0-4.0-0.20","subject_id":"5ea9690bb6019a050f5dc013","study_id":"60edd13110225f80f9f3709b","session_id":"6196c4a8ad07d1ac97e675df","condition":"contingent","relevant_dimensions":["pattern","legs"],"bee_group":{"antennae":"X","wings":"X","pattern":"S","legs":"F"},"action":"harvest","summary":"good-harvest","bonus":1.140000000000001},{"rt":582.6000000014901,"stimulus":"\n                    <p><b>Action: <em>harvest</em></b></p>\n                    <p>This is the bee that you just saw.</p>\n                    <img src=\"bees-with-color/bee-A2DM.svg\" width=\"200\">\n                    <p><span class=\"greenText\"><b>Successful harvest!</b></span><br>Your pay has increased by $0.02. Your bonus pay is now $0.42.</p>\n            ","response":0,"trial_type":"html-button-response","trial_index":48,"time_elapsed":745823,"internal_node_id":"0.0-4.0-1.20","subject_id":"5ea9690bb6019a050f5dc013","study_id":"60edd13110225f80f9f3709b","session_id":"6196c4a8ad07d1ac97e675df","condition":"contingent","relevant_dimensions":["pattern","legs"],"bee_group":{"antennae":"X","wings":"X","pattern":"S","legs":"F"},"bonus":1.140000000000001},{"rt":590.3000000007451,"stimulus":"bees-with-color/bee-B1SF.svg","response":1,"trial_type":"image-button-response","trial_index":49,"time_elapsed":746415,"internal_node_id":"0.0-4.0-0.21","subject_id":"5ea9690bb6019a050f5dc013","study_id":"60edd13110225f80f9f3709b","session_id":"6196c4a8ad07d1ac97e675df","condition":"contingent","relevant_dimensions":["pattern","legs"],"bee_group":{"antennae":"X","wings":"X","pattern":"S","legs":"F"},"action":"avoid","summary":"good-avoid","bonus":1.140000000000001},{"rt":606.8000000007451,"stimulus":"\n                    <p><b>Action: <em>avoid</em></b></p>\n                    <p>This is the bee that you just saw.</p>\n                    <img src=\"bees-with-color/bee-B1SF.svg\" width=\"200\">\n                    <p><br>Your bonus pay is unchanged, and remains at $0.42.</p>\n            ","response":0,"trial_type":"html-button-response","trial_index":50,"time_elapsed":747023,"internal_node_id":"0.0-4.0-1.21","subject_id":"5ea9690bb6019a050f5dc013","study_id":"60edd13110225f80f9f3709b","session_id":"6196c4a8ad07d1ac97e675df","condition":"contingent","relevant_dimensions":["pattern","legs"],"bee_group":{"antennae":"X","wings":"X","pattern":"S","legs":"F"},"bonus":1.140000000000001},{"rt":519.0999999996275,"stimulus":"bees-with-color/bee-B2SM.svg","response":0,"trial_type":"image-button-response","trial_index":51,"time_elapsed":747543,"internal_node_id":"0.0-4.0-0.22","subject_id":"5ea9690bb6019a050f5dc013","study_id":"60edd13110225f80f9f3709b","session_id":"6196c4a8ad07d1ac97e675df","condition":"contingent","relevant_dimensions":["pattern","legs"],"bee_group":{"antennae":"X","wings":"X","pattern":"S","legs":"F"},"action":"harvest","summary":"good-harvest","bonus":1.140000000000001},{"rt":439.5,"stimulus":"\n                    <p><b>Action: <em>harvest</em></b></p>\n                    <p>This is the bee that you just saw.</p>\n                    <img src=\"bees-with-color/bee-B2SM.svg\" width=\"200\">\n                    <p><span class=\"greenText\"><b>Successful harvest!</b></span><br>Your pay has increased by $0.02. Your bonus pay is now $0.44.</p>\n            ","response":0,"trial_type":"html-button-response","trial_index":52,"time_elapsed":747984,"internal_node_id":"0.0-4.0-1.22","subject_id":"5ea9690bb6019a050f5dc013","study_id":"60edd13110225f80f9f3709b","session_id":"6196c4a8ad07d1ac97e675df","condition":"contingent","relevant_dimensions":["pattern","legs"],"bee_group":{"antennae":"X","wings":"X","pattern":"S","legs":"F"},"bonus":1.140000000000001},{"rt":742.1999999992549,"stimulus":"bees-with-color/bee-B1SM.svg","response":1,"trial_type":"image-button-response","trial_index":53,"time_elapsed":748727,"internal_node_id":"0.0-4.0-0.23","subject_id":"5ea9690bb6019a050f5dc013","study_id":"60edd13110225f80f9f3709b","session_id":"6196c4a8ad07d1ac97e675df","condition":"contingent","relevant_dimensions":["pattern","legs"],"bee_group":{"antennae":"X","wings":"X","pattern":"S","legs":"F"},"action":"avoid","summary":"bad-avoid","bonus":1.140000000000001},{"rt":759.5999999996275,"stimulus":"\n                    <p><b>Action: <em>avoid</em></b></p>\n                    <p>This is the bee that you just saw.</p>\n                    <img src=\"bees-with-color/bee-B1SM.svg\" width=\"200\">\n                    <p><br>Your bonus pay is unchanged, and remains at $0.44.</p>\n            ","response":0,"trial_type":"html-button-response","trial_index":54,"time_elapsed":749488,"internal_node_id":"0.0-4.0-1.23","subject_id":"5ea9690bb6019a050f5dc013","study_id":"60edd13110225f80f9f3709b","session_id":"6196c4a8ad07d1ac97e675df","condition":"contingent","relevant_dimensions":["pattern","legs"],"bee_group":{"antennae":"X","wings":"X","pattern":"S","legs":"F"},"bonus":1.140000000000001},{"rt":597.7999999988824,"stimulus":"bees-with-color/bee-B2DM.svg","response":0,"trial_type":"image-button-response","trial_index":55,"time_elapsed":750087,"internal_node_id":"0.0-4.0-0.24","subject_id":"5ea9690bb6019a050f5dc013","study_id":"60edd13110225f80f9f3709b","session_id":"6196c4a8ad07d1ac97e675df","condition":"contingent","relevant_dimensions":["pattern","legs"],"bee_group":{"antennae":"X","wings":"X","pattern":"S","legs":"F"},"action":"harvest","summary":"good-harvest","bonus":1.140000000000001},{"rt":454.8999999985099,"stimulus":"\n                    <p><b>Action: <em>harvest</em></b></p>\n                    <p>This is the bee that you just saw.</p>\n                    <img src=\"bees-with-color/bee-B2DM.svg\" width=\"200\">\n                    <p><span class=\"greenText\"><b>Successful harvest!</b></span><br>Your pay has increased by $0.02. Your bonus pay is now $0.46.</p>\n            ","response":0,"trial_type":"html-button-response","trial_index":56,"time_elapsed":750543,"internal_node_id":"0.0-4.0-1.24","subject_id":"5ea9690bb6019a050f5dc013","study_id":"60edd13110225f80f9f3709b","session_id":"6196c4a8ad07d1ac97e675df","condition":"contingent","relevant_dimensions":["pattern","legs"],"bee_group":{"antennae":"X","wings":"X","pattern":"S","legs":"F"},"bonus":1.140000000000001},{"rt":687.1999999992549,"stimulus":"bees-with-color/bee-A2SF.svg","response":1,"trial_type":"image-button-response","trial_index":57,"time_elapsed":751232,"internal_node_id":"0.0-4.0-0.25","subject_id":"5ea9690bb6019a050f5dc013","study_id":"60edd13110225f80f9f3709b","session_id":"6196c4a8ad07d1ac97e675df","condition":"contingent","relevant_dimensions":["pattern","legs"],"bee_group":{"antennae":"X","wings":"X","pattern":"S","legs":"F"},"action":"avoid","summary":"good-avoid","bonus":1.140000000000001},{"rt":414.90000000037253,"stimulus":"\n                    <p><b>Action: <em>avoid</em></b></p>\n                    <p>This is the bee that you just saw.</p>\n                    <img src=\"bees-with-color/bee-A2SF.svg\" width=\"200\">\n                    <p><br>Your bonus pay is unchanged, and remains at $0.46.</p>\n            ","response":0,"trial_type":"html-button-response","trial_index":58,"time_elapsed":751648,"internal_node_id":"0.0-4.0-1.25","subject_id":"5ea9690bb6019a050f5dc013","study_id":"60edd13110225f80f9f3709b","session_id":"6196c4a8ad07d1ac97e675df","condition":"contingent","relevant_dimensions":["pattern","legs"],"bee_group":{"antennae":"X","wings":"X","pattern":"S","legs":"F"},"bonus":1.140000000000001},{"rt":838.8000000007451,"stimulus":"bees-with-color/bee-B2SF.svg","response":1,"trial_type":"image-button-response","trial_index":59,"time_elapsed":752488,"internal_node_id":"0.0-4.0-0.26","subject_id":"5ea9690bb6019a050f5dc013","study_id":"60edd13110225f80f9f3709b","session_id":"6196c4a8ad07d1ac97e675df","condition":"contingent","relevant_dimensions":["pattern","legs"],"bee_group":{"antennae":"X","wings":"X","pattern":"S","legs":"F"},"action":"avoid","summary":"good-avoid","bonus":1.140000000000001},{"rt":606.1999999992549,"stimulus":"\n                    <p><b>Action: <em>avoid</em></b></p>\n                    <p>This is the bee that you just saw.</p>\n                    <img src=\"bees-with-color/bee-B2SF.svg\" width=\"200\">\n                    <p><br>Your bonus pay is unchanged, and remains at $0.46.</p>\n            ","response":0,"trial_type":"html-button-response","trial_index":60,"time_elapsed":753096,"internal_node_id":"0.0-4.0-1.26","subject_id":"5ea9690bb6019a050f5dc013","study_id":"60edd13110225f80f9f3709b","session_id":"6196c4a8ad07d1ac97e675df","condition":"contingent","relevant_dimensions":["pattern","legs"],"bee_group":{"antennae":"X","wings":"X","pattern":"S","legs":"F"},"bonus":1.140000000000001},{"rt":607.1999999992549,"stimulus":"bees-with-color/bee-A2SM.svg","response":0,"trial_type":"image-button-response","trial_index":61,"time_elapsed":753704,"internal_node_id":"0.0-4.0-0.27","subject_id":"5ea9690bb6019a050f5dc013","study_id":"60edd13110225f80f9f3709b","session_id":"6196c4a8ad07d1ac97e675df","condition":"contingent","relevant_dimensions":["pattern","legs"],"bee_group":{"antennae":"X","wings":"X","pattern":"S","legs":"F"},"action":"harvest","summary":"good-harvest","bonus":1.140000000000001},{"rt":526.5,"stimulus":"\n                    <p><b>Action: <em>harvest</em></b></p>\n                    <p>This is the bee that you just saw.</p>\n                    <img src=\"bees-with-color/bee-A2SM.svg\" width=\"200\">\n                    <p><span class=\"greenText\"><b>Successful harvest!</b></span><br>Your pay has increased by $0.02. Your bonus pay is now $0.48.</p>\n            ","response":0,"trial_type":"html-button-response","trial_index":62,"time_elapsed":754232,"internal_node_id":"0.0-4.0-1.27","subject_id":"5ea9690bb6019a050f5dc013","study_id":"60edd13110225f80f9f3709b","session_id":"6196c4a8ad07d1ac97e675df","condition":"contingent","relevant_dimensions":["pattern","legs"],"bee_group":{"antennae":"X","wings":"X","pattern":"S","legs":"F"},"bonus":1.140000000000001},{"rt":8007.60000000149,"stimulus":"bees-with-color/bee-A1DM.svg","response":0,"trial_type":"image-button-response","trial_index":63,"time_elapsed":762241,"internal_node_id":"0.0-4.0-0.28","subject_id":"5ea9690bb6019a050f5dc013","study_id":"60edd13110225f80f9f3709b","session_id":"6196c4a8ad07d1ac97e675df","condition":"contingent","relevant_dimensions":["pattern","legs"],"bee_group":{"antennae":"X","wings":"X","pattern":"S","legs":"F"},"action":"harvest","summary":"good-harvest","bonus":1.140000000000001},{"rt":638.5999999996275,"stimulus":"\n                    <p><b>Action: <em>harvest</em></b></p>\n                    <p>This is the bee that you just saw.</p>\n                    <img src=\"bees-with-color/bee-A1DM.svg\" width=\"200\">\n                    <p><span class=\"greenText\"><b>Successful harvest!</b></span><br>Your pay has increased by $0.02. Your bonus pay is now $0.50.</p>\n            ","response":0,"trial_type":"html-button-response","trial_index":64,"time_elapsed":762881,"internal_node_id":"0.0-4.0-1.28","subject_id":"5ea9690bb6019a050f5dc013","study_id":"60edd13110225f80f9f3709b","session_id":"6196c4a8ad07d1ac97e675df","condition":"contingent","relevant_dimensions":["pattern","legs"],"bee_group":{"antennae":"X","wings":"X","pattern":"S","legs":"F"},"bonus":1.140000000000001},{"rt":1038.4000000003725,"stimulus":"bees-with-color/bee-B1DF.svg","response":1,"trial_type":"image-button-response","trial_index":65,"time_elapsed":763921,"internal_node_id":"0.0-4.0-0.29","subject_id":"5ea9690bb6019a050f5dc013","study_id":"60edd13110225f80f9f3709b","session_id":"6196c4a8ad07d1ac97e675df","condition":"contingent","relevant_dimensions":["pattern","legs"],"bee_group":{"antennae":"X","wings":"X","pattern":"S","legs":"F"},"action":"avoid","summary":"bad-avoid","bonus":1.140000000000001},{"rt":557.9000000003725,"stimulus":"\n                    <p><b>Action: <em>avoid</em></b></p>\n                    <p>This is the bee that you just saw.</p>\n                    <img src=\"bees-with-color/bee-B1DF.svg\" width=\"200\">\n                    <p><br>Your bonus pay is unchanged, and remains at $0.50.</p>\n            ","response":0,"trial_type":"html-button-response","trial_index":66,"time_elapsed":764480,"internal_node_id":"0.0-4.0-1.29","subject_id":"5ea9690bb6019a050f5dc013","study_id":"60edd13110225f80f9f3709b","session_id":"6196c4a8ad07d1ac97e675df","condition":"contingent","relevant_dimensions":["pattern","legs"],"bee_group":{"antennae":"X","wings":"X","pattern":"S","legs":"F"},"bonus":1.140000000000001},{"rt":699.2999999988824,"stimulus":"bees-with-color/bee-A1SM.svg","response":0,"trial_type":"image-button-response","trial_index":67,"time_elapsed":765180,"internal_node_id":"0.0-4.0-0.30","subject_id":"5ea9690bb6019a050f5dc013","study_id":"60edd13110225f80f9f3709b","session_id":"6196c4a8ad07d1ac97e675df","condition":"contingent","relevant_dimensions":["pattern","legs"],"bee_group":{"antennae":"X","wings":"X","pattern":"S","legs":"F"},"action":"harvest","summary":"good-harvest","bonus":1.140000000000001},{"rt":450.3999999985099,"stimulus":"\n                    <p><b>Action: <em>harvest</em></b></p>\n                    <p>This is the bee that you just saw.</p>\n                    <img src=\"bees-with-color/bee-A1SM.svg\" width=\"200\">\n                    <p><span class=\"greenText\"><b>Successful harvest!</b></span><br>Your pay has increased by $0.02. Your bonus pay is now $0.52.</p>\n            ","response":0,"trial_type":"html-button-response","trial_index":68,"time_elapsed":765632,"internal_node_id":"0.0-4.0-1.30","subject_id":"5ea9690bb6019a050f5dc013","study_id":"60edd13110225f80f9f3709b","session_id":"6196c4a8ad07d1ac97e675df","condition":"contingent","relevant_dimensions":["pattern","legs"],"bee_group":{"antennae":"X","wings":"X","pattern":"S","legs":"F"},"bonus":1.140000000000001},{"rt":723.5999999996275,"stimulus":"bees-with-color/bee-B2DF.svg","response":1,"trial_type":"image-button-response","trial_index":69,"time_elapsed":766356,"internal_node_id":"0.0-4.0-0.31","subject_id":"5ea9690bb6019a050f5dc013","study_id":"60edd13110225f80f9f3709b","session_id":"6196c4a8ad07d1ac97e675df","condition":"contingent","relevant_dimensions":["pattern","legs"],"bee_group":{"antennae":"X","wings":"X","pattern":"S","legs":"F"},"action":"avoid","summary":"bad-avoid","bonus":1.140000000000001},{"rt":555.3000000007451,"stimulus":"\n                    <p><b>Action: <em>avoid</em></b></p>\n                    <p>This is the bee that you just saw.</p>\n                    <img src=\"bees-with-color/bee-B2DF.svg\" width=\"200\">\n                    <p><br>Your bonus pay is unchanged, and remains at $0.52.</p>\n            ","response":0,"trial_type":"html-button-response","trial_index":70,"time_elapsed":766913,"internal_node_id":"0.0-4.0-1.31","subject_id":"5ea9690bb6019a050f5dc013","study_id":"60edd13110225f80f9f3709b","session_id":"6196c4a8ad07d1ac97e675df","condition":"contingent","relevant_dimensions":["pattern","legs"],"bee_group":{"antennae":"X","wings":"X","pattern":"S","legs":"F"},"bonus":1.140000000000001},{"rt":610.7999999988824,"stimulus":"bees-with-color/bee-B2DM.svg","response":0,"trial_type":"image-button-response","trial_index":71,"time_elapsed":767524,"internal_node_id":"0.0-4.0-0.32","subject_id":"5ea9690bb6019a050f5dc013","study_id":"60edd13110225f80f9f3709b","session_id":"6196c4a8ad07d1ac97e675df","condition":"contingent","relevant_dimensions":["pattern","legs"],"bee_group":{"antennae":"X","wings":"X","pattern":"S","legs":"F"},"action":"harvest","summary":"good-harvest","bonus":1.140000000000001},{"rt":543.0999999996275,"stimulus":"\n                    <p><b>Action: <em>harvest</em></b></p>\n                    <p>This is the bee that you just saw.</p>\n                    <img src=\"bees-with-color/bee-B2DM.svg\" width=\"200\">\n                    <p><span class=\"greenText\"><b>Successful harvest!</b></span><br>Your pay has increased by $0.02. Your bonus pay is now $0.54.</p>\n            ","response":0,"trial_type":"html-button-response","trial_index":72,"time_elapsed":768069,"internal_node_id":"0.0-4.0-1.32","subject_id":"5ea9690bb6019a050f5dc013","study_id":"60edd13110225f80f9f3709b","session_id":"6196c4a8ad07d1ac97e675df","condition":"contingent","relevant_dimensions":["pattern","legs"],"bee_group":{"antennae":"X","wings":"X","pattern":"S","legs":"F"},"bonus":1.140000000000001},{"rt":682.6999999992549,"stimulus":"bees-with-color/bee-B1SM.svg","response":0,"trial_type":"image-button-response","trial_index":73,"time_elapsed":768752,"internal_node_id":"0.0-4.0-0.33","subject_id":"5ea9690bb6019a050f5dc013","study_id":"60edd13110225f80f9f3709b","session_id":"6196c4a8ad07d1ac97e675df","condition":"contingent","relevant_dimensions":["pattern","legs"],"bee_group":{"antennae":"X","wings":"X","pattern":"S","legs":"F"},"action":"harvest","summary":"good-harvest","bonus":1.140000000000001},{"rt":602.6999999992549,"stimulus":"\n                    <p><b>Action: <em>harvest</em></b></p>\n                    <p>This is the bee that you just saw.</p>\n                    <img src=\"bees-with-color/bee-B1SM.svg\" width=\"200\">\n                    <p><span class=\"greenText\"><b>Successful harvest!</b></span><br>Your pay has increased by $0.02. Your bonus pay is now $0.56.</p>\n            ","response":0,"trial_type":"html-button-response","trial_index":74,"time_elapsed":769356,"internal_node_id":"0.0-4.0-1.33","subject_id":"5ea9690bb6019a050f5dc013","study_id":"60edd13110225f80f9f3709b","session_id":"6196c4a8ad07d1ac97e675df","condition":"contingent","relevant_dimensions":["pattern","legs"],"bee_group":{"antennae":"X","wings":"X","pattern":"S","legs":"F"},"bonus":1.140000000000001},{"rt":1211.2000000011176,"stimulus":"bees-with-color/bee-A2SF.svg","response":1,"trial_type":"image-button-response","trial_index":75,"time_elapsed":770569,"internal_node_id":"0.0-4.0-0.34","subject_id":"5ea9690bb6019a050f5dc013","study_id":"60edd13110225f80f9f3709b","session_id":"6196c4a8ad07d1ac97e675df","condition":"contingent","relevant_dimensions":["pattern","legs"],"bee_group":{"antennae":"X","wings":"X","pattern":"S","legs":"F"},"action":"avoid","summary":"good-avoid","bonus":1.140000000000001},{"rt":411.09999999962747,"stimulus":"\n                    <p><b>Action: <em>avoid</em></b></p>\n                    <p>This is the bee that you just saw.</p>\n                    <img src=\"bees-with-color/bee-A2SF.svg\" width=\"200\">\n                    <p><br>Your bonus pay is unchanged, and remains at $0.56.</p>\n            ","response":0,"trial_type":"html-button-response","trial_index":76,"time_elapsed":770981,"internal_node_id":"0.0-4.0-1.34","subject_id":"5ea9690bb6019a050f5dc013","study_id":"60edd13110225f80f9f3709b","session_id":"6196c4a8ad07d1ac97e675df","condition":"contingent","relevant_dimensions":["pattern","legs"],"bee_group":{"antennae":"X","wings":"X","pattern":"S","legs":"F"},"bonus":1.140000000000001},{"rt":703.2000000011176,"stimulus":"bees-with-color/bee-A1DF.svg","response":1,"trial_type":"image-button-response","trial_index":77,"time_elapsed":771685,"internal_node_id":"0.0-4.0-0.35","subject_id":"5ea9690bb6019a050f5dc013","study_id":"60edd13110225f80f9f3709b","session_id":"6196c4a8ad07d1ac97e675df","condition":"contingent","relevant_dimensions":["pattern","legs"],"bee_group":{"antennae":"X","wings":"X","pattern":"S","legs":"F"},"action":"avoid","summary":"bad-avoid","bonus":1.140000000000001},{"rt":590.1999999992549,"stimulus":"\n                    <p><b>Action: <em>avoid</em></b></p>\n                    <p>This is the bee that you just saw.</p>\n                    <img src=\"bees-with-color/bee-A1DF.svg\" width=\"200\">\n                    <p><br>Your bonus pay is unchanged, and remains at $0.56.</p>\n            ","response":0,"trial_type":"html-button-response","trial_index":78,"time_elapsed":772276,"internal_node_id":"0.0-4.0-1.35","subject_id":"5ea9690bb6019a050f5dc013","study_id":"60edd13110225f80f9f3709b","session_id":"6196c4a8ad07d1ac97e675df","condition":"contingent","relevant_dimensions":["pattern","legs"],"bee_group":{"antennae":"X","wings":"X","pattern":"S","legs":"F"},"bonus":1.140000000000001},{"rt":599.0999999996275,"stimulus":"bees-with-color/bee-B2SM.svg","response":0,"trial_type":"image-button-response","trial_index":79,"time_elapsed":772876,"internal_node_id":"0.0-4.0-0.36","subject_id":"5ea9690bb6019a050f5dc013","study_id":"60edd13110225f80f9f3709b","session_id":"6196c4a8ad07d1ac97e675df","condition":"contingent","relevant_dimensions":["pattern","legs"],"bee_group":{"antennae":"X","wings":"X","pattern":"S","legs":"F"},"action":"harvest","summary":"good-harvest","bonus":1.140000000000001},{"rt":551.4000000003725,"stimulus":"\n                    <p><b>Action: <em>harvest</em></b></p>\n                    <p>This is the bee that you just saw.</p>\n                    <img src=\"bees-with-color/bee-B2SM.svg\" width=\"200\">\n                    <p><span class=\"greenText\"><b>Successful harvest!</b></span><br>Your pay has increased by $0.02. Your bonus pay is now $0.58.</p>\n            ","response":0,"trial_type":"html-button-response","trial_index":80,"time_elapsed":773429,"internal_node_id":"0.0-4.0-1.36","subject_id":"5ea9690bb6019a050f5dc013","study_id":"60edd13110225f80f9f3709b","session_id":"6196c4a8ad07d1ac97e675df","condition":"contingent","relevant_dimensions":["pattern","legs"],"bee_group":{"antennae":"X","wings":"X","pattern":"S","legs":"F"},"bonus":1.140000000000001},{"rt":382.7999999988824,"stimulus":"bees-with-color/bee-A1SF.svg","response":1,"trial_type":"image-button-response","trial_index":81,"time_elapsed":773813,"internal_node_id":"0.0-4.0-0.37","subject_id":"5ea9690bb6019a050f5dc013","study_id":"60edd13110225f80f9f3709b","session_id":"6196c4a8ad07d1ac97e675df","condition":"contingent","relevant_dimensions":["pattern","legs"],"bee_group":{"antennae":"X","wings":"X","pattern":"S","legs":"F"},"action":"avoid","summary":"good-avoid","bonus":1.140000000000001},{"rt":622.9000000003725,"stimulus":"\n                    <p><b>Action: <em>avoid</em></b></p>\n                    <p>This is the bee that you just saw.</p>\n                    <img src=\"bees-with-color/bee-A1SF.svg\" width=\"200\">\n                    <p><br>Your bonus pay is unchanged, and remains at $0.58.</p>\n            ","response":0,"trial_type":"html-button-response","trial_index":82,"time_elapsed":774437,"internal_node_id":"0.0-4.0-1.37","subject_id":"5ea9690bb6019a050f5dc013","study_id":"60edd13110225f80f9f3709b","session_id":"6196c4a8ad07d1ac97e675df","condition":"contingent","relevant_dimensions":["pattern","legs"],"bee_group":{"antennae":"X","wings":"X","pattern":"S","legs":"F"},"bonus":1.140000000000001},{"rt":615.0999999996275,"stimulus":"bees-with-color/bee-A2DF.svg","response":1,"trial_type":"image-button-response","trial_index":83,"time_elapsed":775053,"internal_node_id":"0.0-4.0-0.38","subject_id":"5ea9690bb6019a050f5dc013","study_id":"60edd13110225f80f9f3709b","session_id":"6196c4a8ad07d1ac97e675df","condition":"contingent","relevant_dimensions":["pattern","legs"],"bee_group":{"antennae":"X","wings":"X","pattern":"S","legs":"F"},"action":"avoid","summary":"bad-avoid","bonus":1.140000000000001},{"rt":486.30000000074506,"stimulus":"\n                    <p><b>Action: <em>avoid</em></b></p>\n                    <p>This is the bee that you just saw.</p>\n                    <img src=\"bees-with-color/bee-A2DF.svg\" width=\"200\">\n                    <p><br>Your bonus pay is unchanged, and remains at $0.58.</p>\n            ","response":0,"trial_type":"html-button-response","trial_index":84,"time_elapsed":775541,"internal_node_id":"0.0-4.0-1.38","subject_id":"5ea9690bb6019a050f5dc013","study_id":"60edd13110225f80f9f3709b","session_id":"6196c4a8ad07d1ac97e675df","condition":"contingent","relevant_dimensions":["pattern","legs"],"bee_group":{"antennae":"X","wings":"X","pattern":"S","legs":"F"},"bonus":1.140000000000001},{"rt":615.5,"stimulus":"bees-with-color/bee-B1DM.svg","response":0,"trial_type":"image-button-response","trial_index":85,"time_elapsed":776157,"internal_node_id":"0.0-4.0-0.39","subject_id":"5ea9690bb6019a050f5dc013","study_id":"60edd13110225f80f9f3709b","session_id":"6196c4a8ad07d1ac97e675df","condition":"contingent","relevant_dimensions":["pattern","legs"],"bee_group":{"antennae":"X","wings":"X","pattern":"S","legs":"F"},"action":"harvest","summary":"good-harvest","bonus":1.140000000000001},{"rt":421.7000000011176,"stimulus":"\n                    <p><b>Action: <em>harvest</em></b></p>\n                    <p>This is the bee that you just saw.</p>\n                    <img src=\"bees-with-color/bee-B1DM.svg\" width=\"200\">\n                    <p><span class=\"greenText\"><b>Successful harvest!</b></span><br>Your pay has increased by $0.02. Your bonus pay is now $0.60.</p>\n            ","response":0,"trial_type":"html-button-response","trial_index":86,"time_elapsed":776581,"internal_node_id":"0.0-4.0-1.39","subject_id":"5ea9690bb6019a050f5dc013","study_id":"60edd13110225f80f9f3709b","session_id":"6196c4a8ad07d1ac97e675df","condition":"contingent","relevant_dimensions":["pattern","legs"],"bee_group":{"antennae":"X","wings":"X","pattern":"S","legs":"F"},"bonus":1.140000000000001},{"rt":655.1999999992549,"stimulus":"bees-with-color/bee-A1SM.svg","response":0,"trial_type":"image-button-response","trial_index":87,"time_elapsed":777237,"internal_node_id":"0.0-4.0-0.40","subject_id":"5ea9690bb6019a050f5dc013","study_id":"60edd13110225f80f9f3709b","session_id":"6196c4a8ad07d1ac97e675df","condition":"contingent","relevant_dimensions":["pattern","legs"],"bee_group":{"antennae":"X","wings":"X","pattern":"S","legs":"F"},"action":"harvest","summary":"good-harvest","bonus":1.140000000000001},{"rt":439.09999999962747,"stimulus":"\n                    <p><b>Action: <em>harvest</em></b></p>\n                    <p>This is the bee that you just saw.</p>\n                    <img src=\"bees-with-color/bee-A1SM.svg\" width=\"200\">\n                    <p><span class=\"greenText\"><b>Successful harvest!</b></span><br>Your pay has increased by $0.02. Your bonus pay is now $0.62.</p>\n            ","response":0,"trial_type":"html-button-response","trial_index":88,"time_elapsed":777677,"internal_node_id":"0.0-4.0-1.40","subject_id":"5ea9690bb6019a050f5dc013","study_id":"60edd13110225f80f9f3709b","session_id":"6196c4a8ad07d1ac97e675df","condition":"contingent","relevant_dimensions":["pattern","legs"],"bee_group":{"antennae":"X","wings":"X","pattern":"S","legs":"F"},"bonus":1.140000000000001},{"rt":686.8000000007451,"stimulus":"bees-with-color/bee-B2DF.svg","response":1,"trial_type":"image-button-response","trial_index":89,"time_elapsed":778365,"internal_node_id":"0.0-4.0-0.41","subject_id":"5ea9690bb6019a050f5dc013","study_id":"60edd13110225f80f9f3709b","session_id":"6196c4a8ad07d1ac97e675df","condition":"contingent","relevant_dimensions":["pattern","legs"],"bee_group":{"antennae":"X","wings":"X","pattern":"S","legs":"F"},"action":"avoid","summary":"bad-avoid","bonus":1.140000000000001},{"rt":541.8999999985099,"stimulus":"\n                    <p><b>Action: <em>avoid</em></b></p>\n                    <p>This is the bee that you just saw.</p>\n                    <img src=\"bees-with-color/bee-B2DF.svg\" width=\"200\">\n                    <p><br>Your bonus pay is unchanged, and remains at $0.62.</p>\n            ","response":0,"trial_type":"html-button-response","trial_index":90,"time_elapsed":778909,"internal_node_id":"0.0-4.0-1.41","subject_id":"5ea9690bb6019a050f5dc013","study_id":"60edd13110225f80f9f3709b","session_id":"6196c4a8ad07d1ac97e675df","condition":"contingent","relevant_dimensions":["pattern","legs"],"bee_group":{"antennae":"X","wings":"X","pattern":"S","legs":"F"},"bonus":1.140000000000001},{"rt":655.3000000007451,"stimulus":"bees-with-color/bee-B1DF.svg","response":1,"trial_type":"image-button-response","trial_index":91,"time_elapsed":779565,"internal_node_id":"0.0-4.0-0.42","subject_id":"5ea9690bb6019a050f5dc013","study_id":"60edd13110225f80f9f3709b","session_id":"6196c4a8ad07d1ac97e675df","condition":"contingent","relevant_dimensions":["pattern","legs"],"bee_group":{"antennae":"X","wings":"X","pattern":"S","legs":"F"},"action":"avoid","summary":"bad-avoid","bonus":1.140000000000001},{"rt":447,"stimulus":"\n                    <p><b>Action: <em>avoid</em></b></p>\n                    <p>This is the bee that you just saw.</p>\n                    <img src=\"bees-with-color/bee-B1DF.svg\" width=\"200\">\n                    <p><br>Your bonus pay is unchanged, and remains at $0.62.</p>\n            ","response":0,"trial_type":"html-button-response","trial_index":92,"time_elapsed":780013,"internal_node_id":"0.0-4.0-1.42","subject_id":"5ea9690bb6019a050f5dc013","study_id":"60edd13110225f80f9f3709b","session_id":"6196c4a8ad07d1ac97e675df","condition":"contingent","relevant_dimensions":["pattern","legs"],"bee_group":{"antennae":"X","wings":"X","pattern":"S","legs":"F"},"bonus":1.140000000000001},{"rt":1094.5999999996275,"stimulus":"bees-with-color/bee-B2SF.svg","response":1,"trial_type":"image-button-response","trial_index":93,"time_elapsed":781109,"internal_node_id":"0.0-4.0-0.43","subject_id":"5ea9690bb6019a050f5dc013","study_id":"60edd13110225f80f9f3709b","session_id":"6196c4a8ad07d1ac97e675df","condition":"contingent","relevant_dimensions":["pattern","legs"],"bee_group":{"antennae":"X","wings":"X","pattern":"S","legs":"F"},"action":"avoid","summary":"good-avoid","bonus":1.140000000000001},{"rt":414.40000000037253,"stimulus":"\n                    <p><b>Action: <em>avoid</em></b></p>\n                    <p>This is the bee that you just saw.</p>\n                    <img src=\"bees-with-color/bee-B2SF.svg\" width=\"200\">\n                    <p><br>Your bonus pay is unchanged, and remains at $0.62.</p>\n            ","response":0,"trial_type":"html-button-response","trial_index":94,"time_elapsed":781525,"internal_node_id":"0.0-4.0-1.43","subject_id":"5ea9690bb6019a050f5dc013","study_id":"60edd13110225f80f9f3709b","session_id":"6196c4a8ad07d1ac97e675df","condition":"contingent","relevant_dimensions":["pattern","legs"],"bee_group":{"antennae":"X","wings":"X","pattern":"S","legs":"F"},"bonus":1.140000000000001},{"rt":615,"stimulus":"bees-with-color/bee-A2SM.svg","response":0,"trial_type":"image-button-response","trial_index":95,"time_elapsed":782141,"internal_node_id":"0.0-4.0-0.44","subject_id":"5ea9690bb6019a050f5dc013","study_id":"60edd13110225f80f9f3709b","session_id":"6196c4a8ad07d1ac97e675df","condition":"contingent","relevant_dimensions":["pattern","legs"],"bee_group":{"antennae":"X","wings":"X","pattern":"S","legs":"F"},"action":"harvest","summary":"good-harvest","bonus":1.140000000000001},{"rt":446.90000000037253,"stimulus":"\n                    <p><b>Action: <em>harvest</em></b></p>\n                    <p>This is the bee that you just saw.</p>\n                    <img src=\"bees-with-color/bee-A2SM.svg\" width=\"200\">\n                    <p><span class=\"greenText\"><b>Successful harvest!</b></span><br>Your pay has increased by $0.02. Your bonus pay is now $0.64.</p>\n            ","response":0,"trial_type":"html-button-response","trial_index":96,"time_elapsed":782589,"internal_node_id":"0.0-4.0-1.44","subject_id":"5ea9690bb6019a050f5dc013","study_id":"60edd13110225f80f9f3709b","session_id":"6196c4a8ad07d1ac97e675df","condition":"contingent","relevant_dimensions":["pattern","legs"],"bee_group":{"antennae":"X","wings":"X","pattern":"S","legs":"F"},"bonus":1.140000000000001},{"rt":487.19999999925494,"stimulus":"bees-with-color/bee-B1SF.svg","response":1,"trial_type":"image-button-response","trial_index":97,"time_elapsed":783078,"internal_node_id":"0.0-4.0-0.45","subject_id":"5ea9690bb6019a050f5dc013","study_id":"60edd13110225f80f9f3709b","session_id":"6196c4a8ad07d1ac97e675df","condition":"contingent","relevant_dimensions":["pattern","legs"],"bee_group":{"antennae":"X","wings":"X","pattern":"S","legs":"F"},"action":"avoid","summary":"good-avoid","bonus":1.140000000000001},{"rt":430.69999999925494,"stimulus":"\n                    <p><b>Action: <em>avoid</em></b></p>\n                    <p>This is the bee that you just saw.</p>\n                    <img src=\"bees-with-color/bee-B1SF.svg\" width=\"200\">\n                    <p><br>Your bonus pay is unchanged, and remains at $0.64.</p>\n            ","response":0,"trial_type":"html-button-response","trial_index":98,"time_elapsed":783510,"internal_node_id":"0.0-4.0-1.45","subject_id":"5ea9690bb6019a050f5dc013","study_id":"60edd13110225f80f9f3709b","session_id":"6196c4a8ad07d1ac97e675df","condition":"contingent","relevant_dimensions":["pattern","legs"],"bee_group":{"antennae":"X","wings":"X","pattern":"S","legs":"F"},"bonus":1.140000000000001},{"rt":630.3000000007451,"stimulus":"bees-with-color/bee-A1DM.svg","response":0,"trial_type":"image-button-response","trial_index":99,"time_elapsed":784141,"internal_node_id":"0.0-4.0-0.46","subject_id":"5ea9690bb6019a050f5dc013","study_id":"60edd13110225f80f9f3709b","session_id":"6196c4a8ad07d1ac97e675df","condition":"contingent","relevant_dimensions":["pattern","legs"],"bee_group":{"antennae":"X","wings":"X","pattern":"S","legs":"F"},"action":"harvest","summary":"good-harvest","bonus":1.140000000000001},{"rt":495,"stimulus":"\n                    <p><b>Action: <em>harvest</em></b></p>\n                    <p>This is the bee that you just saw.</p>\n                    <img src=\"bees-with-color/bee-A1DM.svg\" width=\"200\">\n                    <p><span class=\"greenText\"><b>Successful harvest!</b></span><br>Your pay has increased by $0.02. Your bonus pay is now $0.66.</p>\n            ","response":0,"trial_type":"html-button-response","trial_index":100,"time_elapsed":784637,"internal_node_id":"0.0-4.0-1.46","subject_id":"5ea9690bb6019a050f5dc013","study_id":"60edd13110225f80f9f3709b","session_id":"6196c4a8ad07d1ac97e675df","condition":"contingent","relevant_dimensions":["pattern","legs"],"bee_group":{"antennae":"X","wings":"X","pattern":"S","legs":"F"},"bonus":1.140000000000001},{"rt":407.5,"stimulus":"bees-with-color/bee-A2DM.svg","response":1,"trial_type":"image-button-response","trial_index":101,"time_elapsed":785046,"internal_node_id":"0.0-4.0-0.47","subject_id":"5ea9690bb6019a050f5dc013","study_id":"60edd13110225f80f9f3709b","session_id":"6196c4a8ad07d1ac97e675df","condition":"contingent","relevant_dimensions":["pattern","legs"],"bee_group":{"antennae":"X","wings":"X","pattern":"S","legs":"F"},"action":"avoid","summary":"bad-avoid","bonus":1.140000000000001},{"rt":614.8000000007451,"stimulus":"\n                    <p><b>Action: <em>avoid</em></b></p>\n                    <p>This is the bee that you just saw.</p>\n                    <img src=\"bees-with-color/bee-A2DM.svg\" width=\"200\">\n                    <p><br>Your bonus pay is unchanged, and remains at $0.66.</p>\n            ","response":0,"trial_type":"html-button-response","trial_index":102,"time_elapsed":785662,"internal_node_id":"0.0-4.0-1.47","subject_id":"5ea9690bb6019a050f5dc013","study_id":"60edd13110225f80f9f3709b","session_id":"6196c4a8ad07d1ac97e675df","condition":"contingent","relevant_dimensions":["pattern","legs"],"bee_group":{"antennae":"X","wings":"X","pattern":"S","legs":"F"},"bonus":1.140000000000001},{"rt":582.0999999996275,"stimulus":"bees-with-color/bee-A1DM.svg","response":0,"trial_type":"image-button-response","trial_index":103,"time_elapsed":786245,"internal_node_id":"0.0-4.0-0.48","subject_id":"5ea9690bb6019a050f5dc013","study_id":"60edd13110225f80f9f3709b","session_id":"6196c4a8ad07d1ac97e675df","condition":"contingent","relevant_dimensions":["pattern","legs"],"bee_group":{"antennae":"X","wings":"X","pattern":"S","legs":"F"},"action":"harvest","summary":"good-harvest","bonus":1.140000000000001},{"rt":431.40000000037253,"stimulus":"\n                    <p><b>Action: <em>harvest</em></b></p>\n                    <p>This is the bee that you just saw.</p>\n                    <img src=\"bees-with-color/bee-A1DM.svg\" width=\"200\">\n                    <p><span class=\"greenText\"><b>Successful harvest!</b></span><br>Your pay has increased by $0.02. Your bonus pay is now $0.68.</p>\n            ","response":0,"trial_type":"html-button-response","trial_index":104,"time_elapsed":786678,"internal_node_id":"0.0-4.0-1.48","subject_id":"5ea9690bb6019a050f5dc013","study_id":"60edd13110225f80f9f3709b","session_id":"6196c4a8ad07d1ac97e675df","condition":"contingent","relevant_dimensions":["pattern","legs"],"bee_group":{"antennae":"X","wings":"X","pattern":"S","legs":"F"},"bonus":1.140000000000001},{"rt":607,"stimulus":"bees-with-color/bee-B2DF.svg","response":1,"trial_type":"image-button-response","trial_index":105,"time_elapsed":787286,"internal_node_id":"0.0-4.0-0.49","subject_id":"5ea9690bb6019a050f5dc013","study_id":"60edd13110225f80f9f3709b","session_id":"6196c4a8ad07d1ac97e675df","condition":"contingent","relevant_dimensions":["pattern","legs"],"bee_group":{"antennae":"X","wings":"X","pattern":"S","legs":"F"},"action":"avoid","summary":"bad-avoid","bonus":1.140000000000001},{"rt":367,"stimulus":"\n                    <p><b>Action: <em>avoid</em></b></p>\n                    <p>This is the bee that you just saw.</p>\n                    <img src=\"bees-with-color/bee-B2DF.svg\" width=\"200\">\n                    <p><br>Your bonus pay is unchanged, and remains at $0.68.</p>\n            ","response":0,"trial_type":"html-button-response","trial_index":106,"time_elapsed":787655,"internal_node_id":"0.0-4.0-1.49","subject_id":"5ea9690bb6019a050f5dc013","study_id":"60edd13110225f80f9f3709b","session_id":"6196c4a8ad07d1ac97e675df","condition":"contingent","relevant_dimensions":["pattern","legs"],"bee_group":{"antennae":"X","wings":"X","pattern":"S","legs":"F"},"bonus":1.140000000000001},{"rt":734.5,"stimulus":"bees-with-color/bee-A1SF.svg","response":1,"trial_type":"image-button-response","trial_index":107,"time_elapsed":788391,"internal_node_id":"0.0-4.0-0.50","subject_id":"5ea9690bb6019a050f5dc013","study_id":"60edd13110225f80f9f3709b","session_id":"6196c4a8ad07d1ac97e675df","condition":"contingent","relevant_dimensions":["pattern","legs"],"bee_group":{"antennae":"X","wings":"X","pattern":"S","legs":"F"},"action":"avoid","summary":"good-avoid","bonus":1.140000000000001},{"rt":349.80000000074506,"stimulus":"\n                    <p><b>Action: <em>avoid</em></b></p>\n                    <p>This is the bee that you just saw.</p>\n                    <img src=\"bees-with-color/bee-A1SF.svg\" width=\"200\">\n                    <p><br>Your bonus pay is unchanged, and remains at $0.68.</p>\n            ","response":0,"trial_type":"html-button-response","trial_index":108,"time_elapsed":788742,"internal_node_id":"0.0-4.0-1.50","subject_id":"5ea9690bb6019a050f5dc013","study_id":"60edd13110225f80f9f3709b","session_id":"6196c4a8ad07d1ac97e675df","condition":"contingent","relevant_dimensions":["pattern","legs"],"bee_group":{"antennae":"X","wings":"X","pattern":"S","legs":"F"},"bonus":1.140000000000001},{"rt":582.9000000003725,"stimulus":"bees-with-color/bee-A2DM.svg","response":0,"trial_type":"image-button-response","trial_index":109,"time_elapsed":789326,"internal_node_id":"0.0-4.0-0.51","subject_id":"5ea9690bb6019a050f5dc013","study_id":"60edd13110225f80f9f3709b","session_id":"6196c4a8ad07d1ac97e675df","condition":"contingent","relevant_dimensions":["pattern","legs"],"bee_group":{"antennae":"X","wings":"X","pattern":"S","legs":"F"},"action":"harvest","summary":"good-harvest","bonus":1.140000000000001},{"rt":351,"stimulus":"\n                    <p><b>Action: <em>harvest</em></b></p>\n                    <p>This is the bee that you just saw.</p>\n                    <img src=\"bees-with-color/bee-A2DM.svg\" width=\"200\">\n                    <p><span class=\"greenText\"><b>Successful harvest!</b></span><br>Your pay has increased by $0.02. Your bonus pay is now $0.70.</p>\n            ","response":0,"trial_type":"html-button-response","trial_index":110,"time_elapsed":789678,"internal_node_id":"0.0-4.0-1.51","subject_id":"5ea9690bb6019a050f5dc013","study_id":"60edd13110225f80f9f3709b","session_id":"6196c4a8ad07d1ac97e675df","condition":"contingent","relevant_dimensions":["pattern","legs"],"bee_group":{"antennae":"X","wings":"X","pattern":"S","legs":"F"},"bonus":1.140000000000001},{"rt":638.8000000007451,"stimulus":"bees-with-color/bee-A2SF.svg","response":1,"trial_type":"image-button-response","trial_index":111,"time_elapsed":790318,"internal_node_id":"0.0-4.0-0.52","subject_id":"5ea9690bb6019a050f5dc013","study_id":"60edd13110225f80f9f3709b","session_id":"6196c4a8ad07d1ac97e675df","condition":"contingent","relevant_dimensions":["pattern","legs"],"bee_group":{"antennae":"X","wings":"X","pattern":"S","legs":"F"},"action":"avoid","summary":"good-avoid","bonus":1.140000000000001},{"rt":551.1999999992549,"stimulus":"\n                    <p><b>Action: <em>avoid</em></b></p>\n                    <p>This is the bee that you just saw.</p>\n                    <img src=\"bees-with-color/bee-A2SF.svg\" width=\"200\">\n                    <p><br>Your bonus pay is unchanged, and remains at $0.70.</p>\n            ","response":0,"trial_type":"html-button-response","trial_index":112,"time_elapsed":790871,"internal_node_id":"0.0-4.0-1.52","subject_id":"5ea9690bb6019a050f5dc013","study_id":"60edd13110225f80f9f3709b","session_id":"6196c4a8ad07d1ac97e675df","condition":"contingent","relevant_dimensions":["pattern","legs"],"bee_group":{"antennae":"X","wings":"X","pattern":"S","legs":"F"},"bonus":1.140000000000001},{"rt":574.4000000003725,"stimulus":"bees-with-color/bee-B1DM.svg","response":0,"trial_type":"image-button-response","trial_index":113,"time_elapsed":791446,"internal_node_id":"0.0-4.0-0.53","subject_id":"5ea9690bb6019a050f5dc013","study_id":"60edd13110225f80f9f3709b","session_id":"6196c4a8ad07d1ac97e675df","condition":"contingent","relevant_dimensions":["pattern","legs"],"bee_group":{"antennae":"X","wings":"X","pattern":"S","legs":"F"},"action":"harvest","summary":"good-harvest","bonus":1.140000000000001},{"rt":511,"stimulus":"\n                    <p><b>Action: <em>harvest</em></b></p>\n                    <p>This is the bee that you just saw.</p>\n                    <img src=\"bees-with-color/bee-B1DM.svg\" width=\"200\">\n                    <p><span class=\"greenText\"><b>Successful harvest!</b></span><br>Your pay has increased by $0.02. Your bonus pay is now $0.72.</p>\n            ","response":0,"trial_type":"html-button-response","trial_index":114,"time_elapsed":791958,"internal_node_id":"0.0-4.0-1.53","subject_id":"5ea9690bb6019a050f5dc013","study_id":"60edd13110225f80f9f3709b","session_id":"6196c4a8ad07d1ac97e675df","condition":"contingent","relevant_dimensions":["pattern","legs"],"bee_group":{"antennae":"X","wings":"X","pattern":"S","legs":"F"},"bonus":1.140000000000001},{"rt":615,"stimulus":"bees-with-color/bee-B1DF.svg","response":1,"trial_type":"image-button-response","trial_index":115,"time_elapsed":792574,"internal_node_id":"0.0-4.0-0.54","subject_id":"5ea9690bb6019a050f5dc013","study_id":"60edd13110225f80f9f3709b","session_id":"6196c4a8ad07d1ac97e675df","condition":"contingent","relevant_dimensions":["pattern","legs"],"bee_group":{"antennae":"X","wings":"X","pattern":"S","legs":"F"},"action":"avoid","summary":"bad-avoid","bonus":1.140000000000001},{"rt":862.6999999992549,"stimulus":"\n                    <p><b>Action: <em>avoid</em></b></p>\n                    <p>This is the bee that you just saw.</p>\n                    <img src=\"bees-with-color/bee-B1DF.svg\" width=\"200\">\n                    <p><br>Your bonus pay is unchanged, and remains at $0.72.</p>\n            ","response":0,"trial_type":"html-button-response","trial_index":116,"time_elapsed":793438,"internal_node_id":"0.0-4.0-1.54","subject_id":"5ea9690bb6019a050f5dc013","study_id":"60edd13110225f80f9f3709b","session_id":"6196c4a8ad07d1ac97e675df","condition":"contingent","relevant_dimensions":["pattern","legs"],"bee_group":{"antennae":"X","wings":"X","pattern":"S","legs":"F"},"bonus":1.140000000000001},{"rt":567.7999999988824,"stimulus":"bees-with-color/bee-B2DM.svg","response":0,"trial_type":"image-button-response","trial_index":117,"time_elapsed":794007,"internal_node_id":"0.0-4.0-0.55","subject_id":"5ea9690bb6019a050f5dc013","study_id":"60edd13110225f80f9f3709b","session_id":"6196c4a8ad07d1ac97e675df","condition":"contingent","relevant_dimensions":["pattern","legs"],"bee_group":{"antennae":"X","wings":"X","pattern":"S","legs":"F"},"action":"harvest","summary":"good-harvest","bonus":1.140000000000001},{"rt":478.09999999962747,"stimulus":"\n                    <p><b>Action: <em>harvest</em></b></p>\n                    <p>This is the bee that you just saw.</p>\n                    <img src=\"bees-with-color/bee-B2DM.svg\" width=\"200\">\n                    <p><span class=\"greenText\"><b>Successful harvest!</b></span><br>Your pay has increased by $0.02. Your bonus pay is now $0.74.</p>\n            ","response":0,"trial_type":"html-button-response","trial_index":118,"time_elapsed":794486,"internal_node_id":"0.0-4.0-1.55","subject_id":"5ea9690bb6019a050f5dc013","study_id":"60edd13110225f80f9f3709b","session_id":"6196c4a8ad07d1ac97e675df","condition":"contingent","relevant_dimensions":["pattern","legs"],"bee_group":{"antennae":"X","wings":"X","pattern":"S","legs":"F"},"bonus":1.140000000000001},{"rt":623.5999999996275,"stimulus":"bees-with-color/bee-B1SM.svg","response":0,"trial_type":"image-button-response","trial_index":119,"time_elapsed":795111,"internal_node_id":"0.0-4.0-0.56","subject_id":"5ea9690bb6019a050f5dc013","study_id":"60edd13110225f80f9f3709b","session_id":"6196c4a8ad07d1ac97e675df","condition":"contingent","relevant_dimensions":["pattern","legs"],"bee_group":{"antennae":"X","wings":"X","pattern":"S","legs":"F"},"action":"harvest","summary":"good-harvest","bonus":1.140000000000001},{"rt":502.80000000074506,"stimulus":"\n                    <p><b>Action: <em>harvest</em></b></p>\n                    <p>This is the bee that you just saw.</p>\n                    <img src=\"bees-with-color/bee-B1SM.svg\" width=\"200\">\n                    <p><span class=\"greenText\"><b>Successful harvest!</b></span><br>Your pay has increased by $0.02. Your bonus pay is now $0.76.</p>\n            ","response":0,"trial_type":"html-button-response","trial_index":120,"time_elapsed":795615,"internal_node_id":"0.0-4.0-1.56","subject_id":"5ea9690bb6019a050f5dc013","study_id":"60edd13110225f80f9f3709b","session_id":"6196c4a8ad07d1ac97e675df","condition":"contingent","relevant_dimensions":["pattern","legs"],"bee_group":{"antennae":"X","wings":"X","pattern":"S","legs":"F"},"bonus":1.140000000000001},{"rt":607.2999999988824,"stimulus":"bees-with-color/bee-B1SF.svg","response":1,"trial_type":"image-button-response","trial_index":121,"time_elapsed":796223,"internal_node_id":"0.0-4.0-0.57","subject_id":"5ea9690bb6019a050f5dc013","study_id":"60edd13110225f80f9f3709b","session_id":"6196c4a8ad07d1ac97e675df","condition":"contingent","relevant_dimensions":["pattern","legs"],"bee_group":{"antennae":"X","wings":"X","pattern":"S","legs":"F"},"action":"avoid","summary":"good-avoid","bonus":1.140000000000001},{"rt":446,"stimulus":"\n                    <p><b>Action: <em>avoid</em></b></p>\n                    <p>This is the bee that you just saw.</p>\n                    <img src=\"bees-with-color/bee-B1SF.svg\" width=\"200\">\n                    <p><br>Your bonus pay is unchanged, and remains at $0.76.</p>\n            ","response":0,"trial_type":"html-button-response","trial_index":122,"time_elapsed":796671,"internal_node_id":"0.0-4.0-1.57","subject_id":"5ea9690bb6019a050f5dc013","study_id":"60edd13110225f80f9f3709b","session_id":"6196c4a8ad07d1ac97e675df","condition":"contingent","relevant_dimensions":["pattern","legs"],"bee_group":{"antennae":"X","wings":"X","pattern":"S","legs":"F"},"bonus":1.140000000000001},{"rt":510.69999999925494,"stimulus":"bees-with-color/bee-A2SM.svg","response":0,"trial_type":"image-button-response","trial_index":123,"time_elapsed":797182,"internal_node_id":"0.0-4.0-0.58","subject_id":"5ea9690bb6019a050f5dc013","study_id":"60edd13110225f80f9f3709b","session_id":"6196c4a8ad07d1ac97e675df","condition":"contingent","relevant_dimensions":["pattern","legs"],"bee_group":{"antennae":"X","wings":"X","pattern":"S","legs":"F"},"action":"harvest","summary":"good-harvest","bonus":1.140000000000001},{"rt":479.90000000037253,"stimulus":"\n                    <p><b>Action: <em>harvest</em></b></p>\n                    <p>This is the bee that you just saw.</p>\n                    <img src=\"bees-with-color/bee-A2SM.svg\" width=\"200\">\n                    <p><span class=\"greenText\"><b>Successful harvest!</b></span><br>Your pay has increased by $0.02. Your bonus pay is now $0.78.</p>\n            ","response":0,"trial_type":"html-button-response","trial_index":124,"time_elapsed":797663,"internal_node_id":"0.0-4.0-1.58","subject_id":"5ea9690bb6019a050f5dc013","study_id":"60edd13110225f80f9f3709b","session_id":"6196c4a8ad07d1ac97e675df","condition":"contingent","relevant_dimensions":["pattern","legs"],"bee_group":{"antennae":"X","wings":"X","pattern":"S","legs":"F"},"bonus":1.140000000000001},{"rt":462.5,"stimulus":"bees-with-color/bee-A2DF.svg","response":1,"trial_type":"image-button-response","trial_index":125,"time_elapsed":798127,"internal_node_id":"0.0-4.0-0.59","subject_id":"5ea9690bb6019a050f5dc013","study_id":"60edd13110225f80f9f3709b","session_id":"6196c4a8ad07d1ac97e675df","condition":"contingent","relevant_dimensions":["pattern","legs"],"bee_group":{"antennae":"X","wings":"X","pattern":"S","legs":"F"},"action":"avoid","summary":"bad-avoid","bonus":1.140000000000001},{"rt":519,"stimulus":"\n                    <p><b>Action: <em>avoid</em></b></p>\n                    <p>This is the bee that you just saw.</p>\n                    <img src=\"bees-with-color/bee-A2DF.svg\" width=\"200\">\n                    <p><br>Your bonus pay is unchanged, and remains at $0.78.</p>\n            ","response":0,"trial_type":"html-button-response","trial_index":126,"time_elapsed":798647,"internal_node_id":"0.0-4.0-1.59","subject_id":"5ea9690bb6019a050f5dc013","study_id":"60edd13110225f80f9f3709b","session_id":"6196c4a8ad07d1ac97e675df","condition":"contingent","relevant_dimensions":["pattern","legs"],"bee_group":{"antennae":"X","wings":"X","pattern":"S","legs":"F"},"bonus":1.140000000000001},{"rt":759.2000000011176,"stimulus":"bees-with-color/bee-B2SF.svg","response":1,"trial_type":"image-button-response","trial_index":127,"time_elapsed":799407,"internal_node_id":"0.0-4.0-0.60","subject_id":"5ea9690bb6019a050f5dc013","study_id":"60edd13110225f80f9f3709b","session_id":"6196c4a8ad07d1ac97e675df","condition":"contingent","relevant_dimensions":["pattern","legs"],"bee_group":{"antennae":"X","wings":"X","pattern":"S","legs":"F"},"action":"avoid","summary":"good-avoid","bonus":1.140000000000001},{"rt":430,"stimulus":"\n                    <p><b>Action: <em>avoid</em></b></p>\n                    <p>This is the bee that you just saw.</p>\n                    <img src=\"bees-with-color/bee-B2SF.svg\" width=\"200\">\n                    <p><br>Your bonus pay is unchanged, and remains at $0.78.</p>\n            ","response":0,"trial_type":"html-button-response","trial_index":128,"time_elapsed":799839,"internal_node_id":"0.0-4.0-1.60","subject_id":"5ea9690bb6019a050f5dc013","study_id":"60edd13110225f80f9f3709b","session_id":"6196c4a8ad07d1ac97e675df","condition":"contingent","relevant_dimensions":["pattern","legs"],"bee_group":{"antennae":"X","wings":"X","pattern":"S","legs":"F"},"bonus":1.140000000000001},{"rt":695.4000000003725,"stimulus":"bees-with-color/bee-B2SM.svg","response":0,"trial_type":"image-button-response","trial_index":129,"time_elapsed":800535,"internal_node_id":"0.0-4.0-0.61","subject_id":"5ea9690bb6019a050f5dc013","study_id":"60edd13110225f80f9f3709b","session_id":"6196c4a8ad07d1ac97e675df","condition":"contingent","relevant_dimensions":["pattern","legs"],"bee_group":{"antennae":"X","wings":"X","pattern":"S","legs":"F"},"action":"harvest","summary":"good-harvest","bonus":1.140000000000001},{"rt":550.6000000014901,"stimulus":"\n                    <p><b>Action: <em>harvest</em></b></p>\n                    <p>This is the bee that you just saw.</p>\n                    <img src=\"bees-with-color/bee-B2SM.svg\" width=\"200\">\n                    <p><span class=\"greenText\"><b>Successful harvest!</b></span><br>Your pay has increased by $0.02. Your bonus pay is now $0.80.</p>\n            ","response":0,"trial_type":"html-button-response","trial_index":130,"time_elapsed":801087,"internal_node_id":"0.0-4.0-1.61","subject_id":"5ea9690bb6019a050f5dc013","study_id":"60edd13110225f80f9f3709b","session_id":"6196c4a8ad07d1ac97e675df","condition":"contingent","relevant_dimensions":["pattern","legs"],"bee_group":{"antennae":"X","wings":"X","pattern":"S","legs":"F"},"bonus":1.140000000000001},{"rt":542.9000000003725,"stimulus":"bees-with-color/bee-A1DF.svg","response":1,"trial_type":"image-button-response","trial_index":131,"time_elapsed":801631,"internal_node_id":"0.0-4.0-0.62","subject_id":"5ea9690bb6019a050f5dc013","study_id":"60edd13110225f80f9f3709b","session_id":"6196c4a8ad07d1ac97e675df","condition":"contingent","relevant_dimensions":["pattern","legs"],"bee_group":{"antennae":"X","wings":"X","pattern":"S","legs":"F"},"action":"avoid","summary":"bad-avoid","bonus":1.140000000000001},{"rt":414.90000000037253,"stimulus":"\n                    <p><b>Action: <em>avoid</em></b></p>\n                    <p>This is the bee that you just saw.</p>\n                    <img src=\"bees-with-color/bee-A1DF.svg\" width=\"200\">\n                    <p><br>Your bonus pay is unchanged, and remains at $0.80.</p>\n            ","response":0,"trial_type":"html-button-response","trial_index":132,"time_elapsed":802047,"internal_node_id":"0.0-4.0-1.62","subject_id":"5ea9690bb6019a050f5dc013","study_id":"60edd13110225f80f9f3709b","session_id":"6196c4a8ad07d1ac97e675df","condition":"contingent","relevant_dimensions":["pattern","legs"],"bee_group":{"antennae":"X","wings":"X","pattern":"S","legs":"F"},"bonus":1.140000000000001},{"rt":631.6999999992549,"stimulus":"bees-with-color/bee-A1SM.svg","response":0,"trial_type":"image-button-response","trial_index":133,"time_elapsed":802680,"internal_node_id":"0.0-4.0-0.63","subject_id":"5ea9690bb6019a050f5dc013","study_id":"60edd13110225f80f9f3709b","session_id":"6196c4a8ad07d1ac97e675df","condition":"contingent","relevant_dimensions":["pattern","legs"],"bee_group":{"antennae":"X","wings":"X","pattern":"S","legs":"F"},"action":"harvest","summary":"good-harvest","bonus":1.140000000000001},{"rt":438.2000000011176,"stimulus":"\n                    <p><b>Action: <em>harvest</em></b></p>\n                    <p>This is the bee that you just saw.</p>\n                    <img src=\"bees-with-color/bee-A1SM.svg\" width=\"200\">\n                    <p><span class=\"greenText\"><b>Successful harvest!</b></span><br>Your pay has increased by $0.02. Your bonus pay is now $0.82.</p>\n            ","response":0,"trial_type":"html-button-response","trial_index":134,"time_elapsed":803119,"internal_node_id":"0.0-4.0-1.63","subject_id":"5ea9690bb6019a050f5dc013","study_id":"60edd13110225f80f9f3709b","session_id":"6196c4a8ad07d1ac97e675df","condition":"contingent","relevant_dimensions":["pattern","legs"],"bee_group":{"antennae":"X","wings":"X","pattern":"S","legs":"F"},"bonus":1.140000000000001},{"rt":8971.699999999255,"stimulus":"You have completed the first part of this experiment.<br><br>You will now begin a shorter second part, in which you will receive no feedback.<br>The same rules regarding bonus pay apply.<br><br>Press any key to begin.","response":" ","trial_type":"html-keyboard-response","trial_index":135,"time_elapsed":812092,"internal_node_id":"0.0-5.0","subject_id":"5ea9690bb6019a050f5dc013","study_id":"60edd13110225f80f9f3709b","session_id":"6196c4a8ad07d1ac97e675df","condition":"contingent","relevant_dimensions":["pattern","legs"],"bee_group":{"antennae":"X","wings":"X","pattern":"S","legs":"F"},"bonus":1.140000000000001},{"rt":2784.0999999996275,"stimulus":"bees-with-color/bee-A1DF.svg","response":1,"trial_type":"image-button-response","trial_index":136,"time_elapsed":814881,"internal_node_id":"0.0-6.0-0.0","subject_id":"5ea9690bb6019a050f5dc013","study_id":"60edd13110225f80f9f3709b","session_id":"6196c4a8ad07d1ac97e675df","condition":"contingent","relevant_dimensions":["pattern","legs"],"bee_group":{"antennae":"X","wings":"X","pattern":"S","legs":"F"},"bonus":1.140000000000001},{"rt":797.5,"stimulus":"bees-with-color/bee-B2SM.svg","response":0,"trial_type":"image-button-response","trial_index":137,"time_elapsed":815680,"internal_node_id":"0.0-6.0-0.1","subject_id":"5ea9690bb6019a050f5dc013","study_id":"60edd13110225f80f9f3709b","session_id":"6196c4a8ad07d1ac97e675df","condition":"contingent","relevant_dimensions":["pattern","legs"],"bee_group":{"antennae":"X","wings":"X","pattern":"S","legs":"F"},"bonus":1.140000000000001},{"rt":626,"stimulus":"bees-with-color/bee-A1SM.svg","response":0,"trial_type":"image-button-response","trial_index":138,"time_elapsed":816308,"internal_node_id":"0.0-6.0-0.2","subject_id":"5ea9690bb6019a050f5dc013","study_id":"60edd13110225f80f9f3709b","session_id":"6196c4a8ad07d1ac97e675df","condition":"contingent","relevant_dimensions":["pattern","legs"],"bee_group":{"antennae":"X","wings":"X","pattern":"S","legs":"F"},"bonus":1.140000000000001},{"rt":510.5,"stimulus":"bees-with-color/bee-B2DM.svg","response":0,"trial_type":"image-button-response","trial_index":139,"time_elapsed":816820,"internal_node_id":"0.0-6.0-0.3","subject_id":"5ea9690bb6019a050f5dc013","study_id":"60edd13110225f80f9f3709b","session_id":"6196c4a8ad07d1ac97e675df","condition":"contingent","relevant_dimensions":["pattern","legs"],"bee_group":{"antennae":"X","wings":"X","pattern":"S","legs":"F"},"bonus":1.140000000000001},{"rt":678.4000000003725,"stimulus":"bees-with-color/bee-B2DF.svg","response":1,"trial_type":"image-button-response","trial_index":140,"time_elapsed":817501,"internal_node_id":"0.0-6.0-0.4","subject_id":"5ea9690bb6019a050f5dc013","study_id":"60edd13110225f80f9f3709b","session_id":"6196c4a8ad07d1ac97e675df","condition":"contingent","relevant_dimensions":["pattern","legs"],"bee_group":{"antennae":"X","wings":"X","pattern":"S","legs":"F"},"bonus":1.140000000000001},{"rt":505.69999999925494,"stimulus":"bees-with-color/bee-B1SM.svg","response":0,"trial_type":"image-button-response","trial_index":141,"time_elapsed":818008,"internal_node_id":"0.0-6.0-0.5","subject_id":"5ea9690bb6019a050f5dc013","study_id":"60edd13110225f80f9f3709b","session_id":"6196c4a8ad07d1ac97e675df","condition":"contingent","relevant_dimensions":["pattern","legs"],"bee_group":{"antennae":"X","wings":"X","pattern":"S","legs":"F"},"bonus":1.140000000000001},{"rt":643.1999999992549,"stimulus":"bees-with-color/bee-A1SF.svg","response":1,"trial_type":"image-button-response","trial_index":142,"time_elapsed":818653,"internal_node_id":"0.0-6.0-0.6","subject_id":"5ea9690bb6019a050f5dc013","study_id":"60edd13110225f80f9f3709b","session_id":"6196c4a8ad07d1ac97e675df","condition":"contingent","relevant_dimensions":["pattern","legs"],"bee_group":{"antennae":"X","wings":"X","pattern":"S","legs":"F"},"bonus":1.140000000000001},{"rt":673.8999999985099,"stimulus":"bees-with-color/bee-A2SF.svg","response":1,"trial_type":"image-button-response","trial_index":143,"time_elapsed":819329,"internal_node_id":"0.0-6.0-0.7","subject_id":"5ea9690bb6019a050f5dc013","study_id":"60edd13110225f80f9f3709b","session_id":"6196c4a8ad07d1ac97e675df","condition":"contingent","relevant_dimensions":["pattern","legs"],"bee_group":{"antennae":"X","wings":"X","pattern":"S","legs":"F"},"bonus":1.140000000000001},{"rt":529.6000000014901,"stimulus":"bees-with-color/bee-A2SM.svg","response":0,"trial_type":"image-button-response","trial_index":144,"time_elapsed":819860,"internal_node_id":"0.0-6.0-0.8","subject_id":"5ea9690bb6019a050f5dc013","study_id":"60edd13110225f80f9f3709b","session_id":"6196c4a8ad07d1ac97e675df","condition":"contingent","relevant_dimensions":["pattern","legs"],"bee_group":{"antennae":"X","wings":"X","pattern":"S","legs":"F"},"bonus":1.140000000000001},{"rt":630,"stimulus":"bees-with-color/bee-B2SF.svg","response":1,"trial_type":"image-button-response","trial_index":145,"time_elapsed":820492,"internal_node_id":"0.0-6.0-0.9","subject_id":"5ea9690bb6019a050f5dc013","study_id":"60edd13110225f80f9f3709b","session_id":"6196c4a8ad07d1ac97e675df","condition":"contingent","relevant_dimensions":["pattern","legs"],"bee_group":{"antennae":"X","wings":"X","pattern":"S","legs":"F"},"bonus":1.140000000000001},{"rt":1094.699999999255,"stimulus":"bees-with-color/bee-B1DF.svg","response":1,"trial_type":"image-button-response","trial_index":146,"time_elapsed":821589,"internal_node_id":"0.0-6.0-0.10","subject_id":"5ea9690bb6019a050f5dc013","study_id":"60edd13110225f80f9f3709b","session_id":"6196c4a8ad07d1ac97e675df","condition":"contingent","relevant_dimensions":["pattern","legs"],"bee_group":{"antennae":"X","wings":"X","pattern":"S","legs":"F"},"bonus":1.140000000000001},{"rt":501.59999999962747,"stimulus":"bees-with-color/bee-B1DM.svg","response":0,"trial_type":"image-button-response","trial_index":147,"time_elapsed":822093,"internal_node_id":"0.0-6.0-0.11","subject_id":"5ea9690bb6019a050f5dc013","study_id":"60edd13110225f80f9f3709b","session_id":"6196c4a8ad07d1ac97e675df","condition":"contingent","relevant_dimensions":["pattern","legs"],"bee_group":{"antennae":"X","wings":"X","pattern":"S","legs":"F"},"bonus":1.140000000000001},{"rt":614.4000000003725,"stimulus":"bees-with-color/bee-B1SF.svg","response":1,"trial_type":"image-button-response","trial_index":148,"time_elapsed":822709,"internal_node_id":"0.0-6.0-0.12","subject_id":"5ea9690bb6019a050f5dc013","study_id":"60edd13110225f80f9f3709b","session_id":"6196c4a8ad07d1ac97e675df","condition":"contingent","relevant_dimensions":["pattern","legs"],"bee_group":{"antennae":"X","wings":"X","pattern":"S","legs":"F"},"bonus":1.140000000000001},{"rt":734.0999999996275,"stimulus":"bees-with-color/bee-A1DM.svg","response":0,"trial_type":"image-button-response","trial_index":149,"time_elapsed":823445,"internal_node_id":"0.0-6.0-0.13","subject_id":"5ea9690bb6019a050f5dc013","study_id":"60edd13110225f80f9f3709b","session_id":"6196c4a8ad07d1ac97e675df","condition":"contingent","relevant_dimensions":["pattern","legs"],"bee_group":{"antennae":"X","wings":"X","pattern":"S","legs":"F"},"bonus":1.140000000000001},{"rt":654.1999999992549,"stimulus":"bees-with-color/bee-A2DF.svg","response":1,"trial_type":"image-button-response","trial_index":150,"time_elapsed":824101,"internal_node_id":"0.0-6.0-0.14","subject_id":"5ea9690bb6019a050f5dc013","study_id":"60edd13110225f80f9f3709b","session_id":"6196c4a8ad07d1ac97e675df","condition":"contingent","relevant_dimensions":["pattern","legs"],"bee_group":{"antennae":"X","wings":"X","pattern":"S","legs":"F"},"bonus":1.140000000000001},{"rt":478.5,"stimulus":"bees-with-color/bee-A2DM.svg","response":0,"trial_type":"image-button-response","trial_index":151,"time_elapsed":824581,"internal_node_id":"0.0-6.0-0.15","subject_id":"5ea9690bb6019a050f5dc013","study_id":"60edd13110225f80f9f3709b","session_id":"6196c4a8ad07d1ac97e675df","condition":"contingent","relevant_dimensions":["pattern","legs"],"bee_group":{"antennae":"X","wings":"X","pattern":"S","legs":"F"},"bonus":1.140000000000001},{"rt":749.9000000003725,"stimulus":"bees-with-color/bee-A2DM.svg","response":0,"trial_type":"image-button-response","trial_index":152,"time_elapsed":825333,"internal_node_id":"0.0-6.0-0.16","subject_id":"5ea9690bb6019a050f5dc013","study_id":"60edd13110225f80f9f3709b","session_id":"6196c4a8ad07d1ac97e675df","condition":"contingent","relevant_dimensions":["pattern","legs"],"bee_group":{"antennae":"X","wings":"X","pattern":"S","legs":"F"},"bonus":1.140000000000001},{"rt":998,"stimulus":"bees-with-color/bee-A1SF.svg","response":1,"trial_type":"image-button-response","trial_index":153,"time_elapsed":826333,"internal_node_id":"0.0-6.0-0.17","subject_id":"5ea9690bb6019a050f5dc013","study_id":"60edd13110225f80f9f3709b","session_id":"6196c4a8ad07d1ac97e675df","condition":"contingent","relevant_dimensions":["pattern","legs"],"bee_group":{"antennae":"X","wings":"X","pattern":"S","legs":"F"},"bonus":1.140000000000001},{"rt":678,"stimulus":"bees-with-color/bee-A2SF.svg","response":1,"trial_type":"image-button-response","trial_index":154,"time_elapsed":827013,"internal_node_id":"0.0-6.0-0.18","subject_id":"5ea9690bb6019a050f5dc013","study_id":"60edd13110225f80f9f3709b","session_id":"6196c4a8ad07d1ac97e675df","condition":"contingent","relevant_dimensions":["pattern","legs"],"bee_group":{"antennae":"X","wings":"X","pattern":"S","legs":"F"},"bonus":1.140000000000001},{"rt":990.7999999988824,"stimulus":"bees-with-color/bee-B2DF.svg","response":1,"trial_type":"image-button-response","trial_index":155,"time_elapsed":828005,"internal_node_id":"0.0-6.0-0.19","subject_id":"5ea9690bb6019a050f5dc013","study_id":"60edd13110225f80f9f3709b","session_id":"6196c4a8ad07d1ac97e675df","condition":"contingent","relevant_dimensions":["pattern","legs"],"bee_group":{"antennae":"X","wings":"X","pattern":"S","legs":"F"},"bonus":1.140000000000001},{"rt":598.5,"stimulus":"bees-with-color/bee-B1SM.svg","response":0,"trial_type":"image-button-response","trial_index":156,"time_elapsed":828606,"internal_node_id":"0.0-6.0-0.20","subject_id":"5ea9690bb6019a050f5dc013","study_id":"60edd13110225f80f9f3709b","session_id":"6196c4a8ad07d1ac97e675df","condition":"contingent","relevant_dimensions":["pattern","legs"],"bee_group":{"antennae":"X","wings":"X","pattern":"S","legs":"F"},"bonus":1.140000000000001},{"rt":525.5999999996275,"stimulus":"bees-with-color/bee-A1DM.svg","response":0,"trial_type":"image-button-response","trial_index":157,"time_elapsed":829133,"internal_node_id":"0.0-6.0-0.21","subject_id":"5ea9690bb6019a050f5dc013","study_id":"60edd13110225f80f9f3709b","session_id":"6196c4a8ad07d1ac97e675df","condition":"contingent","relevant_dimensions":["pattern","legs"],"bee_group":{"antennae":"X","wings":"X","pattern":"S","legs":"F"},"bonus":1.140000000000001},{"rt":646.8000000007451,"stimulus":"bees-with-color/bee-A2SM.svg","response":0,"trial_type":"image-button-response","trial_index":158,"time_elapsed":829782,"internal_node_id":"0.0-6.0-0.22","subject_id":"5ea9690bb6019a050f5dc013","study_id":"60edd13110225f80f9f3709b","session_id":"6196c4a8ad07d1ac97e675df","condition":"contingent","relevant_dimensions":["pattern","legs"],"bee_group":{"antennae":"X","wings":"X","pattern":"S","legs":"F"},"bonus":1.140000000000001},{"rt":614.0999999996275,"stimulus":"bees-with-color/bee-A1SM.svg","response":0,"trial_type":"image-button-response","trial_index":159,"time_elapsed":830397,"internal_node_id":"0.0-6.0-0.23","subject_id":"5ea9690bb6019a050f5dc013","study_id":"60edd13110225f80f9f3709b","session_id":"6196c4a8ad07d1ac97e675df","condition":"contingent","relevant_dimensions":["pattern","legs"],"bee_group":{"antennae":"X","wings":"X","pattern":"S","legs":"F"},"bonus":1.140000000000001},{"rt":637.3000000007451,"stimulus":"bees-with-color/bee-A1DF.svg","response":1,"trial_type":"image-button-response","trial_index":160,"time_elapsed":831037,"internal_node_id":"0.0-6.0-0.24","subject_id":"5ea9690bb6019a050f5dc013","study_id":"60edd13110225f80f9f3709b","session_id":"6196c4a8ad07d1ac97e675df","condition":"contingent","relevant_dimensions":["pattern","legs"],"bee_group":{"antennae":"X","wings":"X","pattern":"S","legs":"F"},"bonus":1.140000000000001},{"rt":518.6000000014901,"stimulus":"bees-with-color/bee-B2SF.svg","response":1,"trial_type":"image-button-response","trial_index":161,"time_elapsed":831558,"internal_node_id":"0.0-6.0-0.25","subject_id":"5ea9690bb6019a050f5dc013","study_id":"60edd13110225f80f9f3709b","session_id":"6196c4a8ad07d1ac97e675df","condition":"contingent","relevant_dimensions":["pattern","legs"],"bee_group":{"antennae":"X","wings":"X","pattern":"S","legs":"F"},"bonus":1.140000000000001},{"rt":494.90000000037253,"stimulus":"bees-with-color/bee-A2DF.svg","response":1,"trial_type":"image-button-response","trial_index":162,"time_elapsed":832054,"internal_node_id":"0.0-6.0-0.26","subject_id":"5ea9690bb6019a050f5dc013","study_id":"60edd13110225f80f9f3709b","session_id":"6196c4a8ad07d1ac97e675df","condition":"contingent","relevant_dimensions":["pattern","legs"],"bee_group":{"antennae":"X","wings":"X","pattern":"S","legs":"F"},"bonus":1.140000000000001},{"rt":437.59999999962747,"stimulus":"bees-with-color/bee-B1SF.svg","response":1,"trial_type":"image-button-response","trial_index":163,"time_elapsed":832493,"internal_node_id":"0.0-6.0-0.27","subject_id":"5ea9690bb6019a050f5dc013","study_id":"60edd13110225f80f9f3709b","session_id":"6196c4a8ad07d1ac97e675df","condition":"contingent","relevant_dimensions":["pattern","legs"],"bee_group":{"antennae":"X","wings":"X","pattern":"S","legs":"F"},"bonus":1.140000000000001},{"rt":478.7999999988824,"stimulus":"bees-with-color/bee-B1DF.svg","response":1,"trial_type":"image-button-response","trial_index":164,"time_elapsed":832973,"internal_node_id":"0.0-6.0-0.28","subject_id":"5ea9690bb6019a050f5dc013","study_id":"60edd13110