[{"success":true,"trial_type":"fullscreen","trial_index":0,"time_elapsed":183857,"internal_node_id":"0.0-0.0","subject_id":"6151f84aca0c007d8baa2750","study_id":"60edd13110225f80f9f3709b","session_id":"6196c704b00955735903f1b4","condition":"contingent","relevant_dimensions":["pattern","legs"],"bee_group":{"antennae":"X","wings":"X","pattern":"S","legs":"F"},"bonus":1.300000000000001},{"success":true,"timeout":false,"failed_images":[],"failed_audio":[],"failed_video":[],"trial_type":"preload","trial_index":1,"time_elapsed":185698,"internal_node_id":"0.0-1.0","subject_id":"6151f84aca0c007d8baa2750","study_id":"60edd13110225f80f9f3709b","session_id":"6196c704b00955735903f1b4","condition":"contingent","relevant_dimensions":["pattern","legs"],"bee_group":{"antennae":"X","wings":"X","pattern":"S","legs":"F"},"bonus":1.300000000000001},{"rt":1435.2000000011176,"stimulus":"Welcome! Press any key to begin.","response":"j","trial_type":"html-keyboard-response","trial_index":2,"time_elapsed":187134,"internal_node_id":"0.0-2.0","subject_id":"6151f84aca0c007d8baa2750","study_id":"60edd13110225f80f9f3709b","session_id":"6196c704b00955735903f1b4","condition":"contingent","relevant_dimensions":["pattern","legs"],"bee_group":{"antennae":"X","wings":"X","pattern":"S","legs":"F"},"bonus":1.300000000000001},{"view_history":[{"page_index":0,"viewing_time":3610.60000000149},{"page_index":1,"viewing_time":3570.5},{"page_index":2,"viewing_time":3641},{"page_index":3,"viewing_time":7474.0999999996275},{"page_index":4,"viewing_time":2587.4000000003725},{"page_index":5,"viewing_time":2063.199999999255},{"page_index":6,"viewing_time":2684.5999999996275},{"page_index":7,"viewing_time":2474.7000000011176},{"page_index":8,"viewing_time":1237.5999999996275},{"page_index":7,"viewing_time":345},{"page_index":6,"viewing_time":3285},{"page_index":7,"viewing_time":1214.7999999988824},{"page_index":8,"viewing_time":6952.60000000149},{"page_index":9,"viewing_time":1140.199999999255},{"page_index":10,"viewing_time":997.3000000007451},{"page_index":11,"viewing_time":3780},{"page_index":12,"viewing_time":8985},{"page_index":13,"viewing_time":1049.7999999988824},{"page_index":14,"viewing_time":1125.2000000011176}],"rt":58218.800000000745,"trial_type":"instructions","trial_index":3,"time_elapsed":245354,"internal_node_id":"0.0-3.0-0.0","subject_id":"6151f84aca0c007d8baa2750","study_id":"60edd13110225f80f9f3709b","session_id":"6196c704b00955735903f1b4","condition":"contingent","relevant_dimensions":["pattern","legs"],"bee_group":{"antennae":"X","wings":"X","pattern":"S","legs":"F"},"bonus":1.300000000000001},{"rt":12372.200000001118,"response":{"Q0":["Two or six legs","Stripes or spots on body","Single or double wings","Antennae or no antennae"]},"question_order":[0],"trial_type":"survey-multi-select","trial_index":4,"time_elapsed":257728,"internal_node_id":"0.0-3.0-1.0","subject_id":"6151f84aca0c007d8baa2750","study_id":"60edd13110225f80f9f3709b","session_id":"6196c704b00955735903f1b4","condition":"contingent","relevant_dimensions":["pattern","legs"],"bee_group":{"antennae":"X","wings":"X","pattern":"S","legs":"F"},"correct":true,"bonus":1.300000000000001},{"rt":14516.300000000745,"response":{"Q1":"No.","Q2":"Based on the four features of the bee.","Q3":"You do not learn if it was friendly or dangerous, and do not alter your bonus."},"question_order":[0,1,2],"trial_type":"survey-multi-choice","trial_index":5,"time_elapsed":272249,"internal_node_id":"0.0-3.0-2.0","subject_id":"6151f84aca0c007d8baa2750","study_id":"60edd13110225f80f9f3709b","session_id":"6196c704b00955735903f1b4","condition":"contingent","relevant_dimensions":["pattern","legs"],"bee_group":{"antennae":"X","wings":"X","pattern":"S","legs":"F"},"correct":true,"bonus":1.300000000000001},{"rt":1399.5,"stimulus":"<p>Congrats, you got everything right<br>When you're ready, click the button below to continue to the experiment.</p>","response":0,"trial_type":"html-button-response","trial_index":6,"time_elapsed":273651,"internal_node_id":"0.0-3.0-3.0","subject_id":"6151f84aca0c007d8baa2750","study_id":"60edd13110225f80f9f3709b","session_id":"6196c704b00955735903f1b4","condition":"contingent","relevant_dimensions":["pattern","legs"],"bee_group":{"antennae":"X","wings":"X","pattern":"S","legs":"F"},"bonus":1.300000000000001},{"rt":2397.5999999996275,"stimulus":"bees-with-color/bee-B1SM.svg","response":0,"trial_type":"image-button-response","trial_index":7,"time_elapsed":276051,"internal_node_id":"0.0-4.0-0.0","subject_id":"6151f84aca0c007d8baa2750","study_id":"60edd13110225f80f9f3709b","session_id":"6196c704b00955735903f1b4","condition":"contingent","relevant_dimensions":["pattern","legs"],"bee_group":{"antennae":"X","wings":"X","pattern":"S","legs":"F"},"action":"harvest","summary":"good-harvest","bonus":1.300000000000001},{"rt":22648.800000000745,"stimulus":"\n                    <p><b>Action: <em>harvest</em></b></p>\n                    <p>This is the bee that you just saw.</p>\n                    <img src=\"bees-with-color/bee-B1SM.svg\" width=\"200\">\n                    <p><span class=\"greenText\"><b>Successful harvest!</b></span><br>Your pay has increased by $0.02. Your bonus pay is now $0.56.</p>\n            ","response":0,"trial_type":"html-button-response","trial_index":8,"time_elapsed":298701,"internal_node_id":"0.0-4.0-1.0","subject_id":"6151f84aca0c007d8baa2750","study_id":"60edd13110225f80f9f3709b","session_id":"6196c704b00955735903f1b4","condition":"contingent","relevant_dimensions":["pattern","legs"],"bee_group":{"antennae":"X","wings":"X","pattern":"S","legs":"F"},"bonus":1.300000000000001},{"rt":9463.60000000149,"stimulus":"bees-with-color/bee-A1DM.svg","response":0,"trial_type":"image-button-response","trial_index":9,"time_elapsed":308165,"internal_node_id":"0.0-4.0-0.1","subject_id":"6151f84aca0c007d8baa2750","study_id":"60edd13110225f80f9f3709b","session_id":"6196c704b00955735903f1b4","condition":"contingent","relevant_dimensions":["pattern","legs"],"bee_group":{"antennae":"X","wings":"X","pattern":"S","legs":"F"},"action":"harvest","summary":"good-harvest","bonus":1.300000000000001},{"rt":21381,"stimulus":"\n                    <p><b>Action: <em>harvest</em></b></p>\n                    <p>This is the bee that you just saw.</p>\n                    <img src=\"bees-with-color/bee-A1DM.svg\" width=\"200\">\n                    <p><span class=\"greenText\"><b>Successful harvest!</b></span><br>Your pay has increased by $0.02. Your bonus pay is now $0.58.</p>\n            ","response":0,"trial_type":"html-button-response","trial_index":10,"time_elapsed":329548,"internal_node_id":"0.0-4.0-1.1","subject_id":"6151f84aca0c007d8baa2750","study_id":"60edd13110225f80f9f3709b","session_id":"6196c704b00955735903f1b4","condition":"contingent","relevant_dimensions":["pattern","legs"],"bee_group":{"antennae":"X","wings":"X","pattern":"S","legs":"F"},"bonus":1.300000000000001},{"rt":6035.9000000003725,"stimulus":"bees-with-color/bee-B2SF.svg","response":0,"trial_type":"image-button-response","trial_index":11,"time_elapsed":335586,"internal_node_id":"0.0-4.0-0.2","subject_id":"6151f84aca0c007d8baa2750","study_id":"60edd13110225f80f9f3709b","session_id":"6196c704b00955735903f1b4","condition":"contingent","relevant_dimensions":["pattern","legs"],"bee_group":{"antennae":"X","wings":"X","pattern":"S","legs":"F"},"action":"harvest","summary":"bad-harvest","bonus":1.300000000000001},{"rt":15966.199999999255,"stimulus":"\n                    <p><b>Action: <em>harvest</em></b></p>\n                    <p>This is the bee that you just saw.</p>\n                    <img src=\"bees-with-color/bee-B2SF.svg\" width=\"200\">\n                    <p><span class=\"redText\">Bad choice, the bee was angry.</span><br><b>You have been stung!</b><br>Your pay has been decreased by $0.10. Your bonus pay is now $0.48.</p>\n            ","response":0,"trial_type":"html-button-response","trial_index":12,"time_elapsed":351553,"internal_node_id":"0.0-4.0-1.2","subject_id":"6151f84aca0c007d8baa2750","study_id":"60edd13110225f80f9f3709b","session_id":"6196c704b00955735903f1b4","condition":"contingent","relevant_dimensions":["pattern","legs"],"bee_group":{"antennae":"X","wings":"X","pattern":"S","legs":"F"},"bonus":1.300000000000001},{"rt":5286.800000000745,"stimulus":"bees-with-color/bee-A2DF.svg","response":1,"trial_type":"image-button-response","trial_index":13,"time_elapsed":356841,"internal_node_id":"0.0-4.0-0.3","subject_id":"6151f84aca0c007d8baa2750","study_id":"60edd13110225f80f9f3709b","session_id":"6196c704b00955735903f1b4","condition":"contingent","relevant_dimensions":["pattern","legs"],"bee_group":{"antennae":"X","wings":"X","pattern":"S","legs":"F"},"action":"avoid","summary":"bad-avoid","bonus":1.300000000000001},{"rt":2203.9000000003725,"stimulus":"\n                    <p><b>Action: <em>avoid</em></b></p>\n                    <p>This is the bee that you just saw.</p>\n                    <img src=\"bees-with-color/bee-A2DF.svg\" width=\"200\">\n                    <p><br>Your bonus pay is unchanged, and remains at $0.48.</p>\n            ","response":0,"trial_type":"html-button-response","trial_index":14,"time_elapsed":359046,"internal_node_id":"0.0-4.0-1.3","subject_id":"6151f84aca0c007d8baa2750","study_id":"60edd13110225f80f9f3709b","session_id":"6196c704b00955735903f1b4","condition":"contingent","relevant_dimensions":["pattern","legs"],"bee_group":{"antennae":"X","wings":"X","pattern":"S","legs":"F"},"bonus":1.300000000000001},{"rt":3313.7999999988824,"stimulus":"bees-with-color/bee-A2DM.svg","response":0,"trial_type":"image-button-response","trial_index":15,"time_elapsed":362360,"internal_node_id":"0.0-4.0-0.4","subject_id":"6151f84aca0c007d8baa2750","study_id":"60edd13110225f80f9f3709b","session_id":"6196c704b00955735903f1b4","condition":"contingent","relevant_dimensions":["pattern","legs"],"bee_group":{"antennae":"X","wings":"X","pattern":"S","legs":"F"},"action":"harvest","summary":"good-harvest","bonus":1.300000000000001},{"rt":10769,"stimulus":"\n                    <p><b>Action: <em>harvest</em></b></p>\n                    <p>This is the bee that you just saw.</p>\n                    <img src=\"bees-with-color/bee-A2DM.svg\" width=\"200\">\n                    <p><span class=\"greenText\"><b>Successful harvest!</b></span><br>Your pay has increased by $0.02. Your bonus pay is now $0.50.</p>\n            ","response":0,"trial_type":"html-button-response","trial_index":16,"time_elapsed":373131,"internal_node_id":"0.0-4.0-1.4","subject_id":"6151f84aca0c007d8baa2750","study_id":"60edd13110225f80f9f3709b","session_id":"6196c704b00955735903f1b4","condition":"contingent","relevant_dimensions":["pattern","legs"],"bee_group":{"antennae":"X","wings":"X","pattern":"S","legs":"F"},"bonus":1.300000000000001},{"rt":1273.5,"stimulus":"bees-with-color/bee-A1SF.svg","response":0,"trial_type":"image-button-response","trial_index":17,"time_elapsed":374406,"internal_node_id":"0.0-4.0-0.5","subject_id":"6151f84aca0c007d8baa2750","study_id":"60edd13110225f80f9f3709b","session_id":"6196c704b00955735903f1b4","condition":"contingent","relevant_dimensions":["pattern","legs"],"bee_group":{"antennae":"X","wings":"X","pattern":"S","legs":"F"},"action":"harvest","summary":"bad-harvest","bonus":1.300000000000001},{"rt":951.5,"stimulus":"\n                    <p><b>Action: <em>harvest</em></b></p>\n                    <p>This is the bee that you just saw.</p>\n                    <img src=\"bees-with-color/bee-A1SF.svg\" width=\"200\">\n                    <p><span class=\"redText\">Bad choice, the bee was angry.</span><br><b>You have been stung!</b><br>Your pay has been decreased by $0.10. Your bonus pay is now $0.40.</p>\n            ","response":0,"trial_type":"html-button-response","trial_index":18,"time_elapsed":375358,"internal_node_id":"0.0-4.0-1.5","subject_id":"6151f84aca0c007d8baa2750","study_id":"60edd13110225f80f9f3709b","session_id":"6196c704b00955735903f1b4","condition":"contingent","relevant_dimensions":["pattern","legs"],"bee_group":{"antennae":"X","wings":"X","pattern":"S","legs":"F"},"bonus":1.300000000000001},{"rt":1394.1000000014901,"stimulus":"bees-with-color/bee-A2SM.svg","response":0,"trial_type":"image-button-response","trial_index":19,"time_elapsed":376753,"internal_node_id":"0.0-4.0-0.6","subject_id":"6151f84aca0c007d8baa2750","study_id":"60edd13110225f80f9f3709b","session_id":"6196c704b00955735903f1b4","condition":"contingent","relevant_dimensions":["pattern","legs"],"bee_group":{"antennae":"X","wings":"X","pattern":"S","legs":"F"},"action":"harvest","summary":"good-harvest","bonus":1.300000000000001},{"rt":688.4000000003725,"stimulus":"\n                    <p><b>Action: <em>harvest</em></b></p>\n                    <p>This is the bee that you just saw.</p>\n                    <img src=\"bees-with-color/bee-A2SM.svg\" width=\"200\">\n                    <p><span class=\"greenText\"><b>Successful harvest!</b></span><br>Your pay has increased by $0.02. Your bonus pay is now $0.42.</p>\n            ","response":0,"trial_type":"html-button-response","trial_index":20,"time_elapsed":377443,"internal_node_id":"0.0-4.0-1.6","subject_id":"6151f84aca0c007d8baa2750","study_id":"60edd13110225f80f9f3709b","session_id":"6196c704b00955735903f1b4","condition":"contingent","relevant_dimensions":["pattern","legs"],"bee_group":{"antennae":"X","wings":"X","pattern":"S","legs":"F"},"bonus":1.300000000000001},{"rt":876.9000000003725,"stimulus":"bees-with-color/bee-B1DF.svg","response":1,"trial_type":"image-button-response","trial_index":21,"time_elapsed":378320,"internal_node_id":"0.0-4.0-0.7","subject_id":"6151f84aca0c007d8baa2750","study_id":"60edd13110225f80f9f3709b","session_id":"6196c704b00955735903f1b4","condition":"contingent","relevant_dimensions":["pattern","legs"],"bee_group":{"antennae":"X","wings":"X","pattern":"S","legs":"F"},"action":"avoid","summary":"bad-avoid","bonus":1.300000000000001},{"rt":1139.4000000003725,"stimulus":"\n                    <p><b>Action: <em>avoid</em></b></p>\n                    <p>This is the bee that you just saw.</p>\n                    <img src=\"bees-with-color/bee-B1DF.svg\" width=\"200\">\n                    <p><br>Your bonus pay is unchanged, and remains at $0.42.</p>\n            ","response":0,"trial_type":"html-button-response","trial_index":22,"time_elapsed":379461,"internal_node_id":"0.0-4.0-1.7","subject_id":"6151f84aca0c007d8baa2750","study_id":"60edd13110225f80f9f3709b","session_id":"6196c704b00955735903f1b4","condition":"contingent","relevant_dimensions":["pattern","legs"],"bee_group":{"antennae":"X","wings":"X","pattern":"S","legs":"F"},"bonus":1.300000000000001},{"rt":1881.6000000014901,"stimulus":"bees-with-color/bee-B2DM.svg","response":0,"trial_type":"image-button-response","trial_index":23,"time_elapsed":381343,"internal_node_id":"0.0-4.0-0.8","subject_id":"6151f84aca0c007d8baa2750","study_id":"60edd13110225f80f9f3709b","session_id":"6196c704b00955735903f1b4","condition":"contingent","relevant_dimensions":["pattern","legs"],"bee_group":{"antennae":"X","wings":"X","pattern":"S","legs":"F"},"action":"harvest","summary":"good-harvest","bonus":1.300000000000001},{"rt":613.9000000003725,"stimulus":"\n                    <p><b>Action: <em>harvest</em></b></p>\n                    <p>This is the bee that you just saw.</p>\n                    <img src=\"bees-with-color/bee-B2DM.svg\" width=\"200\">\n                    <p><span class=\"greenText\"><b>Successful harvest!</b></span><br>Your pay has increased by $0.02. Your bonus pay is now $0.44.</p>\n            ","response":0,"trial_type":"html-button-response","trial_index":24,"time_elapsed":381958,"internal_node_id":"0.0-4.0-1.8","subject_id":"6151f84aca0c007d8baa2750","study_id":"60edd13110225f80f9f3709b","session_id":"6196c704b00955735903f1b4","condition":"contingent","relevant_dimensions":["pattern","legs"],"bee_group":{"antennae":"X","wings":"X","pattern":"S","legs":"F"},"bonus":1.300000000000001},{"rt":945.1000000014901,"stimulus":"bees-with-color/bee-B2DF.svg","response":1,"trial_type":"image-button-response","trial_index":25,"time_elapsed":382904,"internal_node_id":"0.0-4.0-0.9","subject_id":"6151f84aca0c007d8baa2750","study_id":"60edd13110225f80f9f3709b","session_id":"6196c704b00955735903f1b4","condition":"contingent","relevant_dimensions":["pattern","legs"],"bee_group":{"antennae":"X","wings":"X","pattern":"S","legs":"F"},"action":"avoid","summary":"bad-avoid","bonus":1.300000000000001},{"rt":568.7000000011176,"stimulus":"\n                    <p><b>Action: <em>avoid</em></b></p>\n                    <p>This is the bee that you just saw.</p>\n                    <img src=\"bees-with-color/bee-B2DF.svg\" width=\"200\">\n                    <p><br>Your bonus pay is unchanged, and remains at $0.44.</p>\n            ","response":0,"trial_type":"html-button-response","trial_index":26,"time_elapsed":383473,"internal_node_id":"0.0-4.0-1.9","subject_id":"6151f84aca0c007d8baa2750","study_id":"60edd13110225f80f9f3709b","session_id":"6196c704b00955735903f1b4","condition":"contingent","relevant_dimensions":["pattern","legs"],"bee_group":{"antennae":"X","wings":"X","pattern":"S","legs":"F"},"bonus":1.300000000000001},{"rt":808.6999999992549,"stimulus":"bees-with-color/bee-A1DF.svg","response":1,"trial_type":"image-button-response","trial_index":27,"time_elapsed":384283,"internal_node_id":"0.0-4.0-0.10","subject_id":"6151f84aca0c007d8baa2750","study_id":"60edd13110225f80f9f3709b","session_id":"6196c704b00955735903f1b4","condition":"contingent","relevant_dimensions":["pattern","legs"],"bee_group":{"antennae":"X","wings":"X","pattern":"S","legs":"F"},"action":"avoid","summary":"bad-avoid","bonus":1.300000000000001},{"rt":472.1000000014901,"stimulus":"\n                    <p><b>Action: <em>avoid</em></b></p>\n                    <p>This is the bee that you just saw.</p>\n                    <img src=\"bees-with-color/bee-A1DF.svg\" width=\"200\">\n                    <p><br>Your bonus pay is unchanged, and remains at $0.44.</p>\n            ","response":0,"trial_type":"html-button-response","trial_index":28,"time_elapsed":384756,"internal_node_id":"0.0-4.0-1.10","subject_id":"6151f84aca0c007d8baa2750","study_id":"60edd13110225f80f9f3709b","session_id":"6196c704b00955735903f1b4","condition":"contingent","relevant_dimensions":["pattern","legs"],"bee_group":{"antennae":"X","wings":"X","pattern":"S","legs":"F"},"bonus":1.300000000000001},{"rt":899.0999999996275,"stimulus":"bees-with-color/bee-B2SM.svg","response":0,"trial_type":"image-button-response","trial_index":29,"time_elapsed":385656,"internal_node_id":"0.0-4.0-0.11","subject_id":"6151f84aca0c007d8baa2750","study_id":"60edd13110225f80f9f3709b","session_id":"6196c704b00955735903f1b4","condition":"contingent","relevant_dimensions":["pattern","legs"],"bee_group":{"antennae":"X","wings":"X","pattern":"S","legs":"F"},"action":"harvest","summary":"good-harvest","bonus":1.300000000000001},{"rt":531.5,"stimulus":"\n                    <p><b>Action: <em>harvest</em></b></p>\n                    <p>This is the bee that you just saw.</p>\n                    <img src=\"bees-with-color/bee-B2SM.svg\" width=\"200\">\n                    <p><span class=\"greenText\"><b>Successful harvest!</b></span><br>Your pay has increased by $0.02. Your bonus pay is now $0.46.</p>\n            ","response":0,"trial_type":"html-button-response","trial_index":30,"time_elapsed":386188,"internal_node_id":"0.0-4.0-1.11","subject_id":"6151f84aca0c007d8baa2750","study_id":"60edd13110225f80f9f3709b","session_id":"6196c704b00955735903f1b4","condition":"contingent","relevant_dimensions":["pattern","legs"],"bee_group":{"antennae":"X","wings":"X","pattern":"S","legs":"F"},"bonus":1.300000000000001},{"rt":1169.199999999255,"stimulus":"bees-with-color/bee-B1SF.svg","response":1,"trial_type":"image-button-response","trial_index":31,"time_elapsed":387358,"internal_node_id":"0.0-4.0-0.12","subject_id":"6151f84aca0c007d8baa2750","study_id":"60edd13110225f80f9f3709b","session_id":"6196c704b00955735903f1b4","condition":"contingent","relevant_dimensions":["pattern","legs"],"bee_group":{"antennae":"X","wings":"X","pattern":"S","legs":"F"},"action":"avoid","summary":"good-avoid","bonus":1.300000000000001},{"rt":546.9000000003725,"stimulus":"\n                    <p><b>Action: <em>avoid</em></b></p>\n                    <p>This is the bee that you just saw.</p>\n                    <img src=\"bees-with-color/bee-B1SF.svg\" width=\"200\">\n                    <p><br>Your bonus pay is unchanged, and remains at $0.46.</p>\n            ","response":0,"trial_type":"html-button-response","trial_index":32,"time_elapsed":387906,"internal_node_id":"0.0-4.0-1.12","subject_id":"6151f84aca0c007d8baa2750","study_id":"60edd13110225f80f9f3709b","session_id":"6196c704b00955735903f1b4","condition":"contingent","relevant_dimensions":["pattern","legs"],"bee_group":{"antennae":"X","wings":"X","pattern":"S","legs":"F"},"bonus":1.300000000000001},{"rt":824.1999999992549,"stimulus":"bees-with-color/bee-A2SF.svg","response":1,"trial_type":"image-button-response","trial_index":33,"time_elapsed":388731,"internal_node_id":"0.0-4.0-0.13","subject_id":"6151f84aca0c007d8baa2750","study_id":"60edd13110225f80f9f3709b","session_id":"6196c704b00955735903f1b4","condition":"contingent","relevant_dimensions":["pattern","legs"],"bee_group":{"antennae":"X","wings":"X","pattern":"S","legs":"F"},"action":"avoid","summary":"good-avoid","bonus":1.300000000000001},{"rt":494.19999999925494,"stimulus":"\n                    <p><b>Action: <em>avoid</em></b></p>\n                    <p>This is the bee that you just saw.</p>\n                    <img src=\"bees-with-color/bee-A2SF.svg\" width=\"200\">\n                    <p><br>Your bonus pay is unchanged, and remains at $0.46.</p>\n            ","response":0,"trial_type":"html-button-response","trial_index":34,"time_elapsed":389226,"internal_node_id":"0.0-4.0-1.13","subject_id":"6151f84aca0c007d8baa2750","study_id":"60edd13110225f80f9f3709b","session_id":"6196c704b00955735903f1b4","condition":"contingent","relevant_dimensions":["pattern","legs"],"bee_group":{"antennae":"X","wings":"X","pattern":"S","legs":"F"},"bonus":1.300000000000001},{"rt":825.3000000007451,"stimulus":"bees-with-color/bee-B1DM.svg","response":0,"trial_type":"image-button-response","trial_index":35,"time_elapsed":390052,"internal_node_id":"0.0-4.0-0.14","subject_id":"6151f84aca0c007d8baa2750","study_id":"60edd13110225f80f9f3709b","session_id":"6196c704b00955735903f1b4","condition":"contingent","relevant_dimensions":["pattern","legs"],"bee_group":{"antennae":"X","wings":"X","pattern":"S","legs":"F"},"action":"harvest","summary":"good-harvest","bonus":1.300000000000001},{"rt":440.7000000011176,"stimulus":"\n                    <p><b>Action: <em>harvest</em></b></p>\n                    <p>This is the bee that you just saw.</p>\n                    <img src=\"bees-with-color/bee-B1DM.svg\" width=\"200\">\n                    <p><span class=\"greenText\"><b>Successful harvest!</b></span><br>Your pay has increased by $0.02. Your bonus pay is now $0.48.</p>\n            ","response":0,"trial_type":"html-button-response","trial_index":36,"time_elapsed":390493,"internal_node_id":"0.0-4.0-1.14","subject_id":"6151f84aca0c007d8baa2750","study_id":"60edd13110225f80f9f3709b","session_id":"6196c704b00955735903f1b4","condition":"contingent","relevant_dimensions":["pattern","legs"],"bee_group":{"antennae":"X","wings":"X","pattern":"S","legs":"F"},"bonus":1.300000000000001},{"rt":764.1000000014901,"stimulus":"bees-with-color/bee-A1SM.svg","response":0,"trial_type":"image-button-response","trial_index":37,"time_elapsed":391258,"internal_node_id":"0.0-4.0-0.15","subject_id":"6151f84aca0c007d8baa2750","study_id":"60edd13110225f80f9f3709b","session_id":"6196c704b00955735903f1b4","condition":"contingent","relevant_dimensions":["pattern","legs"],"bee_group":{"antennae":"X","wings":"X","pattern":"S","legs":"F"},"action":"harvest","summary":"good-harvest","bonus":1.300000000000001},{"rt":449.09999999962747,"stimulus":"\n                    <p><b>Action: <em>harvest</em></b></p>\n                    <p>This is the bee that you just saw.</p>\n                    <img src=\"bees-with-color/bee-A1SM.svg\" width=\"200\">\n                    <p><span class=\"greenText\"><b>Successful harvest!</b></span><br>Your pay has increased by $0.02. Your bonus pay is now $0.50.</p>\n            ","response":0,"trial_type":"html-button-response","trial_index":38,"time_elapsed":391708,"internal_node_id":"0.0-4.0-1.15","subject_id":"6151f84aca0c007d8baa2750","study_id":"60edd13110225f80f9f3709b","session_id":"6196c704b00955735903f1b4","condition":"contingent","relevant_dimensions":["pattern","legs"],"bee_group":{"antennae":"X","wings":"X","pattern":"S","legs":"F"},"bonus":1.300000000000001},{"rt":681.6999999992549,"stimulus":"bees-with-color/bee-B2SM.svg","response":0,"trial_type":"image-button-response","trial_index":39,"time_elapsed":392391,"internal_node_id":"0.0-4.0-0.16","subject_id":"6151f84aca0c007d8baa2750","study_id":"60edd13110225f80f9f3709b","session_id":"6196c704b00955735903f1b4","condition":"contingent","relevant_dimensions":["pattern","legs"],"bee_group":{"antennae":"X","wings":"X","pattern":"S","legs":"F"},"action":"harvest","summary":"good-harvest","bonus":1.300000000000001},{"rt":434.1000000014901,"stimulus":"\n                    <p><b>Action: <em>harvest</em></b></p>\n                    <p>This is the bee that you just saw.</p>\n                    <img src=\"bees-with-color/bee-B2SM.svg\" width=\"200\">\n                    <p><span class=\"greenText\"><b>Successful harvest!</b></span><br>Your pay has increased by $0.02. Your bonus pay is now $0.52.</p>\n            ","response":0,"trial_type":"html-button-response","trial_index":40,"time_elapsed":392826,"internal_node_id":"0.0-4.0-1.16","subject_id":"6151f84aca0c007d8baa2750","study_id":"60edd13110225f80f9f3709b","session_id":"6196c704b00955735903f1b4","condition":"contingent","relevant_dimensions":["pattern","legs"],"bee_group":{"antennae":"X","wings":"X","pattern":"S","legs":"F"},"bonus":1.300000000000001},{"rt":786.5999999996275,"stimulus":"bees-with-color/bee-B1SF.svg","response":1,"trial_type":"image-button-response","trial_index":41,"time_elapsed":393613,"internal_node_id":"0.0-4.0-0.17","subject_id":"6151f84aca0c007d8baa2750","study_id":"60edd13110225f80f9f3709b","session_id":"6196c704b00955735903f1b4","condition":"contingent","relevant_dimensions":["pattern","legs"],"bee_group":{"antennae":"X","wings":"X","pattern":"S","legs":"F"},"action":"avoid","summary":"good-avoid","bonus":1.300000000000001},{"rt":494.2000000011176,"stimulus":"\n                    <p><b>Action: <em>avoid</em></b></p>\n                    <p>This is the bee that you just saw.</p>\n                    <img src=\"bees-with-color/bee-B1SF.svg\" width=\"200\">\n                    <p><br>Your bonus pay is unchanged, and remains at $0.52.</p>\n            ","response":0,"trial_type":"html-button-response","trial_index":42,"time_elapsed":394108,"internal_node_id":"0.0-4.0-1.17","subject_id":"6151f84aca0c007d8baa2750","study_id":"60edd13110225f80f9f3709b","session_id":"6196c704b00955735903f1b4","condition":"contingent","relevant_dimensions":["pattern","legs"],"bee_group":{"antennae":"X","wings":"X","pattern":"S","legs":"F"},"bonus":1.300000000000001},{"rt":749.3000000007451,"stimulus":"bees-with-color/bee-A1SM.svg","response":0,"trial_type":"image-button-response","trial_index":43,"time_elapsed":394858,"internal_node_id":"0.0-4.0-0.18","subject_id":"6151f84aca0c007d8baa2750","study_id":"60edd13110225f80f9f3709b","session_id":"6196c704b00955735903f1b4","condition":"contingent","relevant_dimensions":["pattern","legs"],"bee_group":{"antennae":"X","wings":"X","pattern":"S","legs":"F"},"action":"harvest","summary":"good-harvest","bonus":1.300000000000001},{"rt":426.5,"stimulus":"\n                    <p><b>Action: <em>harvest</em></b></p>\n                    <p>This is the bee that you just saw.</p>\n                    <img src=\"bees-with-color/bee-A1SM.svg\" width=\"200\">\n                    <p><span class=\"greenText\"><b>Successful harvest!</b></span><br>Your pay has increased by $0.02. Your bonus pay is now $0.54.</p>\n            ","response":0,"trial_type":"html-button-response","trial_index":44,"time_elapsed":395286,"internal_node_id":"0.0-4.0-1.18","subject_id":"6151f84aca0c007d8baa2750","study_id":"60edd13110225f80f9f3709b","session_id":"6196c704b00955735903f1b4","condition":"contingent","relevant_dimensions":["pattern","legs"],"bee_group":{"antennae":"X","wings":"X","pattern":"S","legs":"F"},"bonus":1.300000000000001},{"rt":854.2000000011176,"stimulus":"bees-with-color/bee-A2SM.svg","response":0,"trial_type":"image-button-response","trial_index":45,"time_elapsed":396141,"internal_node_id":"0.0-4.0-0.19","subject_id":"6151f84aca0c007d8baa2750","study_id":"60edd13110225f80f9f3709b","session_id":"6196c704b00955735903f1b4","condition":"contingent","relevant_dimensions":["pattern","legs"],"bee_group":{"antennae":"X","wings":"X","pattern":"S","legs":"F"},"action":"harvest","summary":"good-harvest","bonus":1.300000000000001},{"rt":419,"stimulus":"\n                    <p><b>Action: <em>harvest</em></b></p>\n                    <p>This is the bee that you just saw.</p>\n                    <img src=\"bees-with-color/bee-A2SM.svg\" width=\"200\">\n                    <p><span class=\"greenText\"><b>Successful harvest!</b></span><br>Your pay has increased by $0.02. Your bonus pay is now $0.56.</p>\n            ","response":0,"trial_type":"html-button-response","trial_index":46,"time_elapsed":396561,"internal_node_id":"0.0-4.0-1.19","subject_id":"6151f84aca0c007d8baa2750","study_id":"60edd13110225f80f9f3709b","session_id":"6196c704b00955735903f1b4","condition":"contingent","relevant_dimensions":["pattern","legs"],"bee_group":{"antennae":"X","wings":"X","pattern":"S","legs":"F"},"bonus":1.300000000000001},{"rt":771.7000000011176,"stimulus":"bees-with-color/bee-B2DF.svg","response":1,"trial_type":"image-button-response","trial_index":47,"time_elapsed":397333,"internal_node_id":"0.0-4.0-0.20","subject_id":"6151f84aca0c007d8baa2750","study_id":"60edd13110225f80f9f3709b","session_id":"6196c704b00955735903f1b4","condition":"contingent","relevant_dimensions":["pattern","legs"],"bee_group":{"antennae":"X","wings":"X","pattern":"S","legs":"F"},"action":"avoid","summary":"bad-avoid","bonus":1.300000000000001},{"rt":486.59999999962747,"stimulus":"\n                    <p><b>Action: <em>avoid</em></b></p>\n                    <p>This is the bee that you just saw.</p>\n                    <img src=\"bees-with-color/bee-B2DF.svg\" width=\"200\">\n                    <p><br>Your bonus pay is unchanged, and remains at $0.56.</p>\n            ","response":0,"trial_type":"html-button-response","trial_index":48,"time_elapsed":397821,"internal_node_id":"0.0-4.0-1.20","subject_id":"6151f84aca0c007d8baa2750","study_id":"60edd13110225f80f9f3709b","session_id":"6196c704b00955735903f1b4","condition":"contingent","relevant_dimensions":["pattern","legs"],"bee_group":{"antennae":"X","wings":"X","pattern":"S","legs":"F"},"bonus":1.300000000000001},{"rt":876.4000000003725,"stimulus":"bees-with-color/bee-A1SF.svg","response":1,"trial_type":"image-button-response","trial_index":49,"time_elapsed":398698,"internal_node_id":"0.0-4.0-0.21","subject_id":"6151f84aca0c007d8baa2750","study_id":"60edd13110225f80f9f3709b","session_id":"6196c704b00955735903f1b4","condition":"contingent","relevant_dimensions":["pattern","legs"],"bee_group":{"antennae":"X","wings":"X","pattern":"S","legs":"F"},"action":"avoid","summary":"good-avoid","bonus":1.300000000000001},{"rt":389.2000000011176,"stimulus":"\n                    <p><b>Action: <em>avoid</em></b></p>\n                    <p>This is the bee that you just saw.</p>\n                    <img src=\"bees-with-color/bee-A1SF.svg\" width=\"200\">\n                    <p><br>Your bonus pay is unchanged, and remains at $0.56.</p>\n            ","response":0,"trial_type":"html-button-response","trial_index":50,"time_elapsed":399088,"internal_node_id":"0.0-4.0-1.21","subject_id":"6151f84aca0c007d8baa2750","study_id":"60edd13110225f80f9f3709b","session_id":"6196c704b00955735903f1b4","condition":"contingent","relevant_dimensions":["pattern","legs"],"bee_group":{"antennae":"X","wings":"X","pattern":"S","legs":"F"},"bonus":1.300000000000001},{"rt":704.2000000011176,"stimulus":"bees-with-color/bee-B1SM.svg","response":0,"trial_type":"image-button-response","trial_index":51,"time_elapsed":399793,"internal_node_id":"0.0-4.0-0.22","subject_id":"6151f84aca0c007d8baa2750","study_id":"60edd13110225f80f9f3709b","session_id":"6196c704b00955735903f1b4","condition":"contingent","relevant_dimensions":["pattern","legs"],"bee_group":{"antennae":"X","wings":"X","pattern":"S","legs":"F"},"action":"harvest","summary":"good-harvest","bonus":1.300000000000001},{"rt":411.2999999988824,"stimulus":"\n                    <p><b>Action: <em>harvest</em></b></p>\n                    <p>This is the bee that you just saw.</p>\n                    <img src=\"bees-with-color/bee-B1SM.svg\" width=\"200\">\n                    <p><span class=\"greenText\"><b>Successful harvest!</b></span><br>Your pay has increased by $0.02. Your bonus pay is now $0.58.</p>\n            ","response":0,"trial_type":"html-button-response","trial_index":52,"time_elapsed":400206,"internal_node_id":"0.0-4.0-1.22","subject_id":"6151f84aca0c007d8baa2750","study_id":"60edd13110225f80f9f3709b","session_id":"6196c704b00955735903f1b4","condition":"contingent","relevant_dimensions":["pattern","legs"],"bee_group":{"antennae":"X","wings":"X","pattern":"S","legs":"F"},"bonus":1.300000000000001},{"rt":711.6999999992549,"stimulus":"bees-with-color/bee-B2DM.svg","response":0,"trial_type":"image-button-response","trial_index":53,"time_elapsed":400918,"internal_node_id":"0.0-4.0-0.23","subject_id":"6151f84aca0c007d8baa2750","study_id":"60edd13110225f80f9f3709b","session_id":"6196c704b00955735903f1b4","condition":"contingent","relevant_dimensions":["pattern","legs"],"bee_group":{"antennae":"X","wings":"X","pattern":"S","legs":"F"},"action":"harvest","summary":"good-harvest","bonus":1.300000000000001},{"rt":434,"stimulus":"\n                    <p><b>Action: <em>harvest</em></b></p>\n                    <p>This is the bee that you just saw.</p>\n                    <img src=\"bees-with-color/bee-B2DM.svg\" width=\"200\">\n                    <p><span class=\"greenText\"><b>Successful harvest!</b></span><br>Your pay has increased by $0.02. Your bonus pay is now $0.60.</p>\n            ","response":0,"trial_type":"html-button-response","trial_index":54,"time_elapsed":401353,"internal_node_id":"0.0-4.0-1.23","subject_id":"6151f84aca0c007d8baa2750","study_id":"60edd13110225f80f9f3709b","session_id":"6196c704b00955735903f1b4","condition":"contingent","relevant_dimensions":["pattern","legs"],"bee_group":{"antennae":"X","wings":"X","pattern":"S","legs":"F"},"bonus":1.300000000000001},{"rt":757,"stimulus":"bees-with-color/bee-A2SF.svg","response":1,"trial_type":"image-button-response","trial_index":55,"time_elapsed":402111,"internal_node_id":"0.0-4.0-0.24","subject_id":"6151f84aca0c007d8baa2750","study_id":"60edd13110225f80f9f3709b","session_id":"6196c704b00955735903f1b4","condition":"contingent","relevant_dimensions":["pattern","legs"],"bee_group":{"antennae":"X","wings":"X","pattern":"S","legs":"F"},"action":"avoid","summary":"good-avoid","bonus":1.300000000000001},{"rt":426.40000000037253,"stimulus":"\n                    <p><b>Action: <em>avoid</em></b></p>\n                    <p>This is the bee that you just saw.</p>\n                    <img src=\"bees-with-color/bee-A2SF.svg\" width=\"200\">\n                    <p><br>Your bonus pay is unchanged, and remains at $0.60.</p>\n            ","response":0,"trial_type":"html-button-response","trial_index":56,"time_elapsed":402538,"internal_node_id":"0.0-4.0-1.24","subject_id":"6151f84aca0c007d8baa2750","study_id":"60edd13110225f80f9f3709b","session_id":"6196c704b00955735903f1b4","condition":"contingent","relevant_dimensions":["pattern","legs"],"bee_group":{"antennae":"X","wings":"X","pattern":"S","legs":"F"},"bonus":1.300000000000001},{"rt":1019.5,"stimulus":"bees-with-color/bee-A1DF.svg","response":1,"trial_type":"image-button-response","trial_index":57,"time_elapsed":403558,"internal_node_id":"0.0-4.0-0.25","subject_id":"6151f84aca0c007d8baa2750","study_id":"60edd13110225f80f9f3709b","session_id":"6196c704b00955735903f1b4","condition":"contingent","relevant_dimensions":["pattern","legs"],"bee_group":{"antennae":"X","wings":"X","pattern":"S","legs":"F"},"action":"avoid","summary":"bad-avoid","bonus":1.300000000000001},{"rt":396.59999999962747,"stimulus":"\n                    <p><b>Action: <em>avoid</em></b></p>\n                    <p>This is the bee that you just saw.</p>\n                    <img src=\"bees-with-color/bee-A1DF.svg\" width=\"200\">\n                    <p><br>Your bonus pay is unchanged, and remains at $0.60.</p>\n            ","response":0,"trial_type":"html-button-response","trial_index":58,"time_elapsed":403956,"internal_node_id":"0.0-4.0-1.25","subject_id":"6151f84aca0c007d8baa2750","study_id":"60edd13110225f80f9f3709b","session_id":"6196c704b00955735903f1b4","condition":"contingent","relevant_dimensions":["pattern","legs"],"bee_group":{"antennae":"X","wings":"X","pattern":"S","legs":"F"},"bonus":1.300000000000001},{"rt":749.3000000007451,"stimulus":"bees-with-color/bee-A2DM.svg","response":0,"trial_type":"image-button-response","trial_index":59,"time_elapsed":404706,"internal_node_id":"0.0-4.0-0.26","subject_id":"6151f84aca0c007d8baa2750","study_id":"60edd13110225f80f9f3709b","session_id":"6196c704b00955735903f1b4","condition":"contingent","relevant_dimensions":["pattern","legs"],"bee_group":{"antennae":"X","wings":"X","pattern":"S","legs":"F"},"action":"harvest","summary":"good-harvest","bonus":1.300000000000001},{"rt":434.30000000074506,"stimulus":"\n                    <p><b>Action: <em>harvest</em></b></p>\n                    <p>This is the bee that you just saw.</p>\n                    <img src=\"bees-with-color/bee-A2DM.svg\" width=\"200\">\n                    <p><span class=\"greenText\"><b>Successful harvest!</b></span><br>Your pay has increased by $0.02. Your bonus pay is now $0.62.</p>\n            ","response":0,"trial_type":"html-button-response","trial_index":60,"time_elapsed":405141,"internal_node_id":"0.0-4.0-1.26","subject_id":"6151f84aca0c007d8baa2750","study_id":"60edd13110225f80f9f3709b","session_id":"6196c704b00955735903f1b4","condition":"contingent","relevant_dimensions":["pattern","legs"],"bee_group":{"antennae":"X","wings":"X","pattern":"S","legs":"F"},"bonus":1.300000000000001},{"rt":726.8000000007451,"stimulus":"bees-with-color/bee-B2SF.svg","response":1,"trial_type":"image-button-response","trial_index":61,"time_elapsed":405868,"internal_node_id":"0.0-4.0-0.27","subject_id":"6151f84aca0c007d8baa2750","study_id":"60edd13110225f80f9f3709b","session_id":"6196c704b00955735903f1b4","condition":"contingent","relevant_dimensions":["pattern","legs"],"bee_group":{"antennae":"X","wings":"X","pattern":"S","legs":"F"},"action":"avoid","summary":"good-avoid","bonus":1.300000000000001},{"rt":464.5,"stimulus":"\n                    <p><b>Action: <em>avoid</em></b></p>\n                    <p>This is the bee that you just saw.</p>\n                    <img src=\"bees-with-color/bee-B2SF.svg\" width=\"200\">\n                    <p><br>Your bonus pay is unchanged, and remains at $0.62.</p>\n            ","response":0,"trial_type":"html-button-response","trial_index":62,"time_elapsed":406333,"internal_node_id":"0.0-4.0-1.27","subject_id":"6151f84aca0c007d8baa2750","study_id":"60edd13110225f80f9f3709b","session_id":"6196c704b00955735903f1b4","condition":"contingent","relevant_dimensions":["pattern","legs"],"bee_group":{"antennae":"X","wings":"X","pattern":"S","legs":"F"},"bonus":1.300000000000001},{"rt":666.4000000003725,"stimulus":"bees-with-color/bee-A1DM.svg","response":0,"trial_type":"image-button-response","trial_index":63,"time_elapsed":407000,"internal_node_id":"0.0-4.0-0.28","subject_id":"6151f84aca0c007d8baa2750","study_id":"60edd13110225f80f9f3709b","session_id":"6196c704b00955735903f1b4","condition":"contingent","relevant_dimensions":["pattern","legs"],"bee_group":{"antennae":"X","wings":"X","pattern":"S","legs":"F"},"action":"harvest","summary":"good-harvest","bonus":1.300000000000001},{"rt":434.7000000011176,"stimulus":"\n                    <p><b>Action: <em>harvest</em></b></p>\n                    <p>This is the bee that you just saw.</p>\n                    <img src=\"bees-with-color/bee-A1DM.svg\" width=\"200\">\n                    <p><span class=\"greenText\"><b>Successful harvest!</b></span><br>Your pay has increased by $0.02. Your bonus pay is now $0.64.</p>\n            ","response":0,"trial_type":"html-button-response","trial_index":64,"time_elapsed":407436,"internal_node_id":"0.0-4.0-1.28","subject_id":"6151f84aca0c007d8baa2750","study_id":"60edd13110225f80f9f3709b","session_id":"6196c704b00955735903f1b4","condition":"contingent","relevant_dimensions":["pattern","legs"],"bee_group":{"antennae":"X","wings":"X","pattern":"S","legs":"F"},"bonus":1.300000000000001},{"rt":869.1000000014901,"stimulus":"bees-with-color/bee-B1DF.svg","response":1,"trial_type":"image-button-response","trial_index":65,"time_elapsed":408306,"internal_node_id":"0.0-4.0-0.29","subject_id":"6151f84aca0c007d8baa2750","study_id":"60edd13110225f80f9f3709b","session_id":"6196c704b00955735903f1b4","condition":"contingent","relevant_dimensions":["pattern","legs"],"bee_group":{"antennae":"X","wings":"X","pattern":"S","legs":"F"},"action":"avoid","summary":"bad-avoid","bonus":1.300000000000001},{"rt":464.09999999962747,"stimulus":"\n                    <p><b>Action: <em>avoid</em></b></p>\n                    <p>This is the bee that you just saw.</p>\n                    <img src=\"bees-with-color/bee-B1DF.svg\" width=\"200\">\n                    <p><br>Your bonus pay is unchanged, and remains at $0.64.</p>\n            ","response":0,"trial_type":"html-button-response","trial_index":66,"time_elapsed":408771,"internal_node_id":"0.0-4.0-1.29","subject_id":"6151f84aca0c007d8baa2750","study_id":"60edd13110225f80f9f3709b","session_id":"6196c704b00955735903f1b4","condition":"contingent","relevant_dimensions":["pattern","legs"],"bee_group":{"antennae":"X","wings":"X","pattern":"S","legs":"F"},"bonus":1.300000000000001},{"rt":726.7999999988824,"stimulus":"bees-with-color/bee-B1DM.svg","response":0,"trial_type":"image-button-response","trial_index":67,"time_elapsed":409498,"internal_node_id":"0.0-4.0-0.30","subject_id":"6151f84aca0c007d8baa2750","study_id":"60edd13110225f80f9f3709b","session_id":"6196c704b00955735903f1b4","condition":"contingent","relevant_dimensions":["pattern","legs"],"bee_group":{"antennae":"X","wings":"X","pattern":"S","legs":"F"},"action":"harvest","summary":"good-harvest","bonus":1.300000000000001},{"rt":486.59999999962747,"stimulus":"\n                    <p><b>Action: <em>harvest</em></b></p>\n                    <p>This is the bee that you just saw.</p>\n                    <img src=\"bees-with-color/bee-B1DM.svg\" width=\"200\">\n                    <p><span class=\"greenText\"><b>Successful harvest!</b></span><br>Your pay has increased by $0.02. Your bonus pay is now $0.66.</p>\n            ","response":0,"trial_type":"html-button-response","trial_index":68,"time_elapsed":409986,"internal_node_id":"0.0-4.0-1.30","subject_id":"6151f84aca0c007d8baa2750","study_id":"60edd13110225f80f9f3709b","session_id":"6196c704b00955735903f1b4","condition":"contingent","relevant_dimensions":["pattern","legs"],"bee_group":{"antennae":"X","wings":"X","pattern":"S","legs":"F"},"bonus":1.300000000000001},{"rt":1131.9000000003725,"stimulus":"bees-with-color/bee-A2DF.svg","response":1,"trial_type":"image-button-response","trial_index":69,"time_elapsed":411118,"internal_node_id":"0.0-4.0-0.31","subject_id":"6151f84aca0c007d8baa2750","study_id":"60edd13110225f80f9f3709b","session_id":"6196c704b00955735903f1b4","condition":"contingent","relevant_dimensions":["pattern","legs"],"bee_group":{"antennae":"X","wings":"X","pattern":"S","legs":"F"},"action":"avoid","summary":"bad-avoid","bonus":1.300000000000001},{"rt":471.59999999962747,"stimulus":"\n                    <p><b>Action: <em>avoid</em></b></p>\n                    <p>This is the bee that you just saw.</p>\n                    <img src=\"bees-with-color/bee-A2DF.svg\" width=\"200\">\n                    <p><br>Your bonus pay is unchanged, and remains at $0.66.</p>\n            ","response":0,"trial_type":"html-button-response","trial_index":70,"time_elapsed":411591,"internal_node_id":"0.0-4.0-1.31","subject_id":"6151f84aca0c007d8baa2750","study_id":"60edd13110225f80f9f3709b","session_id":"6196c704b00955735903f1b4","condition":"contingent","relevant_dimensions":["pattern","legs"],"bee_group":{"antennae":"X","wings":"X","pattern":"S","legs":"F"},"bonus":1.300000000000001},{"rt":1206.9000000003725,"stimulus":"bees-with-color/bee-B2SM.svg","response":0,"trial_type":"image-button-response","trial_index":71,"time_elapsed":412798,"internal_node_id":"0.0-4.0-0.32","subject_id":"6151f84aca0c007d8baa2750","study_id":"60edd13110225f80f9f3709b","session_id":"6196c704b00955735903f1b4","condition":"contingent","relevant_dimensions":["pattern","legs"],"bee_group":{"antennae":"X","wings":"X","pattern":"S","legs":"F"},"action":"harvest","summary":"good-harvest","bonus":1.300000000000001},{"rt":478.5,"stimulus":"\n                    <p><b>Action: <em>harvest</em></b></p>\n                    <p>This is the bee that you just saw.</p>\n                    <img src=\"bees-with-color/bee-B2SM.svg\" width=\"200\">\n                    <p><span class=\"greenText\"><b>Successful harvest!</b></span><br>Your pay has increased by $0.02. Your bonus pay is now $0.68.</p>\n            ","response":0,"trial_type":"html-button-response","trial_index":72,"time_elapsed":413278,"internal_node_id":"0.0-4.0-1.32","subject_id":"6151f84aca0c007d8baa2750","study_id":"60edd13110225f80f9f3709b","session_id":"6196c704b00955735903f1b4","condition":"contingent","relevant_dimensions":["pattern","legs"],"bee_group":{"antennae":"X","wings":"X","pattern":"S","legs":"F"},"bonus":1.300000000000001},{"rt":757.3000000007451,"stimulus":"bees-with-color/bee-A1SF.svg","response":1,"trial_type":"image-button-response","trial_index":73,"time_elapsed":414036,"internal_node_id":"0.0-4.0-0.33","subject_id":"6151f84aca0c007d8baa2750","study_id":"60edd13110225f80f9f3709b","session_id":"6196c704b00955735903f1b4","condition":"contingent","relevant_dimensions":["pattern","legs"],"bee_group":{"antennae":"X","wings":"X","pattern":"S","legs":"F"},"action":"avoid","summary":"good-avoid","bonus":1.300000000000001},{"rt":403.90000000037253,"stimulus":"\n                    <p><b>Action: <em>avoid</em></b></p>\n                    <p>This is the bee that you just saw.</p>\n                    <img src=\"bees-with-color/bee-A1SF.svg\" width=\"200\">\n                    <p><br>Your bonus pay is unchanged, and remains at $0.68.</p>\n            ","response":0,"trial_type":"html-button-response","trial_index":74,"time_elapsed":414441,"internal_node_id":"0.0-4.0-1.33","subject_id":"6151f84aca0c007d8baa2750","study_id":"60edd13110225f80f9f3709b","session_id":"6196c704b00955735903f1b4","condition":"contingent","relevant_dimensions":["pattern","legs"],"bee_group":{"antennae":"X","wings":"X","pattern":"S","legs":"F"},"bonus":1.300000000000001},{"rt":726.6999999992549,"stimulus":"bees-with-color/bee-A2SF.svg","response":1,"trial_type":"image-button-response","trial_index":75,"time_elapsed":415168,"internal_node_id":"0.0-4.0-0.34","subject_id":"6151f84aca0c007d8baa2750","study_id":"60edd13110225f80f9f3709b","session_id":"6196c704b00955735903f1b4","condition":"contingent","relevant_dimensions":["pattern","legs"],"bee_group":{"antennae":"X","wings":"X","pattern":"S","legs":"F"},"action":"avoid","summary":"good-avoid","bonus":1.300000000000001},{"rt":411.7000000011176,"stimulus":"\n                    <p><b>Action: <em>avoid</em></b></p>\n                    <p>This is the bee that you just saw.</p>\n                    <img src=\"bees-with-color/bee-A2SF.svg\" width=\"200\">\n                    <p><br>Your bonus pay is unchanged, and remains at $0.68.</p>\n            ","response":0,"trial_type":"html-button-response","trial_index":76,"time_elapsed":415581,"internal_node_id":"0.0-4.0-1.34","subject_id":"6151f84aca0c007d8baa2750","study_id":"60edd13110225f80f9f3709b","session_id":"6196c704b00955735903f1b4","condition":"contingent","relevant_dimensions":["pattern","legs"],"bee_group":{"antennae":"X","wings":"X","pattern":"S","legs":"F"},"bonus":1.300000000000001},{"rt":741.7000000011176,"stimulus":"bees-with-color/bee-A2SM.svg","response":0,"trial_type":"image-button-response","trial_index":77,"time_elapsed":416323,"internal_node_id":"0.0-4.0-0.35","subject_id":"6151f84aca0c007d8baa2750","study_id":"60edd13110225f80f9f3709b","session_id":"6196c704b00955735903f1b4","condition":"contingent","relevant_dimensions":["pattern","legs"],"bee_group":{"antennae":"X","wings":"X","pattern":"S","legs":"F"},"action":"harvest","summary":"good-harvest","bonus":1.300000000000001},{"rt":381.7000000011176,"stimulus":"\n                    <p><b>Action: <em>harvest</em></b></p>\n                    <p>This is the bee that you just saw.</p>\n                    <img src=\"bees-with-color/bee-A2SM.svg\" width=\"200\">\n                    <p><span class=\"greenText\"><b>Successful harvest!</b></span><br>Your pay has increased by $0.02. Your bonus pay is now $0.70.</p>\n            ","response":0,"trial_type":"html-button-response","trial_index":78,"time_elapsed":416706,"internal_node_id":"0.0-4.0-1.35","subject_id":"6151f84aca0c007d8baa2750","study_id":"60edd13110225f80f9f3709b","session_id":"6196c704b00955735903f1b4","condition":"contingent","relevant_dimensions":["pattern","legs"],"bee_group":{"antennae":"X","wings":"X","pattern":"S","legs":"F"},"bonus":1.300000000000001},{"rt":704.2000000011176,"stimulus":"bees-with-color/bee-A1DM.svg","response":0,"trial_type":"image-button-response","trial_index":79,"time_elapsed":417411,"internal_node_id":"0.0-4.0-0.36","subject_id":"6151f84aca0c007d8baa2750","study_id":"60edd13110225f80f9f3709b","session_id":"6196c704b00955735903f1b4","condition":"contingent","relevant_dimensions":["pattern","legs"],"bee_group":{"antennae":"X","wings":"X","pattern":"S","legs":"F"},"action":"harvest","summary":"good-harvest","bonus":1.300000000000001},{"rt":441.5,"stimulus":"\n                    <p><b>Action: <em>harvest</em></b></p>\n                    <p>This is the bee that you just saw.</p>\n                    <img src=\"bees-with-color/bee-A1DM.svg\" width=\"200\">\n                    <p><span class=\"greenText\"><b>Successful harvest!</b></span><br>Your pay has increased by $0.02. Your bonus pay is now $0.72.</p>\n            ","response":0,"trial_type":"html-button-response","trial_index":80,"time_elapsed":417853,"internal_node_id":"0.0-4.0-1.36","subject_id":"6151f84aca0c007d8baa2750","study_id":"60edd13110225f80f9f3709b","session_id":"6196c704b00955735903f1b4","condition":"contingent","relevant_dimensions":["pattern","legs"],"bee_group":{"antennae":"X","wings":"X","pattern":"S","legs":"F"},"bonus":1.300000000000001},{"rt":1033.9000000003725,"stimulus":"bees-with-color/bee-B2DF.svg","response":1,"trial_type":"image-button-response","trial_index":81,"time_elapsed":418888,"internal_node_id":"0.0-4.0-0.37","subject_id":"6151f84aca0c007d8baa2750","study_id":"60edd13110225f80f9f3709b","session_id":"6196c704b00955735903f1b4","condition":"contingent","relevant_dimensions":["pattern","legs"],"bee_group":{"antennae":"X","wings":"X","pattern":"S","legs":"F"},"action":"avoid","summary":"bad-avoid","bonus":1.300000000000001},{"rt":404.80000000074506,"stimulus":"\n                    <p><b>Action: <em>avoid</em></b></p>\n                    <p>This is the bee that you just saw.</p>\n                    <img src=\"bees-with-color/bee-B2DF.svg\" width=\"200\">\n                    <p><br>Your bonus pay is unchanged, and remains at $0.72.</p>\n            ","response":0,"trial_type":"html-button-response","trial_index":82,"time_elapsed":419294,"internal_node_id":"0.0-4.0-1.37","subject_id":"6151f84aca0c007d8baa2750","study_id":"60edd13110225f80f9f3709b","session_id":"6196c704b00955735903f1b4","condition":"contingent","relevant_dimensions":["pattern","legs"],"bee_group":{"antennae":"X","wings":"X","pattern":"S","legs":"F"},"bonus":1.300000000000001},{"rt":688.8000000007451,"stimulus":"bees-with-color/bee-A2DM.svg","response":0,"trial_type":"image-button-response","trial_index":83,"time_elapsed":419983,"internal_node_id":"0.0-4.0-0.38","subject_id":"6151f84aca0c007d8baa2750","study_id":"60edd13110225f80f9f3709b","session_id":"6196c704b00955735903f1b4","condition":"contingent","relevant_dimensions":["pattern","legs"],"bee_group":{"antennae":"X","wings":"X","pattern":"S","legs":"F"},"action":"harvest","summary":"good-harvest","bonus":1.300000000000001},{"rt":411.3999999985099,"stimulus":"\n                    <p><b>Action: <em>harvest</em></b></p>\n                    <p>This is the bee that you just saw.</p>\n                    <img src=\"bees-with-color/bee-A2DM.svg\" width=\"200\">\n                    <p><span class=\"greenText\"><b>Successful harvest!</b></span><br>Your pay has increased by $0.02. Your bonus pay is now $0.74.</p>\n            ","response":0,"trial_type":"html-button-response","trial_index":84,"time_elapsed":420396,"internal_node_id":"0.0-4.0-1.38","subject_id":"6151f84aca0c007d8baa2750","study_id":"60edd13110225f80f9f3709b","session_id":"6196c704b00955735903f1b4","condition":"contingent","relevant_dimensions":["pattern","legs"],"bee_group":{"antennae":"X","wings":"X","pattern":"S","legs":"F"},"bonus":1.300000000000001},{"rt":741.5999999996275,"stimulus":"bees-with-color/bee-A2DF.svg","response":1,"trial_type":"image-button-response","trial_index":85,"time_elapsed":421138,"internal_node_id":"0.0-4.0-0.39","subject_id":"6151f84aca0c007d8baa2750","study_id":"60edd13110225f80f9f3709b","session_id":"6196c704b00955735903f1b4","condition":"contingent","relevant_dimensions":["pattern","legs"],"bee_group":{"antennae":"X","wings":"X","pattern":"S","legs":"F"},"action":"avoid","summary":"bad-avoid","bonus":1.300000000000001},{"rt":374.19999999925494,"stimulus":"\n                    <p><b>Action: <em>avoid</em></b></p>\n                    <p>This is the bee that you just saw.</p>\n                    <img src=\"bees-with-color/bee-A2DF.svg\" width=\"200\">\n                    <p><br>Your bonus pay is unchanged, and remains at $0.74.</p>\n            ","response":0,"trial_type":"html-button-response","trial_index":86,"time_elapsed":421513,"internal_node_id":"0.0-4.0-1.39","subject_id":"6151f84aca0c007d8baa2750","study_id":"60edd13110225f80f9f3709b","session_id":"6196c704b00955735903f1b4","condition":"contingent","relevant_dimensions":["pattern","legs"],"bee_group":{"antennae":"X","wings":"X","pattern":"S","legs":"F"},"bonus":1.300000000000001},{"rt":689.5,"stimulus":"bees-with-color/bee-A1DF.svg","response":1,"trial_type":"image-button-response","trial_index":87,"time_elapsed":422204,"internal_node_id":"0.0-4.0-0.40","subject_id":"6151f84aca0c007d8baa2750","study_id":"60edd13110225f80f9f3709b","session_id":"6196c704b00955735903f1b4","condition":"contingent","relevant_dimensions":["pattern","legs"],"bee_group":{"antennae":"X","wings":"X","pattern":"S","legs":"F"},"action":"avoid","summary":"bad-avoid","bonus":1.300000000000001},{"rt":373.90000000037253,"stimulus":"\n                    <p><b>Action: <em>avoid</em></b></p>\n                    <p>This is the bee that you just saw.</p>\n                    <img src=\"bees-with-color/bee-A1DF.svg\" width=\"200\">\n                    <p><br>Your bonus pay is unchanged, and remains at $0.74.</p>\n            ","response":0,"trial_type":"html-button-response","trial_index":88,"time_elapsed":422578,"internal_node_id":"0.0-4.0-1.40","subject_id":"6151f84aca0c007d8baa2750","study_id":"60edd13110225f80f9f3709b","session_id":"6196c704b00955735903f1b4","condition":"contingent","relevant_dimensions":["pattern","legs"],"bee_group":{"antennae":"X","wings":"X","pattern":"S","legs":"F"},"bonus":1.300000000000001},{"rt":703.9000000003725,"stimulus":"bees-with-color/bee-B1SM.svg","response":0,"trial_type":"image-button-response","trial_index":89,"time_elapsed":423283,"internal_node_id":"0.0-4.0-0.41","subject_id":"6151f84aca0c007d8baa2750","study_id":"60edd13110225f80f9f3709b","session_id":"6196c704b00955735903f1b4","condition":"contingent","relevant_dimensions":["pattern","legs"],"bee_group":{"antennae":"X","wings":"X","pattern":"S","legs":"F"},"action":"harvest","summary":"good-harvest","bonus":1.300000000000001},{"rt":366.40000000037253,"stimulus":"\n                    <p><b>Action: <em>harvest</em></b></p>\n                    <p>This is the bee that you just saw.</p>\n                    <img src=\"bees-with-color/bee-B1SM.svg\" width=\"200\">\n                    <p><span class=\"greenText\"><b>Successful harvest!</b></span><br>Your pay has increased by $0.02. Your bonus pay is now $0.76.</p>\n            ","response":0,"trial_type":"html-button-response","trial_index":90,"time_elapsed":423650,"internal_node_id":"0.0-4.0-1.41","subject_id":"6151f84aca0c007d8baa2750","study_id":"60edd13110225f80f9f3709b","session_id":"6196c704b00955735903f1b4","condition":"contingent","relevant_dimensions":["pattern","legs"],"bee_group":{"antennae":"X","wings":"X","pattern":"S","legs":"F"},"bonus":1.300000000000001},{"rt":734.7000000011176,"stimulus":"bees-with-color/bee-B2SF.svg","response":1,"trial_type":"image-button-response","trial_index":91,"time_elapsed":424386,"internal_node_id":"0.0-4.0-0.42","subject_id":"6151f84aca0c007d8baa2750","study_id":"60edd13110225f80f9f3709b","session_id":"6196c704b00955735903f1b4","condition":"contingent","relevant_dimensions":["pattern","legs"],"bee_group":{"antennae":"X","wings":"X","pattern":"S","legs":"F"},"action":"avoid","summary":"good-avoid","bonus":1.300000000000001},{"rt":359,"stimulus":"\n                    <p><b>Action: <em>avoid</em></b></p>\n                    <p>This is the bee that you just saw.</p>\n                    <img src=\"bees-with-color/bee-B2SF.svg\" width=\"200\">\n                    <p><br>Your bonus pay is unchanged, and remains at $0.76.</p>\n            ","response":0,"trial_type":"html-button-response","trial_index":92,"time_elapsed":424746,"internal_node_id":"0.0-4.0-1.42","subject_id":"6151f84aca0c007d8baa2750","study_id":"60edd13110225f80f9f3709b","session_id":"6196c704b00955735903f1b4","condition":"contingent","relevant_dimensions":["pattern","legs"],"bee_group":{"antennae":"X","wings":"X","pattern":"S","legs":"F"},"bonus":1.300000000000001},{"rt":786.8000000007451,"stimulus":"bees-with-color/bee-A1SM.svg","response":0,"trial_type":"image-button-response","trial_index":93,"time_elapsed":425533,"internal_node_id":"0.0-4.0-0.43","subject_id":"6151f84aca0c007d8baa2750","study_id":"60edd13110225f80f9f3709b","session_id":"6196c704b00955735903f1b4","condition":"contingent","relevant_dimensions":["pattern","legs"],"bee_group":{"antennae":"X","wings":"X","pattern":"S","legs":"F"},"action":"harvest","summary":"good-harvest","bonus":1.300000000000001},{"rt":359.09999999962747,"stimulus":"\n                    <p><b>Action: <em>harvest</em></b></p>\n                    <p>This is the bee that you just saw.</p>\n                    <img src=\"bees-with-color/bee-A1SM.svg\" width=\"200\">\n                    <p><span class=\"greenText\"><b>Successful harvest!</b></span><br>Your pay has increased by $0.02. Your bonus pay is now $0.78.</p>\n            ","response":0,"trial_type":"html-button-response","trial_index":94,"time_elapsed":425893,"internal_node_id":"0.0-4.0-1.43","subject_id":"6151f84aca0c007d8baa2750","study_id":"60edd13110225f80f9f3709b","session_id":"6196c704b00955735903f1b4","condition":"contingent","relevant_dimensions":["pattern","legs"],"bee_group":{"antennae":"X","wings":"X","pattern":"S","legs":"F"},"bonus":1.300000000000001},{"rt":666.7999999988824,"stimulus":"bees-with-color/bee-B1SF.svg","response":1,"trial_type":"image-button-response","trial_index":95,"time_elapsed":426561,"internal_node_id":"0.0-4.0-0.44","subject_id":"6151f84aca0c007d8baa2750","study_id":"60edd13110225f80f9f3709b","session_id":"6196c704b00955735903f1b4","condition":"contingent","relevant_dimensions":["pattern","legs"],"bee_group":{"antennae":"X","wings":"X","pattern":"S","legs":"F"},"action":"avoid","summary":"good-avoid","bonus":1.300000000000001},{"rt":381.69999999925494,"stimulus":"\n                    <p><b>Action: <em>avoid</em></b></p>\n                    <p>This is the bee that you just saw.</p>\n                    <img src=\"bees-with-color/bee-B1SF.svg\" width=\"200\">\n                    <p><br>Your bonus pay is unchanged, and remains at $0.78.</p>\n            ","response":0,"trial_type":"html-button-response","trial_index":96,"time_elapsed":426943,"internal_node_id":"0.0-4.0-1.44","subject_id":"6151f84aca0c007d8baa2750","study_id":"60edd13110225f80f9f3709b","session_id":"6196c704b00955735903f1b4","condition":"contingent","relevant_dimensions":["pattern","legs"],"bee_group":{"antennae":"X","wings":"X","pattern":"S","legs":"F"},"bonus":1.300000000000001},{"rt":659.4000000003725,"stimulus":"bees-with-color/bee-B1DM.svg","response":0,"trial_type":"image-button-response","trial_index":97,"time_elapsed":427603,"internal_node_id":"0.0-4.0-0.45","subject_id":"6151f84aca0c007d8baa2750","study_id":"60edd13110225f80f9f3709b","session_id":"6196c704b00955735903f1b4","condition":"contingent","relevant_dimensions":["pattern","legs"],"bee_group":{"antennae":"X","wings":"X","pattern":"S","legs":"F"},"action":"harvest","summary":"good-harvest","bonus":1.300000000000001},{"rt":756.6999999992549,"stimulus":"\n                    <p><b>Action: <em>harvest</em></b></p>\n                    <p>This is the bee that you just saw.</p>\n                    <img src=\"bees-with-color/bee-B1DM.svg\" width=\"200\">\n                    <p><span class=\"greenText\"><b>Successful harvest!</b></span><br>Your pay has increased by $0.02. Your bonus pay is now $0.80.</p>\n            ","response":0,"trial_type":"html-button-response","trial_index":98,"time_elapsed":428361,"internal_node_id":"0.0-4.0-1.45","subject_id":"6151f84aca0c007d8baa2750","study_id":"60edd13110225f80f9f3709b","session_id":"6196c704b00955735903f1b4","condition":"contingent","relevant_dimensions":["pattern","legs"],"bee_group":{"antennae":"X","wings":"X","pattern":"S","legs":"F"},"bonus":1.300000000000001},{"rt":704.2999999988824,"stimulus":"bees-with-color/bee-B2DM.svg","response":0,"trial_type":"image-button-response","trial_index":99,"time_elapsed":429066,"internal_node_id":"0.0-4.0-0.46","subject_id":"6151f84aca0c007d8baa2750","study_id":"60edd13110225f80f9f3709b","session_id":"6196c704b00955735903f1b4","condition":"contingent","relevant_dimensions":["pattern","legs"],"bee_group":{"antennae":"X","wings":"X","pattern":"S","legs":"F"},"action":"harvest","summary":"good-harvest","bonus":1.300000000000001},{"rt":351.7000000011176,"stimulus":"\n                    <p><b>Action: <em>harvest</em></b></p>\n                    <p>This is the bee that you just saw.</p>\n                    <img src=\"bees-with-color/bee-B2DM.svg\" width=\"200\">\n                    <p><span class=\"greenText\"><b>Successful harvest!</b></span><br>Your pay has increased by $0.02. Your bonus pay is now $0.82.</p>\n            ","response":0,"trial_type":"html-button-response","trial_index":100,"time_elapsed":429418,"internal_node_id":"0.0-4.0-1.46","subject_id":"6151f84aca0c007d8baa2750","study_id":"60edd13110225f80f9f3709b","session_id":"6196c704b00955735903f1b4","condition":"contingent","relevant_dimensions":["pattern","legs"],"bee_group":{"antennae":"X","wings":"X","pattern":"S","legs":"F"},"bonus":1.300000000000001},{"rt":742.0999999996275,"stimulus":"bees-with-color/bee-B1DF.svg","response":1,"trial_type":"image-button-response","trial_index":101,"time_elapsed":430161,"internal_node_id":"0.0-4.0-0.47","subject_id":"6151f84aca0c007d8baa2750","study_id":"60edd13110225f80f9f3709b","session_id":"6196c704b00955735903f1b4","condition":"contingent","relevant_dimensions":["pattern","legs"],"bee_group":{"antennae":"X","wings":"X","pattern":"S","legs":"F"},"action":"avoid","summary":"bad-avoid","bonus":1.300000000000001},{"rt":367.59999999962747,"stimulus":"\n                    <p><b>Action: <em>avoid</em></b></p>\n                    <p>This is the bee that you just saw.</p>\n                    <img src=\"bees-with-color/bee-B1DF.svg\" width=\"200\">\n                    <p><br>Your bonus pay is unchanged, and remains at $0.82.</p>\n            ","response":0,"trial_type":"html-button-response","trial_index":102,"time_elapsed":430529,"internal_node_id":"0.0-4.0-1.47","subject_id":"6151f84aca0c007d8baa2750","study_id":"60edd13110225f80f9f3709b","session_id":"6196c704b00955735903f1b4","condition":"contingent","relevant_dimensions":["pattern","legs"],"bee_group":{"antennae":"X","wings":"X","pattern":"S","legs":"F"},"bonus":1.300000000000001},{"rt":785.9000000003725,"stimulus":"bees-with-color/bee-B1SM.svg","response":0,"trial_type":"image-button-response","trial_index":103,"time_elapsed":431316,"internal_node_id":"0.0-4.0-0.48","subject_id":"6151f84aca0c007d8baa2750","study_id":"60edd13110225f80f9f3709b","session_id":"6196c704b00955735903f1b4","condition":"contingent","relevant_dimensions":["pattern","legs"],"bee_group":{"antennae":"X","wings":"X","pattern":"S","legs":"F"},"action":"harvest","summary":"good-harvest","bonus":1.300000000000001},{"rt":465.5,"stimulus":"\n                    <p><b>Action: <em>harvest</em></b></p>\n                    <p>This is the bee that you just saw.</p>\n                    <img src=\"bees-with-color/bee-B1SM.svg\" width=\"200\">\n                    <p><span class=\"greenText\"><b>Successful harvest!</b></span><br>Your pay has increased by $0.02. Your bonus pay is now $0.84.</p>\n            ","response":0,"trial_type":"html-button-response","trial_index":104,"time_elapsed":431782,"internal_node_id":"0.0-4.0-1.48","subject_id":"6151f84aca0c007d8baa2750","study_id":"60edd13110225f80f9f3709b","session_id":"6196c704b00955735903f1b4","condition":"contingent","relevant_dimensions":["pattern","legs"],"bee_group":{"antennae":"X","wings":"X","pattern":"S","legs":"F"},"bonus":1.300000000000001},{"rt":724.2999999988824,"stimulus":"bees-with-color/bee-B1DF.svg","response":1,"trial_type":"image-button-response","trial_index":105,"time_elapsed":432508,"internal_node_id":"0.0-4.0-0.49","subject_id":"6151f84aca0c007d8baa2750","study_id":"60edd13110225f80f9f3709b","session_id":"6196c704b00955735903f1b4","condition":"contingent","relevant_dimensions":["pattern","legs"],"bee_group":{"antennae":"X","wings":"X","pattern":"S","legs":"F"},"action":"avoid","summary":"bad-avoid","bonus":1.300000000000001},{"rt":419.90000000037253,"stimulus":"\n                    <p><b>Action: <em>avoid</em></b></p>\n                    <p>This is the bee that you just saw.</p>\n                    <img src=\"bees-with-color/bee-B1DF.svg\" width=\"200\">\n                    <p><br>Your bonus pay is unchanged, and remains at $0.84.</p>\n            ","response":0,"trial_type":"html-button-response","trial_index":106,"time_elapsed":432928,"internal_node_id":"0.0-4.0-1.49","subject_id":"6151f84aca0c007d8baa2750","study_id":"60edd13110225f80f9f3709b","session_id":"6196c704b00955735903f1b4","condition":"contingent","relevant_dimensions":["pattern","legs"],"bee_group":{"antennae":"X","wings":"X","pattern":"S","legs":"F"},"bonus":1.300000000000001},{"rt":636.9000000003725,"stimulus":"bees-with-color/bee-A2SM.svg","response":0,"trial_type":"image-button-response","trial_index":107,"time_elapsed":433566,"internal_node_id":"0.0-4.0-0.50","subject_id":"6151f84aca0c007d8baa2750","study_id":"60edd13110225f80f9f3709b","session_id":"6196c704b00955735903f1b4","condition":"contingent","relevant_dimensions":["pattern","legs"],"bee_group":{"antennae":"X","wings":"X","pattern":"S","legs":"F"},"action":"harvest","summary":"good-harvest","bonus":1.300000000000001},{"rt":396.2000000011176,"stimulus":"\n                    <p><b>Action: <em>harvest</em></b></p>\n                    <p>This is the bee that you just saw.</p>\n                    <img src=\"bees-with-color/bee-A2SM.svg\" width=\"200\">\n                    <p><span class=\"greenText\"><b>Successful harvest!</b></span><br>Your pay has increased by $0.02. Your bonus pay is now $0.86.</p>\n            ","response":0,"trial_type":"html-button-response","trial_index":108,"time_elapsed":433963,"internal_node_id":"0.0-4.0-1.50","subject_id":"6151f84aca0c007d8baa2750","study_id":"60edd13110225f80f9f3709b","session_id":"6196c704b00955735903f1b4","condition":"contingent","relevant_dimensions":["pattern","legs"],"bee_group":{"antennae":"X","wings":"X","pattern":"S","legs":"F"},"bonus":1.300000000000001},{"rt":697,"stimulus":"bees-with-color/bee-B2DM.svg","response":0,"trial_type":"image-button-response","trial_index":109,"time_elapsed":434661,"internal_node_id":"0.0-4.0-0.51","subject_id":"6151f84aca0c007d8baa2750","study_id":"60edd13110225f80f9f3709b","session_id":"6196c704b00955735903f1b4","condition":"contingent","relevant_dimensions":["pattern","legs"],"bee_group":{"antennae":"X","wings":"X","pattern":"S","legs":"F"},"action":"harvest","summary":"good-harvest","bonus":1.300000000000001},{"rt":366.80000000074506,"stimulus":"\n                    <p><b>Action: <em>harvest</em></b></p>\n                    <p>This is the bee that you just saw.</p>\n                    <img src=\"bees-with-color/bee-B2DM.svg\" width=\"200\">\n                    <p><span class=\"greenText\"><b>Successful harvest!</b></span><br>Your pay has increased by $0.02. Your bonus pay is now $0.88.</p>\n            ","response":0,"trial_type":"html-button-response","trial_index":110,"time_elapsed":435028,"internal_node_id":"0.0-4.0-1.51","subject_id":"6151f84aca0c007d8baa2750","study_id":"60edd13110225f80f9f3709b","session_id":"6196c704b00955735903f1b4","condition":"contingent","relevant_dimensions":["pattern","legs"],"bee_group":{"antennae":"X","wings":"X","pattern":"S","legs":"F"},"bonus":1.300000000000001},{"rt":681.4000000003725,"stimulus":"bees-with-color/bee-B2SM.svg","response":0,"trial_type":"image-button-response","trial_index":111,"time_elapsed":435710,"internal_node_id":"0.0-4.0-0.52","subject_id":"6151f84aca0c007d8baa2750","study_id":"60edd13110225f80f9f3709b","session_id":"6196c704b00955735903f1b4","condition":"contingent","relevant_dimensions":["pattern","legs"],"bee_group":{"antennae":"X","wings":"X","pattern":"S","legs":"F"},"action":"harvest","summary":"good-harvest","bonus":1.300000000000001},{"rt":359.7999999988824,"stimulus":"\n                    <p><b>Action: <em>harvest</em></b></p>\n                    <p>This is the bee that you just saw.</p>\n                    <img src=\"bees-with-color/bee-B2SM.svg\" width=\"200\">\n                    <p><span class=\"greenText\"><b>Successful harvest!</b></span><br>Your pay has increased by $0.02. Your bonus pay is now $0.90.</p>\n            ","response":0,"trial_type":"html-button-response","trial_index":112,"time_elapsed":436071,"internal_node_id":"0.0-4.0-1.52","subject_id":"6151f84aca0c007d8baa2750","study_id":"60edd13110225f80f9f3709b","session_id":"6196c704b00955735903f1b4","condition":"contingent","relevant_dimensions":["pattern","legs"],"bee_group":{"antennae":"X","wings":"X","pattern":"S","legs":"F"},"bonus":1.300000000000001},{"rt":696.1999999992549,"stimulus":"bees-with-color/bee-A2DF.svg","response":1,"trial_type":"image-button-response","trial_index":113,"time_elapsed":436768,"internal_node_id":"0.0-4.0-0.53","subject_id":"6151f84aca0c007d8baa2750","study_id":"60edd13110225f80f9f3709b","session_id":"6196c704b00955735903f1b4","condition":"contingent","relevant_dimensions":["pattern","legs"],"bee_group":{"antennae":"X","wings":"X","pattern":"S","legs":"F"},"action":"avoid","summary":"bad-avoid","bonus":1.300000000000001},{"rt":381.30000000074506,"stimulus":"\n                    <p><b>Action: <em>avoid</em></b></p>\n                    <p>This is the bee that you just saw.</p>\n                    <img src=\"bees-with-color/bee-A2DF.svg\" width=\"200\">\n                    <p><br>Your bonus pay is unchanged, and remains at $0.90.</p>\n            ","response":0,"trial_type":"html-button-response","trial_index":114,"time_elapsed":437150,"internal_node_id":"0.0-4.0-1.53","subject_id":"6151f84aca0c007d8baa2750","study_id":"60edd13110225f80f9f3709b","session_id":"6196c704b00955735903f1b4","condition":"contingent","relevant_dimensions":["pattern","legs"],"bee_group":{"antennae":"X","wings":"X","pattern":"S","legs":"F"},"bonus":1.300000000000001},{"rt":1470.300000000745,"stimulus":"bees-with-color/bee-A1SF.svg","response":1,"trial_type":"image-button-response","trial_index":115,"time_elapsed":438622,"internal_node_id":"0.0-4.0-0.54","subject_id":"6151f84aca0c007d8baa2750","study_id":"60edd13110225f80f9f3709b","session_id":"6196c704b00955735903f1b4","condition":"contingent","relevant_dimensions":["pattern","legs"],"bee_group":{"antennae":"X","wings":"X","pattern":"S","legs":"F"},"action":"avoid","summary":"good-avoid","bonus":1.300000000000001},{"rt":350.80000000074506,"stimulus":"\n                    <p><b>Action: <em>avoid</em></b></p>\n                    <p>This is the bee that you just saw.</p>\n                    <img src=\"bees-with-color/bee-A1SF.svg\" width=\"200\">\n                    <p><br>Your bonus pay is unchanged, and remains at $0.90.</p>\n            ","response":0,"trial_type":"html-button-response","trial_index":116,"time_elapsed":438973,"internal_node_id":"0.0-4.0-1.54","subject_id":"6151f84aca0c007d8baa2750","study_id":"60edd13110225f80f9f3709b","session_id":"6196c704b00955735903f1b4","condition":"contingent","relevant_dimensions":["pattern","legs"],"bee_group":{"antennae":"X","wings":"X","pattern":"S","legs":"F"},"bonus":1.300000000000001},{"rt":591.9000000003725,"stimulus":"bees-with-color/bee-B2SF.svg","response":1,"trial_type":"image-button-response","trial_index":117,"time_elapsed":439566,"internal_node_id":"0.0-4.0-0.55","subject_id":"6151f84aca0c007d8baa2750","study_id":"60edd13110225f80f9f3709b","session_id":"6196c704b00955735903f1b4","condition":"contingent","relevant_dimensions":["pattern","legs"],"bee_group":{"antennae":"X","wings":"X","pattern":"S","legs":"F"},"action":"avoid","summary":"good-avoid","bonus":1.300000000000001},{"rt":344.5,"stimulus":"\n                    <p><b>Action: <em>avoid</em></b></p>\n                    <p>This is the bee that you just saw.</p>\n                    <img src=\"bees-with-color/bee-B2SF.svg\" width=\"200\">\n                    <p><br>Your bonus pay is unchanged, and remains at $0.90.</p>\n            ","response":0,"trial_type":"html-button-response","trial_index":118,"time_elapsed":439911,"internal_node_id":"0.0-4.0-1.55","subject_id":"6151f84aca0c007d8baa2750","study_id":"60edd13110225f80f9f3709b","session_id":"6196c704b00955735903f1b4","condition":"contingent","relevant_dimensions":["pattern","legs"],"bee_group":{"antennae":"X","wings":"X","pattern":"S","legs":"F"},"bonus":1.300000000000001},{"rt":583.8000000007451,"stimulus":"bees-with-color/bee-A2SF.svg","response":1,"trial_type":"image-button-response","trial_index":119,"time_elapsed":440496,"internal_node_id":"0.0-4.0-0.56","subject_id":"6151f84aca0c007d8baa2750","study_id":"60edd13110225f80f9f3709b","session_id":"6196c704b00955735903f1b4","condition":"contingent","relevant_dimensions":["pattern","legs"],"bee_group":{"antennae":"X","wings":"X","pattern":"S","legs":"F"},"action":"avoid","summary":"good-avoid","bonus":1.300000000000001},{"rt":441.6000000014901,"stimulus":"\n                    <p><b>Action: <em>avoid</em></b></p>\n                    <p>This is the bee that you just saw.</p>\n                    <img src=\"bees-with-color/bee-A2SF.svg\" width=\"200\">\n                    <p><br>Your bonus pay is unchanged, and remains at $0.90.</p>\n            ","response":0,"trial_type":"html-button-response","trial_index":120,"time_elapsed":440938,"internal_node_id":"0.0-4.0-1.56","subject_id":"6151f84aca0c007d8baa2750","study_id":"60edd13110225f80f9f3709b","session_id":"6196c704b00955735903f1b4","condition":"contingent","relevant_dimensions":["pattern","legs"],"bee_group":{"antennae":"X","wings":"X","pattern":"S","legs":"F"},"bonus":1.300000000000001},{"rt":554.0999999996275,"stimulus":"bees-with-color/bee-B2DF.svg","response":1,"trial_type":"image-button-response","trial_index":121,"time_elapsed":441493,"internal_node_id":"0.0-4.0-0.57","subject_id":"6151f84aca0c007d8baa2750","study_id":"60edd13110225f80f9f3709b","session_id":"6196c704b00955735903f1b4","condition":"contingent","relevant_dimensions":["pattern","legs"],"bee_group":{"antennae":"X","wings":"X","pattern":"S","legs":"F"},"action":"avoid","summary":"bad-avoid","bonus":1.300000000000001},{"rt":434.1000000014901,"stimulus":"\n                    <p><b>Action: <em>avoid</em></b></p>\n                    <p>This is the bee that you just saw.</p>\n                    <img src=\"bees-with-color/bee-B2DF.svg\" width=\"200\">\n                    <p><br>Your bonus pay is unchanged, and remains at $0.90.</p>\n            ","response":0,"trial_type":"html-button-response","trial_index":122,"time_elapsed":441928,"internal_node_id":"0.0-4.0-1.57","subject_id":"6151f84aca0c007d8baa2750","study_id":"60edd13110225f80f9f3709b","session_id":"6196c704b00955735903f1b4","condition":"contingent","relevant_dimensions":["pattern","legs"],"bee_group":{"antennae":"X","wings":"X","pattern":"S","legs":"F"},"bonus":1.300000000000001},{"rt":598.8000000007451,"stimulus":"bees-with-color/bee-B1SF.svg","response":1,"trial_type":"image-button-response","trial_index":123,"time_elapsed":442528,"internal_node_id":"0.0-4.0-0.58","subject_id":"6151f84aca0c007d8baa2750","study_id":"60edd13110225f80f9f3709b","session_id":"6196c704b00955735903f1b4","condition":"contingent","relevant_dimensions":["pattern","legs"],"bee_group":{"antennae":"X","wings":"X","pattern":"S","legs":"F"},"action":"avoid","summary":"good-avoid","bonus":1.300000000000001},{"rt":396.7999999988824,"stimulus":"\n                    <p><b>Action: <em>avoid</em></b></p>\n                    <p>This is the bee that you just saw.</p>\n                    <img src=\"bees-with-color/bee-B1SF.svg\" width=\"200\">\n                    <p><br>Your bonus pay is unchanged, and remains at $0.90.</p>\n            ","response":0,"trial_type":"html-button-response","trial_index":124,"time_elapsed":442926,"internal_node_id":"0.0-4.0-1.58","subject_id":"6151f84aca0c007d8baa2750","study_id":"60edd13110225f80f9f3709b","session_id":"6196c704b00955735903f1b4","condition":"contingent","relevant_dimensions":["pattern","legs"],"bee_group":{"antennae":"X","wings":"X","pattern":"S","legs":"F"},"bonus":1.300000000000001},{"rt":629.3000000007451,"stimulus":"bees-with-color/bee-A1DF.svg","response":1,"trial_type":"image-button-response","trial_index":125,"time_elapsed":443556,"internal_node_id":"0.0-4.0-0.59","subject_id":"6151f84aca0c007d8baa2750","study_id":"60edd13110225f80f9f3709b","session_id":"6196c704b00955735903f1b4","condition":"contingent","relevant_dimensions":["pattern","legs"],"bee_group":{"antennae":"X","wings":"X","pattern":"S","legs":"F"},"action":"avoid","summary":"bad-avoid","bonus":1.300000000000001},{"rt":388.80000000074506,"stimulus":"\n                    <p><b>Action: <em>avoid</em></b></p>\n                    <p>This is the bee that you just saw.</p>\n                    <img src=\"bees-with-color/bee-A1DF.svg\" width=\"200\">\n                    <p><br>Your bonus pay is unchanged, and remains at $0.90.</p>\n            ","response":0,"trial_type":"html-button-response","trial_index":126,"time_elapsed":443945,"internal_node_id":"0.0-4.0-1.59","subject_id":"6151f84aca0c007d8baa2750","study_id":"60edd13110225f80f9f3709b","session_id":"6196c704b00955735903f1b4","condition":"contingent","relevant_dimensions":["pattern","legs"],"bee_group":{"antennae":"X","wings":"X","pattern":"S","legs":"F"},"bonus":1.300000000000001},{"rt":846.7999999988824,"stimulus":"bees-with-color/bee-A2DM.svg","response":0,"trial_type":"image-button-response","trial_index":127,"time_elapsed":444793,"internal_node_id":"0.0-4.0-0.60","subject_id":"6151f84aca0c007d8baa2750","study_id":"60edd13110225f80f9f3709b","session_id":"6196c704b00955735903f1b4","condition":"contingent","relevant_dimensions":["pattern","legs"],"bee_group":{"antennae":"X","wings":"X","pattern":"S","legs":"F"},"action":"harvest","summary":"good-harvest","bonus":1.300000000000001},{"rt":434.2000000011176,"stimulus":"\n                    <p><b>Action: <em>harvest</em></b></p>\n                    <p>This is the bee that you just saw.</p>\n                    <img src=\"bees-with-color/bee-A2DM.svg\" width=\"200\">\n                    <p><span class=\"greenText\"><b>Successful harvest!</b></span><br>Your pay has increased by $0.02. Your bonus pay is now $0.92.</p>\n            ","response":0,"trial_type":"html-button-response","trial_index":128,"time_elapsed":445228,"internal_node_id":"0.0-4.0-1.60","subject_id":"6151f84aca0c007d8baa2750","study_id":"60edd13110225f80f9f3709b","session_id":"6196c704b00955735903f1b4","condition":"contingent","relevant_dimensions":["pattern","legs"],"bee_group":{"antennae":"X","wings":"X","pattern":"S","legs":"F"},"bonus":1.300000000000001},{"rt":606.5999999996275,"stimulus":"bees-with-color/bee-A1DM.svg","response":0,"trial_type":"image-button-response","trial_index":129,"time_elapsed":445836,"internal_node_id":"0.0-4.0-0.61","subject_id":"6151f84aca0c007d8baa2750","study_id":"60edd13110225f80f9f3709b","session_id":"6196c704b00955735903f1b4","condition":"contingent","relevant_dimensions":["pattern","legs"],"bee_group":{"antennae":"X","wings":"X","pattern":"S","legs":"F"},"action":"harvest","summary":"good-harvest","bonus":1.300000000000001},{"rt":426.80000000074506,"stimulus":"\n                    <p><b>Action: <em>harvest</em></b></p>\n                    <p>This is the bee that you just saw.</p>\n                    <img src=\"bees-with-color/bee-A1DM.svg\" width=\"200\">\n                    <p><span class=\"greenText\"><b>Successful harvest!</b></span><br>Your pay has increased by $0.02. Your bonus pay is now $0.94.</p>\n            ","response":0,"trial_type":"html-button-response","trial_index":130,"time_elapsed":446264,"internal_node_id":"0.0-4.0-1.61","subject_id":"6151f84aca0c007d8baa2750","study_id":"60edd13110225f80f9f3709b","session_id":"6196c704b00955735903f1b4","condition":"contingent","relevant_dimensions":["pattern","legs"],"bee_group":{"antennae":"X","wings":"X","pattern":"S","legs":"F"},"bonus":1.300000000000001},{"rt":838.8000000007451,"stimulus":"bees-with-color/bee-B1DM.svg","response":0,"trial_type":"image-button-response","trial_index":131,"time_elapsed":447103,"internal_node_id":"0.0-4.0-0.62","subject_id":"6151f84aca0c007d8baa2750","study_id":"60edd13110225f80f9f3709b","session_id":"6196c704b00955735903f1b4","condition":"contingent","relevant_dimensions":["pattern","legs"],"bee_group":{"antennae":"X","wings":"X","pattern":"S","legs":"F"},"action":"harvest","summary":"good-harvest","bonus":1.300000000000001},{"rt":426.59999999962747,"stimulus":"\n                    <p><b>Action: <em>harvest</em></b></p>\n                    <p>This is the bee that you just saw.</p>\n                    <img src=\"bees-with-color/bee-B1DM.svg\" width=\"200\">\n                    <p><span class=\"greenText\"><b>Successful harvest!</b></span><br>Your pay has increased by $0.02. Your bonus pay is now $0.96.</p>\n            ","response":0,"trial_type":"html-button-response","trial_index":132,"time_elapsed":447531,"internal_node_id":"0.0-4.0-1.62","subject_id":"6151f84aca0c007d8baa2750","study_id":"60edd13110225f80f9f3709b","session_id":"6196c704b00955735903f1b4","condition":"contingent","relevant_dimensions":["pattern","legs"],"bee_group":{"antennae":"X","wings":"X","pattern":"S","legs":"F"},"bonus":1.300000000000001},{"rt":681.6000000014901,"stimulus":"bees-with-color/bee-A1SM.svg","response":0,"trial_type":"image-button-response","trial_index":133,"time_elapsed":448213,"internal_node_id":"0.0-4.0-0.63","subject_id":"6151f84aca0c007d8baa2750","study_id":"60edd13110225f80f9f3709b","session_id":"6196c704b00955735903f1b4","condition":"contingent","relevant_dimensions":["pattern","legs"],"bee_group":{"antennae":"X","wings":"X","pattern":"S","legs":"F"},"action":"harvest","summary":"good-harvest","bonus":1.300000000000001},{"rt":381.80000000074506,"stimulus":"\n                    <p><b>Action: <em>harvest</em></b></p>\n                    <p>This is the bee that you just saw.</p>\n                    <img src=\"bees-with-color/bee-A1SM.svg\" width=\"200\">\n                    <p><span class=\"greenText\"><b>Successful harvest!</b></span><br>Your pay has increased by $0.02. Your bonus pay is now $0.98.</p>\n            ","response":0,"trial_type":"html-button-response","trial_index":134,"time_elapsed":448596,"internal_node_id":"0.0-4.0-1.63","subject_id":"6151f84aca0c007d8baa2750","study_id":"60edd13110225f80f9f3709b","session_id":"6196c704b00955735903f1b4","condition":"contingent","relevant_dimensions":["pattern","legs"],"bee_group":{"antennae":"X","wings":"X","pattern":"S","legs":"F"},"bonus":1.300000000000001},{"rt":6489.4000000003725,"stimulus":"You have completed the first part of this experiment.<br><br>You will now begin a shorter second part, in which you will receive no feedback.<br>The same rules regarding bonus pay apply.<br><br>Press any key to begin.","response":"h","trial_type":"html-keyboard-response","trial_index":135,"time_elapsed":455086,"internal_node_id":"0.0-5.0","subject_id":"6151f84aca0c007d8baa2750","study_id":"60edd13110225f80f9f3709b","session_id":"6196c704b00955735903f1b4","condition":"contingent","relevant_dimensions":["pattern","legs"],"bee_group":{"antennae":"X","wings":"X","pattern":"S","legs":"F"},"bonus":1.300000000000001},{"rt":4341.5999999996275,"stimulus":"bees-with-color/bee-B1DM.svg","response":0,"trial_type":"image-button-response","trial_index":136,"time_elapsed":459433,"internal_node_id":"0.0-6.0-0.0","subject_id":"6151f84aca0c007d8baa2750","study_id":"60edd13110225f80f9f3709b","session_id":"6196c704b00955735903f1b4","condition":"contingent","relevant_dimensions":["pattern","legs"],"bee_group":{"antennae":"X","wings":"X","pattern":"S","legs":"F"},"bonus":1.300000000000001},{"rt":5976,"stimulus":"bees-with-color/bee-B1SM.svg","response":0,"trial_type":"image-button-response","trial_index":137,"time_elapsed":465411,"internal_node_id":"0.0-6.0-0.1","subject_id":"6151f84aca0c007d8baa2750","study_id":"60edd13110225f80f9f3709b","session_id":"6196c704b00955735903f1b4","condition":"contingent","relevant_dimensions":["pattern","legs"],"bee_group":{"antennae":"X","wings":"X","pattern":"S","legs":"F"},"bonus":1.300000000000001},{"rt":980.8999999985099,"stimulus":"bees-with-color/bee-A1SM.svg","response":0,"trial_type":"image-button-response","trial_index":138,"time_elapsed":466393,"internal_node_id":"0.0-6.0-0.2","subject_id":"6151f84aca0c007d8baa2750","study_id":"60edd13110225f80f9f3709b","session_id":"6196c704b00955735903f1b4","condition":"contingent","relevant_dimensions":["pattern","legs"],"bee_group":{"antennae":"X","wings":"X","pattern":"S","legs":"F"},"bonus":1.300000000000001},{"rt":689,"stimulus":"bees-with-color/bee-B1SF.svg","response":1,"trial_type":"image-button-response","trial_index":139,"time_elapsed":467083,"internal_node_id":"0.0-6.0-0.3","subject_id":"6151f84aca0c007d8baa2750","study_id":"60edd13110225f80f9f3709b","session_id":"6196c704b00955735903f1b4","condition":"contingent","relevant_dimensions":["pattern","legs"],"bee_group":{"antennae":"X","wings":"X","pattern":"S","legs":"F"},"bonus":1.300000000000001},{"rt":681.8000000007451,"stimulus":"bees-with-color/bee-B2DM.svg","response":0,"trial_type":"image-button-response","trial_index":140,"time_elapsed":467767,"internal_node_id":"0.0-6.0-0.4","subject_id":"6151f84aca0c007d8baa2750","study_id":"60edd13110225f80f9f3709b","session_id":"6196c704b00955735903f1b4","condition":"contingent","relevant_dimensions":["pattern","legs"],"bee_group":{"antennae":"X","wings":"X","pattern":"S","legs":"F"},"bonus":1.300000000000001},{"rt":2000.2999999988824,"stimulus":"bees-with-color/bee-B2DF.svg","response":1,"trial_type":"image-button-response","trial_index":141,"time_elapsed":469768,"internal_node_id":"0.0-6.0-0.5","subject_id":"6151f84aca0c007d8baa2750","study_id":"60edd13110225f80f9f3709b","session_id":"6196c704b00955735903f1b4","condition":"contingent","relevant_dimensions":["pattern","legs"],"bee_group":{"antennae":"X","wings":"X","pattern":"S","legs":"F"},"bonus":1.300000000000001},{"rt":546.6999999992549,"stimulus":"bees-with-color/bee-B2SF.svg","response":1,"trial_type":"image-button-response","trial_index":142,"time_elapsed":470316,"internal_node_id":"0.0-6.0-0.6","subject_id":"6151f84aca0c007d8baa2750","study_id":"60edd13110225f80f9f3709b","session_id":"6196c704b00955735903f1b4","condition":"contingent","relevant_dimensions":["pattern","legs"],"bee_group":{"antennae":"X","wings":"X","pattern":"S","legs":"F"},"bonus":1.300000000000001},{"rt":786.4000000003725,"stimulus":"bees-with-color/bee-A2SM.svg","response":0,"trial_type":"image-button-response","trial_index":143,"time_elapsed":471104,"internal_node_id":"0.0-6.0-0.7","subject_id":"6151f84aca0c007d8baa2750","study_id":"60edd13110225f80f9f3709b","session_id":"6196c704b00955735903f1b4","condition":"contingent","relevant_dimensions":["pattern","legs"],"bee_group":{"antennae":"X","wings":"X","pattern":"S","legs":"F"},"bonus":1.300000000000001},{"rt":1138.3999999985099,"stimulus":"bees-with-color/bee-A1DM.svg","response":0,"trial_type":"image-button-response","trial_index":144,"time_elapsed":472243,"internal_node_id":"0.0-6.0-0.8","subject_id":"6151f84aca0c007d8baa2750","study_id":"60edd13110225f80f9f3709b","session_id":"6196c704b00955735903f1b4","condition":"contingent","relevant_dimensions":["pattern","legs"],"bee_group":{"antennae":"X","wings":"X","pattern":"S","legs":"F"},"bonus":1.300000000000001},{"rt":696.2999999988824,"stimulus":"bees-with-color/bee-A1DF.svg","response":1,"trial_type":"image-button-response","trial_index":145,"time_elapsed":472941,"internal_node_id":"0.0-6.0-0.9","subject_id":"6151f84aca0c007d8baa2750","study_id":"60edd13110225f80f9f3709b","session_id":"6196c704b00955735903f1b4","condition":"contingent","relevant_dimensions":["pattern","legs"],"bee_group":{"antennae":"X","wings":"X","pattern":"S","legs":"F"},"bonus":1.300000000000001},{"rt":681.6000000014901,"stimulus":"bees-with-color/bee-A2DF.svg","response":1,"trial_type":"image-button-response","trial_index":146,"time_elapsed":473623,"internal_node_id":"0.0-6.0-0.10","subject_id":"6151f84aca0c007d8baa2750","study_id":"60edd13110225f80f9f3709b","session_id":"6196c704b00955735903f1b4","condition":"contingent","relevant_dimensions":["pattern","legs"],"bee_group":{"antennae":"X","wings":"X","pattern":"S","legs":"F"},"bonus":1.300000000000001},{"rt":621.4000000003725,"stimulus":"bees-with-color/bee-A2DM.svg","response":0,"trial_type":"image-button-response","trial_index":147,"time_elapsed":474246,"internal_node_id":"0.0-6.0-0.11","subject_id":"6151f84aca0c007d8baa2750","study_id":"60edd13110225f80f9f3709b","session_id":"6196c704b00955735903f1b4","condition":"contingent","relevant_dimensions":["pattern","legs"],"bee_group":{"antennae":"X","wings":"X","pattern":"S","legs":"F"},"bonus":1.300000000000001},{"rt":629.4000000003725,"stimulus":"bees-with-color/bee-B2SM.svg","response":0,"trial_type":"image-button-response","trial_index":148,"time_elapsed":474876,"internal_node_id":"0.0-6.0-0.12","subject_id":"6151f84aca0c007d8baa2750","study_id":"60edd13110225f80f9f3709b","session_id":"6196c704b00955735903f1b4","condition":"contingent","relevant_dimensions":["pattern","legs"],"bee_group":{"antennae":"X","wings":"X","pattern":"S","legs":"F"},"bonus":1.300000000000001},{"rt":710.8999999985099,"stimulus":"bees-with-color/bee-A2SF.svg","response":1,"trial_type":"image-button-response","trial_index":149,"time_elapsed":475588,"internal_node_id":"0.0-6.0-0.13","subject_id":"6151f84aca0c007d8baa2750","study_id":"60edd13110225f80f9f3709b","session_id":"6196c704b00955735903f1b4","condition":"contingent","relevant_dimensions":["pattern","legs"],"bee_group":{"antennae":"X","wings":"X","pattern":"S","legs":"F"},"bonus":1.300000000000001},{"rt":1056.2999999988824,"stimulus":"bees-with-color/bee-B1DF.svg","response":1,"trial_type":"image-button-response","trial_index":150,"time_elapsed":476646,"internal_node_id":"0.0-6.0-0.14","subject_id":"6151f84aca0c007d8baa2750","study_id":"60edd13110225f80f9f3709b","session_id":"6196c704b00955735903f1b4","condition":"contingent","relevant_dimensions":["pattern","legs"],"bee_group":{"antennae":"X","wings":"X","pattern":"S","legs":"F"},"bonus":1.300000000000001},{"rt":629,"stimulus":"bees-with-color/bee-A1SF.svg","response":1,"trial_type":"image-button-response","trial_index":151,"time_elapsed":477276,"internal_node_id":"0.0-6.0-0.15","subject_id":"6151f84aca0c007d8baa2750","study_id":"60edd13110225f80f9f3709b","session_id":"6196c704b00955735903f1b4","condition":"contingent","relevant_dimensions":["pattern","legs"],"bee_group":{"antennae":"X","wings":"X","pattern":"S","legs":"F"},"bonus":1.300000000000001},{"rt":696.6000000014901,"stimulus":"bees-with-color/bee-A1SF.svg","response":1,"trial_type":"image-button-response","trial_index":152,"time_elapsed":477973,"internal_node_id":"0.0-6.0-0.16","subject_id":"6151f84aca0c007d8baa2750","study_id":"60edd13110225f80f9f3709b","session_id":"6196c704b00955735903f1b4","condition":"contingent","relevant_dimensions":["pattern","legs"],"bee_group":{"antennae":"X","wings":"X","pattern":"S","legs":"F"},"bonus":1.300000000000001},{"rt":696.5,"stimulus":"bees-with-color/bee-A2DM.svg","response":0,"trial_type":"image-button-response","trial_index":153,"time_elapsed":478671,"internal_node_id":"0.0-6.0-0.17","subject_id":"6151f84aca0c007d8baa2750","study_id":"60edd13110225f80f9f3709b","session_id":"6196c704b00955735903f1b4","condition":"contingent","relevant_dimensions":["pattern","legs"],"bee_group":{"antennae":"X","wings":"X","pattern":"S","legs":"F"},"bonus":1.300000000000001},{"rt":591.2999999988824,"stimulus":"bees-with-color/bee-A1SM.svg","response":0,"trial_type":"image-button-response","trial_index":154,"time_elapsed":479263,"internal_node_id":"0.0-6.0-0.18","subject_id":"6151f84aca0c007d8baa2750","study_id":"60edd13110225f80f9f3709b","session_id":"6196c704b00955735903f1b4","condition":"contingent","relevant_dimensions":["pattern","legs"],"bee_group":{"antennae":"X","wings":"X","pattern":"S","legs":"F"},"bonus":1.300000000000001},{"rt":681.4000000003725,"stimulus":"bees-with-color/bee-A2DF.svg","response":1,"trial_type":"image-button-response","trial_index":155,"time_elapsed":479945,"internal_node_id":"0.0-6.0-0.19","subject_id":"6151f84aca0c007d8baa2750","study_id":"60edd13110225f80f9f3709b","session_id":"6196c704b00955735903f1b4","condition":"contingent","relevant_dimensions":["pattern","legs"],"bee_group":{"antennae":"X","wings":"X","pattern":"S","legs":"F"},"bonus":1.300000000000001},{"rt":546.7999999988824,"stimulus":"bees-with-color/bee-A2SF.svg","response":1,"trial_type":"image-button-response","trial_index":156,"time_elapsed":480493,"internal_node_id":"0.0-6.0-0.20","subject_id":"6151f84aca0c007d8baa2750","study_id":"60edd13110225f80f9f3709b","session_id":"6196c704b00955735903f1b4","condition":"contingent","relevant_dimensions":["pattern","legs"],"bee_group":{"antennae":"X","wings":"X","pattern":"S","legs":"F"},"bonus":1.300000000000001},{"rt":1559.0999999996275,"stimulus":"bees-with-color/bee-B1DM.svg","response":0,"trial_type":"image-button-response","trial_index":157,"time_elapsed":482053,"internal_node_id":"0.0-6.0-0.21","subject_id":"6151f84aca0c007d8baa2750","study_id":"60edd13110225f80f9f3709b","session_id":"6196c704b00955735903f1b4","condition":"contingent","relevant_dimensions":["pattern","legs"],"bee_group":{"antennae":"X","wings":"X","pattern":"S","legs":"F"},"bonus":1.300000000000001},{"rt":696.4000000003725,"stimulus":"bees-with-color/bee-B2DF.svg","response":1,"trial_type":"image-button-response","trial_index":158,"time_elapsed":482751,"internal_node_id":"0.0-6.0-0.22","subject_id":"6151f84aca0c007d8baa2750","study_id":"60edd13110225f80f9f3709b","session_id":"6196c704b00955735903f1b4","condition":"contingent","relevant_dimensions":["pattern","legs"],"bee_group":{"antennae":"X","wings":"X","pattern":"S","legs":"F"},"bonus":1.300000000000001},{"rt":703.8000000007451,"stimulus":"bees-with-color/bee-A2SM.svg","response":0,"trial_type":"image-button-response","trial_index":159,"time_elapsed":483456,"internal_node_id":"0.0-6.0-0.23","subject_id":"6151f84aca0c007d8baa2750","study_id":"60edd13110225f80f9f3709b","session_id":"6196c704b00955735903f1b4","condition":"contingent","relevant_dimensions":["pattern","legs"],"bee_group":{"antennae":"X","wings":"X","pattern":"S","legs":"F"},"bonus":1.300000000000001},{"rt":651.9000000003725,"stimulus":"bees-with-color/bee-B2DM.svg","response":0,"trial_type":"image-button-response","trial_index":160,"time_elapsed":484109,"internal_node_id":"0.0-6.0-0.24","subject_id":"6151f84aca0c007d8baa2750","study_id":"60edd13110225f80f9f3709b","session_id":"6196c704b00955735903f1b4","condition":"contingent","relevant_dimensions":["pattern","legs"],"bee_group":{"antennae":"X","wings":"X","pattern":"S","legs":"F"},"bonus":1.300000000000001},{"rt":583.9000000003725,"stimulus":"bees-with-color/bee-B2SM.svg","response":0,"trial_type":"image-button-response","trial_index":161,"time_elapsed":484693,"internal_node_id":"0.0-6.0-0.25","subject_id":"6151f84aca0c007d8baa2750","study_id":"60edd13110225f80f9f3709b","session_id":"6196c704b00955735903f1b4","condition":"contingent","relevant_dimensions":["pattern","legs"],"bee_group":{"antennae":"X","wings":"X","pattern":"S","legs":"F"},"bonus":1.300000000000001},{"rt":636.4000000003725,"stimulus":"bees-with-color/bee-B1SM.svg","response":0,"trial_type":"image-button-response","trial_index":162,"time_elapsed":485331,"internal_node_id":"0.0-6.0-0.26","subject_id":"6151f84aca0c007d8baa2750","study_id":"60edd13110225f80f9f3709b","session_id":"6196c704b00955735903f1b4","condition":"contingent","relevant_dimensions":["pattern","legs"],"bee_group":{"antennae":"X","wings":"X","pattern":"S","legs":"F"},"bonus":1.300000000000001},{"rt":959.2000000011176,"stimulus":"bees-with-color/bee-A1DF.svg","response":1,"trial_type":"image-button-response","trial_index":163,"time_elapsed":486291,"internal_node_id":"0.0-6.0-0.27","subject_id":"6151f84aca0c007d8baa2750","study_id":"60edd13110225f80f9f3709b","session_id":"6196c704b00955735903f1b4","condition":"contingent","relevant_dimensions":["pattern","legs"],"bee_group":{"antennae":"X","wings":"X","pattern":"S","legs":"F"},"bonus":1.300000000000001},{"rt":538.8000000007451,"stimulus":"bees-with-color/bee-B1SF.svg","response":1,"trial_type":"image-button-response","trial_index":164,"time_elapsed":486831,"internal_node_id":"0.0-6.0-0.28","subject_id":"6151f84aca0c007d8baa2750","study_id":"60edd13