[{"success":true,"trial_type":"fullscreen","trial_index":0,"time_elapsed":3530,"internal_node_id":"0.0-0.0","subject_id":"5f04d99fac08ac7b22af01be","study_id":"6197b3f67c2b5cd3b6d9596a","session_id":"619be53b15b84150b5d65f18","condition":"full-information","relevant_dimensions":["antennae","pattern"],"bee_group":{"antennae":"A","wings":"X","pattern":"D","legs":"X"},"bonus":1.5800000000000014},{"success":true,"timeout":false,"failed_images":[],"failed_audio":[],"failed_video":[],"trial_type":"preload","trial_index":1,"time_elapsed":5104,"internal_node_id":"0.0-1.0","subject_id":"5f04d99fac08ac7b22af01be","study_id":"6197b3f67c2b5cd3b6d9596a","session_id":"619be53b15b84150b5d65f18","condition":"full-information","relevant_dimensions":["antennae","pattern"],"bee_group":{"antennae":"A","wings":"X","pattern":"D","legs":"X"},"bonus":1.5800000000000014},{"rt":3757.199999988079,"stimulus":"Welcome! Press any key to begin.","response":" ","trial_type":"html-keyboard-response","trial_index":2,"time_elapsed":8864,"internal_node_id":"0.0-2.0","subject_id":"5f04d99fac08ac7b22af01be","study_id":"6197b3f67c2b5cd3b6d9596a","session_id":"619be53b15b84150b5d65f18","condition":"full-information","relevant_dimensions":["antennae","pattern"],"bee_group":{"antennae":"A","wings":"X","pattern":"D","legs":"X"},"bonus":1.5800000000000014},{"view_history":[{"page_index":0,"viewing_time":5299.300000011921},{"page_index":1,"viewing_time":14351.900000035763},{"page_index":2,"viewing_time":13352},{"page_index":3,"viewing_time":16320.099999964237},{"page_index":4,"viewing_time":8599.900000035763},{"page_index":5,"viewing_time":10160},{"page_index":6,"viewing_time":10808.099999964237},{"page_index":7,"viewing_time":8999.900000035763},{"page_index":8,"viewing_time":5824.099999964237},{"page_index":9,"viewing_time":6728},{"page_index":10,"viewing_time":5264.100000023842},{"page_index":11,"viewing_time":15143.800000011921},{"page_index":12,"viewing_time":15600.199999988079},{"page_index":13,"viewing_time":26959.899999976158},{"page_index":14,"viewing_time":2632}],"rt":166043.60000002384,"trial_type":"instructions","trial_index":3,"time_elapsed":174910,"internal_node_id":"0.0-3.0-0.0","subject_id":"5f04d99fac08ac7b22af01be","study_id":"6197b3f67c2b5cd3b6d9596a","session_id":"619be53b15b84150b5d65f18","condition":"full-information","relevant_dimensions":["antennae","pattern"],"bee_group":{"antennae":"A","wings":"X","pattern":"D","legs":"X"},"bonus":1.5800000000000014},{"rt":14845.400000035763,"response":{"Q0":["Two or six legs","Stripes or spots on body","Single or double wings","Antennae or no antennae"]},"question_order":[0],"trial_type":"survey-multi-select","trial_index":4,"time_elapsed":189758,"internal_node_id":"0.0-3.0-1.0","subject_id":"5f04d99fac08ac7b22af01be","study_id":"6197b3f67c2b5cd3b6d9596a","session_id":"619be53b15b84150b5d65f18","condition":"full-information","relevant_dimensions":["antennae","pattern"],"bee_group":{"antennae":"A","wings":"X","pattern":"D","legs":"X"},"correct":true,"bonus":1.5800000000000014},{"rt":24974.200000047684,"response":{"Q1":"No.","Q2":"Based on the four features of the bee.","Q3":"You learn if it was friendly or dangerous, but do not alter your bonus."},"question_order":[0,1,2],"trial_type":"survey-multi-choice","trial_index":5,"time_elapsed":214734,"internal_node_id":"0.0-3.0-2.0","subject_id":"5f04d99fac08ac7b22af01be","study_id":"6197b3f67c2b5cd3b6d9596a","session_id":"619be53b15b84150b5d65f18","condition":"full-information","relevant_dimensions":["antennae","pattern"],"bee_group":{"antennae":"A","wings":"X","pattern":"D","legs":"X"},"correct":true,"bonus":1.5800000000000014},{"rt":4190.699999988079,"stimulus":"<p>Congrats, you got everything right<br>When you're ready, click the button below to continue to the experiment.</p>","response":0,"trial_type":"html-button-response","trial_index":6,"time_elapsed":218926,"internal_node_id":"0.0-3.0-3.0","subject_id":"5f04d99fac08ac7b22af01be","study_id":"6197b3f67c2b5cd3b6d9596a","session_id":"619be53b15b84150b5d65f18","condition":"full-information","relevant_dimensions":["antennae","pattern"],"bee_group":{"antennae":"A","wings":"X","pattern":"D","legs":"X"},"bonus":1.5800000000000014},{"rt":32294.19999998808,"stimulus":"bees-with-color/bee-B1SM.svg","response":0,"trial_type":"image-button-response","trial_index":7,"time_elapsed":251222,"internal_node_id":"0.0-4.0-0.0","subject_id":"5f04d99fac08ac7b22af01be","study_id":"6197b3f67c2b5cd3b6d9596a","session_id":"619be53b15b84150b5d65f18","condition":"full-information","relevant_dimensions":["antennae","pattern"],"bee_group":{"antennae":"A","wings":"X","pattern":"D","legs":"X"},"action":"harvest","summary":"good-harvest","bonus":1.5800000000000014},{"rt":11660.299999952316,"stimulus":"\n                    <p><b>Action: <em>harvest</em></b></p>\n                    <p>This is the bee that you just saw.</p>\n                    <img src=\"bees-with-color/bee-B1SM.svg\" width=\"200\">\n                    <p><span class=\"greenText\"><b>Successful harvest!</b></span><br>Your pay has increased by $0.02. Your bonus pay is now $0.56.</p>\n            ","response":0,"trial_type":"html-button-response","trial_index":8,"time_elapsed":262886,"internal_node_id":"0.0-4.0-1.0","subject_id":"5f04d99fac08ac7b22af01be","study_id":"6197b3f67c2b5cd3b6d9596a","session_id":"619be53b15b84150b5d65f18","condition":"full-information","relevant_dimensions":["antennae","pattern"],"bee_group":{"antennae":"A","wings":"X","pattern":"D","legs":"X"},"bonus":1.5800000000000014},{"rt":18102,"stimulus":"bees-with-color/bee-A2SF.svg","response":0,"trial_type":"image-button-response","trial_index":9,"time_elapsed":280990,"internal_node_id":"0.0-4.0-0.1","subject_id":"5f04d99fac08ac7b22af01be","study_id":"6197b3f67c2b5cd3b6d9596a","session_id":"619be53b15b84150b5d65f18","condition":"full-information","relevant_dimensions":["antennae","pattern"],"bee_group":{"antennae":"A","wings":"X","pattern":"D","legs":"X"},"action":"harvest","summary":"good-harvest","bonus":1.5800000000000014},{"rt":6686.300000011921,"stimulus":"\n                    <p><b>Action: <em>harvest</em></b></p>\n                    <p>This is the bee that you just saw.</p>\n                    <img src=\"bees-with-color/bee-A2SF.svg\" width=\"200\">\n                    <p><span class=\"greenText\"><b>Successful harvest!</b></span><br>Your pay has increased by $0.02. Your bonus pay is now $0.58.</p>\n            ","response":0,"trial_type":"html-button-response","trial_index":10,"time_elapsed":287678,"internal_node_id":"0.0-4.0-1.1","subject_id":"5f04d99fac08ac7b22af01be","study_id":"6197b3f67c2b5cd3b6d9596a","session_id":"619be53b15b84150b5d65f18","condition":"full-information","relevant_dimensions":["antennae","pattern"],"bee_group":{"antennae":"A","wings":"X","pattern":"D","legs":"X"},"bonus":1.5800000000000014},{"rt":15542.299999952316,"stimulus":"bees-with-color/bee-A2SM.svg","response":0,"trial_type":"image-button-response","trial_index":11,"time_elapsed":303222,"internal_node_id":"0.0-4.0-0.2","subject_id":"5f04d99fac08ac7b22af01be","study_id":"6197b3f67c2b5cd3b6d9596a","session_id":"619be53b15b84150b5d65f18","condition":"full-information","relevant_dimensions":["antennae","pattern"],"bee_group":{"antennae":"A","wings":"X","pattern":"D","legs":"X"},"action":"harvest","summary":"good-harvest","bonus":1.5800000000000014},{"rt":8614.800000011921,"stimulus":"\n                    <p><b>Action: <em>harvest</em></b></p>\n                    <p>This is the bee that you just saw.</p>\n                    <img src=\"bees-with-color/bee-A2SM.svg\" width=\"200\">\n                    <p><span class=\"greenText\"><b>Successful harvest!</b></span><br>Your pay has increased by $0.02. Your bonus pay is now $0.60.</p>\n            ","response":0,"trial_type":"html-button-response","trial_index":12,"time_elapsed":311838,"internal_node_id":"0.0-4.0-1.2","subject_id":"5f04d99fac08ac7b22af01be","study_id":"6197b3f67c2b5cd3b6d9596a","session_id":"619be53b15b84150b5d65f18","condition":"full-information","relevant_dimensions":["antennae","pattern"],"bee_group":{"antennae":"A","wings":"X","pattern":"D","legs":"X"},"bonus":1.5800000000000014},{"rt":18438.19999998808,"stimulus":"bees-with-color/bee-B2DF.svg","response":0,"trial_type":"image-button-response","trial_index":13,"time_elapsed":330278,"internal_node_id":"0.0-4.0-0.3","subject_id":"5f04d99fac08ac7b22af01be","study_id":"6197b3f67c2b5cd3b6d9596a","session_id":"619be53b15b84150b5d65f18","condition":"full-information","relevant_dimensions":["antennae","pattern"],"bee_group":{"antennae":"A","wings":"X","pattern":"D","legs":"X"},"action":"harvest","summary":"good-harvest","bonus":1.5800000000000014},{"rt":14822.900000035763,"stimulus":"\n                    <p><b>Action: <em>harvest</em></b></p>\n                    <p>This is the bee that you just saw.</p>\n                    <img src=\"bees-with-color/bee-B2DF.svg\" width=\"200\">\n                    <p><span class=\"greenText\"><b>Successful harvest!</b></span><br>Your pay has increased by $0.02. Your bonus pay is now $0.62.</p>\n            ","response":0,"trial_type":"html-button-response","trial_index":14,"time_elapsed":345102,"internal_node_id":"0.0-4.0-1.3","subject_id":"5f04d99fac08ac7b22af01be","study_id":"6197b3f67c2b5cd3b6d9596a","session_id":"619be53b15b84150b5d65f18","condition":"full-information","relevant_dimensions":["antennae","pattern"],"bee_group":{"antennae":"A","wings":"X","pattern":"D","legs":"X"},"bonus":1.5800000000000014},{"rt":31997,"stimulus":"bees-with-color/bee-A1SM.svg","response":0,"trial_type":"image-button-response","trial_index":15,"time_elapsed":377102,"internal_node_id":"0.0-4.0-0.4","subject_id":"5f04d99fac08ac7b22af01be","study_id":"6197b3f67c2b5cd3b6d9596a","session_id":"619be53b15b84150b5d65f18","condition":"full-information","relevant_dimensions":["antennae","pattern"],"bee_group":{"antennae":"A","wings":"X","pattern":"D","legs":"X"},"action":"harvest","summary":"good-harvest","bonus":1.5800000000000014},{"rt":7702,"stimulus":"\n                    <p><b>Action: <em>harvest</em></b></p>\n                    <p>This is the bee that you just saw.</p>\n                    <img src=\"bees-with-color/bee-A1SM.svg\" width=\"200\">\n                    <p><span class=\"greenText\"><b>Successful harvest!</b></span><br>Your pay has increased by $0.02. Your bonus pay is now $0.64.</p>\n            ","response":0,"trial_type":"html-button-response","trial_index":16,"time_elapsed":384806,"internal_node_id":"0.0-4.0-1.4","subject_id":"5f04d99fac08ac7b22af01be","study_id":"6197b3f67c2b5cd3b6d9596a","session_id":"619be53b15b84150b5d65f18","condition":"full-information","relevant_dimensions":["antennae","pattern"],"bee_group":{"antennae":"A","wings":"X","pattern":"D","legs":"X"},"bonus":1.5800000000000014},{"rt":21902.900000035763,"stimulus":"bees-with-color/bee-A1DF.svg","response":0,"trial_type":"image-button-response","trial_index":17,"time_elapsed":406710,"internal_node_id":"0.0-4.0-0.5","subject_id":"5f04d99fac08ac7b22af01be","study_id":"6197b3f67c2b5cd3b6d9596a","session_id":"619be53b15b84150b5d65f18","condition":"full-information","relevant_dimensions":["antennae","pattern"],"bee_group":{"antennae":"A","wings":"X","pattern":"D","legs":"X"},"action":"harvest","summary":"bad-harvest","bonus":1.5800000000000014},{"rt":12542.300000011921,"stimulus":"\n                    <p><b>Action: <em>harvest</em></b></p>\n                    <p>This is the bee that you just saw.</p>\n                    <img src=\"bees-with-color/bee-A1DF.svg\" width=\"200\">\n                    <p><span class=\"redText\">Bad choice, the bee was angry.</span><br><b>You have been stung!</b><br>Your pay has been decreased by $0.10. Your bonus pay is now $0.54.</p>\n            ","response":0,"trial_type":"html-button-response","trial_index":18,"time_elapsed":419254,"internal_node_id":"0.0-4.0-1.5","subject_id":"5f04d99fac08ac7b22af01be","study_id":"6197b3f67c2b5cd3b6d9596a","session_id":"619be53b15b84150b5d65f18","condition":"full-information","relevant_dimensions":["antennae","pattern"],"bee_group":{"antennae":"A","wings":"X","pattern":"D","legs":"X"},"bonus":1.5800000000000014},{"rt":15469.899999976158,"stimulus":"bees-with-color/bee-B1DM.svg","response":0,"trial_type":"image-button-response","trial_index":19,"time_elapsed":434726,"internal_node_id":"0.0-4.0-0.6","subject_id":"5f04d99fac08ac7b22af01be","study_id":"6197b3f67c2b5cd3b6d9596a","session_id":"619be53b15b84150b5d65f18","condition":"full-information","relevant_dimensions":["antennae","pattern"],"bee_group":{"antennae":"A","wings":"X","pattern":"D","legs":"X"},"action":"harvest","summary":"good-harvest","bonus":1.5800000000000014},{"rt":5758.399999976158,"stimulus":"\n                    <p><b>Action: <em>harvest</em></b></p>\n                    <p>This is the bee that you just saw.</p>\n                    <img src=\"bees-with-color/bee-B1DM.svg\" width=\"200\">\n                    <p><span class=\"greenText\"><b>Successful harvest!</b></span><br>Your pay has increased by $0.02. Your bonus pay is now $0.56.</p>\n            ","response":0,"trial_type":"html-button-response","trial_index":20,"time_elapsed":440486,"internal_node_id":"0.0-4.0-1.6","subject_id":"5f04d99fac08ac7b22af01be","study_id":"6197b3f67c2b5cd3b6d9596a","session_id":"619be53b15b84150b5d65f18","condition":"full-information","relevant_dimensions":["antennae","pattern"],"bee_group":{"antennae":"A","wings":"X","pattern":"D","legs":"X"},"bonus":1.5800000000000014},{"rt":15798.400000035763,"stimulus":"bees-with-color/bee-A2DM.svg","response":0,"trial_type":"image-button-response","trial_index":21,"time_elapsed":456286,"internal_node_id":"0.0-4.0-0.7","subject_id":"5f04d99fac08ac7b22af01be","study_id":"6197b3f67c2b5cd3b6d9596a","session_id":"619be53b15b84150b5d65f18","condition":"full-information","relevant_dimensions":["antennae","pattern"],"bee_group":{"antennae":"A","wings":"X","pattern":"D","legs":"X"},"action":"harvest","summary":"bad-harvest","bonus":1.5800000000000014},{"rt":12733.900000035763,"stimulus":"\n                    <p><b>Action: <em>harvest</em></b></p>\n                    <p>This is the bee that you just saw.</p>\n                    <img src=\"bees-with-color/bee-A2DM.svg\" width=\"200\">\n                    <p><span class=\"redText\">Bad choice, the bee was angry.</span><br><b>You have been stung!</b><br>Your pay has been decreased by $0.10. Your bonus pay is now $0.46.</p>\n            ","response":0,"trial_type":"html-button-response","trial_index":22,"time_elapsed":469022,"internal_node_id":"0.0-4.0-1.7","subject_id":"5f04d99fac08ac7b22af01be","study_id":"6197b3f67c2b5cd3b6d9596a","session_id":"619be53b15b84150b5d65f18","condition":"full-information","relevant_dimensions":["antennae","pattern"],"bee_group":{"antennae":"A","wings":"X","pattern":"D","legs":"X"},"bonus":1.5800000000000014},{"rt":74262.5,"stimulus":"bees-with-color/bee-A2DF.svg","response":0,"trial_type":"image-button-response","trial_index":23,"time_elapsed":543286,"internal_node_id":"0.0-4.0-0.8","subject_id":"5f04d99fac08ac7b22af01be","study_id":"6197b3f67c2b5cd3b6d9596a","session_id":"619be53b15b84150b5d65f18","condition":"full-information","relevant_dimensions":["antennae","pattern"],"bee_group":{"antennae":"A","wings":"X","pattern":"D","legs":"X"},"action":"harvest","summary":"bad-harvest","bonus":1.5800000000000014},{"rt":9574.700000047684,"stimulus":"\n                    <p><b>Action: <em>harvest</em></b></p>\n                    <p>This is the bee that you just saw.</p>\n                    <img src=\"bees-with-color/bee-A2DF.svg\" width=\"200\">\n                    <p><span class=\"redText\">Bad choice, the bee was angry.</span><br><b>You have been stung!</b><br>Your pay has been decreased by $0.10. Your bonus pay is now $0.36.</p>\n            ","response":0,"trial_type":"html-button-response","trial_index":24,"time_elapsed":552862,"internal_node_id":"0.0-4.0-1.8","subject_id":"5f04d99fac08ac7b22af01be","study_id":"6197b3f67c2b5cd3b6d9596a","session_id":"619be53b15b84150b5d65f18","condition":"full-information","relevant_dimensions":["antennae","pattern"],"bee_group":{"antennae":"A","wings":"X","pattern":"D","legs":"X"},"bonus":1.5800000000000014},{"rt":81702.80000001192,"stimulus":"bees-with-color/bee-B2SM.svg","response":0,"trial_type":"image-button-response","trial_index":25,"time_elapsed":634565,"internal_node_id":"0.0-4.0-0.9","subject_id":"5f04d99fac08ac7b22af01be","study_id":"6197b3f67c2b5cd3b6d9596a","session_id":"619be53b15b84150b5d65f18","condition":"full-information","relevant_dimensions":["antennae","pattern"],"bee_group":{"antennae":"A","wings":"X","pattern":"D","legs":"X"},"action":"harvest","summary":"good-harvest","bonus":1.5800000000000014},{"rt":6742.399999976158,"stimulus":"\n                    <p><b>Action: <em>harvest</em></b></p>\n                    <p>This is the bee that you just saw.</p>\n                    <img src=\"bees-with-color/bee-B2SM.svg\" width=\"200\">\n                    <p><span class=\"greenText\"><b>Successful harvest!</b></span><br>Your pay has increased by $0.02. Your bonus pay is now $0.38.</p>\n            ","response":0,"trial_type":"html-button-response","trial_index":26,"time_elapsed":641309,"internal_node_id":"0.0-4.0-1.9","subject_id":"5f04d99fac08ac7b22af01be","study_id":"6197b3f67c2b5cd3b6d9596a","session_id":"619be53b15b84150b5d65f18","condition":"full-information","relevant_dimensions":["antennae","pattern"],"bee_group":{"antennae":"A","wings":"X","pattern":"D","legs":"X"},"bonus":1.5800000000000014},{"rt":26334.69999998808,"stimulus":"bees-with-color/bee-B1SF.svg","response":0,"trial_type":"image-button-response","trial_index":27,"time_elapsed":667645,"internal_node_id":"0.0-4.0-0.10","subject_id":"5f04d99fac08ac7b22af01be","study_id":"6197b3f67c2b5cd3b6d9596a","session_id":"619be53b15b84150b5d65f18","condition":"full-information","relevant_dimensions":["antennae","pattern"],"bee_group":{"antennae":"A","wings":"X","pattern":"D","legs":"X"},"action":"harvest","summary":"good-harvest","bonus":1.5800000000000014},{"rt":8686.699999988079,"stimulus":"\n                    <p><b>Action: <em>harvest</em></b></p>\n                    <p>This is the bee that you just saw.</p>\n                    <img src=\"bees-with-color/bee-B1SF.svg\" width=\"200\">\n                    <p><span class=\"greenText\"><b>Successful harvest!</b></span><br>Your pay has increased by $0.02. Your bonus pay is now $0.40.</p>\n            ","response":0,"trial_type":"html-button-response","trial_index":28,"time_elapsed":676333,"internal_node_id":"0.0-4.0-1.10","subject_id":"5f04d99fac08ac7b22af01be","study_id":"6197b3f67c2b5cd3b6d9596a","session_id":"619be53b15b84150b5d65f18","condition":"full-information","relevant_dimensions":["antennae","pattern"],"bee_group":{"antennae":"A","wings":"X","pattern":"D","legs":"X"},"bonus":1.5800000000000014},{"rt":21966.5,"stimulus":"bees-with-color/bee-A1DM.svg","response":1,"trial_type":"image-button-response","trial_index":29,"time_elapsed":698302,"internal_node_id":"0.0-4.0-0.11","subject_id":"5f04d99fac08ac7b22af01be","study_id":"6197b3f67c2b5cd3b6d9596a","session_id":"619be53b15b84150b5d65f18","condition":"full-information","relevant_dimensions":["antennae","pattern"],"bee_group":{"antennae":"A","wings":"X","pattern":"D","legs":"X"},"action":"avoid","summary":"good-avoid","bonus":1.5800000000000014},{"rt":5318.399999976158,"stimulus":"\n                    <p><b>Action: <em>avoid</em></b></p>\n                    <p>This is the bee that you just saw.</p>\n                    <img src=\"bees-with-color/bee-A1DM.svg\" width=\"200\">\n                    <p><span class=\"greenText\">Good choice!</span>  This bee would have stung you.<br>Your bonus pay is unchanged, and remains at $0.40.</p>\n            ","response":0,"trial_type":"html-button-response","trial_index":30,"time_elapsed":703622,"internal_node_id":"0.0-4.0-1.11","subject_id":"5f04d99fac08ac7b22af01be","study_id":"6197b3f67c2b5cd3b6d9596a","session_id":"619be53b15b84150b5d65f18","condition":"full-information","relevant_dimensions":["antennae","pattern"],"bee_group":{"antennae":"A","wings":"X","pattern":"D","legs":"X"},"bonus":1.5800000000000014},{"rt":26166.600000023842,"stimulus":"bees-with-color/bee-B2DM.svg","response":0,"trial_type":"image-button-response","trial_index":31,"time_elapsed":729790,"internal_node_id":"0.0-4.0-0.12","subject_id":"5f04d99fac08ac7b22af01be","study_id":"6197b3f67c2b5cd3b6d9596a","session_id":"619be53b15b84150b5d65f18","condition":"full-information","relevant_dimensions":["antennae","pattern"],"bee_group":{"antennae":"A","wings":"X","pattern":"D","legs":"X"},"action":"harvest","summary":"good-harvest","bonus":1.5800000000000014},{"rt":18934.80000001192,"stimulus":"\n                    <p><b>Action: <em>harvest</em></b></p>\n                    <p>This is the bee that you just saw.</p>\n                    <img src=\"bees-with-color/bee-B2DM.svg\" width=\"200\">\n                    <p><span class=\"greenText\"><b>Successful harvest!</b></span><br>Your pay has increased by $0.02. Your bonus pay is now $0.42.</p>\n            ","response":0,"trial_type":"html-button-response","trial_index":32,"time_elapsed":748726,"internal_node_id":"0.0-4.0-1.12","subject_id":"5f04d99fac08ac7b22af01be","study_id":"6197b3f67c2b5cd3b6d9596a","session_id":"619be53b15b84150b5d65f18","condition":"full-information","relevant_dimensions":["antennae","pattern"],"bee_group":{"antennae":"A","wings":"X","pattern":"D","legs":"X"},"bonus":1.5800000000000014},{"rt":28694.30000001192,"stimulus":"bees-with-color/bee-B1DF.svg","response":0,"trial_type":"image-button-response","trial_index":33,"time_elapsed":777422,"internal_node_id":"0.0-4.0-0.13","subject_id":"5f04d99fac08ac7b22af01be","study_id":"6197b3f67c2b5cd3b6d9596a","session_id":"619be53b15b84150b5d65f18","condition":"full-information","relevant_dimensions":["antennae","pattern"],"bee_group":{"antennae":"A","wings":"X","pattern":"D","legs":"X"},"action":"harvest","summary":"good-harvest","bonus":1.5800000000000014},{"rt":3990.599999964237,"stimulus":"\n                    <p><b>Action: <em>harvest</em></b></p>\n                    <p>This is the bee that you just saw.</p>\n                    <img src=\"bees-with-color/bee-B1DF.svg\" width=\"200\">\n                    <p><span class=\"greenText\"><b>Successful harvest!</b></span><br>Your pay has increased by $0.02. Your bonus pay is now $0.44.</p>\n            ","response":0,"trial_type":"html-button-response","trial_index":34,"time_elapsed":781414,"internal_node_id":"0.0-4.0-1.13","subject_id":"5f04d99fac08ac7b22af01be","study_id":"6197b3f67c2b5cd3b6d9596a","session_id":"619be53b15b84150b5d65f18","condition":"full-information","relevant_dimensions":["antennae","pattern"],"bee_group":{"antennae":"A","wings":"X","pattern":"D","legs":"X"},"bonus":1.5800000000000014},{"rt":37662.69999998808,"stimulus":"bees-with-color/bee-B2SF.svg","response":0,"trial_type":"image-button-response","trial_index":35,"time_elapsed":819078,"internal_node_id":"0.0-4.0-0.14","subject_id":"5f04d99fac08ac7b22af01be","study_id":"6197b3f67c2b5cd3b6d9596a","session_id":"619be53b15b84150b5d65f18","condition":"full-information","relevant_dimensions":["antennae","pattern"],"bee_group":{"antennae":"A","wings":"X","pattern":"D","legs":"X"},"action":"harvest","summary":"good-harvest","bonus":1.5800000000000014},{"rt":4270.800000011921,"stimulus":"\n                    <p><b>Action: <em>harvest</em></b></p>\n                    <p>This is the bee that you just saw.</p>\n                    <img src=\"bees-with-color/bee-B2SF.svg\" width=\"200\">\n                    <p><span class=\"greenText\"><b>Successful harvest!</b></span><br>Your pay has increased by $0.02. Your bonus pay is now $0.46.</p>\n            ","response":0,"trial_type":"html-button-response","trial_index":36,"time_elapsed":823350,"internal_node_id":"0.0-4.0-1.14","subject_id":"5f04d99fac08ac7b22af01be","study_id":"6197b3f67c2b5cd3b6d9596a","session_id":"619be53b15b84150b5d65f18","condition":"full-information","relevant_dimensions":["antennae","pattern"],"bee_group":{"antennae":"A","wings":"X","pattern":"D","legs":"X"},"bonus":1.5800000000000014},{"rt":25990.099999964237,"stimulus":"bees-with-color/bee-A1SF.svg","response":0,"trial_type":"image-button-response","trial_index":37,"time_elapsed":849342,"internal_node_id":"0.0-4.0-0.15","subject_id":"5f04d99fac08ac7b22af01be","study_id":"6197b3f67c2b5cd3b6d9596a","session_id":"619be53b15b84150b5d65f18","condition":"full-information","relevant_dimensions":["antennae","pattern"],"bee_group":{"antennae":"A","wings":"X","pattern":"D","legs":"X"},"action":"harvest","summary":"good-harvest","bonus":1.5800000000000014},{"rt":5102.600000023842,"stimulus":"\n                    <p><b>Action: <em>harvest</em></b></p>\n                    <p>This is the bee that you just saw.</p>\n                    <img src=\"bees-with-color/bee-A1SF.svg\" width=\"200\">\n                    <p><span class=\"greenText\"><b>Successful harvest!</b></span><br>Your pay has increased by $0.02. Your bonus pay is now $0.48.</p>\n            ","response":0,"trial_type":"html-button-response","trial_index":38,"time_elapsed":854446,"internal_node_id":"0.0-4.0-1.15","subject_id":"5f04d99fac08ac7b22af01be","study_id":"6197b3f67c2b5cd3b6d9596a","session_id":"619be53b15b84150b5d65f18","condition":"full-information","relevant_dimensions":["antennae","pattern"],"bee_group":{"antennae":"A","wings":"X","pattern":"D","legs":"X"},"bonus":1.5800000000000014},{"rt":24526.299999952316,"stimulus":"bees-with-color/bee-B2SF.svg","response":0,"trial_type":"image-button-response","trial_index":39,"time_elapsed":878974,"internal_node_id":"0.0-4.0-0.16","subject_id":"5f04d99fac08ac7b22af01be","study_id":"6197b3f67c2b5cd3b6d9596a","session_id":"619be53b15b84150b5d65f18","condition":"full-information","relevant_dimensions":["antennae","pattern"],"bee_group":{"antennae":"A","wings":"X","pattern":"D","legs":"X"},"action":"harvest","summary":"good-harvest","bonus":1.5800000000000014},{"rt":4262.599999964237,"stimulus":"\n                    <p><b>Action: <em>harvest</em></b></p>\n                    <p>This is the bee that you just saw.</p>\n                    <img src=\"bees-with-color/bee-B2SF.svg\" width=\"200\">\n                    <p><span class=\"greenText\"><b>Successful harvest!</b></span><br>Your pay has increased by $0.02. Your bonus pay is now $0.50.</p>\n            ","response":0,"trial_type":"html-button-response","trial_index":40,"time_elapsed":883238,"internal_node_id":"0.0-4.0-1.16","subject_id":"5f04d99fac08ac7b22af01be","study_id":"6197b3f67c2b5cd3b6d9596a","session_id":"619be53b15b84150b5d65f18","condition":"full-information","relevant_dimensions":["antennae","pattern"],"bee_group":{"antennae":"A","wings":"X","pattern":"D","legs":"X"},"bonus":1.5800000000000014},{"rt":23502.80000001192,"stimulus":"bees-with-color/bee-B1SF.svg","response":0,"trial_type":"image-button-response","trial_index":41,"time_elapsed":906742,"internal_node_id":"0.0-4.0-0.17","subject_id":"5f04d99fac08ac7b22af01be","study_id":"6197b3f67c2b5cd3b6d9596a","session_id":"619be53b15b84150b5d65f18","condition":"full-information","relevant_dimensions":["antennae","pattern"],"bee_group":{"antennae":"A","wings":"X","pattern":"D","legs":"X"},"action":"harvest","summary":"good-harvest","bonus":1.5800000000000014},{"rt":3622,"stimulus":"\n                    <p><b>Action: <em>harvest</em></b></p>\n                    <p>This is the bee that you just saw.</p>\n                    <img src=\"bees-with-color/bee-B1SF.svg\" width=\"200\">\n                    <p><span class=\"greenText\"><b>Successful harvest!</b></span><br>Your pay has increased by $0.02. Your bonus pay is now $0.52.</p>\n            ","response":0,"trial_type":"html-button-response","trial_index":42,"time_elapsed":910366,"internal_node_id":"0.0-4.0-1.17","subject_id":"5f04d99fac08ac7b22af01be","study_id":"6197b3f67c2b5cd3b6d9596a","session_id":"619be53b15b84150b5d65f18","condition":"full-information","relevant_dimensions":["antennae","pattern"],"bee_group":{"antennae":"A","wings":"X","pattern":"D","legs":"X"},"bonus":1.5800000000000014},{"rt":17311.100000023842,"stimulus":"bees-with-color/bee-A1DM.svg","response":0,"trial_type":"image-button-response","trial_index":43,"time_elapsed":927678,"internal_node_id":"0.0-4.0-0.18","subject_id":"5f04d99fac08ac7b22af01be","study_id":"6197b3f67c2b5cd3b6d9596a","session_id":"619be53b15b84150b5d65f18","condition":"full-information","relevant_dimensions":["antennae","pattern"],"bee_group":{"antennae":"A","wings":"X","pattern":"D","legs":"X"},"action":"harvest","summary":"bad-harvest","bonus":1.5800000000000014},{"rt":26446.30000001192,"stimulus":"\n                    <p><b>Action: <em>harvest</em></b></p>\n                    <p>This is the bee that you just saw.</p>\n                    <img src=\"bees-with-color/bee-A1DM.svg\" width=\"200\">\n                    <p><span class=\"redText\">Bad choice, the bee was angry.</span><br><b>You have been stung!</b><br>Your pay has been decreased by $0.10. Your bonus pay is now $0.42.</p>\n            ","response":0,"trial_type":"html-button-response","trial_index":44,"time_elapsed":954126,"internal_node_id":"0.0-4.0-1.18","subject_id":"5f04d99fac08ac7b22af01be","study_id":"6197b3f67c2b5cd3b6d9596a","session_id":"619be53b15b84150b5d65f18","condition":"full-information","relevant_dimensions":["antennae","pattern"],"bee_group":{"antennae":"A","wings":"X","pattern":"D","legs":"X"},"bonus":1.5800000000000014},{"rt":10710.700000047684,"stimulus":"bees-with-color/bee-B1SM.svg","response":0,"trial_type":"image-button-response","trial_index":45,"time_elapsed":964838,"internal_node_id":"0.0-4.0-0.19","subject_id":"5f04d99fac08ac7b22af01be","study_id":"6197b3f67c2b5cd3b6d9596a","session_id":"619be53b15b84150b5d65f18","condition":"full-information","relevant_dimensions":["antennae","pattern"],"bee_group":{"antennae":"A","wings":"X","pattern":"D","legs":"X"},"action":"harvest","summary":"good-harvest","bonus":1.5800000000000014},{"rt":3758.899999976158,"stimulus":"\n                    <p><b>Action: <em>harvest</em></b></p>\n                    <p>This is the bee that you just saw.</p>\n                    <img src=\"bees-with-color/bee-B1SM.svg\" width=\"200\">\n                    <p><span class=\"greenText\"><b>Successful harvest!</b></span><br>Your pay has increased by $0.02. Your bonus pay is now $0.44.</p>\n            ","response":0,"trial_type":"html-button-response","trial_index":46,"time_elapsed":968598,"internal_node_id":"0.0-4.0-1.19","subject_id":"5f04d99fac08ac7b22af01be","study_id":"6197b3f67c2b5cd3b6d9596a","session_id":"619be53b15b84150b5d65f18","condition":"full-information","relevant_dimensions":["antennae","pattern"],"bee_group":{"antennae":"A","wings":"X","pattern":"D","legs":"X"},"bonus":1.5800000000000014},{"rt":8782.699999988079,"stimulus":"bees-with-color/bee-A2SM.svg","response":0,"trial_type":"image-button-response","trial_index":47,"time_elapsed":977382,"internal_node_id":"0.0-4.0-0.20","subject_id":"5f04d99fac08ac7b22af01be","study_id":"6197b3f67c2b5cd3b6d9596a","session_id":"619be53b15b84150b5d65f18","condition":"full-information","relevant_dimensions":["antennae","pattern"],"bee_group":{"antennae":"A","wings":"X","pattern":"D","legs":"X"},"action":"harvest","summary":"good-harvest","bonus":1.5800000000000014},{"rt":3246.899999976158,"stimulus":"\n                    <p><b>Action: <em>harvest</em></b></p>\n                    <p>This is the bee that you just saw.</p>\n                    <img src=\"bees-with-color/bee-A2SM.svg\" width=\"200\">\n                    <p><span class=\"greenText\"><b>Successful harvest!</b></span><br>Your pay has increased by $0.02. Your bonus pay is now $0.46.</p>\n            ","response":0,"trial_type":"html-button-response","trial_index":48,"time_elapsed":980630,"internal_node_id":"0.0-4.0-1.20","subject_id":"5f04d99fac08ac7b22af01be","study_id":"6197b3f67c2b5cd3b6d9596a","session_id":"619be53b15b84150b5d65f18","condition":"full-information","relevant_dimensions":["antennae","pattern"],"bee_group":{"antennae":"A","wings":"X","pattern":"D","legs":"X"},"bonus":1.5800000000000014},{"rt":20734.899999976158,"stimulus":"bees-with-color/bee-A2DF.svg","response":1,"trial_type":"image-button-response","trial_index":49,"time_elapsed":1001367,"internal_node_id":"0.0-4.0-0.21","subject_id":"5f04d99fac08ac7b22af01be","study_id":"6197b3f67c2b5cd3b6d9596a","session_id":"619be53b15b84150b5d65f18","condition":"full-information","relevant_dimensions":["antennae","pattern"],"bee_group":{"antennae":"A","wings":"X","pattern":"D","legs":"X"},"action":"avoid","summary":"good-avoid","bonus":1.5800000000000014},{"rt":2846.199999988079,"stimulus":"\n                    <p><b>Action: <em>avoid</em></b></p>\n                    <p>This is the bee that you just saw.</p>\n                    <img src=\"bees-with-color/bee-A2DF.svg\" width=\"200\">\n                    <p><span class=\"greenText\">Good choice!</span>  This bee would have stung you.<br>Your bonus pay is unchanged, and remains at $0.46.</p>\n            ","response":0,"trial_type":"html-button-response","trial_index":50,"time_elapsed":1004214,"internal_node_id":"0.0-4.0-1.21","subject_id":"5f04d99fac08ac7b22af01be","study_id":"6197b3f67c2b5cd3b6d9596a","session_id":"619be53b15b84150b5d65f18","condition":"full-information","relevant_dimensions":["antennae","pattern"],"bee_group":{"antennae":"A","wings":"X","pattern":"D","legs":"X"},"bonus":1.5800000000000014},{"rt":18334.69999998808,"stimulus":"bees-with-color/bee-B1DF.svg","response":0,"trial_type":"image-button-response","trial_index":51,"time_elapsed":1022550,"internal_node_id":"0.0-4.0-0.22","subject_id":"5f04d99fac08ac7b22af01be","study_id":"6197b3f67c2b5cd3b6d9596a","session_id":"619be53b15b84150b5d65f18","condition":"full-information","relevant_dimensions":["antennae","pattern"],"bee_group":{"antennae":"A","wings":"X","pattern":"D","legs":"X"},"action":"harvest","summary":"good-harvest","bonus":1.5800000000000014},{"rt":4454.700000047684,"stimulus":"\n                    <p><b>Action: <em>harvest</em></b></p>\n                    <p>This is the bee that you just saw.</p>\n                    <img src=\"bees-with-color/bee-B1DF.svg\" width=\"200\">\n                    <p><span class=\"greenText\"><b>Successful harvest!</b></span><br>Your pay has increased by $0.02. Your bonus pay is now $0.48.</p>\n            ","response":0,"trial_type":"html-button-response","trial_index":52,"time_elapsed":1027006,"internal_node_id":"0.0-4.0-1.22","subject_id":"5f04d99fac08ac7b22af01be","study_id":"6197b3f67c2b5cd3b6d9596a","session_id":"619be53b15b84150b5d65f18","condition":"full-information","relevant_dimensions":["antennae","pattern"],"bee_group":{"antennae":"A","wings":"X","pattern":"D","legs":"X"},"bonus":1.5800000000000014},{"rt":13182.899999976158,"stimulus":"bees-with-color/bee-B2DF.svg","response":0,"trial_type":"image-button-response","trial_index":53,"time_elapsed":1040191,"internal_node_id":"0.0-4.0-0.23","subject_id":"5f04d99fac08ac7b22af01be","study_id":"6197b3f67c2b5cd3b6d9596a","session_id":"619be53b15b84150b5d65f18","condition":"full-information","relevant_dimensions":["antennae","pattern"],"bee_group":{"antennae":"A","wings":"X","pattern":"D","legs":"X"},"action":"harvest","summary":"good-harvest","bonus":1.5800000000000014},{"rt":3910.400000035763,"stimulus":"\n                    <p><b>Action: <em>harvest</em></b></p>\n                    <p>This is the bee that you just saw.</p>\n                    <img src=\"bees-with-color/bee-B2DF.svg\" width=\"200\">\n                    <p><span class=\"greenText\"><b>Successful harvest!</b></span><br>Your pay has increased by $0.02. Your bonus pay is now $0.50.</p>\n            ","response":0,"trial_type":"html-button-response","trial_index":54,"time_elapsed":1044103,"internal_node_id":"0.0-4.0-1.23","subject_id":"5f04d99fac08ac7b22af01be","study_id":"6197b3f67c2b5cd3b6d9596a","session_id":"619be53b15b84150b5d65f18","condition":"full-information","relevant_dimensions":["antennae","pattern"],"bee_group":{"antennae":"A","wings":"X","pattern":"D","legs":"X"},"bonus":1.5800000000000014},{"rt":16286.600000023842,"stimulus":"bees-with-color/bee-A2DM.svg","response":1,"trial_type":"image-button-response","trial_index":55,"time_elapsed":1060391,"internal_node_id":"0.0-4.0-0.24","subject_id":"5f04d99fac08ac7b22af01be","study_id":"6197b3f67c2b5cd3b6d9596a","session_id":"619be53b15b84150b5d65f18","condition":"full-information","relevant_dimensions":["antennae","pattern"],"bee_group":{"antennae":"A","wings":"X","pattern":"D","legs":"X"},"action":"avoid","summary":"good-avoid","bonus":1.5800000000000014},{"rt":2294.5,"stimulus":"\n                    <p><b>Action: <em>avoid</em></b></p>\n                    <p>This is the bee that you just saw.</p>\n                    <img src=\"bees-with-color/bee-A2DM.svg\" width=\"200\">\n                    <p><span class=\"greenText\">Good choice!</span>  This bee would have stung you.<br>Your bonus pay is unchanged, and remains at $0.50.</p>\n            ","response":0,"trial_type":"html-button-response","trial_index":56,"time_elapsed":1062687,"internal_node_id":"0.0-4.0-1.24","subject_id":"5f04d99fac08ac7b22af01be","study_id":"6197b3f67c2b5cd3b6d9596a","session_id":"619be53b15b84150b5d65f18","condition":"full-information","relevant_dimensions":["antennae","pattern"],"bee_group":{"antennae":"A","wings":"X","pattern":"D","legs":"X"},"bonus":1.5800000000000014},{"rt":13846.5,"stimulus":"bees-with-color/bee-A1DF.svg","response":1,"trial_type":"image-button-response","trial_index":57,"time_elapsed":1076535,"internal_node_id":"0.0-4.0-0.25","subject_id":"5f04d99fac08ac7b22af01be","study_id":"6197b3f67c2b5cd3b6d9596a","session_id":"619be53b15b84150b5d65f18","condition":"full-information","relevant_dimensions":["antennae","pattern"],"bee_group":{"antennae":"A","wings":"X","pattern":"D","legs":"X"},"action":"avoid","summary":"good-avoid","bonus":1.5800000000000014},{"rt":1766.5,"stimulus":"\n                    <p><b>Action: <em>avoid</em></b></p>\n                    <p>This is the bee that you just saw.</p>\n                    <img src=\"bees-with-color/bee-A1DF.svg\" width=\"200\">\n                    <p><span class=\"greenText\">Good choice!</span>  This bee would have stung you.<br>Your bonus pay is unchanged, and remains at $0.50.</p>\n            ","response":0,"trial_type":"html-button-response","trial_index":58,"time_elapsed":1078303,"internal_node_id":"0.0-4.0-1.25","subject_id":"5f04d99fac08ac7b22af01be","study_id":"6197b3f67c2b5cd3b6d9596a","session_id":"619be53b15b84150b5d65f18","condition":"full-information","relevant_dimensions":["antennae","pattern"],"bee_group":{"antennae":"A","wings":"X","pattern":"D","legs":"X"},"bonus":1.5800000000000014},{"rt":35414.60000002384,"stimulus":"bees-with-color/bee-A2SF.svg","response":0,"trial_type":"image-button-response","trial_index":59,"time_elapsed":1113718,"internal_node_id":"0.0-4.0-0.26","subject_id":"5f04d99fac08ac7b22af01be","study_id":"6197b3f67c2b5cd3b6d9596a","session_id":"619be53b15b84150b5d65f18","condition":"full-information","relevant_dimensions":["antennae","pattern"],"bee_group":{"antennae":"A","wings":"X","pattern":"D","legs":"X"},"action":"harvest","summary":"good-harvest","bonus":1.5800000000000014},{"rt":1462.300000011921,"stimulus":"\n                    <p><b>Action: <em>harvest</em></b></p>\n                    <p>This is the bee that you just saw.</p>\n                    <img src=\"bees-with-color/bee-A2SF.svg\" width=\"200\">\n                    <p><span class=\"greenText\"><b>Successful harvest!</b></span><br>Your pay has increased by $0.02. Your bonus pay is now $0.52.</p>\n            ","response":0,"trial_type":"html-button-response","trial_index":60,"time_elapsed":1115183,"internal_node_id":"0.0-4.0-1.26","subject_id":"5f04d99fac08ac7b22af01be","study_id":"6197b3f67c2b5cd3b6d9596a","session_id":"619be53b15b84150b5d65f18","condition":"full-information","relevant_dimensions":["antennae","pattern"],"bee_group":{"antennae":"A","wings":"X","pattern":"D","legs":"X"},"bonus":1.5800000000000014},{"rt":1254.3999999761581,"stimulus":"bees-with-color/bee-A1SM.svg","response":0,"trial_type":"image-button-response","trial_index":61,"time_elapsed":1116439,"internal_node_id":"0.0-4.0-0.27","subject_id":"5f04d99fac08ac7b22af01be","study_id":"6197b3f67c2b5cd3b6d9596a","session_id":"619be53b15b84150b5d65f18","condition":"full-information","relevant_dimensions":["antennae","pattern"],"bee_group":{"antennae":"A","wings":"X","pattern":"D","legs":"X"},"action":"harvest","summary":"good-harvest","bonus":1.5800000000000014},{"rt":1077.8999999761581,"stimulus":"\n                    <p><b>Action: <em>harvest</em></b></p>\n                    <p>This is the bee that you just saw.</p>\n                    <img src=\"bees-with-color/bee-A1SM.svg\" width=\"200\">\n                    <p><span class=\"greenText\"><b>Successful harvest!</b></span><br>Your pay has increased by $0.02. Your bonus pay is now $0.54.</p>\n            ","response":0,"trial_type":"html-button-response","trial_index":62,"time_elapsed":1117518,"internal_node_id":"0.0-4.0-1.27","subject_id":"5f04d99fac08ac7b22af01be","study_id":"6197b3f67c2b5cd3b6d9596a","session_id":"619be53b15b84150b5d65f18","condition":"full-information","relevant_dimensions":["antennae","pattern"],"bee_group":{"antennae":"A","wings":"X","pattern":"D","legs":"X"},"bonus":1.5800000000000014},{"rt":1038.6000000238419,"stimulus":"bees-with-color/bee-A1SF.svg","response":0,"trial_type":"image-button-response","trial_index":63,"time_elapsed":1118558,"internal_node_id":"0.0-4.0-0.28","subject_id":"5f04d99fac08ac7b22af01be","study_id":"6197b3f67c2b5cd3b6d9596a","session_id":"619be53b15b84150b5d65f18","condition":"full-information","relevant_dimensions":["antennae","pattern"],"bee_group":{"antennae":"A","wings":"X","pattern":"D","legs":"X"},"action":"harvest","summary":"good-harvest","bonus":1.5800000000000014},{"rt":1414.2000000476837,"stimulus":"\n                    <p><b>Action: <em>harvest</em></b></p>\n                    <p>This is the bee that you just saw.</p>\n                    <img src=\"bees-with-color/bee-A1SF.svg\" width=\"200\">\n                    <p><span class=\"greenText\"><b>Successful harvest!</b></span><br>Your pay has increased by $0.02. Your bonus pay is now $0.56.</p>\n            ","response":0,"trial_type":"html-button-response","trial_index":64,"time_elapsed":1119974,"internal_node_id":"0.0-4.0-1.28","subject_id":"5f04d99fac08ac7b22af01be","study_id":"6197b3f67c2b5cd3b6d9596a","session_id":"619be53b15b84150b5d65f18","condition":"full-information","relevant_dimensions":["antennae","pattern"],"bee_group":{"antennae":"A","wings":"X","pattern":"D","legs":"X"},"bonus":1.5800000000000014},{"rt":7790.699999988079,"stimulus":"bees-with-color/bee-B1DM.svg","response":0,"trial_type":"image-button-response","trial_index":65,"time_elapsed":1127766,"internal_node_id":"0.0-4.0-0.29","subject_id":"5f04d99fac08ac7b22af01be","study_id":"6197b3f67c2b5cd3b6d9596a","session_id":"619be53b15b84150b5d65f18","condition":"full-information","relevant_dimensions":["antennae","pattern"],"bee_group":{"antennae":"A","wings":"X","pattern":"D","legs":"X"},"action":"harvest","summary":"good-harvest","bonus":1.5800000000000014},{"rt":1046.5,"stimulus":"\n                    <p><b>Action: <em>harvest</em></b></p>\n                    <p>This is the bee that you just saw.</p>\n                    <img src=\"bees-with-color/bee-B1DM.svg\" width=\"200\">\n                    <p><span class=\"greenText\"><b>Successful harvest!</b></span><br>Your pay has increased by $0.02. Your bonus pay is now $0.58.</p>\n            ","response":0,"trial_type":"html-button-response","trial_index":66,"time_elapsed":1128814,"internal_node_id":"0.0-4.0-1.29","subject_id":"5f04d99fac08ac7b22af01be","study_id":"6197b3f67c2b5cd3b6d9596a","session_id":"619be53b15b84150b5d65f18","condition":"full-information","relevant_dimensions":["antennae","pattern"],"bee_group":{"antennae":"A","wings":"X","pattern":"D","legs":"X"},"bonus":1.5800000000000014},{"rt":15990.900000035763,"stimulus":"bees-with-color/bee-B2DM.svg","response":0,"trial_type":"image-button-response","trial_index":67,"time_elapsed":1144806,"internal_node_id":"0.0-4.0-0.30","subject_id":"5f04d99fac08ac7b22af01be","study_id":"6197b3f67c2b5cd3b6d9596a","session_id":"619be53b15b84150b5d65f18","condition":"full-information","relevant_dimensions":["antennae","pattern"],"bee_group":{"antennae":"A","wings":"X","pattern":"D","legs":"X"},"action":"harvest","summary":"good-harvest","bonus":1.5800000000000014},{"rt":1087,"stimulus":"\n                    <p><b>Action: <em>harvest</em></b></p>\n                    <p>This is the bee that you just saw.</p>\n                    <img src=\"bees-with-color/bee-B2DM.svg\" width=\"200\">\n                    <p><span class=\"greenText\"><b>Successful harvest!</b></span><br>Your pay has increased by $0.02. Your bonus pay is now $0.60.</p>\n            ","response":0,"trial_type":"html-button-response","trial_index":68,"time_elapsed":1145894,"internal_node_id":"0.0-4.0-1.30","subject_id":"5f04d99fac08ac7b22af01be","study_id":"6197b3f67c2b5cd3b6d9596a","session_id":"619be53b15b84150b5d65f18","condition":"full-information","relevant_dimensions":["antennae","pattern"],"bee_group":{"antennae":"A","wings":"X","pattern":"D","legs":"X"},"bonus":1.5800000000000014},{"rt":1070.9000000357628,"stimulus":"bees-with-color/bee-B2SM.svg","response":0,"trial_type":"image-button-response","trial_index":69,"time_elapsed":1146966,"internal_node_id":"0.0-4.0-0.31","subject_id":"5f04d99fac08ac7b22af01be","study_id":"6197b3f67c2b5cd3b6d9596a","session_id":"619be53b15b84150b5d65f18","condition":"full-information","relevant_dimensions":["antennae","pattern"],"bee_group":{"antennae":"A","wings":"X","pattern":"D","legs":"X"},"action":"harvest","summary":"good-harvest","bonus":1.5800000000000014},{"rt":1238.800000011921,"stimulus":"\n                    <p><b>Action: <em>harvest</em></b></p>\n                    <p>This is the bee that you just saw.</p>\n                    <img src=\"bees-with-color/bee-B2SM.svg\" width=\"200\">\n                    <p><span class=\"greenText\"><b>Successful harvest!</b></span><br>Your pay has increased by $0.02. Your bonus pay is now $0.62.</p>\n            ","response":0,"trial_type":"html-button-response","trial_index":70,"time_elapsed":1148206,"internal_node_id":"0.0-4.0-1.31","subject_id":"5f04d99fac08ac7b22af01be","study_id":"6197b3f67c2b5cd3b6d9596a","session_id":"619be53b15b84150b5d65f18","condition":"full-information","relevant_dimensions":["antennae","pattern"],"bee_group":{"antennae":"A","wings":"X","pattern":"D","legs":"X"},"bonus":1.5800000000000014},{"rt":14143.199999988079,"stimulus":"bees-with-color/bee-A2DF.svg","response":1,"trial_type":"image-button-response","trial_index":71,"time_elapsed":1162350,"internal_node_id":"0.0-4.0-0.32","subject_id":"5f04d99fac08ac7b22af01be","study_id":"6197b3f67c2b5cd3b6d9596a","session_id":"619be53b15b84150b5d65f18","condition":"full-information","relevant_dimensions":["antennae","pattern"],"bee_group":{"antennae":"A","wings":"X","pattern":"D","legs":"X"},"action":"avoid","summary":"good-avoid","bonus":1.5800000000000014},{"rt":1462.8999999761581,"stimulus":"\n                    <p><b>Action: <em>avoid</em></b></p>\n                    <p>This is the bee that you just saw.</p>\n                    <img src=\"bees-with-color/bee-A2DF.svg\" width=\"200\">\n                    <p><span class=\"greenText\">Good choice!</span>  This bee would have stung you.<br>Your bonus pay is unchanged, and remains at $0.62.</p>\n            ","response":0,"trial_type":"html-button-response","trial_index":72,"time_elapsed":1163814,"internal_node_id":"0.0-4.0-1.32","subject_id":"5f04d99fac08ac7b22af01be","study_id":"6197b3f67c2b5cd3b6d9596a","session_id":"619be53b15b84150b5d65f18","condition":"full-information","relevant_dimensions":["antennae","pattern"],"bee_group":{"antennae":"A","wings":"X","pattern":"D","legs":"X"},"bonus":1.5800000000000014},{"rt":17518.80000001192,"stimulus":"bees-with-color/bee-B1DF.svg","response":0,"trial_type":"image-button-response","trial_index":73,"time_elapsed":1181334,"internal_node_id":"0.0-4.0-0.33","subject_id":"5f04d99fac08ac7b22af01be","study_id":"6197b3f67c2b5cd3b6d9596a","session_id":"619be53b15b84150b5d65f18","condition":"full-information","relevant_dimensions":["antennae","pattern"],"bee_group":{"antennae":"A","wings":"X","pattern":"D","legs":"X"},"action":"harvest","summary":"good-harvest","bonus":1.5800000000000014},{"rt":855,"stimulus":"\n                    <p><b>Action: <em>harvest</em></b></p>\n                    <p>This is the bee that you just saw.</p>\n                    <img src=\"bees-with-color/bee-B1DF.svg\" width=\"200\">\n                    <p><span class=\"greenText\"><b>Successful harvest!</b></span><br>Your pay has increased by $0.02. Your bonus pay is now $0.64.</p>\n            ","response":0,"trial_type":"html-button-response","trial_index":74,"time_elapsed":1182191,"internal_node_id":"0.0-4.0-1.33","subject_id":"5f04d99fac08ac7b22af01be","study_id":"6197b3f67c2b5cd3b6d9596a","session_id":"619be53b15b84150b5d65f18","condition":"full-information","relevant_dimensions":["antennae","pattern"],"bee_group":{"antennae":"A","wings":"X","pattern":"D","legs":"X"},"bonus":1.5800000000000014},{"rt":21494.599999964237,"stimulus":"bees-with-color/bee-A1DM.svg","response":1,"trial_type":"image-button-response","trial_index":75,"time_elapsed":1203687,"internal_node_id":"0.0-4.0-0.34","subject_id":"5f04d99fac08ac7b22af01be","study_id":"6197b3f67c2b5cd3b6d9596a","session_id":"619be53b15b84150b5d65f18","condition":"full-information","relevant_dimensions":["antennae","pattern"],"bee_group":{"antennae":"A","wings":"X","pattern":"D","legs":"X"},"action":"avoid","summary":"good-avoid","bonus":1.5800000000000014},{"rt":1462.6000000238419,"stimulus":"\n                    <p><b>Action: <em>avoid</em></b></p>\n                    <p>This is the bee that you just saw.</p>\n                    <img src=\"bees-with-color/bee-A1DM.svg\" width=\"200\">\n                    <p><span class=\"greenText\">Good choice!</span>  This bee would have stung you.<br>Your bonus pay is unchanged, and remains at $0.64.</p>\n            ","response":0,"trial_type":"html-button-response","trial_index":76,"time_elapsed":1205150,"internal_node_id":"0.0-4.0-1.34","subject_id":"5f04d99fac08ac7b22af01be","study_id":"6197b3f67c2b5cd3b6d9596a","session_id":"619be53b15b84150b5d65f18","condition":"full-information","relevant_dimensions":["antennae","pattern"],"bee_group":{"antennae":"A","wings":"X","pattern":"D","legs":"X"},"bonus":1.5800000000000014},{"rt":1326.6000000238419,"stimulus":"bees-with-color/bee-B1SF.svg","response":0,"trial_type":"image-button-response","trial_index":77,"time_elapsed":1206479,"internal_node_id":"0.0-4.0-0.35","subject_id":"5f04d99fac08ac7b22af01be","study_id":"6197b3f67c2b5cd3b6d9596a","session_id":"619be53b15b84150b5d65f18","condition":"full-information","relevant_dimensions":["antennae","pattern"],"bee_group":{"antennae":"A","wings":"X","pattern":"D","legs":"X"},"action":"harvest","summary":"good-harvest","bonus":1.5800000000000014},{"rt":1182,"stimulus":"\n                    <p><b>Action: <em>harvest</em></b></p>\n                    <p>This is the bee that you just saw.</p>\n                    <img src=\"bees-with-color/bee-B1SF.svg\" width=\"200\">\n                    <p><span class=\"greenText\"><b>Successful harvest!</b></span><br>Your pay has increased by $0.02. Your bonus pay is now $0.66.</p>\n            ","response":0,"trial_type":"html-button-response","trial_index":78,"time_elapsed":1207662,"internal_node_id":"0.0-4.0-1.35","subject_id":"5f04d99fac08ac7b22af01be","study_id":"6197b3f67c2b5cd3b6d9596a","session_id":"619be53b15b84150b5d65f18","condition":"full-information","relevant_dimensions":["antennae","pattern"],"bee_group":{"antennae":"A","wings":"X","pattern":"D","legs":"X"},"bonus":1.5800000000000014},{"rt":1086.8999999761581,"stimulus":"bees-with-color/bee-A1SM.svg","response":0,"trial_type":"image-button-response","trial_index":79,"time_elapsed":1208751,"internal_node_id":"0.0-4.0-0.36","subject_id":"5f04d99fac08ac7b22af01be","study_id":"6197b3f67c2b5cd3b6d9596a","session_id":"619be53b15b84150b5d65f18","condition":"full-information","relevant_dimensions":["antennae","pattern"],"bee_group":{"antennae":"A","wings":"X","pattern":"D","legs":"X"},"action":"harvest","summary":"good-harvest","bonus":1.5800000000000014},{"rt":1086.4000000357628,"stimulus":"\n                    <p><b>Action: <em>harvest</em></b></p>\n                    <p>This is the bee that you just saw.</p>\n                    <img src=\"bees-with-color/bee-A1SM.svg\" width=\"200\">\n                    <p><span class=\"greenText\"><b>Successful harvest!</b></span><br>Your pay has increased by $0.02. Your bonus pay is now $0.68.</p>\n            ","response":0,"trial_type":"html-button-response","trial_index":80,"time_elapsed":1209838,"internal_node_id":"0.0-4.0-1.36","subject_id":"5f04d99fac08ac7b22af01be","study_id":"6197b3f67c2b5cd3b6d9596a","session_id":"619be53b15b84150b5d65f18","condition":"full-information","relevant_dimensions":["antennae","pattern"],"bee_group":{"antennae":"A","wings":"X","pattern":"D","legs":"X"},"bonus":1.5800000000000014},{"rt":1023,"stimulus":"bees-with-color/bee-B1SM.svg","response":0,"trial_type":"image-button-response","trial_index":81,"time_elapsed":1210863,"internal_node_id":"0.0-4.0-0.37","subject_id":"5f04d99fac08ac7b22af01be","study_id":"6197b3f67c2b5cd3b6d9596a","session_id":"619be53b15b84150b5d65f18","condition":"full-information","relevant_dimensions":["antennae","pattern"],"bee_group":{"antennae":"A","wings":"X","pattern":"D","legs":"X"},"action":"harvest","summary":"good-harvest","bonus":1.5800000000000014},{"rt":1310.199999988079,"stimulus":"\n                    <p><b>Action: <em>harvest</em></b></p>\n                    <p>This is the bee that you just saw.</p>\n                    <img src=\"bees-with-color/bee-B1SM.svg\" width=\"200\">\n                    <p><span class=\"greenText\"><b>Successful harvest!</b></span><br>Your pay has increased by $0.02. Your bonus pay is now $0.70.</p>\n            ","response":0,"trial_type":"html-button-response","trial_index":82,"time_elapsed":1212174,"internal_node_id":"0.0-4.0-1.37","subject_id":"5f04d99fac08ac7b22af01be","study_id":"6197b3f67c2b5cd3b6d9596a","session_id":"619be53b15b84150b5d65f18","condition":"full-information","relevant_dimensions":["antennae","pattern"],"bee_group":{"antennae":"A","wings":"X","pattern":"D","legs":"X"},"bonus":1.5800000000000014},{"rt":11030.900000035763,"stimulus":"bees-with-color/bee-B2DF.svg","response":0,"trial_type":"image-button-response","trial_index":83,"time_elapsed":1223207,"internal_node_id":"0.0-4.0-0.38","subject_id":"5f04d99fac08ac7b22af01be","study_id":"6197b3f67c2b5cd3b6d9596a","session_id":"619be53b15b84150b5d65f18","condition":"full-information","relevant_dimensions":["antennae","pattern"],"bee_group":{"antennae":"A","wings":"X","pattern":"D","legs":"X"},"action":"harvest","summary":"good-harvest","bonus":1.5800000000000014},{"rt":1414.6000000238419,"stimulus":"\n                    <p><b>Action: <em>harvest</em></b></p>\n                    <p>This is the bee that you just saw.</p>\n                    <img src=\"bees-with-color/bee-B2DF.svg\" width=\"200\">\n                    <p><span class=\"greenText\"><b>Successful harvest!</b></span><br>Your pay has increased by $0.02. Your bonus pay is now $0.72.</p>\n            ","response":0,"trial_type":"html-button-response","trial_index":84,"time_elapsed":1224622,"internal_node_id":"0.0-4.0-1.38","subject_id":"5f04d99fac08ac7b22af01be","study_id":"6197b3f67c2b5cd3b6d9596a","session_id":"619be53b15b84150b5d65f18","condition":"full-information","relevant_dimensions":["antennae","pattern"],"bee_group":{"antennae":"A","wings":"X","pattern":"D","legs":"X"},"bonus":1.5800000000000014},{"rt":1150.6000000238419,"stimulus":"bees-with-color/bee-B2SM.svg","response":0,"trial_type":"image-button-response","trial_index":85,"time_elapsed":1225774,"internal_node_id":"0.0-4.0-0.39","subject_id":"5f04d99fac08ac7b22af01be","study_id":"6197b3f67c2b5cd3b6d9596a","session_id":"619be53b15b84150b5d65f18","condition":"full-information","relevant_dimensions":["antennae","pattern"],"bee_group":{"antennae":"A","wings":"X","pattern":"D","legs":"X"},"action":"harvest","summary":"good-harvest","bonus":1.5800000000000014},{"rt":1270.800000011921,"stimulus":"\n                    <p><b>Action: <em>harvest</em></b></p>\n                    <p>This is the bee that you just saw.</p>\n                    <img src=\"bees-with-color/bee-B2SM.svg\" width=\"200\">\n                    <p><span class=\"greenText\"><b>Successful harvest!</b></span><br>Your pay has increased by $0.02. Your bonus pay is now $0.74.</p>\n            ","response":0,"trial_type":"html-button-response","trial_index":86,"time_elapsed":1227046,"internal_node_id":"0.0-4.0-1.39","subject_id":"5f04d99fac08ac7b22af01be","study_id":"6197b3f67c2b5cd3b6d9596a","session_id":"619be53b15b84150b5d65f18","condition":"full-information","relevant_dimensions":["antennae","pattern"],"bee_group":{"antennae":"A","wings":"X","pattern":"D","legs":"X"},"bonus":1.5800000000000014},{"rt":9695,"stimulus":"bees-with-color/bee-A1DF.svg","response":1,"trial_type":"image-button-response","trial_index":87,"time_elapsed":1236743,"internal_node_id":"0.0-4.0-0.40","subject_id":"5f04d99fac08ac7b22af01be","study_id":"6197b3f67c2b5cd3b6d9596a","session_id":"619be53b15b84150b5d65f18","condition":"full-information","relevant_dimensions":["antennae","pattern"],"bee_group":{"antennae":"A","wings":"X","pattern":"D","legs":"X"},"action":"avoid","summary":"good-avoid","bonus":1.5800000000000014},{"rt":1222.5999999642372,"stimulus":"\n                    <p><b>Action: <em>avoid</em></b></p>\n                    <p>This is the bee that you just saw.</p>\n                    <img src=\"bees-with-color/bee-A1DF.svg\" width=\"200\">\n                    <p><span class=\"greenText\">Good choice!</span>  This bee would have stung you.<br>Your bonus pay is unchanged, and remains at $0.74.</p>\n            ","response":0,"trial_type":"html-button-response","trial_index":88,"time_elapsed":1237967,"internal_node_id":"0.0-4.0-1.40","subject_id":"5f04d99fac08ac7b22af01be","study_id":"6197b3f67c2b5cd3b6d9596a","session_id":"619be53b15b84150b5d65f18","condition":"full-information","relevant_dimensions":["antennae","pattern"],"bee_group":{"antennae":"A","wings":"X","pattern":"D","legs":"X"},"bonus":1.5800000000000014},{"rt":8350.5,"stimulus":"bees-with-color/bee-A2DM.svg","response":1,"trial_type":"image-button-response","trial_index":89,"time_elapsed":1246318,"internal_node_id":"0.0-4.0-0.41","subject_id":"5f04d99fac08ac7b22af01be","study_id":"6197b3f67c2b5cd3b6d9596a","session_id":"619be53b15b84150b5d65f18","condition":"full-information","relevant_dimensions":["antennae","pattern"],"bee_group":{"antennae":"A","wings":"X","pattern":"D","legs":"X"},"action":"avoid","summary":"good-avoid","bonus":1.5800000000000014},{"rt":1286.6000000238419,"stimulus":"\n                    <p><b>Action: <em>avoid</em></b></p>\n                    <p>This is the bee that you just saw.</p>\n                    <img src=\"bees-with-color/bee-A2DM.svg\" width=\"200\">\n                    <p><span class=\"greenText\">Good choice!</span>  This bee would have stung you.<br>Your bonus pay is unchanged, and remains at $0.74.</p>\n            ","response":0,"trial_type":"html-button-response","trial_index":90,"time_elapsed":1247607,"internal_node_id":"0.0-4.0-1.41","subject_id":"5f04d99fac08ac7b22af01be","study_id":"6197b3f67c2b5cd3b6d9596a","session_id":"619be53b15b84150b5d65f18","condition":"full-information","relevant_dimensions":["antennae","pattern"],"bee_group":{"antennae":"A","wings":"X","pattern":"D","legs":"X"},"bonus":1.5800000000000014},{"rt":1102.0999999642372,"stimulus":"bees-with-color/bee-A2SF.svg","response":0,"trial_type":"image-button-response","trial_index":91,"time_elapsed":1248710,"internal_node_id":"0.0-4.0-0.42","subject_id":"5f04d99fac08ac7b22af01be","study_id":"6197b3f67c2b5cd3b6d9596a","session_id":"619be53b15b84150b5d65f18","condition":"full-information","relevant_dimensions":["antennae","pattern"],"bee_group":{"antennae":"A","wings":"X","pattern":"D","legs":"X"},"action":"harvest","summary":"good-harvest","bonus":1.5800000000000014},{"rt":1166.6000000238419,"stimulus":"\n                    <p><b>Action: <em>harvest</em></b></p>\n                    <p>This is the bee that you just saw.</p>\n                    <img src=\"bees-with-color/bee-A2SF.svg\" width=\"200\">\n                    <p><span class=\"greenText\"><b>Successful harvest!</b></span><br>Your pay has increased by $0.02. Your bonus pay is now $0.76.</p>\n            ","response":0,"trial_type":"html-button-response","trial_index":92,"time_elapsed":1249879,"internal_node_id":"0.0-4.0-1.42","subject_id":"5f04d99fac08ac7b22af01be","study_id":"6197b3f67c2b5cd3b6d9596a","session_id":"619be53b15b84150b5d65f18","condition":"full-information","relevant_dimensions":["antennae","pattern"],"bee_group":{"antennae":"A","wings":"X","pattern":"D","legs":"X"},"bonus":1.5800000000000014},{"rt":8654.699999988079,"stimulus":"bees-with-color/bee-B1DM.svg","response":0,"trial_type":"image-button-response","trial_index":93,"time_elapsed":1258534,"internal_node_id":"0.0-4.0-0.43","subject_id":"5f04d99fac08ac7b22af01be","study_id":"6197b3f67c2b5cd3b6d9596a","session_id":"619be53b15b84150b5d65f18","condition":"full-information","relevant_dimensions":["antennae","pattern"],"bee_group":{"antennae":"A","wings":"X","pattern":"D","legs":"X"},"action":"harvest","summary":"good-harvest","bonus":1.5800000000000014},{"rt":1167.199999988079,"stimulus":"\n                    <p><b>Action: <em>harvest</em></b></p>\n                    <p>This is the bee that you just saw.</p>\n                    <img src=\"bees-with-color/bee-B1DM.svg\" width=\"200\">\n                    <p><span class=\"greenText\"><b>Successful harvest!</b></span><br>Your pay has increased by $0.02. Your bonus pay is now $0.78.</p>\n            ","response":0,"trial_type":"html-button-response","trial_index":94,"time_elapsed":1259702,"internal_node_id":"0.0-4.0-1.43","subject_id":"5f04d99fac08ac7b22af01be","study_id":"6197b3f67c2b5cd3b6d9596a","session_id":"619be53b15b84150b5d65f18","condition":"full-information","relevant_dimensions":["antennae","pattern"],"bee_group":{"antennae":"A","wings":"X","pattern":"D","legs":"X"},"bonus":1.5800000000000014},{"rt":1326.6000000238419,"stimulus":"bees-with-color/bee-A1SF.svg","response":0,"trial_type":"image-button-response","trial_index":95,"time_elapsed":1261030,"internal_node_id":"0.0-4.0-0.44","subject_id":"5f04d99fac08ac7b22af01be","study_id":"6197b3f67c2b5cd3b6d9596a","session_id":"619be53b15b84150b5d65f18","condition":"full-information","relevant_dimensions":["antennae","pattern"],"bee_group":{"antennae":"A","wings":"X","pattern":"D","legs":"X"},"action":"harvest","summary":"good-harvest","bonus":1.5800000000000014},{"rt":846.5999999642372,"stimulus":"\n                    <p><b>Action: <em>harvest</em></b></p>\n                    <p>This is the bee that you just saw.</p>\n                    <img src=\"bees-with-color/bee-A1SF.svg\" width=\"200\">\n                    <p><span class=\"greenText\"><b>Successful harvest!</b></span><br>Your pay has increased by $0.02. Your bonus pay is now $0.80.</p>\n            ","response":0,"trial_type":"html-button-response","trial_index":96,"time_elapsed":1261878,"internal_node_id":"0.0-4.0-1.44","subject_id":"5f04d99fac08ac7b22af01be","study_id":"6197b3f67c2b5cd3b6d9596a","session_id":"619be53b15b84150b5d65f18","condition":"full-information","relevant_dimensions":["antennae","pattern"],"bee_group":{"antennae":"A","wings":"X","pattern":"D","legs":"X"},"bonus":1.5800000000000014},{"rt":17966.900000035763,"stimulus":"bees-with-color/bee-B2DM.svg","response":0,"trial_type":"image-button-response","trial_index":97,"time_elapsed":1279846,"internal_node_id":"0.0-4.0-0.45","subject_id":"5f04d99fac08ac7b22af01be","study_id":"6197b3f67c2b5cd3b6d9596a","session_id":"619be53b15b84150b5d65f18","condition":"full-information","relevant_dimensions":["antennae","pattern"],"bee_group":{"antennae":"A","wings":"X","pattern":"D","legs":"X"},"action":"harvest","summary":"good-harvest","bonus":1.5800000000000014},{"rt":2694.7999999523163,"stimulus":"\n                    <p><b>Action: <em>harvest</em></b></p>\n                    <p>This is the bee that you just saw.</p>\n                    <img src=\"bees-with-color/bee-B2DM.svg\" width=\"200\">\n                    <p><span class=\"greenText\"><b>Successful harvest!</b></span><br>Your pay has increased by $0.02. Your bonus pay is now $0.82.</p>\n            ","response":0,"trial_type":"html-button-response","trial_index":98,"time_elapsed":1282542,"internal_node_id":"0.0-4.0-1.45","subject_id":"5f04d99fac08ac7b22af01be","study_id":"6197b3f67c2b5cd3b6d9596a","session_id":"619be53b15b84150b5d65f18","condition":"full-information","relevant_dimensions":["antennae","pattern"],"bee_group":{"antennae":"A","wings":"X","pattern":"D","legs":"X"},"bonus":1.5800000000000014},{"rt":1943,"stimulus":"bees-with-color/bee-B2SF.svg","response":0,"trial_type":"image-button-response","trial_index":99,"time_elapsed":1284487,"internal_node_id":"0.0-4.0-0.46","subject_id":"5f04d99fac08ac7b22af01be","study_id":"6197b3f67c2b5cd3b6d9596a","session_id":"619be53b15b84150b5d65f18","condition":"full-information","relevant_dimensions":["antennae","pattern"],"bee_group":{"antennae":"A","wings":"X","pattern":"D","legs":"X"},"action":"harvest","summary":"good-harvest","bonus":1.5800000000000014},{"rt":798.5,"stimulus":"\n                    <p><b>Action: <em>harvest</em></b></p>\n                    <p>This is the bee that you just saw.</p>\n                    <img src=\"bees-with-color/bee-B2SF.svg\" width=\"200\">\n                    <p><span class=\"greenText\"><b>Successful harvest!</b></span><br>Your pay has increased by $0.02. Your bonus pay is now $0.84.</p>\n            ","response":0,"trial_type":"html-button-response","trial_index":100,"time_elapsed":1285286,"internal_node_id":"0.0-4.0-1.46","subject_id":"5f04d99fac08ac7b22af01be","study_id":"6197b3f67c2b5cd3b6d9596a","session_id":"619be53b15b84150b5d65f18","condition":"full-information","relevant_dimensions":["antennae","pattern"],"bee_group":{"antennae":"A","wings":"X","pattern":"D","legs":"X"},"bonus":1.5800000000000014},{"rt":1103.1000000238419,"stimulus":"bees-with-color/bee-A2SM.svg","response":0,"trial_type":"image-button-response","trial_index":101,"time_elapsed":1286390,"internal_node_id":"0.0-4.0-0.47","subject_id":"5f04d99fac08ac7b22af01be","study_id":"6197b3f67c2b5cd3b6d9596a","session_id":"619be53b15b84150b5d65f18","condition":"full-information","relevant_dimensions":["antennae","pattern"],"bee_group":{"antennae":"A","wings":"X","pattern":"D","legs":"X"},"action":"harvest","summary":"good-harvest","bonus":1.5800000000000014},{"rt":934.6999999880791,"stimulus":"\n                    <p><b>Action: <em>harvest</em></b></p>\n                    <p>This is the bee that you just saw.</p>\n                    <img src=\"bees-with-color/bee-A2SM.svg\" width=\"200\">\n                    <p><span class=\"greenText\"><b>Successful harvest!</b></span><br>Your pay has increased by $0.02. Your bonus pay is now $0.86.</p>\n            ","response":0,"trial_type":"html-button-response","trial_index":102,"time_elapsed":1287326,"internal_node_id":"0.0-4.0-1.47","subject_id":"5f04d99fac08ac7b22af01be","study_id":"6197b3f67c2b5cd3b6d9596a","session_id":"619be53b15b84150b5d65f18","condition":"full-information","relevant_dimensions":["antennae","pattern"],"bee_group":{"antennae":"A","wings":"X","pattern":"D","legs":"X"},"bonus":1.5800000000000014},{"rt":14399,"stimulus":"bees-with-color/bee-A2DF.svg","response":1,"trial_type":"image-button-response","trial_index":103,"time_elapsed":1301726,"internal_node_id":"0.0-4.0-0.48","subject_id":"5f04d99fac08ac7b22af01be","study_id":"6197b3f67c2b5cd3b6d9596a","session_id":"619be53b15b84150b5d65f18","condition":"full-information","relevant_dimensions":["antennae","pattern"],"bee_group":{"antennae":"A","wings":"X","pattern":"D","legs":"X"},"action":"avoid","summary":"good-avoid","bonus":1.5800000000000014},{"rt":1150.8999999761581,"stimulus":"\n                    <p><b>Action: <em>avoid</em></b></p>\n                    <p>This is the bee that you just saw.</p>\n                    <img src=\"bees-with-color/bee-A2DF.svg\" width=\"200\">\n                    <p><span class=\"greenText\">Good choice!</span>  This bee would have stung you.<br>Your bonus pay is unchanged, and remains at $0.86.</p>\n            ","response":0,"trial_type":"html-button-response","trial_index":104,"time_elapsed":1302878,"internal_node_id":"0.0-4.0-1.48","subject_id":"5f04d99fac08ac7b22af01be","study_id":"6197b3f67c2b5cd3b6d9596a","session_id":"619be53b15b84150b5d65f18","condition":"full-information","relevant_dimensions":["antennae","pattern"],"bee_group":{"antennae":"A","wings":"X","pattern":"D","legs":"X"},"bonus":1.5800000000000014},{"rt":12630.699999988079,"stimulus":"bees-with-color/bee-B1DF.svg","response":0,"trial_type":"image-button-response","trial_index":105,"time_elapsed":1315511,"internal_node_id":"0.0-4.0-0.49","subject_id":"5f04d99fac08ac7b22af01be","study_id":"6197b3f67c2b5cd3b6d9596a","session_id":"619be53b15b84150b5d65f18","condition":"full-information","relevant_dimensions":["antennae","pattern"],"bee_group":{"antennae":"A","wings":"X","pattern":"D","legs":"X"},"action":"harvest","summary":"good-harvest","bonus":1.5800000000000014},{"rt":1190.699999988079,"stimulus":"\n                    <p><b>Action: <em>harvest</em></b></p>\n                    <p>This is the bee that you just saw.</p>\n                    <img src=\"bees-with-color/bee-B1DF.svg\" width=\"200\">\n                    <p><span class=\"greenText\"><b>Successful harvest!</b></span><br>Your pay has increased by $0.02. Your bonus pay is now $0.88.</p>\n            ","response":0,"trial_type":"html-button-response","trial_index":106,"time_elapsed":1316703,"internal_node_id":"0.0-4.0-1.49","subject_id":"5f04d99fac08ac7b22af01be","study_id":"6197b3f67c2b5cd3b6d9596a","session_id":"619be53b15b84150b5d65f18","condition":"full-information","relevant_dimensions":["antennae","pattern"],"bee_group":{"antennae":"A","wings":"X","pattern":"D","legs":"X"},"bonus":1.5800000000000014},{"rt":1406.199999988079,"stimulus":"bees-with-color/bee-B1SM.svg","response":0,"trial_type":"image-button-response","trial_index":107,"time_elapsed":1318111,"internal_node_id":"0.0-4.0-0.50","subject_id":"5f04d99fac08ac7b22af01be","study_id":"6197b3f67c2b5cd3b6d9596a","session_id":"619be53b15b84150b5d65f18","condition":"full-information","relevant_dimensions":["antennae","pattern"],"bee_group":{"antennae":"A","wings":"X","pattern":"D","legs":"X"},"action":"harvest","summary":"good-harvest","bonus":1.5800000000000014},{"rt":1166.300000011921,"stimulus":"\n                    <p><b>Action: <em>harvest</em></b></p>\n                    <p>This is the bee that you just saw.</p>\n                    <img src=\"bees-with-color/bee-B1SM.svg\" width=\"200\">\n                    <p><span class=\"greenText\"><b>Successful harvest!</b></span><br>Your pay has increased by $0.02. Your bonus pay is now $0.90.</p>\n            ","response":0,"trial_type":"html-button-response","trial_index":108,"time_elapsed":1319279,"internal_node_id":"0.0-4.0-1.50","subject_id":"5f04d99fac08ac7b22af01be","study_id":"6197b3f67c2b5cd3b6d9596a","session_id":"619be53b15b84150b5d65f18","condition":"full-information","relevant_dimensions":["antennae","pattern"],"bee_group":{"antennae":"A","wings":"X","pattern":"D","legs":"X"},"bonus":1.5800000000000014},{"rt":19126.899999976158,"stimulus":"bees-with-color/bee-B2DF.svg","response":0,"trial_type":"image-button-response","trial_index":109,"time_elapsed":1338407,"internal_node_id":"0.0-4.0-0.51","subject_id":"5f04d99fac08ac7b22af01be","study_id":"6197b3f67c2b5cd3b6d9596a","session_id":"619be53b15b84150b5d65f18","condition":"full-information","relevant_dimensions":["antennae","pattern"],"bee_group":{"antennae":"A","wings":"X","pattern":"D","legs":"X"},"action":"harvest","summary":"good-harvest","bonus":1.5800000000000014},{"rt":1422.800000011921,"stimulus":"\n                    <p><b>Action: <em>harvest</em></b></p>\n                    <p>This is the bee that you just saw.</p>\n                    <img src=\"bees-with-color/bee-B2DF.svg\" width=\"200\">\n                    <p><span class=\"greenText\"><b>Successful harvest!</b></span><br>Your pay has increased by $0.02. Your bonus pay is now $0.92.</p>\n            ","response":0,"trial_type":"html-button-response","trial_index":110,"time_elapsed":1339831,"internal_node_id":"0.0-4.0-1.51","subject_id":"5f04d99fac08ac7b22af01be","study_id":"6197b3f67c2b5cd3b6d9596a","session_id":"619be53b15b84150b5d65f18","condition":"full-information","relevant_dimensions":["antennae","pattern"],"bee_group":{"antennae":"A","wings":"X","pattern":"D","legs":"X"},"bonus":1.5800000000000014},{"rt":1197.800000011921,"stimulus":"bees-with-color/bee-A1SM.svg","response":0,"trial_type":"image-button-response","trial_index":111,"time_elapsed":1341031,"internal_node_id":"0.0-4.0-0.52","subject_id":"5f04d99fac08ac7b22af01be","study_id":"6197b3f67c2b5cd3b6d9596a","session_id":"619be53b15b84150b5d65f18","condition":"full-information","relevant_dimensions":["antennae","pattern"],"bee_group":{"antennae":"A","wings":"X","pattern":"D","legs":"X"},"action":"harvest","summary":"good-harvest","bonus":1.5800000000000014},{"rt":1102,"stimulus":"\n                    <p><b>Action: <em>harvest</em></b></p>\n                    <p>This is the bee that you just saw.</p>\n                    <img src=\"bees-with-color/bee-A1SM.svg\" width=\"200\">\n                    <p><span class=\"greenText\"><b>Successful harvest!</b></span><br>Your pay has increased by $0.02. Your bonus pay is now $0.94.</p>\n            ","response":0,"trial_type":"html-button-response","trial_index":112,"time_elapsed":1342135,"internal_node_id":"0.0-4.0-1.52","subject_id":"5f04d99fac08ac7b22af01be","study_id":"6197b3f67c2b5cd3b6d9596a","session_id":"619be53b15b84150b5d65f18","condition":"full-information","relevant_dimensions":["antennae","pattern"],"bee_group":{"antennae":"A","wings":"X","pattern":"D","legs":"X"},"bonus":1.5800000000000014},{"rt":8894.899999976158,"stimulus":"bees-with-color/bee-B1DM.svg","response":0,"trial_type":"image-button-response","trial_index":113,"time_elapsed":1351031,"internal_node_id":"0.0-4.0-0.53","subject_id":"5f04d99fac08ac7b22af01be","study_id":"6197b3f67c2b5cd3b6d9596a","session_id":"619be53b15b84150b5d65f18","condition":"full-information","relevant_dimensions":["antennae","pattern"],"bee_group":{"antennae":"A","wings":"X","pattern":"D","legs":"X"},"action":"harvest","summary":"good-harvest","bonus":1.5800000000000014},{"rt":1214.2999999523163,"stimulus":"\n                    <p><b>Action: <em>harvest</em></b></p>\n                    <p>This is the bee that you just saw.</p>\n                    <img src=\"bees-with-color/bee-B1DM.svg\" width=\"200\">\n                    <p><span class=\"greenText\"><b>Successful harvest!</b></span><br>Your pay has increased by $0.02. Your bonus pay is now $0.96.</p>\n            ","response":0,"trial_type":"html-button-response","trial_index":114,"time_elapsed":1352247,"internal_node_id":"0.0-4.0-1.53","subject_id":"5f04d99fac08ac7b22af01be","study_id":"6197b3f67c2b5cd3b6d9596a","session_id":"619be53b15b84150b5d65f18","condition":"full-information","relevant_dimensions":["antennae","pattern"],"bee_group":{"antennae":"A","wings":"X","pattern":"D","legs":"X"},"bonus":1.5800000000000014},{"rt":1310.3999999761581,"stimulus":"bees-with-color/bee-A2SM.svg","response":0,"trial_type":"image-button-response","trial_index":115,"time_elapsed":1353559,"internal_node_id":"0.0-4.0-0.54","subject_id":"5f04d99fac08ac7b22af01be","study_id":"6197b3f67c2b5cd3b6d9596a","session_id":"619be53b15b84150b5d65f18","condition":"full-information","relevant_dimensions":["antennae","pattern"],"bee_group":{"antennae":"A","wings":"X","pattern":"D","legs":"X"},"action":"harvest","summary":"good-harvest","bonus":1.5800000000000014},{"rt":1014.6999999880791,"stimulus":"\n                    <p><b>Action: <em>harvest</em></b></p>\n                    <p>This is the bee that you just saw.</p>\n                    <img src=\"bees-with-color/bee-A2SM.svg\" width=\"200\">\n                    <p><span class=\"greenText\"><b>Successful harvest!</b></span><br>Your pay has increased by $0.02. Your bonus pay is now $0.98.</p>\n            ","response":0,"trial_type":"html-button-response","trial_index":116,"time_elapsed":1354574,"internal_node_id":"0.0-4.0-1.54","subject_id":"5f04d99fac08ac7b22af01be","study_id":"6197b3f67c2b5cd3b6d9596a","session_id":"619be53b15b84150b5d65f18","condition":"full-information","relevant_dimensions":["antennae","pattern"],"bee_group":{"antennae":"A","wings":"X","pattern":"D","legs":"X"},"bonus":1.5800000000000014},{"rt":10223.199999988079,"stimulus":"bees-with-color/bee-A1DF.svg","response":1,"trial_type":"image-button-response","trial_index":117,"time_elapsed":1364799,"internal_node_id":"0.0-4.0-0.55","subject_id":"5f04d99fac08ac7b22af01be","study_id":"6197b3f67c2b5cd3b6d9596a","session_id":"619be53b15b84150b5d65f18","condition":"full-information","relevant_dimensions":["antennae","pattern"],"bee_group":{"antennae":"A","wings":"X","pattern":"D","legs":"X"},"action":"avoid","summary":"good-avoid","bonus":1.5800000000000014},{"rt":2109.899999976158,"stimulus":"\n                    <p><b>Action: <em>avoid</em></b></p>\n                    <p>This is the bee that you just saw.</p>\n                    <img src=\"bees-with-color/bee-A1DF.svg\" width=\"200\">\n                    <p><span class=\"greenText\">Good choice!</span>  This bee would have stung you.<br>Your bonus pay is unchanged, and remains at $0.98.</p>\n            ","response":0,"trial_type":"html-button-response","trial_index":118,"time_elapsed":1366911,"internal_node_id":"0.0-4.0-1.55","subject_id":"5f04d99fac08ac7b22af01be","study_id":"6197b3f67c2b5cd3b6d9596a","session_id":"619be53b15b84150b5d65f18","condition":"full-information","relevant_dimensions":["antennae","pattern"],"bee_group":{"antennae":"A","wings":"X","pattern":"D","legs":"X"},"bonus":1.5800000000000014},{"rt":31038,"stimulus":"bees-with-color/bee-B1SF.svg","response":0,"trial_type":"image-button-response","trial_index":119,"time_elapsed":1397951,"internal_node_id":"0.0-4.0-0.56","subject_id":"5f04d99fac08ac7b22af01be","study_id":"6197b3f67c2b5cd3b6d9596a","session_id":"619be53b15b84150b5d65f18","condition":"full-information","relevant_dimensions":["antennae","pattern"],"bee_group":{"antennae":"A","wings":"X","pattern":"D","legs":"X"},"action":"harvest","summary":"good-harvest","bonus":1.5800000000000014},{"rt":4958.5,"stimulus":"\n                    <p><b>Action: <em>harvest</em></b></p>\n                    <p>This is the bee that you just saw.</p>\n                    <img src=\"bees-with-color/bee-B1SF.svg\" width=\"200\">\n                    <p><span class=\"greenText\"><b>Successful harvest!</b></span><br>Your pay has increased by $0.02. Your bonus pay is now $1.00.</p>\n            ","response":0,"trial_type":"html-button-response","trial_index":120,"time_elapsed":1402911,"internal_node_id":"0.0-4.0-1.56","subject_id":"5f04d99fac08ac7b22af01be","study_id":"6197b3f67c2b5cd3b6d9596a","session_id":"619be53b15b84150b5d65f18","condition":"full-information","relevant_dimensions":["antennae","pattern"],"bee_group":{"antennae":"A","wings":"X","pattern":"D","legs":"X"},"bonus":1.5800000000000014},{"rt":1422.300000011921,"stimulus":"bees-with-color/bee-A1SF.svg","response":0,"trial_type":"image-button-response","trial_index":121,"time_elapsed":1404335,"internal_node_id":"0.0-4.0-0.57","subject_id":"5f04d99fac08ac7b22af01be","study_id":"6197b3f67c2b5cd3b6d9596a","session_id":"619be53b15b84150b5d65f18","condition":"full-information","relevant_dimensions":["antennae","pattern"],"bee_group":{"antennae":"A","wings":"X","pattern":"D","legs":"X"},"action":"harvest","summary":"good-harvest","bonus":1.5800000000000014},{"rt":1206.6000000238419,"stimulus":"\n                    <p><b>Action: <em>harvest</em></b></p>\n                    <p>This is the bee that you just saw.</p>\n                    <img src=\"bees-with-color/bee-A1SF.svg\" width=\"200\">\n                    <p><span class=\"greenText\"><b>Successful harvest!</b></span><br>Your pay has increased by $0.02. Your bonus pay is now $1.02.</p>\n            ","response":0,"trial_type":"html-button-response","trial_index":122,"time_elapsed":1405543,"internal_node_id":"0.0-4.0-1.57","subject_id":"5f04d99fac08ac7b22af01be","study_id":"6197b3f67c2b5cd3b6d9596a","session_id":"619be53b15b84150b5d65f18","condition":"full-information","relevant_dimensions":["antennae","pattern"],"bee_group":{"antennae":"A","wings":"X","pattern":"D","legs":"X"},"bonus":1.5800000000000014},{"rt":1135.2000000476837,"stimulus":"bees-with-color/bee-B2SM.svg","response":0,"trial_type":"image-button-response","trial_index":123,"time_elapsed":1406679,"internal_node_id":"0.0-4.0-0.58","subject_id":"5f04d99fac08ac7b22af01be","study_id":"6197b3f67c2b5cd3b6d9596a","session_id":"619be53b15b84150b5d65f18","condition":"full-information","relevant_dimensions":["antennae","pattern"],"bee_group":{"antennae":"A","wings":"X","pattern":"D","legs":"X"},"action":"harvest","summary":"good-harvest","bonus":1.5800000000000014},{"rt":1135,"stimulus":"\n                    <p><b>Action: <em>harvest</em></b></p>\n                    <p>This is the bee that you just saw.</p>\n                    <img src=\"bees-with-color/bee-B2SM.svg\" width=\"200\">\n                    <p><span class=\"greenText\"><b>Successful harvest!</b></span><br>Your pay has increased by $0.02. Your bonus pay is now $1.04.</p>\n            ","response":0,"trial_type":"html-button-response","trial_index":124,"time_elapsed":1407815,"internal_node_id":"0.0-4.0-1.58","subject_id":"5f04d99fac08ac7b22af01be","study_id":"6197b3f67c2b5cd3b6d9596a","session_id":"619be53b15b84150b5d65f18","condition":"full-information","relevant_dimensions":["antennae","pattern"],"bee_group":{"antennae":"A","wings":"X","pattern":"D","legs":"X"},"bonus":1.5800000000000014},{"rt":1167.0999999642372,"stimulus":"bees-with-color/bee-B2SF.svg","response":0,"trial_type":"image-button-response","trial_index":125,"time_elapsed":1408983,"internal_node_id":"0.0-4.0-0.59","subject_id":"5f04d99fac08ac7b22af01be","study_id":"6197b3f67c2b5cd3b6d9596a","session_id":"619be53b15b84150b5d65f18","condition":"full-information","relevant_dimensions":["antennae","pattern"],"bee_group":{"antennae":"A","wings":"X","pattern":"D","legs":"X"},"action":"harvest","summary":"good-harvest","bonus":1.5800000000000014},{"rt":998.8999999761581,"stimulus":"\n                    <p><b>Action: <em>harvest</em></b></p>\n                    <p>This is the bee that you just saw.</p>\n                    <img src=\"bees-with-color/bee-B2SF.svg\" width=\"200\">\n                    <p><span class=\"greenText\"><b>Successful harvest!</b></span><br>Your pay has increased by $0.02. Your bonus pay is now $1.06.</p>\n            ","response":0,"trial_type":"html-button-response","trial_index":126,"time_elapsed":1409983,"internal_node_id":"0.0-4.0-1.59","subject_id":"5f04d99fac08ac7b22af01be","study_id":"6197b3f67c2b5cd3b6d9596a","session_id":"619be53b15b84150b5d65f18","condition":"full-information","relevant_dimensions":["antennae","pattern"],"bee_group":{"antennae":"A","wings":"X","pattern":"D","legs":"X"},"bonus":1.5800000000000014},{"rt":5503.300000011921,"stimulus":"bees-with-color/bee-A2DM.svg","response":1,"trial_type":"image-button-response","trial_index":127,"time_elapsed":1415487,"internal_node_id":"0.0-4.0-0.60","subject_id":"5f04d99fac08ac7b22af01be","study_id":"6197b3f67c2b5cd3b6d9596a","session_id":"619be53b15b84150b5d65f18","condition":"full-information","relevant_dimensions":["antennae","pattern"],"bee_group":{"antennae":"A","wings":"X","pattern":"D","legs":"X"},"action":"avoid","summary":"good-avoid","bonus":1.5800000000000014},{"rt":1383.0999999642372,"stimulus":"\n                    <p><b>Action: <em>avoid</em></b></p>\n                    <p>This is the bee that you just saw.</p>\n                    <img src=\"bees-with-color/bee-A2DM.svg\" width=\"200\">\n                    <p><span class=\"greenText\">Good choice!</span>  This bee would have stung you.<br>Your bonus pay is unchanged, and remains at $1.06.</p>\n            ","response":0,"trial_type":"html-button-response","trial_index":128,"time_elapsed":1416871,"internal_node_id":"0.0-4.0-1.60","subject_id":"5f04d99fac08ac7b22af01be","study_id":"6197b3f67c2b5cd3b6d9596a","session_id":"619be53b15b84150b5d65f18","condition":"full-information","relevant_dimensions":["antennae","pattern"],"bee_group":{"antennae":"A","wings":"X","pattern":"D","legs":"X"},"bonus":1.5800000000000014},{"rt":2030.6000000238419,"stimulus":"bees-with-color/bee-A1DM.svg","response":1,"trial_type":"image-button-response","trial_index":129,"time_elapsed":1418903,"internal_node_id":"0.0-4.0-0.61","subject_id":"5f04d99fac08ac7b22af01be","study_id":"6197b3f67c2b5cd3b6d9596a","session_id":"619be53b15b84150b5d65f18","condition":"full-information","relevant_dimensions":["antennae","pattern"],"bee_group":{"antennae":"A","wings":"X","pattern":"D","legs":"X"},"action":"avoid","summary":"good-avoid","bonus":1.5800000000000014},{"rt":1134.8999999761581,"stimulus":"\n                    <p><b>Action: <em>avoid</em></b></p>\n                    <p>This is the bee that you just saw.</p>\n                    <img src=\"bees-with-color/bee-A1DM.svg\" width=\"200\">\n                    <p><span class=\"greenText\">Good choice!</span>  This bee would have stung you.<br>Your bonus pay is unchanged, and remains at $1.06.</p>\n            ","response":0,"trial_type":"html-button-response","trial_index":130,"time_elapsed":1420039,"internal_node_id":"0.0-4.0-1.61","subject_id":"5f04d99fac08ac7b22af01be","study_id":"6197b3f67c2b5cd3b6d9596a","session_id":"619be53b15b84150b5d65f18","condition":"full-information","relevant_dimensions":["antennae","pattern"],"bee_group":{"antennae":"A","wings":"X","pattern":"D","legs":"X"},"bonus":1.5800000000000014},{"rt":1238.6000000238419,"stimulus":"bees-with-color/bee-A2SF.svg","response":0,"trial_type":"image-button-response","trial_index":131,"time_elapsed":1421279,"internal_node_id":"0.0-4.0-0.62","subject_id":"5f04d99fac08ac7b22af01be","study_id":"6197b3f67c2b5cd3b6d9596a","session_id":"619be53b15b84150b5d65f18","condition":"full-information","relevant_dimensions":["antennae","pattern"],"bee_group":{"antennae":"A","wings":"X","pattern":"D","legs":"X"},"action":"harvest","summary":"good-harvest","bonus":1.5800000000000014},{"rt":918.8999999761581,"stimulus":"\n                    <p><b>Action: <em>harvest</em></b></p>\n                    <p>This is the bee that you just saw.</p>\n                    <img src=\"bees-with-color/bee-A2SF.svg\" width=\"200\">\n                    <p><span class=\"greenText\"><b>Successful harvest!</b></span><br>Your pay has increased by $0.02. Your bonus pay is now $1.08.</p>\n            ","response":0,"trial_type":"html-button-response","trial_index":132,"time_elapsed":1422199,"internal_node_id":"0.0-4.0-1.62","subject_id":"5f04d99fac08ac7b22af01be","study_id":"6197b3f67c2b5cd3b6d9596a","session_id":"619be53b15b84150b5d65f18","condition":"full-information","relevant_dimensions":["antennae","pattern"],"bee_group":{"antennae":"A","wings":"X","pattern":"D","legs":"X"},"bonus":1.5800000000000014},{"rt":1743,"stimulus":"bees-with-color/bee-B2DM.svg","response":0,"trial_type":"image-button-response","trial_index":133,"time_elapsed":1423943,"internal_node_id":"0.0-4.0-0.63","subject_id":"5f04d99fac08ac7b22af01be","study_id":"6197b3f67c2b5cd3b6d9596a","session_id":"619be53b15b84150b5d65f18","condition":"full-information","relevant_dimensions":["antennae","pattern"],"bee_group":{"antennae":"A","wings":"X","pattern":"D","legs":"X"},"action":"harvest","summary":"good-harvest","bonus":1.5800000000000014},{"rt":1214.9000000357628,"stimulus":"\n                    <p><b>Action: <em>harvest</em></b></p>\n                    <p>This is the bee that you just saw.</p>\n                    <img src=\"bees-with-color/bee-B2DM.svg\" width=\"200\">\n                    <p><span class=\"greenText\"><b>Successful harvest!</b></span><br>Your pay has increased by $0.02. Your bonus pay is now $1.10.</p>\n            ","response":0,"trial_type":"html-button-response","trial_index":134,"time_elapsed":1425159,"internal_node_id":"0.0-4.0-1.63","subject_id":"5f04d99fac08ac7b22af01be","study_id":"6197b3f67c2b5cd3b6d9596a","session_id":"619be53b15b84150b5d65f18","condition":"full-information","relevant_dimensions":["antennae","pattern"],"bee_group":{"antennae":"A","wings":"X","pattern":"D","legs":"X"},"bonus":1.5800000000000014},{"rt":10145.300000011921,"stimulus":"You have completed the first part of this experiment.<br><br>You will now begin a shorter second part, in which you will receive no feedback.<br>The same rules regarding bonus pay apply.<br><br>Press any key to begin.","response":" ","trial_type":"html-keyboard-response","trial_index":135,"time_elapsed":1435306,"internal_node_id":"0.0-5.0","subject_id":"5f04d99fac08ac7b22af01be","study_id":"6197b3f67c2b5cd3b6d9596a","session_id":"619be53b15b84150b5d65f18","condition":"full-information","relevant_dimensions":["antennae","pattern"],"bee_group":{"antennae":"A","wings":"X","pattern":"D","legs":"X"},"bonus":1.5800000000000014},{"rt":2052.800000011921,"stimulus":"bees-with-color/bee-A2DM.svg","response":1,"trial_type":"image-button-response","trial_index":136,"time_elapsed":1437383,"internal_node_id":"0.0-6.0-0.0","subject_id":"5f04d99fac08ac7b22af01be","study_id":"6197b3f67c2b5cd3b6d9596a","session_id":"619be53b15b84150b5d65f18","condition":"full-information","relevant_dimensions":["antennae","pattern"],"bee_group":{"antennae":"A","wings":"X","pattern":"D","legs":"X"},"bonus":1.5800000000000014},{"rt":1334.3999999761581,"stimulus":"bees-with-color/bee-A2SM.svg","response":0,"trial_type":"image-button-response","trial_index":137,"time_elapsed":1438719,"internal_node_id":"0.0-6.0-0.1","subject_id":"5f04d99fac08ac7b22af01be","study_id":"6197b3f67c2b5cd3b6d9596a","session_id":"619be53b15b84150b5d65f18","condition":"full-information","relevant_dimensions":["antennae","pattern"],"bee_group":{"antennae":"A","wings":"X","pattern":"D","legs":"X"},"bonus":1.5800000000000014},{"rt":1645.4000000357628,"stimulus":"bees-with-color/bee-A1DM.svg","response":1,"trial_type":"image-button-response","trial_index":138,"time_elapsed":1440367,"internal_node_id":"0.0-6.0-0.2","subject_id":"5f04d99fac08ac7b22af01be","study_id":"6197b3f67c2b5cd3b6d9596a","session_id":"619be53b15b84150b5d65f18","condition":"full-information","relevant_dimensions":["antennae","pattern"],"bee_group":{"antennae":"A","wings":"X","pattern":"D","legs":"X"},"bonus":1.5800000000000014},{"rt":1086.199999988079,"stimulus":"bees-with-color/bee-A2SF.svg","response":0,"trial_type":"image-button-response","trial_index":139,"time_elapsed":1441455,"internal_node_id":"0.0-6.0-0.3","subject_id":"5f04d99fac08ac7b22af01be","study_id":"6197b3f67c2b5cd3b6d9596a","session_id":"619be53b15b84150b5d65f18","condition":"full-information","relevant_dimensions":["antennae","pattern"],"bee_group":{"antennae":"A","wings":"X","pattern":"D","legs":"X"},"bonus":1.5800000000000014},{"rt":1310.300000011921,"stimulus":"bees-with-color/bee-B1DM.svg","response":0,"trial_type":"image-button-response","trial_index":140,"time_elapsed":1442767,"internal_node_id":"0.0-6.0-0.4","subject_id":"5f04d99fac08ac7b22af01be","study_id":"6197b3f67c2b5cd3b6d9596a","session_id":"619be53b15b84150b5d65f18","condition":"full-information","relevant_dimensions":["antennae","pattern"],"bee_group":{"antennae":"A","wings":"X","pattern":"D","legs":"X"},"bonus":1.5800000000000014},{"rt":1766.300000011921,"stimulus":"bees-with-color/bee-B2DM.svg","response":0,"trial_type":"image-button-response","trial_index":141,"time_elapsed":1444535,"internal_node_id":"0.0-6.0-0.5","subject_id":"5f04d99fac08ac7b22af01be","study_id":"6197b3f67c2b5cd3b6d9596a","session_id":"619be53b15b84150b5d65f18","condition":"full-information","relevant_dimensions":["antennae","pattern"],"bee_group":{"antennae":"A","wings":"X","pattern":"D","legs":"X"},"bonus":1.5800000000000014},{"rt":1182.2000000476837,"stimulus":"bees-with-color/bee-B2DF.svg","response":0,"trial_type":"image-button-response","trial_index":142,"time_elapsed":1445719,"internal_node_id":"0.0-6.0-0.6","subject_id":"5f04d99fac08ac7b22af01be","study_id":"6197b3f67c2b5cd3b6d9596a","session_id":"619be53b15b84150b5d65f18","condition":"full-information","relevant_dimensions":["antennae","pattern"],"bee_group":{"antennae":"A","wings":"X","pattern":"D","legs":"X"},"bonus":1.5800000000000014},{"rt":1046,"stimulus":"bees-with-color/bee-B2SM.svg","response":0,"trial_type":"image-button-response","trial_index":143,"time_elapsed":1446767,"internal_node_id":"0.0-6.0-0.7","subject_id":"5f04d99fac08ac7b22af01be","study_id":"6197b3f67c2b5cd3b6d9596a","session_id":"619be53b15b84150b5d65f18","condition":"full-information","relevant_dimensions":["antennae","pattern"],"bee_group":{"antennae":"A","wings":"X","pattern":"D","legs":"X"},"bonus":1.5800000000000014},{"rt":1046.4000000357628,"stimulus":"bees-with-color/bee-B1DF.svg","response":0,"trial_type":"image-button-response","trial_index":144,"time_elapsed":1447815,"internal_node_id":"0.0-6.0-0.8","subject_id":"5f04d99fac08ac7b22af01be","study_id":"6197b3f67c2b5cd3b6d9596a","session_id":"619be53b15b84150b5d65f18","condition":"full-information","relevant_dimensions":["antennae","pattern"],"bee_group":{"antennae":"A","wings":"X","pattern":"D","legs":"X"},"bonus":1.5800000000000014},{"rt":1062.6000000238419,"stimulus":"bees-with-color/bee-A2DF.svg","response":1,"trial_type":"image-button-response","trial_index":145,"time_elapsed":1448879,"internal_node_id":"0.0-6.0-0.9","subject_id":"5f04d99fac08ac7b22af01be","study_id":"6197b3f67c2b5cd3b6d9596a","session_id":"619be53b15b84150b5d65f18","condition":"full-information","relevant_dimensions":["antennae","pattern"],"bee_group":{"antennae":"A","wings":"X","pattern":"D","legs":"X"},"bonus":1.5800000000000014},{"rt":1086.6000000238419,"stimulus":"bees-with-color/bee-B1SM.svg","response":0,"trial_type":"image-button-response","trial_index":146,"time_elapsed":1449967,"internal_node_id":"0.0-6.0-0.10","subject_id":"5f04d99fac08ac7b22af01be","study_id":"6197b3f67c2b5cd3b6d9596a","session_id":"619be53b15b84150b5d65f18","condition":"full-information","relevant_dimensions":["antennae","pattern"],"bee_group":{"antennae":"A","wings":"X","pattern":"D","legs":"X"},"bonus":1.5800000000000014},{"rt":1046.699999988079,"stimulus":"bees-with-color/bee-B1SF.svg","response":0,"trial_type":"image-button-response","trial_index":147,"time_elapsed":1451015,"internal_node_id":"0.0-6.0-0.11","subject_id":"5f04d99fac08ac7b22af01be","study_id":"6197b3f67c2b5cd3b6d9596a","session_id":"619be53b15b84150b5d65f18","condition":"full-information","relevant_dimensions":["antennae","pattern"],"bee_group":{"antennae":"A","wings":"X","pattern":"D","legs":"X"},"bonus":1.5800000000000014},{"rt":982.1999999880791,"stimulus":"bees-with-color/bee-B2SF.svg","response":0,"trial_type":"image-button-response","trial_index":148,"time_elapsed":1451999,"internal_node_id":"0.0-6.0-0.12","subject_id":"5f04d99fac08ac7b22af01be","study_id":"6197b3f67c2b5cd3b6d9596a","session_id":"619be53b15b84150b5d65f18","condition":"full-information","relevant_dimensions":["antennae","pattern"],"bee_group":{"antennae":"A","wings":"X","pattern":"D","legs":"X"},"bonus":1.5800000000000014},{"rt":1021.9000000357628,"stimulus":"bees-with-color/bee-A1SM.svg","response":0,"trial_type":"image-button-response","trial_index":149,"time_elapsed":1453023,"internal_node_id":"0.0-6.0-0.13","subject_id":"5f04d99fac08ac7b22af01be","study_id":"6197b3f67c2b5cd3b6d9596a","session_id":"619be53b15b84150b5d65f18","condition":"full-information","relevant_dimensions":["antennae","pattern"],"bee_group":{"antennae":"A","wings":"X","pattern":"D","legs":"X"},"bonus":1.5800000000000014},{"rt":3494.599999964237,"stimulus":"bees-with-color/bee-A1DF.svg","response":1,"trial_type":"image-button-response","trial_index":150,"time_elapsed":1456519,"internal_node_id":"0.0-6.0-0.14","subject_id":"5f04d99fac08ac7b22af01be","study_id":"6197b3f67c2b5cd3b6d9596a","session_id":"619be53b15b84150b5d65f18","condition":"full-information","relevant_dimensions":["antennae","pattern"],"bee_group":{"antennae":"A","wings":"X","pattern":"D","legs":"X"},"bonus":1.5800000000000014},{"rt":933.4000000357628,"stimulus":"bees-with-color/bee-A1SF.svg","response":0,"trial_type":"image-button-response","trial_index":151,"time_elapsed":1457455,"internal_node_id":"0.0-6.0-0.15","subject_id":"5f04d99fac08ac7b22af01be","study_id":"6197b3f67c2b5cd3b6d9596a","session_id":"619be53b15b84150b5d65f18","condition":"full-information","relevant_dimensions":["antennae","pattern"],"bee_group":{"antennae":"A","wings":"X","pattern":"D","legs":"X"},"bonus":1.5800000000000014},{"rt":1294.800000011921,"stimulus":"bees-with-color/bee-A1DM.svg","response":1,"trial_type":"image-button-response","trial_index":152,"time_elapsed":1458751,"internal_node_id":"0.0-6.0-0.16","subject_id":"5f04d99fac08ac7b22af01be","study_id":"6197b3f67c2b5cd3b6d9596a","session_id":"619be53b15b84150b5d65f18","condition":"full-information","relevant_dimensions":["antennae","pattern"],"bee_group":{"antennae":"A","wings":"X","pattern":"D","legs":"X"},"bonus":1.5800000000000014},{"rt":1349.8999999761581,"stimulus":"bees-with-color/bee-B2DF.svg","response":0,"trial_type":"image-button-response","trial_index":153,"time_elapsed":1460103,"internal_node_id":"0.0-6.0-0.17","subject_id":"5f04d99fac08ac7b22af01be","study_id":"6197b3f67c2b5cd3b6d9596a","session_id":"619be53b15b84150b5d65f18","condition":"full-information","relevant_dimensions":["antennae","pattern"],"bee_group":{"antennae":"A","wings":"X","pattern":"D","legs":"X"},"bonus":1.5800000000000014},{"rt":1102,"stimulus":"bees-with-color/bee-A1SM.svg","response":0,"trial_type":"image-button-response","trial_index":154,"time_elapsed":1461207,"internal_node_id":"0.0-6.0-0.18","subject_id":"5f04d99fac08ac7b22af01be","study_id":"6197b3f67c2b5cd3b6d9596a","session_id":"619be53b15b84150b5d65f18","condition":"full-information","relevant_dimensions":["antennae","pattern"],"bee_group":{"antennae":"A","wings":"X","pattern":"D","legs":"X"},"bonus":1.5800000000000014},{"rt":966.6000000238419,"stimulus":"bees-with-color/bee-A2SF.svg","response":0,"trial_type":"image-button-response","trial_index":155,"time_elapsed":1462175,"internal_node_id":"0.0-6.0-0.19","subject_id":"5f04d99fac08ac7b22af01be","study_id":"6197b3f67c2b5cd3b6d9596a","session_id":"619be53b15b84150b5d65f18","condition":"full-information","relevant_dimensions":["antennae","pattern"],"bee_group":{"antennae":"A","wings":"X","pattern":"D","legs":"X"},