[{"success":true,"trial_type":"fullscreen","trial_index":0,"time_elapsed":3694,"internal_node_id":"0.0-0.0","subject_id":"614e1bee11cb9197129836ce","study_id":"6197b3f67c2b5cd3b6d9596a","session_id":"619beef1c0aee2f9df46b19d","condition":"contingent","relevant_dimensions":["antennae","legs"],"bee_group":{"antennae":"B","wings":"X","pattern":"X","legs":"M"},"bonus":1.4200000000000013},{"success":true,"timeout":false,"failed_images":[],"failed_audio":[],"failed_video":[],"trial_type":"preload","trial_index":1,"time_elapsed":5102,"internal_node_id":"0.0-1.0","subject_id":"614e1bee11cb9197129836ce","study_id":"6197b3f67c2b5cd3b6d9596a","session_id":"619beef1c0aee2f9df46b19d","condition":"contingent","relevant_dimensions":["antennae","legs"],"bee_group":{"antennae":"B","wings":"X","pattern":"X","legs":"M"},"bonus":1.4200000000000013},{"rt":3062.1999999284744,"stimulus":"Welcome! Press any key to begin.","response":"arrowright","trial_type":"html-keyboard-response","trial_index":2,"time_elapsed":8164,"internal_node_id":"0.0-2.0","subject_id":"614e1bee11cb9197129836ce","study_id":"6197b3f67c2b5cd3b6d9596a","session_id":"619beef1c0aee2f9df46b19d","condition":"contingent","relevant_dimensions":["antennae","legs"],"bee_group":{"antennae":"B","wings":"X","pattern":"X","legs":"M"},"bonus":1.4200000000000013},{"view_history":[{"page_index":0,"viewing_time":3331.899999976158},{"page_index":1,"viewing_time":13462.899999976158},{"page_index":2,"viewing_time":15614.899999976158},{"page_index":3,"viewing_time":17960},{"page_index":4,"viewing_time":6476.300000071526},{"page_index":5,"viewing_time":5614.799999952316},{"page_index":6,"viewing_time":10605},{"page_index":7,"viewing_time":6513.600000023842},{"page_index":8,"viewing_time":6385.699999928474},{"page_index":9,"viewing_time":4053},{"page_index":10,"viewing_time":3156.5},{"page_index":11,"viewing_time":9042.800000071526},{"page_index":12,"viewing_time":9396.299999952316},{"page_index":13,"viewing_time":2396.8000000715256},{"page_index":14,"viewing_time":1679}],"rt":115689.69999992847,"trial_type":"instructions","trial_index":3,"time_elapsed":123854,"internal_node_id":"0.0-3.0-0.0","subject_id":"614e1bee11cb9197129836ce","study_id":"6197b3f67c2b5cd3b6d9596a","session_id":"619beef1c0aee2f9df46b19d","condition":"contingent","relevant_dimensions":["antennae","legs"],"bee_group":{"antennae":"B","wings":"X","pattern":"X","legs":"M"},"bonus":1.4200000000000013},{"rt":12764.700000047684,"response":{"Q0":["Two or six legs","Stripes or spots on body","Single or double wings","Antennae or no antennae"]},"question_order":[0],"trial_type":"survey-multi-select","trial_index":4,"time_elapsed":136621,"internal_node_id":"0.0-3.0-1.0","subject_id":"614e1bee11cb9197129836ce","study_id":"6197b3f67c2b5cd3b6d9596a","session_id":"619beef1c0aee2f9df46b19d","condition":"contingent","relevant_dimensions":["antennae","legs"],"bee_group":{"antennae":"B","wings":"X","pattern":"X","legs":"M"},"correct":true,"bonus":1.4200000000000013},{"rt":25642.600000023842,"response":{"Q1":"No.","Q2":"Based on the four features of the bee.","Q3":"You do not learn if it was friendly or dangerous, and do not alter your bonus."},"question_order":[0,1,2],"trial_type":"survey-multi-choice","trial_index":5,"time_elapsed":162265,"internal_node_id":"0.0-3.0-2.0","subject_id":"614e1bee11cb9197129836ce","study_id":"6197b3f67c2b5cd3b6d9596a","session_id":"619beef1c0aee2f9df46b19d","condition":"contingent","relevant_dimensions":["antennae","legs"],"bee_group":{"antennae":"B","wings":"X","pattern":"X","legs":"M"},"correct":true,"bonus":1.4200000000000013},{"rt":2522.8000000715256,"stimulus":"<p>Congrats, you got everything right<br>When you're ready, click the button below to continue to the experiment.</p>","response":0,"trial_type":"html-button-response","trial_index":6,"time_elapsed":164788,"internal_node_id":"0.0-3.0-3.0","subject_id":"614e1bee11cb9197129836ce","study_id":"6197b3f67c2b5cd3b6d9596a","session_id":"619beef1c0aee2f9df46b19d","condition":"contingent","relevant_dimensions":["antennae","legs"],"bee_group":{"antennae":"B","wings":"X","pattern":"X","legs":"M"},"bonus":1.4200000000000013},{"rt":7369.899999976158,"stimulus":"bees-with-color/bee-A1DF.svg","response":0,"trial_type":"image-button-response","trial_index":7,"time_elapsed":172160,"internal_node_id":"0.0-4.0-0.0","subject_id":"614e1bee11cb9197129836ce","study_id":"6197b3f67c2b5cd3b6d9596a","session_id":"619beef1c0aee2f9df46b19d","condition":"contingent","relevant_dimensions":["antennae","legs"],"bee_group":{"antennae":"B","wings":"X","pattern":"X","legs":"M"},"action":"harvest","summary":"good-harvest","bonus":1.4200000000000013},{"rt":47620.39999997616,"stimulus":"\n                    <p><b>Action: <em>harvest</em></b></p>\n                    <p>This is the bee that you just saw.</p>\n                    <img src=\"bees-with-color/bee-A1DF.svg\" width=\"200\">\n                    <p><span class=\"greenText\"><b>Successful harvest!</b></span><br>Your pay has increased by $0.02. Your bonus pay is now $0.56.</p>\n            ","response":0,"trial_type":"html-button-response","trial_index":8,"time_elapsed":219782,"internal_node_id":"0.0-4.0-1.0","subject_id":"614e1bee11cb9197129836ce","study_id":"6197b3f67c2b5cd3b6d9596a","session_id":"619beef1c0aee2f9df46b19d","condition":"contingent","relevant_dimensions":["antennae","legs"],"bee_group":{"antennae":"B","wings":"X","pattern":"X","legs":"M"},"bonus":1.4200000000000013},{"rt":4798.699999928474,"stimulus":"bees-with-color/bee-A2SM.svg","response":0,"trial_type":"image-button-response","trial_index":9,"time_elapsed":224582,"internal_node_id":"0.0-4.0-0.1","subject_id":"614e1bee11cb9197129836ce","study_id":"6197b3f67c2b5cd3b6d9596a","session_id":"619beef1c0aee2f9df46b19d","condition":"contingent","relevant_dimensions":["antennae","legs"],"bee_group":{"antennae":"B","wings":"X","pattern":"X","legs":"M"},"action":"harvest","summary":"good-harvest","bonus":1.4200000000000013},{"rt":22171,"stimulus":"\n                    <p><b>Action: <em>harvest</em></b></p>\n                    <p>This is the bee that you just saw.</p>\n                    <img src=\"bees-with-color/bee-A2SM.svg\" width=\"200\">\n                    <p><span class=\"greenText\"><b>Successful harvest!</b></span><br>Your pay has increased by $0.02. Your bonus pay is now $0.58.</p>\n            ","response":0,"trial_type":"html-button-response","trial_index":10,"time_elapsed":246754,"internal_node_id":"0.0-4.0-1.1","subject_id":"614e1bee11cb9197129836ce","study_id":"6197b3f67c2b5cd3b6d9596a","session_id":"619beef1c0aee2f9df46b19d","condition":"contingent","relevant_dimensions":["antennae","legs"],"bee_group":{"antennae":"B","wings":"X","pattern":"X","legs":"M"},"bonus":1.4200000000000013},{"rt":1101.7999999523163,"stimulus":"bees-with-color/bee-B1SM.svg","response":0,"trial_type":"image-button-response","trial_index":11,"time_elapsed":247857,"internal_node_id":"0.0-4.0-0.2","subject_id":"614e1bee11cb9197129836ce","study_id":"6197b3f67c2b5cd3b6d9596a","session_id":"619beef1c0aee2f9df46b19d","condition":"contingent","relevant_dimensions":["antennae","legs"],"bee_group":{"antennae":"B","wings":"X","pattern":"X","legs":"M"},"action":"harvest","summary":"bad-harvest","bonus":1.4200000000000013},{"rt":25160.100000023842,"stimulus":"\n                    <p><b>Action: <em>harvest</em></b></p>\n                    <p>This is the bee that you just saw.</p>\n                    <img src=\"bees-with-color/bee-B1SM.svg\" width=\"200\">\n                    <p><span class=\"redText\">Bad choice, the bee was angry.</span><br><b>You have been stung!</b><br>Your pay has been decreased by $0.10. Your bonus pay is now $0.48.</p>\n            ","response":0,"trial_type":"html-button-response","trial_index":12,"time_elapsed":273018,"internal_node_id":"0.0-4.0-1.2","subject_id":"614e1bee11cb9197129836ce","study_id":"6197b3f67c2b5cd3b6d9596a","session_id":"619beef1c0aee2f9df46b19d","condition":"contingent","relevant_dimensions":["antennae","legs"],"bee_group":{"antennae":"B","wings":"X","pattern":"X","legs":"M"},"bonus":1.4200000000000013},{"rt":1881.7999999523163,"stimulus":"bees-with-color/bee-A2DF.svg","response":0,"trial_type":"image-button-response","trial_index":13,"time_elapsed":274900,"internal_node_id":"0.0-4.0-0.3","subject_id":"614e1bee11cb9197129836ce","study_id":"6197b3f67c2b5cd3b6d9596a","session_id":"619beef1c0aee2f9df46b19d","condition":"contingent","relevant_dimensions":["antennae","legs"],"bee_group":{"antennae":"B","wings":"X","pattern":"X","legs":"M"},"action":"harvest","summary":"good-harvest","bonus":1.4200000000000013},{"rt":20244.699999928474,"stimulus":"\n                    <p><b>Action: <em>harvest</em></b></p>\n                    <p>This is the bee that you just saw.</p>\n                    <img src=\"bees-with-color/bee-A2DF.svg\" width=\"200\">\n                    <p><span class=\"greenText\"><b>Successful harvest!</b></span><br>Your pay has increased by $0.02. Your bonus pay is now $0.50.</p>\n            ","response":0,"trial_type":"html-button-response","trial_index":14,"time_elapsed":295146,"internal_node_id":"0.0-4.0-1.3","subject_id":"614e1bee11cb9197129836ce","study_id":"6197b3f67c2b5cd3b6d9596a","session_id":"619beef1c0aee2f9df46b19d","condition":"contingent","relevant_dimensions":["antennae","legs"],"bee_group":{"antennae":"B","wings":"X","pattern":"X","legs":"M"},"bonus":1.4200000000000013},{"rt":5267.600000023842,"stimulus":"bees-with-color/bee-B2DM.svg","response":0,"trial_type":"image-button-response","trial_index":15,"time_elapsed":300414,"internal_node_id":"0.0-4.0-0.4","subject_id":"614e1bee11cb9197129836ce","study_id":"6197b3f67c2b5cd3b6d9596a","session_id":"619beef1c0aee2f9df46b19d","condition":"contingent","relevant_dimensions":["antennae","legs"],"bee_group":{"antennae":"B","wings":"X","pattern":"X","legs":"M"},"action":"harvest","summary":"bad-harvest","bonus":1.4200000000000013},{"rt":22177.600000023842,"stimulus":"\n                    <p><b>Action: <em>harvest</em></b></p>\n                    <p>This is the bee that you just saw.</p>\n                    <img src=\"bees-with-color/bee-B2DM.svg\" width=\"200\">\n                    <p><span class=\"redText\">Bad choice, the bee was angry.</span><br><b>You have been stung!</b><br>Your pay has been decreased by $0.10. Your bonus pay is now $0.40.</p>\n            ","response":0,"trial_type":"html-button-response","trial_index":16,"time_elapsed":322592,"internal_node_id":"0.0-4.0-1.4","subject_id":"614e1bee11cb9197129836ce","study_id":"6197b3f67c2b5cd3b6d9596a","session_id":"619beef1c0aee2f9df46b19d","condition":"contingent","relevant_dimensions":["antennae","legs"],"bee_group":{"antennae":"B","wings":"X","pattern":"X","legs":"M"},"bonus":1.4200000000000013},{"rt":12111.200000047684,"stimulus":"bees-with-color/bee-B2SF.svg","response":0,"trial_type":"image-button-response","trial_index":17,"time_elapsed":334705,"internal_node_id":"0.0-4.0-0.5","subject_id":"614e1bee11cb9197129836ce","study_id":"6197b3f67c2b5cd3b6d9596a","session_id":"619beef1c0aee2f9df46b19d","condition":"contingent","relevant_dimensions":["antennae","legs"],"bee_group":{"antennae":"B","wings":"X","pattern":"X","legs":"M"},"action":"harvest","summary":"good-harvest","bonus":1.4200000000000013},{"rt":22408.100000023842,"stimulus":"\n                    <p><b>Action: <em>harvest</em></b></p>\n                    <p>This is the bee that you just saw.</p>\n                    <img src=\"bees-with-color/bee-B2SF.svg\" width=\"200\">\n                    <p><span class=\"greenText\"><b>Successful harvest!</b></span><br>Your pay has increased by $0.02. Your bonus pay is now $0.42.</p>\n            ","response":0,"trial_type":"html-button-response","trial_index":18,"time_elapsed":357113,"internal_node_id":"0.0-4.0-1.5","subject_id":"614e1bee11cb9197129836ce","study_id":"6197b3f67c2b5cd3b6d9596a","session_id":"619beef1c0aee2f9df46b19d","condition":"contingent","relevant_dimensions":["antennae","legs"],"bee_group":{"antennae":"B","wings":"X","pattern":"X","legs":"M"},"bonus":1.4200000000000013},{"rt":1925.8999999761581,"stimulus":"bees-with-color/bee-B1DF.svg","response":0,"trial_type":"image-button-response","trial_index":19,"time_elapsed":359040,"internal_node_id":"0.0-4.0-0.6","subject_id":"614e1bee11cb9197129836ce","study_id":"6197b3f67c2b5cd3b6d9596a","session_id":"619beef1c0aee2f9df46b19d","condition":"contingent","relevant_dimensions":["antennae","legs"],"bee_group":{"antennae":"B","wings":"X","pattern":"X","legs":"M"},"action":"harvest","summary":"good-harvest","bonus":1.4200000000000013},{"rt":34520.199999928474,"stimulus":"\n                    <p><b>Action: <em>harvest</em></b></p>\n                    <p>This is the bee that you just saw.</p>\n                    <img src=\"bees-with-color/bee-B1DF.svg\" width=\"200\">\n                    <p><span class=\"greenText\"><b>Successful harvest!</b></span><br>Your pay has increased by $0.02. Your bonus pay is now $0.44.</p>\n            ","response":0,"trial_type":"html-button-response","trial_index":20,"time_elapsed":393561,"internal_node_id":"0.0-4.0-1.6","subject_id":"614e1bee11cb9197129836ce","study_id":"6197b3f67c2b5cd3b6d9596a","session_id":"619beef1c0aee2f9df46b19d","condition":"contingent","relevant_dimensions":["antennae","legs"],"bee_group":{"antennae":"B","wings":"X","pattern":"X","legs":"M"},"bonus":1.4200000000000013},{"rt":7128.800000071526,"stimulus":"bees-with-color/bee-A1SF.svg","response":0,"trial_type":"image-button-response","trial_index":21,"time_elapsed":400691,"internal_node_id":"0.0-4.0-0.7","subject_id":"614e1bee11cb9197129836ce","study_id":"6197b3f67c2b5cd3b6d9596a","session_id":"619beef1c0aee2f9df46b19d","condition":"contingent","relevant_dimensions":["antennae","legs"],"bee_group":{"antennae":"B","wings":"X","pattern":"X","legs":"M"},"action":"harvest","summary":"good-harvest","bonus":1.4200000000000013},{"rt":15724,"stimulus":"\n                    <p><b>Action: <em>harvest</em></b></p>\n                    <p>This is the bee that you just saw.</p>\n                    <img src=\"bees-with-color/bee-A1SF.svg\" width=\"200\">\n                    <p><span class=\"greenText\"><b>Successful harvest!</b></span><br>Your pay has increased by $0.02. Your bonus pay is now $0.46.</p>\n            ","response":0,"trial_type":"html-button-response","trial_index":22,"time_elapsed":416416,"internal_node_id":"0.0-4.0-1.7","subject_id":"614e1bee11cb9197129836ce","study_id":"6197b3f67c2b5cd3b6d9596a","session_id":"619beef1c0aee2f9df46b19d","condition":"contingent","relevant_dimensions":["antennae","legs"],"bee_group":{"antennae":"B","wings":"X","pattern":"X","legs":"M"},"bonus":1.4200000000000013},{"rt":12230.800000071526,"stimulus":"bees-with-color/bee-B1DM.svg","response":0,"trial_type":"image-button-response","trial_index":23,"time_elapsed":428648,"internal_node_id":"0.0-4.0-0.8","subject_id":"614e1bee11cb9197129836ce","study_id":"6197b3f67c2b5cd3b6d9596a","session_id":"619beef1c0aee2f9df46b19d","condition":"contingent","relevant_dimensions":["antennae","legs"],"bee_group":{"antennae":"B","wings":"X","pattern":"X","legs":"M"},"action":"harvest","summary":"bad-harvest","bonus":1.4200000000000013},{"rt":31696,"stimulus":"\n                    <p><b>Action: <em>harvest</em></b></p>\n                    <p>This is the bee that you just saw.</p>\n                    <img src=\"bees-with-color/bee-B1DM.svg\" width=\"200\">\n                    <p><span class=\"redText\">Bad choice, the bee was angry.</span><br><b>You have been stung!</b><br>Your pay has been decreased by $0.10. Your bonus pay is now $0.36.</p>\n            ","response":0,"trial_type":"html-button-response","trial_index":24,"time_elapsed":460345,"internal_node_id":"0.0-4.0-1.8","subject_id":"614e1bee11cb9197129836ce","study_id":"6197b3f67c2b5cd3b6d9596a","session_id":"619beef1c0aee2f9df46b19d","condition":"contingent","relevant_dimensions":["antennae","legs"],"bee_group":{"antennae":"B","wings":"X","pattern":"X","legs":"M"},"bonus":1.4200000000000013},{"rt":5068.799999952316,"stimulus":"bees-with-color/bee-B2DF.svg","response":1,"trial_type":"image-button-response","trial_index":25,"time_elapsed":465415,"internal_node_id":"0.0-4.0-0.9","subject_id":"614e1bee11cb9197129836ce","study_id":"6197b3f67c2b5cd3b6d9596a","session_id":"619beef1c0aee2f9df46b19d","condition":"contingent","relevant_dimensions":["antennae","legs"],"bee_group":{"antennae":"B","wings":"X","pattern":"X","legs":"M"},"action":"avoid","summary":"bad-avoid","bonus":1.4200000000000013},{"rt":2890.600000023842,"stimulus":"\n                    <p><b>Action: <em>avoid</em></b></p>\n                    <p>This is the bee that you just saw.</p>\n                    <img src=\"bees-with-color/bee-B2DF.svg\" width=\"200\">\n                    <p><br>Your bonus pay is unchanged, and remains at $0.36.</p>\n            ","response":0,"trial_type":"html-button-response","trial_index":26,"time_elapsed":468306,"internal_node_id":"0.0-4.0-1.9","subject_id":"614e1bee11cb9197129836ce","study_id":"6197b3f67c2b5cd3b6d9596a","session_id":"619beef1c0aee2f9df46b19d","condition":"contingent","relevant_dimensions":["antennae","legs"],"bee_group":{"antennae":"B","wings":"X","pattern":"X","legs":"M"},"bonus":1.4200000000000013},{"rt":7525,"stimulus":"bees-with-color/bee-B1SF.svg","response":0,"trial_type":"image-button-response","trial_index":27,"time_elapsed":475832,"internal_node_id":"0.0-4.0-0.10","subject_id":"614e1bee11cb9197129836ce","study_id":"6197b3f67c2b5cd3b6d9596a","session_id":"619beef1c0aee2f9df46b19d","condition":"contingent","relevant_dimensions":["antennae","legs"],"bee_group":{"antennae":"B","wings":"X","pattern":"X","legs":"M"},"action":"harvest","summary":"good-harvest","bonus":1.4200000000000013},{"rt":20413.699999928474,"stimulus":"\n                    <p><b>Action: <em>harvest</em></b></p>\n                    <p>This is the bee that you just saw.</p>\n                    <img src=\"bees-with-color/bee-B1SF.svg\" width=\"200\">\n                    <p><span class=\"greenText\"><b>Successful harvest!</b></span><br>Your pay has increased by $0.02. Your bonus pay is now $0.38.</p>\n            ","response":0,"trial_type":"html-button-response","trial_index":28,"time_elapsed":496247,"internal_node_id":"0.0-4.0-1.10","subject_id":"614e1bee11cb9197129836ce","study_id":"6197b3f67c2b5cd3b6d9596a","session_id":"619beef1c0aee2f9df46b19d","condition":"contingent","relevant_dimensions":["antennae","legs"],"bee_group":{"antennae":"B","wings":"X","pattern":"X","legs":"M"},"bonus":1.4200000000000013},{"rt":6420.099999904633,"stimulus":"bees-with-color/bee-A1SM.svg","response":0,"trial_type":"image-button-response","trial_index":29,"time_elapsed":502668,"internal_node_id":"0.0-4.0-0.11","subject_id":"614e1bee11cb9197129836ce","study_id":"6197b3f67c2b5cd3b6d9596a","session_id":"619beef1c0aee2f9df46b19d","condition":"contingent","relevant_dimensions":["antennae","legs"],"bee_group":{"antennae":"B","wings":"X","pattern":"X","legs":"M"},"action":"harvest","summary":"good-harvest","bonus":1.4200000000000013},{"rt":21560.899999976158,"stimulus":"\n                    <p><b>Action: <em>harvest</em></b></p>\n                    <p>This is the bee that you just saw.</p>\n                    <img src=\"bees-with-color/bee-A1SM.svg\" width=\"200\">\n                    <p><span class=\"greenText\"><b>Successful harvest!</b></span><br>Your pay has increased by $0.02. Your bonus pay is now $0.40.</p>\n            ","response":0,"trial_type":"html-button-response","trial_index":30,"time_elapsed":524229,"internal_node_id":"0.0-4.0-1.11","subject_id":"614e1bee11cb9197129836ce","study_id":"6197b3f67c2b5cd3b6d9596a","session_id":"619beef1c0aee2f9df46b19d","condition":"contingent","relevant_dimensions":["antennae","legs"],"bee_group":{"antennae":"B","wings":"X","pattern":"X","legs":"M"},"bonus":1.4200000000000013},{"rt":8070.400000095367,"stimulus":"bees-with-color/bee-A2DM.svg","response":0,"trial_type":"image-button-response","trial_index":31,"time_elapsed":532301,"internal_node_id":"0.0-4.0-0.12","subject_id":"614e1bee11cb9197129836ce","study_id":"6197b3f67c2b5cd3b6d9596a","session_id":"619beef1c0aee2f9df46b19d","condition":"contingent","relevant_dimensions":["antennae","legs"],"bee_group":{"antennae":"B","wings":"X","pattern":"X","legs":"M"},"action":"harvest","summary":"good-harvest","bonus":1.4200000000000013},{"rt":23460.5,"stimulus":"\n                    <p><b>Action: <em>harvest</em></b></p>\n                    <p>This is the bee that you just saw.</p>\n                    <img src=\"bees-with-color/bee-A2DM.svg\" width=\"200\">\n                    <p><span class=\"greenText\"><b>Successful harvest!</b></span><br>Your pay has increased by $0.02. Your bonus pay is now $0.42.</p>\n            ","response":0,"trial_type":"html-button-response","trial_index":32,"time_elapsed":555762,"internal_node_id":"0.0-4.0-1.12","subject_id":"614e1bee11cb9197129836ce","study_id":"6197b3f67c2b5cd3b6d9596a","session_id":"619beef1c0aee2f9df46b19d","condition":"contingent","relevant_dimensions":["antennae","legs"],"bee_group":{"antennae":"B","wings":"X","pattern":"X","legs":"M"},"bonus":1.4200000000000013},{"rt":6321.099999904633,"stimulus":"bees-with-color/bee-A1DM.svg","response":0,"trial_type":"image-button-response","trial_index":33,"time_elapsed":562084,"internal_node_id":"0.0-4.0-0.13","subject_id":"614e1bee11cb9197129836ce","study_id":"6197b3f67c2b5cd3b6d9596a","session_id":"619beef1c0aee2f9df46b19d","condition":"contingent","relevant_dimensions":["antennae","legs"],"bee_group":{"antennae":"B","wings":"X","pattern":"X","legs":"M"},"action":"harvest","summary":"good-harvest","bonus":1.4200000000000013},{"rt":11150.199999928474,"stimulus":"\n                    <p><b>Action: <em>harvest</em></b></p>\n                    <p>This is the bee that you just saw.</p>\n                    <img src=\"bees-with-color/bee-A1DM.svg\" width=\"200\">\n                    <p><span class=\"greenText\"><b>Successful harvest!</b></span><br>Your pay has increased by $0.02. Your bonus pay is now $0.44.</p>\n            ","response":0,"trial_type":"html-button-response","trial_index":34,"time_elapsed":573235,"internal_node_id":"0.0-4.0-1.13","subject_id":"614e1bee11cb9197129836ce","study_id":"6197b3f67c2b5cd3b6d9596a","session_id":"619beef1c0aee2f9df46b19d","condition":"contingent","relevant_dimensions":["antennae","legs"],"bee_group":{"antennae":"B","wings":"X","pattern":"X","legs":"M"},"bonus":1.4200000000000013},{"rt":4965.100000023842,"stimulus":"bees-with-color/bee-A2SF.svg","response":0,"trial_type":"image-button-response","trial_index":35,"time_elapsed":578201,"internal_node_id":"0.0-4.0-0.14","subject_id":"614e1bee11cb9197129836ce","study_id":"6197b3f67c2b5cd3b6d9596a","session_id":"619beef1c0aee2f9df46b19d","condition":"contingent","relevant_dimensions":["antennae","legs"],"bee_group":{"antennae":"B","wings":"X","pattern":"X","legs":"M"},"action":"harvest","summary":"good-harvest","bonus":1.4200000000000013},{"rt":2411.600000023842,"stimulus":"\n                    <p><b>Action: <em>harvest</em></b></p>\n                    <p>This is the bee that you just saw.</p>\n                    <img src=\"bees-with-color/bee-A2SF.svg\" width=\"200\">\n                    <p><span class=\"greenText\"><b>Successful harvest!</b></span><br>Your pay has increased by $0.02. Your bonus pay is now $0.46.</p>\n            ","response":0,"trial_type":"html-button-response","trial_index":36,"time_elapsed":580613,"internal_node_id":"0.0-4.0-1.14","subject_id":"614e1bee11cb9197129836ce","study_id":"6197b3f67c2b5cd3b6d9596a","session_id":"619beef1c0aee2f9df46b19d","condition":"contingent","relevant_dimensions":["antennae","legs"],"bee_group":{"antennae":"B","wings":"X","pattern":"X","legs":"M"},"bonus":1.4200000000000013},{"rt":8450,"stimulus":"bees-with-color/bee-B2SM.svg","response":1,"trial_type":"image-button-response","trial_index":37,"time_elapsed":589064,"internal_node_id":"0.0-4.0-0.15","subject_id":"614e1bee11cb9197129836ce","study_id":"6197b3f67c2b5cd3b6d9596a","session_id":"619beef1c0aee2f9df46b19d","condition":"contingent","relevant_dimensions":["antennae","legs"],"bee_group":{"antennae":"B","wings":"X","pattern":"X","legs":"M"},"action":"avoid","summary":"good-avoid","bonus":1.4200000000000013},{"rt":1010.7999999523163,"stimulus":"\n                    <p><b>Action: <em>avoid</em></b></p>\n                    <p>This is the bee that you just saw.</p>\n                    <img src=\"bees-with-color/bee-B2SM.svg\" width=\"200\">\n                    <p><br>Your bonus pay is unchanged, and remains at $0.46.</p>\n            ","response":0,"trial_type":"html-button-response","trial_index":38,"time_elapsed":590075,"internal_node_id":"0.0-4.0-1.15","subject_id":"614e1bee11cb9197129836ce","study_id":"6197b3f67c2b5cd3b6d9596a","session_id":"619beef1c0aee2f9df46b19d","condition":"contingent","relevant_dimensions":["antennae","legs"],"bee_group":{"antennae":"B","wings":"X","pattern":"X","legs":"M"},"bonus":1.4200000000000013},{"rt":11164,"stimulus":"bees-with-color/bee-A2SF.svg","response":0,"trial_type":"image-button-response","trial_index":39,"time_elapsed":601241,"internal_node_id":"0.0-4.0-0.16","subject_id":"614e1bee11cb9197129836ce","study_id":"6197b3f67c2b5cd3b6d9596a","session_id":"619beef1c0aee2f9df46b19d","condition":"contingent","relevant_dimensions":["antennae","legs"],"bee_group":{"antennae":"B","wings":"X","pattern":"X","legs":"M"},"action":"harvest","summary":"good-harvest","bonus":1.4200000000000013},{"rt":9383.200000047684,"stimulus":"\n                    <p><b>Action: <em>harvest</em></b></p>\n                    <p>This is the bee that you just saw.</p>\n                    <img src=\"bees-with-color/bee-A2SF.svg\" width=\"200\">\n                    <p><span class=\"greenText\"><b>Successful harvest!</b></span><br>Your pay has increased by $0.02. Your bonus pay is now $0.48.</p>\n            ","response":0,"trial_type":"html-button-response","trial_index":40,"time_elapsed":610625,"internal_node_id":"0.0-4.0-1.16","subject_id":"614e1bee11cb9197129836ce","study_id":"6197b3f67c2b5cd3b6d9596a","session_id":"619beef1c0aee2f9df46b19d","condition":"contingent","relevant_dimensions":["antennae","legs"],"bee_group":{"antennae":"B","wings":"X","pattern":"X","legs":"M"},"bonus":1.4200000000000013},{"rt":3921.7999999523163,"stimulus":"bees-with-color/bee-B1DF.svg","response":1,"trial_type":"image-button-response","trial_index":41,"time_elapsed":614547,"internal_node_id":"0.0-4.0-0.17","subject_id":"614e1bee11cb9197129836ce","study_id":"6197b3f67c2b5cd3b6d9596a","session_id":"619beef1c0aee2f9df46b19d","condition":"contingent","relevant_dimensions":["antennae","legs"],"bee_group":{"antennae":"B","wings":"X","pattern":"X","legs":"M"},"action":"avoid","summary":"bad-avoid","bonus":1.4200000000000013},{"rt":1037.8999999761581,"stimulus":"\n                    <p><b>Action: <em>avoid</em></b></p>\n                    <p>This is the bee that you just saw.</p>\n                    <img src=\"bees-with-color/bee-B1DF.svg\" width=\"200\">\n                    <p><br>Your bonus pay is unchanged, and remains at $0.48.</p>\n            ","response":0,"trial_type":"html-button-response","trial_index":42,"time_elapsed":615586,"internal_node_id":"0.0-4.0-1.17","subject_id":"614e1bee11cb9197129836ce","study_id":"6197b3f67c2b5cd3b6d9596a","session_id":"619beef1c0aee2f9df46b19d","condition":"contingent","relevant_dimensions":["antennae","legs"],"bee_group":{"antennae":"B","wings":"X","pattern":"X","legs":"M"},"bonus":1.4200000000000013},{"rt":11603.899999976158,"stimulus":"bees-with-color/bee-B2SF.svg","response":0,"trial_type":"image-button-response","trial_index":43,"time_elapsed":627190,"internal_node_id":"0.0-4.0-0.18","subject_id":"614e1bee11cb9197129836ce","study_id":"6197b3f67c2b5cd3b6d9596a","session_id":"619beef1c0aee2f9df46b19d","condition":"contingent","relevant_dimensions":["antennae","legs"],"bee_group":{"antennae":"B","wings":"X","pattern":"X","legs":"M"},"action":"harvest","summary":"good-harvest","bonus":1.4200000000000013},{"rt":22687.399999976158,"stimulus":"\n                    <p><b>Action: <em>harvest</em></b></p>\n                    <p>This is the bee that you just saw.</p>\n                    <img src=\"bees-with-color/bee-B2SF.svg\" width=\"200\">\n                    <p><span class=\"greenText\"><b>Successful harvest!</b></span><br>Your pay has increased by $0.02. Your bonus pay is now $0.50.</p>\n            ","response":0,"trial_type":"html-button-response","trial_index":44,"time_elapsed":649878,"internal_node_id":"0.0-4.0-1.18","subject_id":"614e1bee11cb9197129836ce","study_id":"6197b3f67c2b5cd3b6d9596a","session_id":"619beef1c0aee2f9df46b19d","condition":"contingent","relevant_dimensions":["antennae","legs"],"bee_group":{"antennae":"B","wings":"X","pattern":"X","legs":"M"},"bonus":1.4200000000000013},{"rt":10461.200000047684,"stimulus":"bees-with-color/bee-B2SM.svg","response":1,"trial_type":"image-button-response","trial_index":45,"time_elapsed":660340,"internal_node_id":"0.0-4.0-0.19","subject_id":"614e1bee11cb9197129836ce","study_id":"6197b3f67c2b5cd3b6d9596a","session_id":"619beef1c0aee2f9df46b19d","condition":"contingent","relevant_dimensions":["antennae","legs"],"bee_group":{"antennae":"B","wings":"X","pattern":"X","legs":"M"},"action":"avoid","summary":"good-avoid","bonus":1.4200000000000013},{"rt":946.5999999046326,"stimulus":"\n                    <p><b>Action: <em>avoid</em></b></p>\n                    <p>This is the bee that you just saw.</p>\n                    <img src=\"bees-with-color/bee-B2SM.svg\" width=\"200\">\n                    <p><br>Your bonus pay is unchanged, and remains at $0.50.</p>\n            ","response":0,"trial_type":"html-button-response","trial_index":46,"time_elapsed":661288,"internal_node_id":"0.0-4.0-1.19","subject_id":"614e1bee11cb9197129836ce","study_id":"6197b3f67c2b5cd3b6d9596a","session_id":"619beef1c0aee2f9df46b19d","condition":"contingent","relevant_dimensions":["antennae","legs"],"bee_group":{"antennae":"B","wings":"X","pattern":"X","legs":"M"},"bonus":1.4200000000000013},{"rt":4810.899999976158,"stimulus":"bees-with-color/bee-B1SM.svg","response":1,"trial_type":"image-button-response","trial_index":47,"time_elapsed":666099,"internal_node_id":"0.0-4.0-0.20","subject_id":"614e1bee11cb9197129836ce","study_id":"6197b3f67c2b5cd3b6d9596a","session_id":"619beef1c0aee2f9df46b19d","condition":"contingent","relevant_dimensions":["antennae","legs"],"bee_group":{"antennae":"B","wings":"X","pattern":"X","legs":"M"},"action":"avoid","summary":"good-avoid","bonus":1.4200000000000013},{"rt":887.1000000238419,"stimulus":"\n                    <p><b>Action: <em>avoid</em></b></p>\n                    <p>This is the bee that you just saw.</p>\n                    <img src=\"bees-with-color/bee-B1SM.svg\" width=\"200\">\n                    <p><br>Your bonus pay is unchanged, and remains at $0.50.</p>\n            ","response":0,"trial_type":"html-button-response","trial_index":48,"time_elapsed":666987,"internal_node_id":"0.0-4.0-1.20","subject_id":"614e1bee11cb9197129836ce","study_id":"6197b3f67c2b5cd3b6d9596a","session_id":"619beef1c0aee2f9df46b19d","condition":"contingent","relevant_dimensions":["antennae","legs"],"bee_group":{"antennae":"B","wings":"X","pattern":"X","legs":"M"},"bonus":1.4200000000000013},{"rt":5964.299999952316,"stimulus":"bees-with-color/bee-B1SF.svg","response":0,"trial_type":"image-button-response","trial_index":49,"time_elapsed":672952,"internal_node_id":"0.0-4.0-0.21","subject_id":"614e1bee11cb9197129836ce","study_id":"6197b3f67c2b5cd3b6d9596a","session_id":"619beef1c0aee2f9df46b19d","condition":"contingent","relevant_dimensions":["antennae","legs"],"bee_group":{"antennae":"B","wings":"X","pattern":"X","legs":"M"},"action":"harvest","summary":"good-harvest","bonus":1.4200000000000013},{"rt":5669.199999928474,"stimulus":"\n                    <p><b>Action: <em>harvest</em></b></p>\n                    <p>This is the bee that you just saw.</p>\n                    <img src=\"bees-with-color/bee-B1SF.svg\" width=\"200\">\n                    <p><span class=\"greenText\"><b>Successful harvest!</b></span><br>Your pay has increased by $0.02. Your bonus pay is now $0.52.</p>\n            ","response":0,"trial_type":"html-button-response","trial_index":50,"time_elapsed":678622,"internal_node_id":"0.0-4.0-1.21","subject_id":"614e1bee11cb9197129836ce","study_id":"6197b3f67c2b5cd3b6d9596a","session_id":"619beef1c0aee2f9df46b19d","condition":"contingent","relevant_dimensions":["antennae","legs"],"bee_group":{"antennae":"B","wings":"X","pattern":"X","legs":"M"},"bonus":1.4200000000000013},{"rt":5815.300000071526,"stimulus":"bees-with-color/bee-A2SM.svg","response":0,"trial_type":"image-button-response","trial_index":51,"time_elapsed":684439,"internal_node_id":"0.0-4.0-0.22","subject_id":"614e1bee11cb9197129836ce","study_id":"6197b3f67c2b5cd3b6d9596a","session_id":"619beef1c0aee2f9df46b19d","condition":"contingent","relevant_dimensions":["antennae","legs"],"bee_group":{"antennae":"B","wings":"X","pattern":"X","legs":"M"},"action":"harvest","summary":"good-harvest","bonus":1.4200000000000013},{"rt":984.1000000238419,"stimulus":"\n                    <p><b>Action: <em>harvest</em></b></p>\n                    <p>This is the bee that you just saw.</p>\n                    <img src=\"bees-with-color/bee-A2SM.svg\" width=\"200\">\n                    <p><span class=\"greenText\"><b>Successful harvest!</b></span><br>Your pay has increased by $0.02. Your bonus pay is now $0.54.</p>\n            ","response":0,"trial_type":"html-button-response","trial_index":52,"time_elapsed":685424,"internal_node_id":"0.0-4.0-1.22","subject_id":"614e1bee11cb9197129836ce","study_id":"6197b3f67c2b5cd3b6d9596a","session_id":"619beef1c0aee2f9df46b19d","condition":"contingent","relevant_dimensions":["antennae","legs"],"bee_group":{"antennae":"B","wings":"X","pattern":"X","legs":"M"},"bonus":1.4200000000000013},{"rt":7230.299999952316,"stimulus":"bees-with-color/bee-B2DF.svg","response":1,"trial_type":"image-button-response","trial_index":53,"time_elapsed":692655,"internal_node_id":"0.0-4.0-0.23","subject_id":"614e1bee11cb9197129836ce","study_id":"6197b3f67c2b5cd3b6d9596a","session_id":"619beef1c0aee2f9df46b19d","condition":"contingent","relevant_dimensions":["antennae","legs"],"bee_group":{"antennae":"B","wings":"X","pattern":"X","legs":"M"},"action":"avoid","summary":"bad-avoid","bonus":1.4200000000000013},{"rt":819.7999999523163,"stimulus":"\n                    <p><b>Action: <em>avoid</em></b></p>\n                    <p>This is the bee that you just saw.</p>\n                    <img src=\"bees-with-color/bee-B2DF.svg\" width=\"200\">\n                    <p><br>Your bonus pay is unchanged, and remains at $0.54.</p>\n            ","response":0,"trial_type":"html-button-response","trial_index":54,"time_elapsed":693476,"internal_node_id":"0.0-4.0-1.23","subject_id":"614e1bee11cb9197129836ce","study_id":"6197b3f67c2b5cd3b6d9596a","session_id":"619beef1c0aee2f9df46b19d","condition":"contingent","relevant_dimensions":["antennae","legs"],"bee_group":{"antennae":"B","wings":"X","pattern":"X","legs":"M"},"bonus":1.4200000000000013},{"rt":10460.200000047684,"stimulus":"bees-with-color/bee-B1DM.svg","response":1,"trial_type":"image-button-response","trial_index":55,"time_elapsed":703937,"internal_node_id":"0.0-4.0-0.24","subject_id":"614e1bee11cb9197129836ce","study_id":"6197b3f67c2b5cd3b6d9596a","session_id":"619beef1c0aee2f9df46b19d","condition":"contingent","relevant_dimensions":["antennae","legs"],"bee_group":{"antennae":"B","wings":"X","pattern":"X","legs":"M"},"action":"avoid","summary":"good-avoid","bonus":1.4200000000000013},{"rt":832,"stimulus":"\n                    <p><b>Action: <em>avoid</em></b></p>\n                    <p>This is the bee that you just saw.</p>\n                    <img src=\"bees-with-color/bee-B1DM.svg\" width=\"200\">\n                    <p><br>Your bonus pay is unchanged, and remains at $0.54.</p>\n            ","response":0,"trial_type":"html-button-response","trial_index":56,"time_elapsed":704769,"internal_node_id":"0.0-4.0-1.24","subject_id":"614e1bee11cb9197129836ce","study_id":"6197b3f67c2b5cd3b6d9596a","session_id":"619beef1c0aee2f9df46b19d","condition":"contingent","relevant_dimensions":["antennae","legs"],"bee_group":{"antennae":"B","wings":"X","pattern":"X","legs":"M"},"bonus":1.4200000000000013},{"rt":4857.5,"stimulus":"bees-with-color/bee-A1DF.svg","response":0,"trial_type":"image-button-response","trial_index":57,"time_elapsed":709628,"internal_node_id":"0.0-4.0-0.25","subject_id":"614e1bee11cb9197129836ce","study_id":"6197b3f67c2b5cd3b6d9596a","session_id":"619beef1c0aee2f9df46b19d","condition":"contingent","relevant_dimensions":["antennae","legs"],"bee_group":{"antennae":"B","wings":"X","pattern":"X","legs":"M"},"action":"harvest","summary":"good-harvest","bonus":1.4200000000000013},{"rt":859.5,"stimulus":"\n                    <p><b>Action: <em>harvest</em></b></p>\n                    <p>This is the bee that you just saw.</p>\n                    <img src=\"bees-with-color/bee-A1DF.svg\" width=\"200\">\n                    <p><span class=\"greenText\"><b>Successful harvest!</b></span><br>Your pay has increased by $0.02. Your bonus pay is now $0.56.</p>\n            ","response":0,"trial_type":"html-button-response","trial_index":58,"time_elapsed":710488,"internal_node_id":"0.0-4.0-1.25","subject_id":"614e1bee11cb9197129836ce","study_id":"6197b3f67c2b5cd3b6d9596a","session_id":"619beef1c0aee2f9df46b19d","condition":"contingent","relevant_dimensions":["antennae","legs"],"bee_group":{"antennae":"B","wings":"X","pattern":"X","legs":"M"},"bonus":1.4200000000000013},{"rt":5703.600000023842,"stimulus":"bees-with-color/bee-B2DM.svg","response":1,"trial_type":"image-button-response","trial_index":59,"time_elapsed":716192,"internal_node_id":"0.0-4.0-0.26","subject_id":"614e1bee11cb9197129836ce","study_id":"6197b3f67c2b5cd3b6d9596a","session_id":"619beef1c0aee2f9df46b19d","condition":"contingent","relevant_dimensions":["antennae","legs"],"bee_group":{"antennae":"B","wings":"X","pattern":"X","legs":"M"},"action":"avoid","summary":"good-avoid","bonus":1.4200000000000013},{"rt":973.8999999761581,"stimulus":"\n                    <p><b>Action: <em>avoid</em></b></p>\n                    <p>This is the bee that you just saw.</p>\n                    <img src=\"bees-with-color/bee-B2DM.svg\" width=\"200\">\n                    <p><br>Your bonus pay is unchanged, and remains at $0.56.</p>\n            ","response":0,"trial_type":"html-button-response","trial_index":60,"time_elapsed":717167,"internal_node_id":"0.0-4.0-1.26","subject_id":"614e1bee11cb9197129836ce","study_id":"6197b3f67c2b5cd3b6d9596a","session_id":"619beef1c0aee2f9df46b19d","condition":"contingent","relevant_dimensions":["antennae","legs"],"bee_group":{"antennae":"B","wings":"X","pattern":"X","legs":"M"},"bonus":1.4200000000000013},{"rt":7287.5,"stimulus":"bees-with-color/bee-A2DF.svg","response":0,"trial_type":"image-button-response","trial_index":61,"time_elapsed":724455,"internal_node_id":"0.0-4.0-0.27","subject_id":"614e1bee11cb9197129836ce","study_id":"6197b3f67c2b5cd3b6d9596a","session_id":"619beef1c0aee2f9df46b19d","condition":"contingent","relevant_dimensions":["antennae","legs"],"bee_group":{"antennae":"B","wings":"X","pattern":"X","legs":"M"},"action":"harvest","summary":"good-harvest","bonus":1.4200000000000013},{"rt":581.4000000953674,"stimulus":"\n                    <p><b>Action: <em>harvest</em></b></p>\n                    <p>This is the bee that you just saw.</p>\n                    <img src=\"bees-with-color/bee-A2DF.svg\" width=\"200\">\n                    <p><span class=\"greenText\"><b>Successful harvest!</b></span><br>Your pay has increased by $0.02. Your bonus pay is now $0.58.</p>\n            ","response":0,"trial_type":"html-button-response","trial_index":62,"time_elapsed":725038,"internal_node_id":"0.0-4.0-1.27","subject_id":"614e1bee11cb9197129836ce","study_id":"6197b3f67c2b5cd3b6d9596a","session_id":"619beef1c0aee2f9df46b19d","condition":"contingent","relevant_dimensions":["antennae","legs"],"bee_group":{"antennae":"B","wings":"X","pattern":"X","legs":"M"},"bonus":1.4200000000000013},{"rt":5290,"stimulus":"bees-with-color/bee-A1SF.svg","response":0,"trial_type":"image-button-response","trial_index":63,"time_elapsed":730329,"internal_node_id":"0.0-4.0-0.28","subject_id":"614e1bee11cb9197129836ce","study_id":"6197b3f67c2b5cd3b6d9596a","session_id":"619beef1c0aee2f9df46b19d","condition":"contingent","relevant_dimensions":["antennae","legs"],"bee_group":{"antennae":"B","wings":"X","pattern":"X","legs":"M"},"action":"harvest","summary":"good-harvest","bonus":1.4200000000000013},{"rt":692.4000000953674,"stimulus":"\n                    <p><b>Action: <em>harvest</em></b></p>\n                    <p>This is the bee that you just saw.</p>\n                    <img src=\"bees-with-color/bee-A1SF.svg\" width=\"200\">\n                    <p><span class=\"greenText\"><b>Successful harvest!</b></span><br>Your pay has increased by $0.02. Your bonus pay is now $0.60.</p>\n            ","response":0,"trial_type":"html-button-response","trial_index":64,"time_elapsed":731022,"internal_node_id":"0.0-4.0-1.28","subject_id":"614e1bee11cb9197129836ce","study_id":"6197b3f67c2b5cd3b6d9596a","session_id":"619beef1c0aee2f9df46b19d","condition":"contingent","relevant_dimensions":["antennae","legs"],"bee_group":{"antennae":"B","wings":"X","pattern":"X","legs":"M"},"bonus":1.4200000000000013},{"rt":10749.300000071526,"stimulus":"bees-with-color/bee-A1SM.svg","response":0,"trial_type":"image-button-response","trial_index":65,"time_elapsed":741772,"internal_node_id":"0.0-4.0-0.29","subject_id":"614e1bee11cb9197129836ce","study_id":"6197b3f67c2b5cd3b6d9596a","session_id":"619beef1c0aee2f9df46b19d","condition":"contingent","relevant_dimensions":["antennae","legs"],"bee_group":{"antennae":"B","wings":"X","pattern":"X","legs":"M"},"action":"harvest","summary":"good-harvest","bonus":1.4200000000000013},{"rt":1203,"stimulus":"\n                    <p><b>Action: <em>harvest</em></b></p>\n                    <p>This is the bee that you just saw.</p>\n                    <img src=\"bees-with-color/bee-A1SM.svg\" width=\"200\">\n                    <p><span class=\"greenText\"><b>Successful harvest!</b></span><br>Your pay has increased by $0.02. Your bonus pay is now $0.62.</p>\n            ","response":0,"trial_type":"html-button-response","trial_index":66,"time_elapsed":742976,"internal_node_id":"0.0-4.0-1.29","subject_id":"614e1bee11cb9197129836ce","study_id":"6197b3f67c2b5cd3b6d9596a","session_id":"619beef1c0aee2f9df46b19d","condition":"contingent","relevant_dimensions":["antennae","legs"],"bee_group":{"antennae":"B","wings":"X","pattern":"X","legs":"M"},"bonus":1.4200000000000013},{"rt":12872.599999904633,"stimulus":"bees-with-color/bee-A2DM.svg","response":0,"trial_type":"image-button-response","trial_index":67,"time_elapsed":755849,"internal_node_id":"0.0-4.0-0.30","subject_id":"614e1bee11cb9197129836ce","study_id":"6197b3f67c2b5cd3b6d9596a","session_id":"619beef1c0aee2f9df46b19d","condition":"contingent","relevant_dimensions":["antennae","legs"],"bee_group":{"antennae":"B","wings":"X","pattern":"X","legs":"M"},"action":"harvest","summary":"good-harvest","bonus":1.4200000000000013},{"rt":1597.7000000476837,"stimulus":"\n                    <p><b>Action: <em>harvest</em></b></p>\n                    <p>This is the bee that you just saw.</p>\n                    <img src=\"bees-with-color/bee-A2DM.svg\" width=\"200\">\n                    <p><span class=\"greenText\"><b>Successful harvest!</b></span><br>Your pay has increased by $0.02. Your bonus pay is now $0.64.</p>\n            ","response":0,"trial_type":"html-button-response","trial_index":68,"time_elapsed":757448,"internal_node_id":"0.0-4.0-1.30","subject_id":"614e1bee11cb9197129836ce","study_id":"6197b3f67c2b5cd3b6d9596a","session_id":"619beef1c0aee2f9df46b19d","condition":"contingent","relevant_dimensions":["antennae","legs"],"bee_group":{"antennae":"B","wings":"X","pattern":"X","legs":"M"},"bonus":1.4200000000000013},{"rt":12096.700000047684,"stimulus":"bees-with-color/bee-A1DM.svg","response":0,"trial_type":"image-button-response","trial_index":69,"time_elapsed":769545,"internal_node_id":"0.0-4.0-0.31","subject_id":"614e1bee11cb9197129836ce","study_id":"6197b3f67c2b5cd3b6d9596a","session_id":"619beef1c0aee2f9df46b19d","condition":"contingent","relevant_dimensions":["antennae","legs"],"bee_group":{"antennae":"B","wings":"X","pattern":"X","legs":"M"},"action":"harvest","summary":"good-harvest","bonus":1.4200000000000013},{"rt":7828.200000047684,"stimulus":"\n                    <p><b>Action: <em>harvest</em></b></p>\n                    <p>This is the bee that you just saw.</p>\n                    <img src=\"bees-with-color/bee-A1DM.svg\" width=\"200\">\n                    <p><span class=\"greenText\"><b>Successful harvest!</b></span><br>Your pay has increased by $0.02. Your bonus pay is now $0.66.</p>\n            ","response":0,"trial_type":"html-button-response","trial_index":70,"time_elapsed":777374,"internal_node_id":"0.0-4.0-1.31","subject_id":"614e1bee11cb9197129836ce","study_id":"6197b3f67c2b5cd3b6d9596a","session_id":"619beef1c0aee2f9df46b19d","condition":"contingent","relevant_dimensions":["antennae","legs"],"bee_group":{"antennae":"B","wings":"X","pattern":"X","legs":"M"},"bonus":1.4200000000000013},{"rt":4817,"stimulus":"bees-with-color/bee-B1SM.svg","response":1,"trial_type":"image-button-response","trial_index":71,"time_elapsed":782192,"internal_node_id":"0.0-4.0-0.32","subject_id":"614e1bee11cb9197129836ce","study_id":"6197b3f67c2b5cd3b6d9596a","session_id":"619beef1c0aee2f9df46b19d","condition":"contingent","relevant_dimensions":["antennae","legs"],"bee_group":{"antennae":"B","wings":"X","pattern":"X","legs":"M"},"action":"avoid","summary":"good-avoid","bonus":1.4200000000000013},{"rt":812.5,"stimulus":"\n                    <p><b>Action: <em>avoid</em></b></p>\n                    <p>This is the bee that you just saw.</p>\n                    <img src=\"bees-with-color/bee-B1SM.svg\" width=\"200\">\n                    <p><br>Your bonus pay is unchanged, and remains at $0.66.</p>\n            ","response":0,"trial_type":"html-button-response","trial_index":72,"time_elapsed":783006,"internal_node_id":"0.0-4.0-1.32","subject_id":"614e1bee11cb9197129836ce","study_id":"6197b3f67c2b5cd3b6d9596a","session_id":"619beef1c0aee2f9df46b19d","condition":"contingent","relevant_dimensions":["antennae","legs"],"bee_group":{"antennae":"B","wings":"X","pattern":"X","legs":"M"},"bonus":1.4200000000000013},{"rt":11096.300000071526,"stimulus":"bees-with-color/bee-B1SF.svg","response":0,"trial_type":"image-button-response","trial_index":73,"time_elapsed":794103,"internal_node_id":"0.0-4.0-0.33","subject_id":"614e1bee11cb9197129836ce","study_id":"6197b3f67c2b5cd3b6d9596a","session_id":"619beef1c0aee2f9df46b19d","condition":"contingent","relevant_dimensions":["antennae","legs"],"bee_group":{"antennae":"B","wings":"X","pattern":"X","legs":"M"},"action":"harvest","summary":"good-harvest","bonus":1.4200000000000013},{"rt":778.2999999523163,"stimulus":"\n                    <p><b>Action: <em>harvest</em></b></p>\n                    <p>This is the bee that you just saw.</p>\n                    <img src=\"bees-with-color/bee-B1SF.svg\" width=\"200\">\n                    <p><span class=\"greenText\"><b>Successful harvest!</b></span><br>Your pay has increased by $0.02. Your bonus pay is now $0.68.</p>\n            ","response":0,"trial_type":"html-button-response","trial_index":74,"time_elapsed":794882,"internal_node_id":"0.0-4.0-1.33","subject_id":"614e1bee11cb9197129836ce","study_id":"6197b3f67c2b5cd3b6d9596a","session_id":"619beef1c0aee2f9df46b19d","condition":"contingent","relevant_dimensions":["antennae","legs"],"bee_group":{"antennae":"B","wings":"X","pattern":"X","legs":"M"},"bonus":1.4200000000000013},{"rt":6116,"stimulus":"bees-with-color/bee-A1DM.svg","response":0,"trial_type":"image-button-response","trial_index":75,"time_elapsed":800999,"internal_node_id":"0.0-4.0-0.34","subject_id":"614e1bee11cb9197129836ce","study_id":"6197b3f67c2b5cd3b6d9596a","session_id":"619beef1c0aee2f9df46b19d","condition":"contingent","relevant_dimensions":["antennae","legs"],"bee_group":{"antennae":"B","wings":"X","pattern":"X","legs":"M"},"action":"harvest","summary":"good-harvest","bonus":1.4200000000000013},{"rt":680.3999999761581,"stimulus":"\n                    <p><b>Action: <em>harvest</em></b></p>\n                    <p>This is the bee that you just saw.</p>\n                    <img src=\"bees-with-color/bee-A1DM.svg\" width=\"200\">\n                    <p><span class=\"greenText\"><b>Successful harvest!</b></span><br>Your pay has increased by $0.02. Your bonus pay is now $0.70.</p>\n            ","response":0,"trial_type":"html-button-response","trial_index":76,"time_elapsed":801680,"internal_node_id":"0.0-4.0-1.34","subject_id":"614e1bee11cb9197129836ce","study_id":"6197b3f67c2b5cd3b6d9596a","session_id":"619beef1c0aee2f9df46b19d","condition":"contingent","relevant_dimensions":["antennae","legs"],"bee_group":{"antennae":"B","wings":"X","pattern":"X","legs":"M"},"bonus":1.4200000000000013},{"rt":8611.800000071526,"stimulus":"bees-with-color/bee-B2SF.svg","response":0,"trial_type":"image-button-response","trial_index":77,"time_elapsed":810292,"internal_node_id":"0.0-4.0-0.35","subject_id":"614e1bee11cb9197129836ce","study_id":"6197b3f67c2b5cd3b6d9596a","session_id":"619beef1c0aee2f9df46b19d","condition":"contingent","relevant_dimensions":["antennae","legs"],"bee_group":{"antennae":"B","wings":"X","pattern":"X","legs":"M"},"action":"harvest","summary":"good-harvest","bonus":1.4200000000000013},{"rt":847.8000000715256,"stimulus":"\n                    <p><b>Action: <em>harvest</em></b></p>\n                    <p>This is the bee that you just saw.</p>\n                    <img src=\"bees-with-color/bee-B2SF.svg\" width=\"200\">\n                    <p><span class=\"greenText\"><b>Successful harvest!</b></span><br>Your pay has increased by $0.02. Your bonus pay is now $0.72.</p>\n            ","response":0,"trial_type":"html-button-response","trial_index":78,"time_elapsed":811141,"internal_node_id":"0.0-4.0-1.35","subject_id":"614e1bee11cb9197129836ce","study_id":"6197b3f67c2b5cd3b6d9596a","session_id":"619beef1c0aee2f9df46b19d","condition":"contingent","relevant_dimensions":["antennae","legs"],"bee_group":{"antennae":"B","wings":"X","pattern":"X","legs":"M"},"bonus":1.4200000000000013},{"rt":7031.700000047684,"stimulus":"bees-with-color/bee-A2DF.svg","response":0,"trial_type":"image-button-response","trial_index":79,"time_elapsed":818173,"internal_node_id":"0.0-4.0-0.36","subject_id":"614e1bee11cb9197129836ce","study_id":"6197b3f67c2b5cd3b6d9596a","session_id":"619beef1c0aee2f9df46b19d","condition":"contingent","relevant_dimensions":["antennae","legs"],"bee_group":{"antennae":"B","wings":"X","pattern":"X","legs":"M"},"action":"harvest","summary":"good-harvest","bonus":1.4200000000000013},{"rt":654.6000000238419,"stimulus":"\n                    <p><b>Action: <em>harvest</em></b></p>\n                    <p>This is the bee that you just saw.</p>\n                    <img src=\"bees-with-color/bee-A2DF.svg\" width=\"200\">\n                    <p><span class=\"greenText\"><b>Successful harvest!</b></span><br>Your pay has increased by $0.02. Your bonus pay is now $0.74.</p>\n            ","response":0,"trial_type":"html-button-response","trial_index":80,"time_elapsed":818829,"internal_node_id":"0.0-4.0-1.36","subject_id":"614e1bee11cb9197129836ce","study_id":"6197b3f67c2b5cd3b6d9596a","session_id":"619beef1c0aee2f9df46b19d","condition":"contingent","relevant_dimensions":["antennae","legs"],"bee_group":{"antennae":"B","wings":"X","pattern":"X","legs":"M"},"bonus":1.4200000000000013},{"rt":17670.5,"stimulus":"bees-with-color/bee-A1SF.svg","response":0,"trial_type":"image-button-response","trial_index":81,"time_elapsed":836500,"internal_node_id":"0.0-4.0-0.37","subject_id":"614e1bee11cb9197129836ce","study_id":"6197b3f67c2b5cd3b6d9596a","session_id":"619beef1c0aee2f9df46b19d","condition":"contingent","relevant_dimensions":["antennae","legs"],"bee_group":{"antennae":"B","wings":"X","pattern":"X","legs":"M"},"action":"harvest","summary":"good-harvest","bonus":1.4200000000000013},{"rt":977,"stimulus":"\n                    <p><b>Action: <em>harvest</em></b></p>\n                    <p>This is the bee that you just saw.</p>\n                    <img src=\"bees-with-color/bee-A1SF.svg\" width=\"200\">\n                    <p><span class=\"greenText\"><b>Successful harvest!</b></span><br>Your pay has increased by $0.02. Your bonus pay is now $0.76.</p>\n            ","response":0,"trial_type":"html-button-response","trial_index":82,"time_elapsed":837478,"internal_node_id":"0.0-4.0-1.37","subject_id":"614e1bee11cb9197129836ce","study_id":"6197b3f67c2b5cd3b6d9596a","session_id":"619beef1c0aee2f9df46b19d","condition":"contingent","relevant_dimensions":["antennae","legs"],"bee_group":{"antennae":"B","wings":"X","pattern":"X","legs":"M"},"bonus":1.4200000000000013},{"rt":3717.899999976158,"stimulus":"bees-with-color/bee-B2SM.svg","response":1,"trial_type":"image-button-response","trial_index":83,"time_elapsed":841197,"internal_node_id":"0.0-4.0-0.38","subject_id":"614e1bee11cb9197129836ce","study_id":"6197b3f67c2b5cd3b6d9596a","session_id":"619beef1c0aee2f9df46b19d","condition":"contingent","relevant_dimensions":["antennae","legs"],"bee_group":{"antennae":"B","wings":"X","pattern":"X","legs":"M"},"action":"avoid","summary":"good-avoid","bonus":1.4200000000000013},{"rt":581.6000000238419,"stimulus":"\n                    <p><b>Action: <em>avoid</em></b></p>\n                    <p>This is the bee that you just saw.</p>\n                    <img src=\"bees-with-color/bee-B2SM.svg\" width=\"200\">\n                    <p><br>Your bonus pay is unchanged, and remains at $0.76.</p>\n            ","response":0,"trial_type":"html-button-response","trial_index":84,"time_elapsed":841779,"internal_node_id":"0.0-4.0-1.38","subject_id":"614e1bee11cb9197129836ce","study_id":"6197b3f67c2b5cd3b6d9596a","session_id":"619beef1c0aee2f9df46b19d","condition":"contingent","relevant_dimensions":["antennae","legs"],"bee_group":{"antennae":"B","wings":"X","pattern":"X","legs":"M"},"bonus":1.4200000000000013},{"rt":4381,"stimulus":"bees-with-color/bee-A2SF.svg","response":0,"trial_type":"image-button-response","trial_index":85,"time_elapsed":846161,"internal_node_id":"0.0-4.0-0.39","subject_id":"614e1bee11cb9197129836ce","study_id":"6197b3f67c2b5cd3b6d9596a","session_id":"619beef1c0aee2f9df46b19d","condition":"contingent","relevant_dimensions":["antennae","legs"],"bee_group":{"antennae":"B","wings":"X","pattern":"X","legs":"M"},"action":"harvest","summary":"good-harvest","bonus":1.4200000000000013},{"rt":984.3000000715256,"stimulus":"\n                    <p><b>Action: <em>harvest</em></b></p>\n                    <p>This is the bee that you just saw.</p>\n                    <img src=\"bees-with-color/bee-A2SF.svg\" width=\"200\">\n                    <p><span class=\"greenText\"><b>Successful harvest!</b></span><br>Your pay has increased by $0.02. Your bonus pay is now $0.78.</p>\n            ","response":0,"trial_type":"html-button-response","trial_index":86,"time_elapsed":847146,"internal_node_id":"0.0-4.0-1.39","subject_id":"614e1bee11cb9197129836ce","study_id":"6197b3f67c2b5cd3b6d9596a","session_id":"619beef1c0aee2f9df46b19d","condition":"contingent","relevant_dimensions":["antennae","legs"],"bee_group":{"antennae":"B","wings":"X","pattern":"X","legs":"M"},"bonus":1.4200000000000013},{"rt":14117,"stimulus":"bees-with-color/bee-B2DF.svg","response":1,"trial_type":"image-button-response","trial_index":87,"time_elapsed":861264,"internal_node_id":"0.0-4.0-0.40","subject_id":"614e1bee11cb9197129836ce","study_id":"6197b3f67c2b5cd3b6d9596a","session_id":"619beef1c0aee2f9df46b19d","condition":"contingent","relevant_dimensions":["antennae","legs"],"bee_group":{"antennae":"B","wings":"X","pattern":"X","legs":"M"},"action":"avoid","summary":"bad-avoid","bonus":1.4200000000000013},{"rt":831.2000000476837,"stimulus":"\n                    <p><b>Action: <em>avoid</em></b></p>\n                    <p>This is the bee that you just saw.</p>\n                    <img src=\"bees-with-color/bee-B2DF.svg\" width=\"200\">\n                    <p><br>Your bonus pay is unchanged, and remains at $0.78.</p>\n            ","response":0,"trial_type":"html-button-response","trial_index":88,"time_elapsed":862096,"internal_node_id":"0.0-4.0-1.40","subject_id":"614e1bee11cb9197129836ce","study_id":"6197b3f67c2b5cd3b6d9596a","session_id":"619beef1c0aee2f9df46b19d","condition":"contingent","relevant_dimensions":["antennae","legs"],"bee_group":{"antennae":"B","wings":"X","pattern":"X","legs":"M"},"bonus":1.4200000000000013},{"rt":5829.899999976158,"stimulus":"bees-with-color/bee-A1DF.svg","response":0,"trial_type":"image-button-response","trial_index":89,"time_elapsed":867927,"internal_node_id":"0.0-4.0-0.41","subject_id":"614e1bee11cb9197129836ce","study_id":"6197b3f67c2b5cd3b6d9596a","session_id":"619beef1c0aee2f9df46b19d","condition":"contingent","relevant_dimensions":["antennae","legs"],"bee_group":{"antennae":"B","wings":"X","pattern":"X","legs":"M"},"action":"harvest","summary":"good-harvest","bonus":1.4200000000000013},{"rt":631.1999999284744,"stimulus":"\n                    <p><b>Action: <em>harvest</em></b></p>\n                    <p>This is the bee that you just saw.</p>\n                    <img src=\"bees-with-color/bee-A1DF.svg\" width=\"200\">\n                    <p><span class=\"greenText\"><b>Successful harvest!</b></span><br>Your pay has increased by $0.02. Your bonus pay is now $0.80.</p>\n            ","response":0,"trial_type":"html-button-response","trial_index":90,"time_elapsed":868559,"internal_node_id":"0.0-4.0-1.41","subject_id":"614e1bee11cb9197129836ce","study_id":"6197b3f67c2b5cd3b6d9596a","session_id":"619beef1c0aee2f9df46b19d","condition":"contingent","relevant_dimensions":["antennae","legs"],"bee_group":{"antennae":"B","wings":"X","pattern":"X","legs":"M"},"bonus":1.4200000000000013},{"rt":12150.800000071526,"stimulus":"bees-with-color/bee-B1DM.svg","response":1,"trial_type":"image-button-response","trial_index":91,"time_elapsed":880711,"internal_node_id":"0.0-4.0-0.42","subject_id":"614e1bee11cb9197129836ce","study_id":"6197b3f67c2b5cd3b6d9596a","session_id":"619beef1c0aee2f9df46b19d","condition":"contingent","relevant_dimensions":["antennae","legs"],"bee_group":{"antennae":"B","wings":"X","pattern":"X","legs":"M"},"action":"avoid","summary":"good-avoid","bonus":1.4200000000000013},{"rt":948.1999999284744,"stimulus":"\n                    <p><b>Action: <em>avoid</em></b></p>\n                    <p>This is the bee that you just saw.</p>\n                    <img src=\"bees-with-color/bee-B1DM.svg\" width=\"200\">\n                    <p><br>Your bonus pay is unchanged, and remains at $0.80.</p>\n            ","response":0,"trial_type":"html-button-response","trial_index":92,"time_elapsed":881660,"internal_node_id":"0.0-4.0-1.42","subject_id":"614e1bee11cb9197129836ce","study_id":"6197b3f67c2b5cd3b6d9596a","session_id":"619beef1c0aee2f9df46b19d","condition":"contingent","relevant_dimensions":["antennae","legs"],"bee_group":{"antennae":"B","wings":"X","pattern":"X","legs":"M"},"bonus":1.4200000000000013},{"rt":17165.800000071526,"stimulus":"bees-with-color/bee-A2DM.svg","response":0,"trial_type":"image-button-response","trial_index":93,"time_elapsed":898826,"internal_node_id":"0.0-4.0-0.43","subject_id":"614e1bee11cb9197129836ce","study_id":"6197b3f67c2b5cd3b6d9596a","session_id":"619beef1c0aee2f9df46b19d","condition":"contingent","relevant_dimensions":["antennae","legs"],"bee_group":{"antennae":"B","wings":"X","pattern":"X","legs":"M"},"action":"harvest","summary":"good-harvest","bonus":1.4200000000000013},{"rt":1015.3999999761581,"stimulus":"\n                    <p><b>Action: <em>harvest</em></b></p>\n                    <p>This is the bee that you just saw.</p>\n                    <img src=\"bees-with-color/bee-A2DM.svg\" width=\"200\">\n                    <p><span class=\"greenText\"><b>Successful harvest!</b></span><br>Your pay has increased by $0.02. Your bonus pay is now $0.82.</p>\n            ","response":0,"trial_type":"html-button-response","trial_index":94,"time_elapsed":899842,"internal_node_id":"0.0-4.0-1.43","subject_id":"614e1bee11cb9197129836ce","study_id":"6197b3f67c2b5cd3b6d9596a","session_id":"619beef1c0aee2f9df46b19d","condition":"contingent","relevant_dimensions":["antennae","legs"],"bee_group":{"antennae":"B","wings":"X","pattern":"X","legs":"M"},"bonus":1.4200000000000013},{"rt":8982.199999928474,"stimulus":"bees-with-color/bee-B1DF.svg","response":0,"trial_type":"image-button-response","trial_index":95,"time_elapsed":908826,"internal_node_id":"0.0-4.0-0.44","subject_id":"614e1bee11cb9197129836ce","study_id":"6197b3f67c2b5cd3b6d9596a","session_id":"619beef1c0aee2f9df46b19d","condition":"contingent","relevant_dimensions":["antennae","legs"],"bee_group":{"antennae":"B","wings":"X","pattern":"X","legs":"M"},"action":"harvest","summary":"good-harvest","bonus":1.4200000000000013},{"rt":553,"stimulus":"\n                    <p><b>Action: <em>harvest</em></b></p>\n                    <p>This is the bee that you just saw.</p>\n                    <img src=\"bees-with-color/bee-B1DF.svg\" width=\"200\">\n                    <p><span class=\"greenText\"><b>Successful harvest!</b></span><br>Your pay has increased by $0.02. Your bonus pay is now $0.84.</p>\n            ","response":0,"trial_type":"html-button-response","trial_index":96,"time_elapsed":909379,"internal_node_id":"0.0-4.0-1.44","subject_id":"614e1bee11cb9197129836ce","study_id":"6197b3f67c2b5cd3b6d9596a","session_id":"619beef1c0aee2f9df46b19d","condition":"contingent","relevant_dimensions":["antennae","legs"],"bee_group":{"antennae":"B","wings":"X","pattern":"X","legs":"M"},"bonus":1.4200000000000013},{"rt":12076.200000047684,"stimulus":"bees-with-color/bee-A1SM.svg","response":0,"trial_type":"image-button-response","trial_index":97,"time_elapsed":921456,"internal_node_id":"0.0-4.0-0.45","subject_id":"614e1bee11cb9197129836ce","study_id":"6197b3f67c2b5cd3b6d9596a","session_id":"619beef1c0aee2f9df46b19d","condition":"contingent","relevant_dimensions":["antennae","legs"],"bee_group":{"antennae":"B","wings":"X","pattern":"X","legs":"M"},"action":"harvest","summary":"good-harvest","bonus":1.4200000000000013},{"rt":519.9000000953674,"stimulus":"\n                    <p><b>Action: <em>harvest</em></b></p>\n                    <p>This is the bee that you just saw.</p>\n                    <img src=\"bees-with-color/bee-A1SM.svg\" width=\"200\">\n                    <p><span class=\"greenText\"><b>Successful harvest!</b></span><br>Your pay has increased by $0.02. Your bonus pay is now $0.86.</p>\n            ","response":0,"trial_type":"html-button-response","trial_index":98,"time_elapsed":921977,"internal_node_id":"0.0-4.0-1.45","subject_id":"614e1bee11cb9197129836ce","study_id":"6197b3f67c2b5cd3b6d9596a","session_id":"619beef1c0aee2f9df46b19d","condition":"contingent","relevant_dimensions":["antennae","legs"],"bee_group":{"antennae":"B","wings":"X","pattern":"X","legs":"M"},"bonus":1.4200000000000013},{"rt":6925.100000023842,"stimulus":"bees-with-color/bee-A2SM.svg","response":0,"trial_type":"image-button-response","trial_index":99,"time_elapsed":928903,"internal_node_id":"0.0-4.0-0.46","subject_id":"614e1bee11cb9197129836ce","study_id":"6197b3f67c2b5cd3b6d9596a","session_id":"619beef1c0aee2f9df46b19d","condition":"contingent","relevant_dimensions":["antennae","legs"],"bee_group":{"antennae":"B","wings":"X","pattern":"X","legs":"M"},"action":"harvest","summary":"good-harvest","bonus":1.4200000000000013},{"rt":558.8000000715256,"stimulus":"\n                    <p><b>Action: <em>harvest</em></b></p>\n                    <p>This is the bee that you just saw.</p>\n                    <img src=\"bees-with-color/bee-A2SM.svg\" width=\"200\">\n                    <p><span class=\"greenText\"><b>Successful harvest!</b></span><br>Your pay has increased by $0.02. Your bonus pay is now $0.88.</p>\n            ","response":0,"trial_type":"html-button-response","trial_index":100,"time_elapsed":929462,"internal_node_id":"0.0-4.0-1.46","subject_id":"614e1bee11cb9197129836ce","study_id":"6197b3f67c2b5cd3b6d9596a","session_id":"619beef1c0aee2f9df46b19d","condition":"contingent","relevant_dimensions":["antennae","legs"],"bee_group":{"antennae":"B","wings":"X","pattern":"X","legs":"M"},"bonus":1.4200000000000013},{"rt":4016.2000000476837,"stimulus":"bees-with-color/bee-B2DM.svg","response":1,"trial_type":"image-button-response","trial_index":101,"time_elapsed":933479,"internal_node_id":"0.0-4.0-0.47","subject_id":"614e1bee11cb9197129836ce","study_id":"6197b3f67c2b5cd3b6d9596a","session_id":"619beef1c0aee2f9df46b19d","condition":"contingent","relevant_dimensions":["antennae","legs"],"bee_group":{"antennae":"B","wings":"X","pattern":"X","legs":"M"},"action":"avoid","summary":"good-avoid","bonus":1.4200000000000013},{"rt":596.8000000715256,"stimulus":"\n                    <p><b>Action: <em>avoid</em></b></p>\n                    <p>This is the bee that you just saw.</p>\n                    <img src=\"bees-with-color/bee-B2DM.svg\" width=\"200\">\n                    <p><br>Your bonus pay is unchanged, and remains at $0.88.</p>\n            ","response":0,"trial_type":"html-button-response","trial_index":102,"time_elapsed":934077,"internal_node_id":"0.0-4.0-1.47","subject_id":"614e1bee11cb9197129836ce","study_id":"6197b3f67c2b5cd3b6d9596a","session_id":"619beef1c0aee2f9df46b19d","condition":"contingent","relevant_dimensions":["antennae","legs"],"bee_group":{"antennae":"B","wings":"X","pattern":"X","legs":"M"},"bonus":1.4200000000000013},{"rt":7167.399999976158,"stimulus":"bees-with-color/bee-B2SF.svg","response":0,"trial_type":"image-button-response","trial_index":103,"time_elapsed":941245,"internal_node_id":"0.0-4.0-0.48","subject_id":"614e1bee11cb9197129836ce","study_id":"6197b3f67c2b5cd3b6d9596a","session_id":"619beef1c0aee2f9df46b19d","condition":"contingent","relevant_dimensions":["antennae","legs"],"bee_group":{"antennae":"B","wings":"X","pattern":"X","legs":"M"},"action":"harvest","summary":"good-harvest","bonus":1.4200000000000013},{"rt":522.5,"stimulus":"\n                    <p><b>Action: <em>harvest</em></b></p>\n                    <p>This is the bee that you just saw.</p>\n                    <img src=\"bees-with-color/bee-B2SF.svg\" width=\"200\">\n                    <p><span class=\"greenText\"><b>Successful harvest!</b></span><br>Your pay has increased by $0.02. Your bonus pay is now $0.90.</p>\n            ","response":0,"trial_type":"html-button-response","trial_index":104,"time_elapsed":941768,"internal_node_id":"0.0-4.0-1.48","subject_id":"614e1bee11cb9197129836ce","study_id":"6197b3f67c2b5cd3b6d9596a","session_id":"619beef1c0aee2f9df46b19d","condition":"contingent","relevant_dimensions":["antennae","legs"],"bee_group":{"antennae":"B","wings":"X","pattern":"X","legs":"M"},"bonus":1.4200000000000013},{"rt":10169.200000047684,"stimulus":"bees-with-color/bee-B2DM.svg","response":1,"trial_type":"image-button-response","trial_index":105,"time_elapsed":951939,"internal_node_id":"0.0-4.0-0.49","subject_id":"614e1bee11cb9197129836ce","study_id":"6197b3f67c2b5cd3b6d9596a","session_id":"619beef1c0aee2f9df46b19d","condition":"contingent","relevant_dimensions":["antennae","legs"],"bee_group":{"antennae":"B","wings":"X","pattern":"X","legs":"M"},"action":"avoid","summary":"good-avoid","bonus":1.4200000000000013},{"rt":779.7000000476837,"stimulus":"\n                    <p><b>Action: <em>avoid</em></b></p>\n                    <p>This is the bee that you just saw.</p>\n                    <img src=\"bees-with-color/bee-B2DM.svg\" width=\"200\">\n                    <p><br>Your bonus pay is unchanged, and remains at $0.90.</p>\n            ","response":0,"trial_type":"html-button-response","trial_index":106,"time_elapsed":952719,"internal_node_id":"0.0-4.0-1.49","subject_id":"614e1bee11cb9197129836ce","study_id":"6197b3f67c2b5cd3b6d9596a","session_id":"619beef1c0aee2f9df46b19d","condition":"contingent","relevant_dimensions":["antennae","legs"],"bee_group":{"antennae":"B","wings":"X","pattern":"X","legs":"M"},"bonus":1.4200000000000013},{"rt":8923.5,"stimulus":"bees-with-color/bee-A1SM.svg","response":0,"trial_type":"image-button-response","trial_index":107,"time_elapsed":961643,"internal_node_id":"0.0-4.0-0.50","subject_id":"614e1bee11cb9197129836ce","study_id":"6197b3f67c2b5cd3b6d9596a","session_id":"619beef1c0aee2f9df46b19d","condition":"contingent","relevant_dimensions":["antennae","legs"],"bee_group":{"antennae":"B","wings":"X","pattern":"X","legs":"M"},"action":"harvest","summary":"good-harvest","bonus":1.4200000000000013},{"rt":554,"stimulus":"\n                    <p><b>Action: <em>harvest</em></b></p>\n                    <p>This is the bee that you just saw.</p>\n                    <img src=\"bees-with-color/bee-A1SM.svg\" width=\"200\">\n                    <p><span class=\"greenText\"><b>Successful harvest!</b></span><br>Your pay has increased by $0.02. Your bonus pay is now $0.92.</p>\n            ","response":0,"trial_type":"html-button-response","trial_index":108,"time_elapsed":962198,"internal_node_id":"0.0-4.0-1.50","subject_id":"614e1bee11cb9197129836ce","study_id":"6197b3f67c2b5cd3b6d9596a","session_id":"619beef1c0aee2f9df46b19d","condition":"contingent","relevant_dimensions":["antennae","legs"],"bee_group":{"antennae":"B","wings":"X","pattern":"X","legs":"M"},"bonus":1.4200000000000013},{"rt":4549.799999952316,"stimulus":"bees-with-color/bee-A2SF.svg","response":0,"trial_type":"image-button-response","trial_index":109,"time_elapsed":966749,"internal_node_id":"0.0-4.0-0.51","subject_id":"614e1bee11cb9197129836ce","study_id":"6197b3f67c2b5cd3b6d9596a","session_id":"619beef1c0aee2f9df46b19d","condition":"contingent","relevant_dimensions":["antennae","legs"],"bee_group":{"antennae":"B","wings":"X","pattern":"X","legs":"M"},"action":"harvest","summary":"good-harvest","bonus":1.4200000000000013},{"rt":513.2999999523163,"stimulus":"\n                    <p><b>Action: <em>harvest</em></b></p>\n                    <p>This is the bee that you just saw.</p>\n                    <img src=\"bees-with-color/bee-A2SF.svg\" width=\"200\">\n                    <p><span class=\"greenText\"><b>Successful harvest!</b></span><br>Your pay has increased by $0.02. Your bonus pay is now $0.94.</p>\n            ","response":0,"trial_type":"html-button-response","trial_index":110,"time_elapsed":967263,"internal_node_id":"0.0-4.0-1.51","subject_id":"614e1bee11cb9197129836ce","study_id":"6197b3f67c2b5cd3b6d9596a","session_id":"619beef1c0aee2f9df46b19d","condition":"contingent","relevant_dimensions":["antennae","legs"],"bee_group":{"antennae":"B","wings":"X","pattern":"X","legs":"M"},"bonus":1.4200000000000013},{"rt":8885.100000023842,"stimulus":"bees-with-color/bee-B1SM.svg","response":0,"trial_type":"image-button-response","trial_index":111,"time_elapsed":976150,"internal_node_id":"0.0-4.0-0.52","subject_id":"614e1bee11cb9197129836ce","study_id":"6197b3f67c2b5cd3b6d9596a","session_id":"619beef1c0aee2f9df46b19d","condition":"contingent","relevant_dimensions":["antennae","legs"],"bee_group":{"antennae":"B","wings":"X","pattern":"X","legs":"M"},"action":"harvest","summary":"bad-harvest","bonus":1.4200000000000013},{"rt":1953.2000000476837,"stimulus":"\n                    <p><b>Action: <em>harvest</em></b></p>\n                    <p>This is the bee that you just saw.</p>\n                    <img src=\"bees-with-color/bee-B1SM.svg\" width=\"200\">\n                    <p><span class=\"redText\">Bad choice, the bee was angry.</span><br><b>You have been stung!</b><br>Your pay has been decreased by $0.10. Your bonus pay is now $0.84.</p>\n            ","response":0,"trial_type":"html-button-response","trial_index":112,"time_elapsed":978104,"internal_node_id":"0.0-4.0-1.52","subject_id":"614e1bee11cb9197129836ce","study_id":"6197b3f67c2b5cd3b6d9596a","session_id":"619beef1c0aee2f9df46b19d","condition":"contingent","relevant_dimensions":["antennae","legs"],"bee_group":{"antennae":"B","wings":"X","pattern":"X","legs":"M"},"bonus":1.4200000000000013},{"rt":17059.800000071526,"stimulus":"bees-with-color/bee-B1DF.svg","response":0,"trial_type":"image-button-response","trial_index":113,"time_elapsed":995165,"internal_node_id":"0.0-4.0-0.53","subject_id":"614e1bee11cb9197129836ce","study_id":"6197b3f67c2b5cd3b6d9596a","session_id":"619beef1c0aee2f9df46b19d","condition":"contingent","relevant_dimensions":["antennae","legs"],"bee_group":{"antennae":"B","wings":"X","pattern":"X","legs":"M"},"action":"harvest","summary":"good-harvest","bonus":1.4200000000000013},{"rt":515.2000000476837,"stimulus":"\n                    <p><b>Action: <em>harvest</em></b></p>\n                    <p>This is the bee that you just saw.</p>\n                    <img src=\"bees-with-color/bee-B1DF.svg\" width=\"200\">\n                    <p><span class=\"greenText\"><b>Successful harvest!</b></span><br>Your pay has increased by $0.02. Your bonus pay is now $0.86.</p>\n            ","response":0,"trial_type":"html-button-response","trial_index":114,"time_elapsed":995681,"internal_node_id":"0.0-4.0-1.53","subject_id":"614e1bee11cb9197129836ce","study_id":"6197b3f67c2b5cd3b6d9596a","session_id":"619beef1c0aee2f9df46b19d","condition":"contingent","relevant_dimensions":["antennae","legs"],"bee_group":{"antennae":"B","wings":"X","pattern":"X","legs":"M"},"bonus":1.4200000000000013},{"rt":4323,"stimulus":"bees-with-color/bee-A1DM.svg","response":0,"trial_type":"image-button-response","trial_index":115,"time_elapsed":1000005,"internal_node_id":"0.0-4.0-0.54","subject_id":"614e1bee11cb9197129836ce","study_id":"6197b3f67c2b5cd3b6d9596a","session_id":"619beef1c0aee2f9df46b19d","condition":"contingent","relevant_dimensions":["antennae","legs"],"bee_group":{"antennae":"B","wings":"X","pattern":"X","legs":"M"},"action":"harvest","summary":"good-harvest","bonus":1.4200000000000013},{"rt":771,"stimulus":"\n                    <p><b>Action: <em>harvest</em></b></p>\n                    <p>This is the bee that you just saw.</p>\n                    <img src=\"bees-with-color/bee-A1DM.svg\" width=\"200\">\n                    <p><span class=\"greenText\"><b>Successful harvest!</b></span><br>Your pay has increased by $0.02. Your bonus pay is now $0.88.</p>\n            ","response":0,"trial_type":"html-button-response","trial_index":116,"time_elapsed":1000776,"internal_node_id":"0.0-4.0-1.54","subject_id":"614e1bee11cb9197129836ce","study_id":"6197b3f67c2b5cd3b6d9596a","session_id":"619beef1c0aee2f9df46b19d","condition":"contingent","relevant_dimensions":["antennae","legs"],"bee_group":{"antennae":"B","wings":"X","pattern":"X","legs":"M"},"bonus":1.4200000000000013},{"rt":10668.799999952316,"stimulus":"bees-with-color/bee-A2DM.svg","response":0,"trial_type":"image-button-response","trial_index":117,"time_elapsed":1011446,"internal_node_id":"0.0-4.0-0.55","subject_id":"614e1bee11cb9197129836ce","study_id":"6197b3f67c2b5cd3b6d9596a","session_id":"619beef1c0aee2f9df46b19d","condition":"contingent","relevant_dimensions":["antennae","legs"],"bee_group":{"antennae":"B","wings":"X","pattern":"X","legs":"M"},"action":"harvest","summary":"good-harvest","bonus":1.4200000000000013},{"rt":866.7999999523163,"stimulus":"\n                    <p><b>Action: <em>harvest</em></b></p>\n                    <p>This is the bee that you just saw.</p>\n                    <img src=\"bees-with-color/bee-A2DM.svg\" width=\"200\">\n                    <p><span class=\"greenText\"><b>Successful harvest!</b></span><br>Your pay has increased by $0.02. Your bonus pay is now $0.90.</p>\n            ","response":0,"trial_type":"html-button-response","trial_index":118,"time_elapsed":1012314,"internal_node_id":"0.0-4.0-1.55","subject_id":"614e1bee11cb9197129836ce","study_id":"6197b3f67c2b5cd3b6d9596a","session_id":"619beef1c0aee2f9df46b19d","condition":"contingent","relevant_dimensions":["antennae","legs"],"bee_group":{"antennae":"B","wings":"X","pattern":"X","legs":"M"},"bonus":1.4200000000000013},{"rt":12186,"stimulus":"bees-with-color/bee-B1DM.svg","response":1,"trial_type":"image-button-response","trial_index":119,"time_elapsed":1024500,"internal_node_id":"0.0-4.0-0.56","subject_id":"614e1bee11cb9197129836ce","study_id":"6197b3f67c2b5cd3b6d9596a","session_id":"619beef1c0aee2f9df46b19d","condition":"contingent","relevant_dimensions":["antennae","legs"],"bee_group":{"antennae":"B","wings":"X","pattern":"X","legs":"M"},"action":"avoid","summary":"good-avoid","bonus":1.4200000000000013},{"rt":713.2000000476837,"stimulus":"\n                    <p><b>Action: <em>avoid</em></b></p>\n                    <p>This is the bee that you just saw.</p>\n                    <img src=\"bees-with-color/bee-B1DM.svg\" width=\"200\">\n                    <p><br>Your bonus pay is unchanged, and remains at $0.90.</p>\n            ","response":0,"trial_type":"html-button-response","trial_index":120,"time_elapsed":1025214,"internal_node_id":"0.0-4.0-1.56","subject_id":"614e1bee11cb9197129836ce","study_id":"6197b3f67c2b5cd3b6d9596a","session_id":"619beef1c0aee2f9df46b19d","condition":"contingent","relevant_dimensions":["antennae","legs"],"bee_group":{"antennae":"B","wings":"X","pattern":"X","legs":"M"},"bonus":1.4200000000000013},{"rt":9898.299999952316,"stimulus":"bees-with-color/bee-B2DF.svg","response":1,"trial_type":"image-button-response","trial_index":121,"time_elapsed":1035114,"internal_node_id":"0.0-4.0-0.57","subject_id":"614e1bee11cb9197129836ce","study_id":"6197b3f67c2b5cd3b6d9596a","session_id":"619beef1c0aee2f9df46b19d","condition":"contingent","relevant_dimensions":["antennae","legs"],"bee_group":{"antennae":"B","wings":"X","pattern":"X","legs":"M"},"action":"avoid","summary":"bad-avoid","bonus":1.4200000000000013},{"rt":669.7999999523163,"stimulus":"\n                    <p><b>Action: <em>avoid</em></b></p>\n                    <p>This is the bee that you just saw.</p>\n                    <img src=\"bees-with-color/bee-B2DF.svg\" width=\"200\">\n                    <p><br>Your bonus pay is unchanged, and remains at $0.90.</p>\n            ","response":0,"trial_type":"html-button-response","trial_index":122,"time_elapsed":1035784,"internal_node_id":"0.0-4.0-1.57","subject_id":"614e1bee11cb9197129836ce","study_id":"6197b3f67c2b5cd3b6d9596a","session_id":"619beef1c0aee2f9df46b19d","condition":"contingent","relevant_dimensions":["antennae","legs"],"bee_group":{"antennae":"B","wings":"X","pattern":"X","legs":"M"},"bonus":1.4200000000000013},{"rt":5996.600000023842,"stimulus":"bees-with-color/bee-B1SF.svg","response":0,"trial_type":"image-button-response","trial_index":123,"time_elapsed":1041782,"internal_node_id":"0.0-4.0-0.58","subject_id":"614e1bee11cb9197129836ce","study_id":"6197b3f67c2b5cd3b6d9596a","session_id":"619beef1c0aee2f9df46b19d","condition":"contingent","relevant_dimensions":["antennae","legs"],"bee_group":{"antennae":"B","wings":"X","pattern":"X","legs":"M"},"action":"harvest","summary":"good-harvest","bonus":1.4200000000000013},{"rt":482,"stimulus":"\n                    <p><b>Action: <em>harvest</em></b></p>\n                    <p>This is the bee that you just saw.</p>\n                    <img src=\"bees-with-color/bee-B1SF.svg\" width=\"200\">\n                    <p><span class=\"greenText\"><b>Successful harvest!</b></span><br>Your pay has increased by $0.02. Your bonus pay is now $0.92.</p>\n            ","response":0,"trial_type":"html-button-response","trial_index":124,"time_elapsed":1042264,"internal_node_id":"0.0-4.0-1.58","subject_id":"614e1bee11cb9197129836ce","study_id":"6197b3f67c2b5cd3b6d9596a","session_id":"619beef1c0aee2f9df46b19d","condition":"contingent","relevant_dimensions":["antennae","legs"],"bee_group":{"antennae":"B","wings":"X","pattern":"X","legs":"M"},"bonus":1.4200000000000013},{"rt":11373.399999976158,"stimulus":"bees-with-color/bee-A1DF.svg","response":0,"trial_type":"image-button-response","trial_index":125,"time_elapsed":1053639,"internal_node_id":"0.0-4.0-0.59","subject_id":"614e1bee11cb9197129836ce","study_id":"6197b3f67c2b5cd3b6d9596a","session_id":"619beef1c0aee2f9df46b19d","condition":"contingent","relevant_dimensions":["antennae","legs"],"bee_group":{"antennae":"B","wings":"X","pattern":"X","legs":"M"},"action":"harvest","summary":"good-harvest","bonus":1.4200000000000013},{"rt":803.2000000476837,"stimulus":"\n                    <p><b>Action: <em>harvest</em></b></p>\n                    <p>This is the bee that you just saw.</p>\n                    <img src=\"bees-with-color/bee-A1DF.svg\" width=\"200\">\n                    <p><span class=\"greenText\"><b>Successful harvest!</b></span><br>Your pay has increased by $0.02. Your bonus pay is now $0.94.</p>\n            ","response":0,"trial_type":"html-button-response","trial_index":126,"time_elapsed":1054443,"internal_node_id":"0.0-4.0-1.59","subject_id":"614e1bee11cb9197129836ce","study_id":"6197b3f67c2b5cd3b6d9596a","session_id":"619beef1c0aee2f9df46b19d","condition":"contingent","relevant_dimensions":["antennae","legs"],"bee_group":{"antennae":"B","wings":"X","pattern":"X","legs":"M"},"bonus":1.4200000000000013},{"rt":5780,"stimulus":"bees-with-color/bee-A2DF.svg","response":0,"trial_type":"image-button-response","trial_index":127,"time_elapsed":1060224,"internal_node_id":"0.0-4.0-0.60","subject_id":"614e1bee11cb9197129836ce","study_id":"6197b3f67c2b5cd3b6d9596a","session_id":"619beef1c0aee2f9df46b19d","condition":"contingent","relevant_dimensions":["antennae","legs"],"bee_group":{"antennae":"B","wings":"X","pattern":"X","legs":"M"},"action":"harvest","summary":"good-harvest","bonus":1.4200000000000013},{"rt":415.40000009536743,"stimulus":"\n                    <p><b>Action: <em>harvest</em></b></p>\n                    <p>This is the bee that you just saw.</p>\n                    <img src=\"bees-with-color/bee-A2DF.svg\" width=\"200\">\n                    <p><span class=\"greenText\"><b>Successful harvest!</b></span><br>Your pay has increased by $0.02. Your bonus pay is now $0.96.</p>\n            ","response":0,"trial_type":"html-button-response","trial_index":128,"time_elapsed":1060640,"internal_node_id":"0.0-4.0-1.60","subject_id":"614e1bee11cb9197129836ce","study_id":"6197b3f67c2b5cd3b6d9596a","session_id":"619beef1c0aee2f9df46b19d","condition":"contingent","relevant_dimensions":["antennae","legs"],"bee_group":{"antennae":"B","wings":"X","pattern":"X","legs":"M"},"bonus":1.4200000000000013},{"rt":4769.899999976158,"stimulus":"bees-with-color/bee-A1SF.svg","response":0,"trial_type":"image-button-response","trial_index":129,"time_elapsed":1065411,"internal_node_id":"0.0-4.0-0.61","subject_id":"614e1bee11cb9197129836ce","study_id":"6197b3f67c2b5cd3b6d9596a","session_id":"619beef1c0aee2f9df46b19d","condition":"contingent","relevant_dimensions":["antennae","legs"],"bee_group":{"antennae":"B","wings":"X","pattern":"X","legs":"M"},"action":"harvest","summary":"good-harvest","bonus":1.4200000000000013},{"rt":441.89999997615814,"stimulus":"\n                    <p><b>Action: <em>harvest</em></b></p>\n                    <p>This is the bee that you just saw.</p>\n                    <img src=\"bees-with-color/bee-A1SF.svg\" width=\"200\">\n                    <p><span class=\"greenText\"><b>Successful harvest!</b></span><br>Your pay has increased by $0.02. Your bonus pay is now $0.98.</p>\n            ","response":0,"trial_type":"html-button-response","trial_index":130,"time_elapsed":1065853,"internal_node_id":"0.0-4.0-1.61","subject_id":"614e1bee11cb9197129836ce","study_id":"6197b3f67c2b5cd3b6d9596a","session_id":"619beef1c0aee2f9df46b19d","condition":"contingent","relevant_dimensions":["antennae","legs"],"bee_group":{"antennae":"B","wings":"X","pattern":"X","legs":"M"},"bonus":1.4200000000000013},{"rt":3527.2999999523163,"stimulus":"bees-with-color/bee-A2SM.svg","response":0,"trial_type":"image-button-response","trial_index":131,"time_elapsed":1069381,"internal_node_id":"0.0-4.0-0.62","subject_id":"614e1bee11cb9197129836ce","study_id":"6197b3f67c2b5cd3b6d9596a","session_id":"619beef1c0aee2f9df46b19d","condition":"contingent","relevant_dimensions":["antennae","legs"],"bee_group":{"antennae":"B","wings":"X","pattern":"X","legs":"M"},"action":"harvest","summary":"good-harvest","bonus":1.4200000000000013},{"rt":457.7999999523163,"stimulus":"\n                    <p><b>Action: <em>harvest</em></b></p>\n                    <p>This is the bee that you just saw.</p>\n                    <img src=\"bees-with-color/bee-A2SM.svg\" width=\"200\">\n                    <p><span class=\"greenText\"><b>Successful harvest!</b></span><br>Your pay has increased by $0.02. Your bonus pay is now $1.00.</p>\n            ","response":0,"trial_type":"html-button-response","trial_index":132,"time_elapsed":1069840,"internal_node_id":"0.0-4.0-1.62","subject_id":"614e1bee11cb9197129836ce","study_id":"6197b3f67c2b5cd3b6d9596a","session_id":"619beef1c0aee2f9df46b19d","condition":"contingent","relevant_dimensions":["antennae","legs"],"bee_group":{"antennae":"B","wings":"X","pattern":"X","legs":"M"},"bonus":1.4200000000000013},{"rt":7364.299999952316,"stimulus":"bees-with-color/bee-B2SM.svg","response":1,"trial_type":"image-button-response","trial_index":133,"time_elapsed":1077205,"internal_node_id":"0.0-4.0-0.63","subject_id":"614e1bee11cb9197129836ce","study_id":"6197b3f67c2b5cd3b6d9596a","session_id":"619beef1c0aee2f9df46b19d","condition":"contingent","relevant_dimensions":["antennae","legs"],"bee_group":{"antennae":"B","wings":"X","pattern":"X","legs":"M"},"action":"avoid","summary":"good-avoid","bonus":1.4200000000000013},{"rt":585.6000000238419,"stimulus":"\n                    <p><b>Action: <em>avoid</em></b></p>\n                    <p>This is the bee that you just saw.</p>\n                    <img src=\"bees-with-color/bee-B2SM.svg\" width=\"200\">\n                    <p><br>Your bonus pay is unchanged, and remains at $1.00.</p>\n            ","response":0,"trial_type":"html-button-response","trial_index":134,"time_elapsed":1077791,"internal_node_id":"0.0-4.0-1.63","subject_id":"614e1bee11cb9197129836ce","study_id":"6197b3f67c2b5cd3b6d9596a","session_id":"619beef1c0aee2f9df46b19d","condition":"contingent","relevant_dimensions":["antennae","legs"],"bee_group":{"antennae":"B","wings":"X","pattern":"X","legs":"M"},"bonus":1.4200000000000013},{"rt":8427.100000023842,"stimulus":"You have completed the first part of this experiment.<br><br>You will now begin a shorter second part, in which you will receive no feedback.<br>The same rules regarding bonus pay apply.<br><br>Press any key to begin.","response":"arrowright","trial_type":"html-keyboard-response","trial_index":135,"time_elapsed":1086219,"internal_node_id":"0.0-5.0","subject_id":"614e1bee11cb9197129836ce","study_id":"6197b3f67c2b5cd3b6d9596a","session_id":"619beef1c0aee2f9df46b19d","condition":"contingent","relevant_dimensions":["antennae","legs"],"bee_group":{"antennae":"B","wings":"X","pattern":"X","legs":"M"},"bonus":1.4200000000000013},{"rt":18832.900000095367,"stimulus":"bees-with-color/bee-B2DF.svg","response":1,"trial_type":"image-button-response","trial_index":136,"time_elapsed":1105057,"internal_node_id":"0.0-6.0-0.0","subject_id":"614e1bee11cb9197129836ce","study_id":"6197b3f67c2b5cd3b6d9596a","session_id":"619beef1c0aee2f9df46b19d","condition":"contingent","relevant_dimensions":["antennae","legs"],"bee_group":{"antennae":"B","wings":"X","pattern":"X","legs":"M"},"bonus":1.4200000000000013},{"rt":6244,"stimulus":"bees-with-color/bee-B1SM.svg","response":1,"trial_type":"image-button-response","trial_index":137,"time_elapsed":1111302,"internal_node_id":"0.0-6.0-0.1","subject_id":"614e1bee11cb9197129836ce","study_id":"6197b3f67c2b5cd3b6d9596a","session_id":"619beef1c0aee2f9df46b19d","condition":"contingent","relevant_dimensions":["antennae","legs"],"bee_group":{"antennae":"B","wings":"X","pattern":"X","legs":"M"},"bonus":1.4200000000000013},{"rt":7063.699999928474,"stimulus":"bees-with-color/bee-A2DF.svg","response":0,"trial_type":"image-button-response","trial_index":138,"time_elapsed":1118367,"internal_node_id":"0.0-6.0-0.2","subject_id":"614e1bee11cb9197129836ce","study_id":"6197b3f67c2b5cd3b6d9596a","session_id":"619beef1c0aee2f9df46b19d","condition":"contingent","relevant_dimensions":["antennae","legs"],"bee_group":{"antennae":"B","wings":"X","pattern":"X","legs":"M"},"bonus":1.4200000000000013},{"rt":3796.7999999523163,"stimulus":"bees-with-color/bee-A1DF.svg","response":0,"trial_type":"image-button-response","trial_index":139,"time_elapsed":1122165,"internal_node_id":"0.0-6.0-0.3","subject_id":"614e1bee11cb9197129836ce","study_id":"6197b3f67c2b5cd3b6d9596a","session_id":"619beef1c0aee2f9df46b19d","condition":"contingent","relevant_dimensions":["antennae","legs"],"bee_group":{"antennae":"B","wings":"X","pattern":"X","legs":"M"},"bonus":1.4200000000000013},{"rt":5935.200000047684,"stimulus":"bees-with-color/bee-A1SF.svg","response":0,"trial_type":"image-button-response","trial_index":140,"time_elapsed":1128102,"internal_node_id":"0.0-6.0-0.4","subject_id":"614e1bee11cb9197129836ce","study_id":"6197b3f67c2b5cd3b6d9596a","session_id":"619beef1c0aee2f9df46b19d","condition":"contingent","relevant_dimensions":["antennae","legs"],"bee_group":{"antennae":"B","wings":"X","pattern":"X","legs":"M"},"bonus":1.4200000000000013},{"rt":7256.100000023842,"stimulus":"bees-with-color/bee-A2DM.svg","response":0,"trial_type":"image-button-response","trial_index":141,"time_elapsed":1135359,"internal_node_id":"0.0-6.0-0.5","subject_id":"614e1bee11cb9197129836ce","study_id":"6197b3f67c2b5cd3b6d9596a","session_id":"619beef1c0aee2f9df46b19d","condition":"contingent","relevant_dimensions":["antennae","legs"],"bee_group":{"antennae":"B","wings":"X","pattern":"X","legs":"M"},"bonus":1.4200000000000013},{"rt":6478,"stimulus":"bees-with-color/bee-B2SM.svg","response":1,"trial_type":"image-button-response","trial_index":142,"time_elapsed":1141838,"internal_node_id":"0.0-6.0-0.6","subject_id":"614e1bee11cb9197129836ce","study_id":"6197b3f67c2b5cd3b6d9596a","session_id":"619beef1c0aee2f9df46b19d","condition":"contingent","relevant_dimensions":["antennae","legs"],"bee_group":{"antennae":"B","wings":"X","pattern":"X","legs":"M"},"bonus":1.4200000000000013},{"rt":22558.799999952316,"stimulus":"bees-with-color/bee-B1SF.svg","response":1,"trial_type":"image-button-response","trial_index":143,"time_elapsed":1164399,"internal_node_id":"0.0-6.0-0.7","subject_id":"614e1bee11cb9197129836ce","study_id":"6197b3f67c2b5cd3b6d9596a","session_id":"619beef1c0aee2f9df46b19d","condition":"contingent","relevant_dimensions":["antennae","legs"],"bee_group":{"antennae":"B","wings":"X","pattern":"X","legs":"M"},"bonus":1.4200000000000013},{"rt":5254.899999976158,"stimulus":"bees-with-color/bee-B2DM.svg","response":1,"trial_type":"image-button-response","trial_index":144,"time_elapsed":1169655,"internal_node_id":"0.0-6.0-0.8","subject_id":"614e1bee11cb9197129836ce","study_id":"6197b3f67c2b5cd3b6d9596a","session_id":"619beef1c0aee2f9df46b19d","condition":"contingent","relevant_dimensions":["antennae","legs"],"bee_group":{"antennae":"B","wings":"X","pattern":"X","legs":"M"},"bonus":1.4200000000000013},{"rt":4560.599999904633,"stimulus":"bees-with-color/bee-B2SF.svg","response":0,"trial_type":"image-button-response","trial_index":145,"time_elapsed":1174216,"internal_node_id":"0.0-6.0-0.9","subject_id":"614e1bee11cb9197129836ce","study_id":"6197b3f67c2b5cd3b6d9596a","session_id":"619beef1c0aee2f9df46b19d","condition":"contingent","relevant_dimensions":["antennae","legs"],"bee_group":{"antennae":"B","wings":"X","pattern":"X","legs":"M"},"bonus":1.4200000000000013},{"rt":9309.299999952316,"stimulus":"bees-with-color/bee-B1DF.svg","response":0,"trial_type":"image-button-response","trial_index":146,"time_elapsed":1183527,"internal_node_id":"0.0-6.0-0.10","subject_id":"614e1bee11cb9197129836ce","study_id":"6197b3f67c2b5cd3b6d9596a","session_id":"619beef1c0aee2f9df46b19d","condition":"contingent","relevant_dimensions":["antennae","legs"],"bee_group":{"antennae":"B","wings":"X","pattern":"X","legs":"M"},"bonus":1.4200000000000013},{"rt":10242.299999952316,"stimulus":"bees-with-color/bee-A1SM.svg","response":0,"trial_type":"image-button-response","trial_index":147,"time_elapsed":1193771,"internal_node_id":"0.0-6.0-0.11","subject_id":"614e1bee11cb9197129836ce","study_id":"6197b3f67c2b5cd3b6d9596a","session_id":"619beef1c0aee2f9df46b19d","condition":"contingent","relevant_dimensions":["antennae","legs"],"bee_group":{"antennae":"B","wings":"X","pattern":"X","legs":"M"},"bonus":1.4200000000000013},{"rt":5966.699999928474,"stimulus":"bees-with-color/bee-A1DM.svg","response":0,"trial_type":"image-button-response","trial_index":148,"time_elapsed":1199739,"internal_node_id":"0.0-6.0-0.12","subject_id":"614e1bee11cb9197129836ce","study_id":"6197b3f67c2b5cd3b6d9596a","session_id":"619beef1c0aee2f9df46b19d","condition":"contingent","relevant_dimensions":["antennae","legs"],"bee_group":{"antennae":"B","wings":"X","pattern":"X","legs":"M"},"bonus":1.4200000000000013},{"rt":3322.7999999523163,"stimulus":"bees-with-color/bee-A2SF.svg","response":0,"trial_type":"image-button-response","trial_index":149,"time_elapsed":1203063,"internal_node_id":"0.0-6.0-0.13","subject_id":"614e1bee11cb9197129836ce","study_id":"6197b3f67c2b5cd3b6d9596a","session_id":"619beef1c0aee2f9df46b19d","condition":"contingent","relevant_dimensions":["antennae","legs"],"bee_group":{"antennae":"B","wings":"X","pattern":"X","legs":"M"},"bonus":1.4200000000000013},{"rt":8254.699999928474,"stimulus":"bees-with-color/bee-B1DM.svg","response":1,"trial_type":"image-button-response","trial_index":150,"time_elapsed":1211318,"internal_node_id":"0.0-6.0-0.14","subject_id":"614e1bee11cb9197129836ce","study_id":"6197b3f67c2b5cd3b6d9596a","session_id":"619beef1c0aee2f9df46b19d","condition":"contingent","relevant_dimensions":["antennae","legs"],"bee_group":{"antennae":"B","wings":"X","pattern":"X","legs":"M"},"bonus":1.4200000000000013},{"rt":37585.299999952316,"stimulus":"bees-with-color/bee-A2SM.svg","response":0,"trial_type":"image-button-response","trial_index":151,"time_elapsed":1248905,"internal_node_id":"0.0-6.0-0.15","subject_id":"614e1bee11cb9197129836ce","study_id":"6197b3f67c2b5cd3b6d9596a","session_id":"619beef1c0aee2f9df46b19d","condition":"contingent","relevant_dimensions":["antennae","legs"],"bee_group":{"antennae":"B","wings":"X","pattern":"X","legs":"M"},"bonus":1.4200000000000013},{"rt":7051.700000047684,"stimulus":"bees-with-color/bee-A1SF.svg","response":0,"trial_type":"image-button-response","trial_index":152,"time_elapsed":1255958,"internal_node_id":"0.0-6.0-0.16","subject_id":"614e1bee11cb9197129836ce","study_id":"6197b3f67c2b5cd3b6d9596a","session_id":"619beef1c0aee2f9df46b19d","condition":"contingent","relevant_dimensions":["antennae","legs"],"bee_group":{"antennae":"B","wings":"X","pattern":"X","legs":"M"},"bonus":1.4200000000000013},{"rt":10906,"stimulus":"bees-with-color/bee-B1SF.svg","response":0,"trial_type":"image-button-response","trial_index":153,"time_elapsed":1266865,"internal_node_id":"0.0-6.0-0.17","subject_id":"614e1bee11cb9197129836ce","study_id":"6197b3f67c2b5cd3b6d9596a","session_id":"619beef1c0aee2f9df46b19d","condition":"contingent","relevant_dimensions":["antennae","legs"],"bee_group":{"antennae":"B","wings":"X","pattern":"X","legs":"M"},"bonus":1.4200000000000013},{"rt":7603.699999928474,"stimulus":"bees-with-color/bee-A2DF.svg","response":0,"trial_type":"image-button-response","trial_index":154,"time_elapsed":1274470,"internal_node_id":"0.0-6.0-0.18","subject_id":"614e1bee11cb9197129836ce","study_id":"6197b3f67c2b5cd3b6d9596a","session_id":"619beef1c0aee2f9df46b19d","condition":"contingent","relevant_dimensions":["antennae","legs"],"bee_group":{"antennae":"B","wings":"X","pattern":"X","legs":"M"},"bonus":1.4200000000000013},{"rt":7360.299999952316,"stimulus":"bees-with-color/bee-A1SM.svg","response":0,"trial_type":"image-button-response","trial_index":155,"time_elapsed":1281831,"internal_node_id":"0.0-6.0-0.19","subject_id":"614e1bee11cb9197129836ce","study_id":"6197b3f67c2b5cd3b6d9596a","session_id":"619beef1c0aee2f9df46b19d","condition":"contingent","relevant_dimensions":["antennae","legs"],"bee_group":{"antennae":"B","wings":"X","pattern":"X","legs":"M"},"bonus":1.4200000000000013},{"rt":5174.899999976158,"stimulus":"bees-with-color/bee-B1DM.svg","response":1,"trial_type":"image-button-response","trial_index":156,"time_elapsed":1287007,"internal_node_id":"0.0-6.0-0.20","subject_id":"614e1bee11cb9197129836ce","study_id":"6197b3f67c2b5cd3b6d9596a","session_id":"619beef1c0aee2f9df46b19d","condition":"contingent","relevant_dimensions":["antennae","legs"],"bee_group":{"antennae":"B","wings":"X","pattern":"X","legs":"M"},"bonus":1.4200000000000013},{"rt":4927.700000047684,"stimulus":"bees-with-color/bee-A1DF.svg","response":0,"trial_type":"image-button-response","trial_index":157,"time_elapsed":1291936,"internal_node_id":"0.0-6.0-0.21","subject_id":"614e1bee11cb9197129836ce","study_id":"6197b3f67c2b5cd3b6d9596a","session_id":"619beef1c0aee2f9df46b19d","condition":"contingent","relevant_dimensions":["antennae","legs"],"bee_group":{"antennae":"B","wings":"X","pattern":"X","legs":"M"},"bonus":1.4200000000000013},{"rt":9837.799999952316,"stimulus":"bees-with-color/bee-B1DF.svg","response":0,"trial_type":"image-button-response","trial_index":158,"time_elapsed":1301775,"internal_node_id":"0.0-6.0-0.22","subject_id":"614e1bee11cb9197129836ce","study_id":"6197b3f67c2b5cd3b6d9596a","session_id":"619beef1c0aee2f9df46b19d","condition":"contingent","relevant_dimensions":["antennae","legs"],"bee_group":{"antennae":"B","wings":"X","pattern":"X","legs":"M"},"bonus":1.4200000000000013},{"rt":5542.700000047684,"stimulus":"bees-with-color/bee-B2DM.svg","response":1,"trial_type":"image-button-response","trial_index":159,"time_elapsed":1307318,"internal_node_id":"0.0-6.0-0.23","subject_id":"614e1bee11cb9197129836ce","study_id":"6197b3f67c2b5cd3b6d9596a","session_id":"619beef1c0aee2f9df46b19d","condition":"contingent","relevant_dimensions":["antennae","legs"],"bee_group":{"antennae":"B","wings":"X","pattern":"X","legs":"M"},"bonus":1.4200000000000013},{"rt":5154.799999952316,"stimulus":"bees-with-color/bee-B2SF.svg","response":0,"trial_type":"image-button-response","trial_index":160,"time_elapsed":1312474,"internal_node_id":"0.0-6.0-0.24","subject_id":"614e1bee11cb9197129836ce","study_id":"6197b3f67c2b5cd3b6d9596a","session_id":"619beef1c0aee2f9df46b19d","condition":"contingent","relevant_dimensions":["antennae","legs"],"bee_group":{"antennae":"B","wings":"X","pattern":"X","legs":"M"},"bonus":1.4200000000000013},{"rt":9353.299999952316,"stimulus":"bees-with-color/bee-A2DM.svg","response":0,"trial_type":"image-button-response","trial_index":161,"time_elapsed":1321828,"internal_node_id":"0.0-6.0-0.25","subject_id":"614e1bee11cb9197129836ce","study_id":"6197b3f67c2b5cd3b6d9596a","session_id":"619beef1c0aee2f9df46b19d","condition":"contingent","relevant_dimensions":["antennae","legs"],"bee_group":{"antennae":"B","wings":"X","pattern":"X","legs":"M"},"bonus":1.4200000000000013},{"rt":9124.100000023842