[{"success":true,"trial_type":"fullscreen","trial_index":0,"time_elapsed":90020,"internal_node_id":"0.0-0.0","subject_id":"6026a3507e666237c315a0b0","study_id":"60edd13110225f80f9f3709b","session_id":"6196c7018b5787454145191f","condition":"contingent","relevant_dimensions":["wings","legs"],"bee_group":{"antennae":"X","wings":"1","pattern":"X","legs":"M"},"bonus":1.3200000000000012},{"success":true,"timeout":false,"failed_images":[],"failed_audio":[],"failed_video":[],"trial_type":"preload","trial_index":1,"time_elapsed":91750,"internal_node_id":"0.0-1.0","subject_id":"6026a3507e666237c315a0b0","study_id":"60edd13110225f80f9f3709b","session_id":"6196c7018b5787454145191f","condition":"contingent","relevant_dimensions":["wings","legs"],"bee_group":{"antennae":"X","wings":"1","pattern":"X","legs":"M"},"bonus":1.3200000000000012},{"rt":6499.5,"stimulus":"Welcome! Press any key to begin.","response":" ","trial_type":"html-keyboard-response","trial_index":2,"time_elapsed":98250,"internal_node_id":"0.0-2.0","subject_id":"6026a3507e666237c315a0b0","study_id":"60edd13110225f80f9f3709b","session_id":"6196c7018b5787454145191f","condition":"contingent","relevant_dimensions":["wings","legs"],"bee_group":{"antennae":"X","wings":"1","pattern":"X","legs":"M"},"bonus":1.3200000000000012},{"view_history":[{"page_index":0,"viewing_time":8680.400000000023},{"page_index":1,"viewing_time":24801.800000000047},{"page_index":2,"viewing_time":23672.29999999993},{"page_index":3,"viewing_time":26769.800000000047},{"page_index":4,"viewing_time":12847.199999999953},{"page_index":5,"viewing_time":20357.900000000023},{"page_index":6,"viewing_time":13593.699999999953},{"page_index":7,"viewing_time":18223.400000000023},{"page_index":8,"viewing_time":10868.900000000023},{"page_index":9,"viewing_time":13582.800000000047},{"page_index":10,"viewing_time":9358},{"page_index":11,"viewing_time":11881},{"page_index":12,"viewing_time":10820.199999999953},{"page_index":13,"viewing_time":1289.8999999999069},{"page_index":14,"viewing_time":5024.90000000014}],"rt":211772.70000000007,"trial_type":"instructions","trial_index":3,"time_elapsed":310023,"internal_node_id":"0.0-3.0-0.0","subject_id":"6026a3507e666237c315a0b0","study_id":"60edd13110225f80f9f3709b","session_id":"6196c7018b5787454145191f","condition":"contingent","relevant_dimensions":["wings","legs"],"bee_group":{"antennae":"X","wings":"1","pattern":"X","legs":"M"},"bonus":1.3200000000000012},{"rt":37961,"response":{"Q0":["Two or six legs","Stripes or spots on body","Single or double wings","Antennae or no antennae"]},"question_order":[0],"trial_type":"survey-multi-select","trial_index":4,"time_elapsed":347988,"internal_node_id":"0.0-3.0-1.0","subject_id":"6026a3507e666237c315a0b0","study_id":"60edd13110225f80f9f3709b","session_id":"6196c7018b5787454145191f","condition":"contingent","relevant_dimensions":["wings","legs"],"bee_group":{"antennae":"X","wings":"1","pattern":"X","legs":"M"},"correct":true,"bonus":1.3200000000000012},{"rt":26767.600000000093,"response":{"Q1":"No.","Q2":"Based on the four features of the bee.","Q3":"You do not learn if it was friendly or dangerous, and do not alter your bonus."},"question_order":[0,1,2],"trial_type":"survey-multi-choice","trial_index":5,"time_elapsed":374758,"internal_node_id":"0.0-3.0-2.0","subject_id":"6026a3507e666237c315a0b0","study_id":"60edd13110225f80f9f3709b","session_id":"6196c7018b5787454145191f","condition":"contingent","relevant_dimensions":["wings","legs"],"bee_group":{"antennae":"X","wings":"1","pattern":"X","legs":"M"},"correct":true,"bonus":1.3200000000000012},{"rt":7684.199999999953,"stimulus":"<p>Congrats, you got everything right<br>When you're ready, click the button below to continue to the experiment.</p>","response":0,"trial_type":"html-button-response","trial_index":6,"time_elapsed":382445,"internal_node_id":"0.0-3.0-3.0","subject_id":"6026a3507e666237c315a0b0","study_id":"60edd13110225f80f9f3709b","session_id":"6196c7018b5787454145191f","condition":"contingent","relevant_dimensions":["wings","legs"],"bee_group":{"antennae":"X","wings":"1","pattern":"X","legs":"M"},"bonus":1.3200000000000012},{"rt":7319.09999999986,"stimulus":"bees-with-color/bee-B2DM.svg","response":1,"trial_type":"image-button-response","trial_index":7,"time_elapsed":389766,"internal_node_id":"0.0-4.0-0.0","subject_id":"6026a3507e666237c315a0b0","study_id":"60edd13110225f80f9f3709b","session_id":"6196c7018b5787454145191f","condition":"contingent","relevant_dimensions":["wings","legs"],"bee_group":{"antennae":"X","wings":"1","pattern":"X","legs":"M"},"action":"avoid","summary":"bad-avoid","bonus":1.3200000000000012},{"rt":10393.399999999907,"stimulus":"\n                    <p><b>Action: <em>avoid</em></b></p>\n                    <p>This is the bee that you just saw.</p>\n                    <img src=\"bees-with-color/bee-B2DM.svg\" width=\"200\">\n                    <p><br>Your bonus pay is unchanged, and remains at $0.54.</p>\n            ","response":0,"trial_type":"html-button-response","trial_index":8,"time_elapsed":400161,"internal_node_id":"0.0-4.0-1.0","subject_id":"6026a3507e666237c315a0b0","study_id":"60edd13110225f80f9f3709b","session_id":"6196c7018b5787454145191f","condition":"contingent","relevant_dimensions":["wings","legs"],"bee_group":{"antennae":"X","wings":"1","pattern":"X","legs":"M"},"bonus":1.3200000000000012},{"rt":3893,"stimulus":"bees-with-color/bee-B1DF.svg","response":0,"trial_type":"image-button-response","trial_index":9,"time_elapsed":404055,"internal_node_id":"0.0-4.0-0.1","subject_id":"6026a3507e666237c315a0b0","study_id":"60edd13110225f80f9f3709b","session_id":"6196c7018b5787454145191f","condition":"contingent","relevant_dimensions":["wings","legs"],"bee_group":{"antennae":"X","wings":"1","pattern":"X","legs":"M"},"action":"harvest","summary":"good-harvest","bonus":1.3200000000000012},{"rt":7426.699999999953,"stimulus":"\n                    <p><b>Action: <em>harvest</em></b></p>\n                    <p>This is the bee that you just saw.</p>\n                    <img src=\"bees-with-color/bee-B1DF.svg\" width=\"200\">\n                    <p><span class=\"greenText\"><b>Successful harvest!</b></span><br>Your pay has increased by $0.02. Your bonus pay is now $0.56.</p>\n            ","response":0,"trial_type":"html-button-response","trial_index":10,"time_elapsed":411483,"internal_node_id":"0.0-4.0-1.1","subject_id":"6026a3507e666237c315a0b0","study_id":"60edd13110225f80f9f3709b","session_id":"6196c7018b5787454145191f","condition":"contingent","relevant_dimensions":["wings","legs"],"bee_group":{"antennae":"X","wings":"1","pattern":"X","legs":"M"},"bonus":1.3200000000000012},{"rt":2518.8000000000466,"stimulus":"bees-with-color/bee-A2DF.svg","response":1,"trial_type":"image-button-response","trial_index":11,"time_elapsed":414003,"internal_node_id":"0.0-4.0-0.2","subject_id":"6026a3507e666237c315a0b0","study_id":"60edd13110225f80f9f3709b","session_id":"6196c7018b5787454145191f","condition":"contingent","relevant_dimensions":["wings","legs"],"bee_group":{"antennae":"X","wings":"1","pattern":"X","legs":"M"},"action":"avoid","summary":"bad-avoid","bonus":1.3200000000000012},{"rt":2523,"stimulus":"\n                    <p><b>Action: <em>avoid</em></b></p>\n                    <p>This is the bee that you just saw.</p>\n                    <img src=\"bees-with-color/bee-A2DF.svg\" width=\"200\">\n                    <p><br>Your bonus pay is unchanged, and remains at $0.56.</p>\n            ","response":0,"trial_type":"html-button-response","trial_index":12,"time_elapsed":416527,"internal_node_id":"0.0-4.0-1.2","subject_id":"6026a3507e666237c315a0b0","study_id":"60edd13110225f80f9f3709b","session_id":"6196c7018b5787454145191f","condition":"contingent","relevant_dimensions":["wings","legs"],"bee_group":{"antennae":"X","wings":"1","pattern":"X","legs":"M"},"bonus":1.3200000000000012},{"rt":5451,"stimulus":"bees-with-color/bee-A2SM.svg","response":1,"trial_type":"image-button-response","trial_index":13,"time_elapsed":421979,"internal_node_id":"0.0-4.0-0.3","subject_id":"6026a3507e666237c315a0b0","study_id":"60edd13110225f80f9f3709b","session_id":"6196c7018b5787454145191f","condition":"contingent","relevant_dimensions":["wings","legs"],"bee_group":{"antennae":"X","wings":"1","pattern":"X","legs":"M"},"action":"avoid","summary":"bad-avoid","bonus":1.3200000000000012},{"rt":1225.1000000000931,"stimulus":"\n                    <p><b>Action: <em>avoid</em></b></p>\n                    <p>This is the bee that you just saw.</p>\n                    <img src=\"bees-with-color/bee-A2SM.svg\" width=\"200\">\n                    <p><br>Your bonus pay is unchanged, and remains at $0.56.</p>\n            ","response":0,"trial_type":"html-button-response","trial_index":14,"time_elapsed":423205,"internal_node_id":"0.0-4.0-1.3","subject_id":"6026a3507e666237c315a0b0","study_id":"60edd13110225f80f9f3709b","session_id":"6196c7018b5787454145191f","condition":"contingent","relevant_dimensions":["wings","legs"],"bee_group":{"antennae":"X","wings":"1","pattern":"X","legs":"M"},"bonus":1.3200000000000012},{"rt":1457,"stimulus":"bees-with-color/bee-A1SM.svg","response":0,"trial_type":"image-button-response","trial_index":15,"time_elapsed":424663,"internal_node_id":"0.0-4.0-0.4","subject_id":"6026a3507e666237c315a0b0","study_id":"60edd13110225f80f9f3709b","session_id":"6196c7018b5787454145191f","condition":"contingent","relevant_dimensions":["wings","legs"],"bee_group":{"antennae":"X","wings":"1","pattern":"X","legs":"M"},"action":"harvest","summary":"bad-harvest","bonus":1.3200000000000012},{"rt":13832,"stimulus":"\n                    <p><b>Action: <em>harvest</em></b></p>\n                    <p>This is the bee that you just saw.</p>\n                    <img src=\"bees-with-color/bee-A1SM.svg\" width=\"200\">\n                    <p><span class=\"redText\">Bad choice, the bee was angry.</span><br><b>You have been stung!</b><br>Your pay has been decreased by $0.10. Your bonus pay is now $0.46.</p>\n            ","response":0,"trial_type":"html-button-response","trial_index":16,"time_elapsed":438496,"internal_node_id":"0.0-4.0-1.4","subject_id":"6026a3507e666237c315a0b0","study_id":"60edd13110225f80f9f3709b","session_id":"6196c7018b5787454145191f","condition":"contingent","relevant_dimensions":["wings","legs"],"bee_group":{"antennae":"X","wings":"1","pattern":"X","legs":"M"},"bonus":1.3200000000000012},{"rt":5424.800000000047,"stimulus":"bees-with-color/bee-A1DF.svg","response":1,"trial_type":"image-button-response","trial_index":17,"time_elapsed":443922,"internal_node_id":"0.0-4.0-0.5","subject_id":"6026a3507e666237c315a0b0","study_id":"60edd13110225f80f9f3709b","session_id":"6196c7018b5787454145191f","condition":"contingent","relevant_dimensions":["wings","legs"],"bee_group":{"antennae":"X","wings":"1","pattern":"X","legs":"M"},"action":"avoid","summary":"bad-avoid","bonus":1.3200000000000012},{"rt":1139.1000000000931,"stimulus":"\n                    <p><b>Action: <em>avoid</em></b></p>\n                    <p>This is the bee that you just saw.</p>\n                    <img src=\"bees-with-color/bee-A1DF.svg\" width=\"200\">\n                    <p><br>Your bonus pay is unchanged, and remains at $0.46.</p>\n            ","response":0,"trial_type":"html-button-response","trial_index":18,"time_elapsed":445062,"internal_node_id":"0.0-4.0-1.5","subject_id":"6026a3507e666237c315a0b0","study_id":"60edd13110225f80f9f3709b","session_id":"6196c7018b5787454145191f","condition":"contingent","relevant_dimensions":["wings","legs"],"bee_group":{"antennae":"X","wings":"1","pattern":"X","legs":"M"},"bonus":1.3200000000000012},{"rt":3271,"stimulus":"bees-with-color/bee-A2SF.svg","response":0,"trial_type":"image-button-response","trial_index":19,"time_elapsed":448334,"internal_node_id":"0.0-4.0-0.6","subject_id":"6026a3507e666237c315a0b0","study_id":"60edd13110225f80f9f3709b","session_id":"6196c7018b5787454145191f","condition":"contingent","relevant_dimensions":["wings","legs"],"bee_group":{"antennae":"X","wings":"1","pattern":"X","legs":"M"},"action":"harvest","summary":"good-harvest","bonus":1.3200000000000012},{"rt":9528.899999999907,"stimulus":"\n                    <p><b>Action: <em>harvest</em></b></p>\n                    <p>This is the bee that you just saw.</p>\n                    <img src=\"bees-with-color/bee-A2SF.svg\" width=\"200\">\n                    <p><span class=\"greenText\"><b>Successful harvest!</b></span><br>Your pay has increased by $0.02. Your bonus pay is now $0.48.</p>\n            ","response":0,"trial_type":"html-button-response","trial_index":20,"time_elapsed":457864,"internal_node_id":"0.0-4.0-1.6","subject_id":"6026a3507e666237c315a0b0","study_id":"60edd13110225f80f9f3709b","session_id":"6196c7018b5787454145191f","condition":"contingent","relevant_dimensions":["wings","legs"],"bee_group":{"antennae":"X","wings":"1","pattern":"X","legs":"M"},"bonus":1.3200000000000012},{"rt":8272,"stimulus":"bees-with-color/bee-B1DM.svg","response":1,"trial_type":"image-button-response","trial_index":21,"time_elapsed":466137,"internal_node_id":"0.0-4.0-0.7","subject_id":"6026a3507e666237c315a0b0","study_id":"60edd13110225f80f9f3709b","session_id":"6196c7018b5787454145191f","condition":"contingent","relevant_dimensions":["wings","legs"],"bee_group":{"antennae":"X","wings":"1","pattern":"X","legs":"M"},"action":"avoid","summary":"good-avoid","bonus":1.3200000000000012},{"rt":1056.2999999998137,"stimulus":"\n                    <p><b>Action: <em>avoid</em></b></p>\n                    <p>This is the bee that you just saw.</p>\n                    <img src=\"bees-with-color/bee-B1DM.svg\" width=\"200\">\n                    <p><br>Your bonus pay is unchanged, and remains at $0.48.</p>\n            ","response":0,"trial_type":"html-button-response","trial_index":22,"time_elapsed":467194,"internal_node_id":"0.0-4.0-1.7","subject_id":"6026a3507e666237c315a0b0","study_id":"60edd13110225f80f9f3709b","session_id":"6196c7018b5787454145191f","condition":"contingent","relevant_dimensions":["wings","legs"],"bee_group":{"antennae":"X","wings":"1","pattern":"X","legs":"M"},"bonus":1.3200000000000012},{"rt":5637.399999999907,"stimulus":"bees-with-color/bee-A1SF.svg","response":0,"trial_type":"image-button-response","trial_index":23,"time_elapsed":472833,"internal_node_id":"0.0-4.0-0.8","subject_id":"6026a3507e666237c315a0b0","study_id":"60edd13110225f80f9f3709b","session_id":"6196c7018b5787454145191f","condition":"contingent","relevant_dimensions":["wings","legs"],"bee_group":{"antennae":"X","wings":"1","pattern":"X","legs":"M"},"action":"harvest","summary":"good-harvest","bonus":1.3200000000000012},{"rt":5022.300000000047,"stimulus":"\n                    <p><b>Action: <em>harvest</em></b></p>\n                    <p>This is the bee that you just saw.</p>\n                    <img src=\"bees-with-color/bee-A1SF.svg\" width=\"200\">\n                    <p><span class=\"greenText\"><b>Successful harvest!</b></span><br>Your pay has increased by $0.02. Your bonus pay is now $0.50.</p>\n            ","response":0,"trial_type":"html-button-response","trial_index":24,"time_elapsed":477856,"internal_node_id":"0.0-4.0-1.8","subject_id":"6026a3507e666237c315a0b0","study_id":"60edd13110225f80f9f3709b","session_id":"6196c7018b5787454145191f","condition":"contingent","relevant_dimensions":["wings","legs"],"bee_group":{"antennae":"X","wings":"1","pattern":"X","legs":"M"},"bonus":1.3200000000000012},{"rt":15053.899999999907,"stimulus":"bees-with-color/bee-B1SM.svg","response":0,"trial_type":"image-button-response","trial_index":25,"time_elapsed":492911,"internal_node_id":"0.0-4.0-0.9","subject_id":"6026a3507e666237c315a0b0","study_id":"60edd13110225f80f9f3709b","session_id":"6196c7018b5787454145191f","condition":"contingent","relevant_dimensions":["wings","legs"],"bee_group":{"antennae":"X","wings":"1","pattern":"X","legs":"M"},"action":"harvest","summary":"bad-harvest","bonus":1.3200000000000012},{"rt":10054,"stimulus":"\n                    <p><b>Action: <em>harvest</em></b></p>\n                    <p>This is the bee that you just saw.</p>\n                    <img src=\"bees-with-color/bee-B1SM.svg\" width=\"200\">\n                    <p><span class=\"redText\">Bad choice, the bee was angry.</span><br><b>You have been stung!</b><br>Your pay has been decreased by $0.10. Your bonus pay is now $0.40.</p>\n            ","response":0,"trial_type":"html-button-response","trial_index":26,"time_elapsed":502966,"internal_node_id":"0.0-4.0-1.9","subject_id":"6026a3507e666237c315a0b0","study_id":"60edd13110225f80f9f3709b","session_id":"6196c7018b5787454145191f","condition":"contingent","relevant_dimensions":["wings","legs"],"bee_group":{"antennae":"X","wings":"1","pattern":"X","legs":"M"},"bonus":1.3200000000000012},{"rt":2979,"stimulus":"bees-with-color/bee-B2SF.svg","response":0,"trial_type":"image-button-response","trial_index":27,"time_elapsed":505946,"internal_node_id":"0.0-4.0-0.10","subject_id":"6026a3507e666237c315a0b0","study_id":"60edd13110225f80f9f3709b","session_id":"6196c7018b5787454145191f","condition":"contingent","relevant_dimensions":["wings","legs"],"bee_group":{"antennae":"X","wings":"1","pattern":"X","legs":"M"},"action":"harvest","summary":"good-harvest","bonus":1.3200000000000012},{"rt":6092.800000000047,"stimulus":"\n                    <p><b>Action: <em>harvest</em></b></p>\n                    <p>This is the bee that you just saw.</p>\n                    <img src=\"bees-with-color/bee-B2SF.svg\" width=\"200\">\n                    <p><span class=\"greenText\"><b>Successful harvest!</b></span><br>Your pay has increased by $0.02. Your bonus pay is now $0.42.</p>\n            ","response":0,"trial_type":"html-button-response","trial_index":28,"time_elapsed":512040,"internal_node_id":"0.0-4.0-1.10","subject_id":"6026a3507e666237c315a0b0","study_id":"60edd13110225f80f9f3709b","session_id":"6196c7018b5787454145191f","condition":"contingent","relevant_dimensions":["wings","legs"],"bee_group":{"antennae":"X","wings":"1","pattern":"X","legs":"M"},"bonus":1.3200000000000012},{"rt":8685.300000000047,"stimulus":"bees-with-color/bee-B1SF.svg","response":1,"trial_type":"image-button-response","trial_index":29,"time_elapsed":520726,"internal_node_id":"0.0-4.0-0.11","subject_id":"6026a3507e666237c315a0b0","study_id":"60edd13110225f80f9f3709b","session_id":"6196c7018b5787454145191f","condition":"contingent","relevant_dimensions":["wings","legs"],"bee_group":{"antennae":"X","wings":"1","pattern":"X","legs":"M"},"action":"avoid","summary":"bad-avoid","bonus":1.3200000000000012},{"rt":1057.8000000000466,"stimulus":"\n                    <p><b>Action: <em>avoid</em></b></p>\n                    <p>This is the bee that you just saw.</p>\n                    <img src=\"bees-with-color/bee-B1SF.svg\" width=\"200\">\n                    <p><br>Your bonus pay is unchanged, and remains at $0.42.</p>\n            ","response":0,"trial_type":"html-button-response","trial_index":30,"time_elapsed":521785,"internal_node_id":"0.0-4.0-1.11","subject_id":"6026a3507e666237c315a0b0","study_id":"60edd13110225f80f9f3709b","session_id":"6196c7018b5787454145191f","condition":"contingent","relevant_dimensions":["wings","legs"],"bee_group":{"antennae":"X","wings":"1","pattern":"X","legs":"M"},"bonus":1.3200000000000012},{"rt":11394.199999999953,"stimulus":"bees-with-color/bee-B2DF.svg","response":0,"trial_type":"image-button-response","trial_index":31,"time_elapsed":533180,"internal_node_id":"0.0-4.0-0.12","subject_id":"6026a3507e666237c315a0b0","study_id":"60edd13110225f80f9f3709b","session_id":"6196c7018b5787454145191f","condition":"contingent","relevant_dimensions":["wings","legs"],"bee_group":{"antennae":"X","wings":"1","pattern":"X","legs":"M"},"action":"harvest","summary":"good-harvest","bonus":1.3200000000000012},{"rt":2425.5,"stimulus":"\n                    <p><b>Action: <em>harvest</em></b></p>\n                    <p>This is the bee that you just saw.</p>\n                    <img src=\"bees-with-color/bee-B2DF.svg\" width=\"200\">\n                    <p><span class=\"greenText\"><b>Successful harvest!</b></span><br>Your pay has increased by $0.02. Your bonus pay is now $0.44.</p>\n            ","response":0,"trial_type":"html-button-response","trial_index":32,"time_elapsed":535606,"internal_node_id":"0.0-4.0-1.12","subject_id":"6026a3507e666237c315a0b0","study_id":"60edd13110225f80f9f3709b","session_id":"6196c7018b5787454145191f","condition":"contingent","relevant_dimensions":["wings","legs"],"bee_group":{"antennae":"X","wings":"1","pattern":"X","legs":"M"},"bonus":1.3200000000000012},{"rt":9320.899999999907,"stimulus":"bees-with-color/bee-B2SM.svg","response":0,"trial_type":"image-button-response","trial_index":33,"time_elapsed":544928,"internal_node_id":"0.0-4.0-0.13","subject_id":"6026a3507e666237c315a0b0","study_id":"60edd13110225f80f9f3709b","session_id":"6196c7018b5787454145191f","condition":"contingent","relevant_dimensions":["wings","legs"],"bee_group":{"antennae":"X","wings":"1","pattern":"X","legs":"M"},"action":"harvest","summary":"good-harvest","bonus":1.3200000000000012},{"rt":2377.3000000000466,"stimulus":"\n                    <p><b>Action: <em>harvest</em></b></p>\n                    <p>This is the bee that you just saw.</p>\n                    <img src=\"bees-with-color/bee-B2SM.svg\" width=\"200\">\n                    <p><span class=\"greenText\"><b>Successful harvest!</b></span><br>Your pay has increased by $0.02. Your bonus pay is now $0.46.</p>\n            ","response":0,"trial_type":"html-button-response","trial_index":34,"time_elapsed":547306,"internal_node_id":"0.0-4.0-1.13","subject_id":"6026a3507e666237c315a0b0","study_id":"60edd13110225f80f9f3709b","session_id":"6196c7018b5787454145191f","condition":"contingent","relevant_dimensions":["wings","legs"],"bee_group":{"antennae":"X","wings":"1","pattern":"X","legs":"M"},"bonus":1.3200000000000012},{"rt":12355.800000000047,"stimulus":"bees-with-color/bee-A1DM.svg","response":1,"trial_type":"image-button-response","trial_index":35,"time_elapsed":559663,"internal_node_id":"0.0-4.0-0.14","subject_id":"6026a3507e666237c315a0b0","study_id":"60edd13110225f80f9f3709b","session_id":"6196c7018b5787454145191f","condition":"contingent","relevant_dimensions":["wings","legs"],"bee_group":{"antennae":"X","wings":"1","pattern":"X","legs":"M"},"action":"avoid","summary":"good-avoid","bonus":1.3200000000000012},{"rt":3017.1999999999534,"stimulus":"\n                    <p><b>Action: <em>avoid</em></b></p>\n                    <p>This is the bee that you just saw.</p>\n                    <img src=\"bees-with-color/bee-A1DM.svg\" width=\"200\">\n                    <p><br>Your bonus pay is unchanged, and remains at $0.46.</p>\n            ","response":0,"trial_type":"html-button-response","trial_index":36,"time_elapsed":562681,"internal_node_id":"0.0-4.0-1.14","subject_id":"6026a3507e666237c315a0b0","study_id":"60edd13110225f80f9f3709b","session_id":"6196c7018b5787454145191f","condition":"contingent","relevant_dimensions":["wings","legs"],"bee_group":{"antennae":"X","wings":"1","pattern":"X","legs":"M"},"bonus":1.3200000000000012},{"rt":15890.899999999907,"stimulus":"bees-with-color/bee-A2DM.svg","response":1,"trial_type":"image-button-response","trial_index":37,"time_elapsed":578573,"internal_node_id":"0.0-4.0-0.15","subject_id":"6026a3507e666237c315a0b0","study_id":"60edd13110225f80f9f3709b","session_id":"6196c7018b5787454145191f","condition":"contingent","relevant_dimensions":["wings","legs"],"bee_group":{"antennae":"X","wings":"1","pattern":"X","legs":"M"},"action":"avoid","summary":"bad-avoid","bonus":1.3200000000000012},{"rt":3268.1999999999534,"stimulus":"\n                    <p><b>Action: <em>avoid</em></b></p>\n                    <p>This is the bee that you just saw.</p>\n                    <img src=\"bees-with-color/bee-A2DM.svg\" width=\"200\">\n                    <p><br>Your bonus pay is unchanged, and remains at $0.46.</p>\n            ","response":0,"trial_type":"html-button-response","trial_index":38,"time_elapsed":581842,"internal_node_id":"0.0-4.0-1.15","subject_id":"6026a3507e666237c315a0b0","study_id":"60edd13110225f80f9f3709b","session_id":"6196c7018b5787454145191f","condition":"contingent","relevant_dimensions":["wings","legs"],"bee_group":{"antennae":"X","wings":"1","pattern":"X","legs":"M"},"bonus":1.3200000000000012},{"rt":4749.300000000047,"stimulus":"bees-with-color/bee-A1DF.svg","response":0,"trial_type":"image-button-response","trial_index":39,"time_elapsed":586592,"internal_node_id":"0.0-4.0-0.16","subject_id":"6026a3507e666237c315a0b0","study_id":"60edd13110225f80f9f3709b","session_id":"6196c7018b5787454145191f","condition":"contingent","relevant_dimensions":["wings","legs"],"bee_group":{"antennae":"X","wings":"1","pattern":"X","legs":"M"},"action":"harvest","summary":"good-harvest","bonus":1.3200000000000012},{"rt":1183,"stimulus":"\n                    <p><b>Action: <em>harvest</em></b></p>\n                    <p>This is the bee that you just saw.</p>\n                    <img src=\"bees-with-color/bee-A1DF.svg\" width=\"200\">\n                    <p><span class=\"greenText\"><b>Successful harvest!</b></span><br>Your pay has increased by $0.02. Your bonus pay is now $0.48.</p>\n            ","response":0,"trial_type":"html-button-response","trial_index":40,"time_elapsed":587776,"internal_node_id":"0.0-4.0-1.16","subject_id":"6026a3507e666237c315a0b0","study_id":"60edd13110225f80f9f3709b","session_id":"6196c7018b5787454145191f","condition":"contingent","relevant_dimensions":["wings","legs"],"bee_group":{"antennae":"X","wings":"1","pattern":"X","legs":"M"},"bonus":1.3200000000000012},{"rt":7556.300000000047,"stimulus":"bees-with-color/bee-B2DM.svg","response":1,"trial_type":"image-button-response","trial_index":41,"time_elapsed":595333,"internal_node_id":"0.0-4.0-0.17","subject_id":"6026a3507e666237c315a0b0","study_id":"60edd13110225f80f9f3709b","session_id":"6196c7018b5787454145191f","condition":"contingent","relevant_dimensions":["wings","legs"],"bee_group":{"antennae":"X","wings":"1","pattern":"X","legs":"M"},"action":"avoid","summary":"bad-avoid","bonus":1.3200000000000012},{"rt":924.0999999998603,"stimulus":"\n                    <p><b>Action: <em>avoid</em></b></p>\n                    <p>This is the bee that you just saw.</p>\n                    <img src=\"bees-with-color/bee-B2DM.svg\" width=\"200\">\n                    <p><br>Your bonus pay is unchanged, and remains at $0.48.</p>\n            ","response":0,"trial_type":"html-button-response","trial_index":42,"time_elapsed":596258,"internal_node_id":"0.0-4.0-1.17","subject_id":"6026a3507e666237c315a0b0","study_id":"60edd13110225f80f9f3709b","session_id":"6196c7018b5787454145191f","condition":"contingent","relevant_dimensions":["wings","legs"],"bee_group":{"antennae":"X","wings":"1","pattern":"X","legs":"M"},"bonus":1.3200000000000012},{"rt":8442.100000000093,"stimulus":"bees-with-color/bee-B1SM.svg","response":1,"trial_type":"image-button-response","trial_index":43,"time_elapsed":604701,"internal_node_id":"0.0-4.0-0.18","subject_id":"6026a3507e666237c315a0b0","study_id":"60edd13110225f80f9f3709b","session_id":"6196c7018b5787454145191f","condition":"contingent","relevant_dimensions":["wings","legs"],"bee_group":{"antennae":"X","wings":"1","pattern":"X","legs":"M"},"action":"avoid","summary":"good-avoid","bonus":1.3200000000000012},{"rt":1880,"stimulus":"\n                    <p><b>Action: <em>avoid</em></b></p>\n                    <p>This is the bee that you just saw.</p>\n                    <img src=\"bees-with-color/bee-B1SM.svg\" width=\"200\">\n                    <p><br>Your bonus pay is unchanged, and remains at $0.48.</p>\n            ","response":0,"trial_type":"html-button-response","trial_index":44,"time_elapsed":606582,"internal_node_id":"0.0-4.0-1.18","subject_id":"6026a3507e666237c315a0b0","study_id":"60edd13110225f80f9f3709b","session_id":"6196c7018b5787454145191f","condition":"contingent","relevant_dimensions":["wings","legs"],"bee_group":{"antennae":"X","wings":"1","pattern":"X","legs":"M"},"bonus":1.3200000000000012},{"rt":13622.199999999953,"stimulus":"bees-with-color/bee-B1SF.svg","response":0,"trial_type":"image-button-response","trial_index":45,"time_elapsed":620205,"internal_node_id":"0.0-4.0-0.19","subject_id":"6026a3507e666237c315a0b0","study_id":"60edd13110225f80f9f3709b","session_id":"6196c7018b5787454145191f","condition":"contingent","relevant_dimensions":["wings","legs"],"bee_group":{"antennae":"X","wings":"1","pattern":"X","legs":"M"},"action":"harvest","summary":"good-harvest","bonus":1.3200000000000012},{"rt":1351.0999999998603,"stimulus":"\n                    <p><b>Action: <em>harvest</em></b></p>\n                    <p>This is the bee that you just saw.</p>\n                    <img src=\"bees-with-color/bee-B1SF.svg\" width=\"200\">\n                    <p><span class=\"greenText\"><b>Successful harvest!</b></span><br>Your pay has increased by $0.02. Your bonus pay is now $0.50.</p>\n            ","response":0,"trial_type":"html-button-response","trial_index":46,"time_elapsed":621557,"internal_node_id":"0.0-4.0-1.19","subject_id":"6026a3507e666237c315a0b0","study_id":"60edd13110225f80f9f3709b","session_id":"6196c7018b5787454145191f","condition":"contingent","relevant_dimensions":["wings","legs"],"bee_group":{"antennae":"X","wings":"1","pattern":"X","legs":"M"},"bonus":1.3200000000000012},{"rt":5927.100000000093,"stimulus":"bees-with-color/bee-A1SM.svg","response":1,"trial_type":"image-button-response","trial_index":47,"time_elapsed":627485,"internal_node_id":"0.0-4.0-0.20","subject_id":"6026a3507e666237c315a0b0","study_id":"60edd13110225f80f9f3709b","session_id":"6196c7018b5787454145191f","condition":"contingent","relevant_dimensions":["wings","legs"],"bee_group":{"antennae":"X","wings":"1","pattern":"X","legs":"M"},"action":"avoid","summary":"good-avoid","bonus":1.3200000000000012},{"rt":1306.9000000001397,"stimulus":"\n                    <p><b>Action: <em>avoid</em></b></p>\n                    <p>This is the bee that you just saw.</p>\n                    <img src=\"bees-with-color/bee-A1SM.svg\" width=\"200\">\n                    <p><br>Your bonus pay is unchanged, and remains at $0.50.</p>\n            ","response":0,"trial_type":"html-button-response","trial_index":48,"time_elapsed":628793,"internal_node_id":"0.0-4.0-1.20","subject_id":"6026a3507e666237c315a0b0","study_id":"60edd13110225f80f9f3709b","session_id":"6196c7018b5787454145191f","condition":"contingent","relevant_dimensions":["wings","legs"],"bee_group":{"antennae":"X","wings":"1","pattern":"X","legs":"M"},"bonus":1.3200000000000012},{"rt":3162.2999999998137,"stimulus":"bees-with-color/bee-B1DF.svg","response":0,"trial_type":"image-button-response","trial_index":49,"time_elapsed":631956,"internal_node_id":"0.0-4.0-0.21","subject_id":"6026a3507e666237c315a0b0","study_id":"60edd13110225f80f9f3709b","session_id":"6196c7018b5787454145191f","condition":"contingent","relevant_dimensions":["wings","legs"],"bee_group":{"antennae":"X","wings":"1","pattern":"X","legs":"M"},"action":"harvest","summary":"good-harvest","bonus":1.3200000000000012},{"rt":960.2999999998137,"stimulus":"\n                    <p><b>Action: <em>harvest</em></b></p>\n                    <p>This is the bee that you just saw.</p>\n                    <img src=\"bees-with-color/bee-B1DF.svg\" width=\"200\">\n                    <p><span class=\"greenText\"><b>Successful harvest!</b></span><br>Your pay has increased by $0.02. Your bonus pay is now $0.52.</p>\n            ","response":0,"trial_type":"html-button-response","trial_index":50,"time_elapsed":632917,"internal_node_id":"0.0-4.0-1.21","subject_id":"6026a3507e666237c315a0b0","study_id":"60edd13110225f80f9f3709b","session_id":"6196c7018b5787454145191f","condition":"contingent","relevant_dimensions":["wings","legs"],"bee_group":{"antennae":"X","wings":"1","pattern":"X","legs":"M"},"bonus":1.3200000000000012},{"rt":2797.5,"stimulus":"bees-with-color/bee-B2DF.svg","response":1,"trial_type":"image-button-response","trial_index":51,"time_elapsed":635715,"internal_node_id":"0.0-4.0-0.22","subject_id":"6026a3507e666237c315a0b0","study_id":"60edd13110225f80f9f3709b","session_id":"6196c7018b5787454145191f","condition":"contingent","relevant_dimensions":["wings","legs"],"bee_group":{"antennae":"X","wings":"1","pattern":"X","legs":"M"},"action":"avoid","summary":"bad-avoid","bonus":1.3200000000000012},{"rt":1684.3000000000466,"stimulus":"\n                    <p><b>Action: <em>avoid</em></b></p>\n                    <p>This is the bee that you just saw.</p>\n                    <img src=\"bees-with-color/bee-B2DF.svg\" width=\"200\">\n                    <p><br>Your bonus pay is unchanged, and remains at $0.52.</p>\n            ","response":0,"trial_type":"html-button-response","trial_index":52,"time_elapsed":637400,"internal_node_id":"0.0-4.0-1.22","subject_id":"6026a3507e666237c315a0b0","study_id":"60edd13110225f80f9f3709b","session_id":"6196c7018b5787454145191f","condition":"contingent","relevant_dimensions":["wings","legs"],"bee_group":{"antennae":"X","wings":"1","pattern":"X","legs":"M"},"bonus":1.3200000000000012},{"rt":2837,"stimulus":"bees-with-color/bee-A2DF.svg","response":0,"trial_type":"image-button-response","trial_index":53,"time_elapsed":640238,"internal_node_id":"0.0-4.0-0.23","subject_id":"6026a3507e666237c315a0b0","study_id":"60edd13110225f80f9f3709b","session_id":"6196c7018b5787454145191f","condition":"contingent","relevant_dimensions":["wings","legs"],"bee_group":{"antennae":"X","wings":"1","pattern":"X","legs":"M"},"action":"harvest","summary":"good-harvest","bonus":1.3200000000000012},{"rt":1804.1999999999534,"stimulus":"\n                    <p><b>Action: <em>harvest</em></b></p>\n                    <p>This is the bee that you just saw.</p>\n                    <img src=\"bees-with-color/bee-A2DF.svg\" width=\"200\">\n                    <p><span class=\"greenText\"><b>Successful harvest!</b></span><br>Your pay has increased by $0.02. Your bonus pay is now $0.54.</p>\n            ","response":0,"trial_type":"html-button-response","trial_index":54,"time_elapsed":642043,"internal_node_id":"0.0-4.0-1.23","subject_id":"6026a3507e666237c315a0b0","study_id":"60edd13110225f80f9f3709b","session_id":"6196c7018b5787454145191f","condition":"contingent","relevant_dimensions":["wings","legs"],"bee_group":{"antennae":"X","wings":"1","pattern":"X","legs":"M"},"bonus":1.3200000000000012},{"rt":8259,"stimulus":"bees-with-color/bee-A1DM.svg","response":1,"trial_type":"image-button-response","trial_index":55,"time_elapsed":650303,"internal_node_id":"0.0-4.0-0.24","subject_id":"6026a3507e666237c315a0b0","study_id":"60edd13110225f80f9f3709b","session_id":"6196c7018b5787454145191f","condition":"contingent","relevant_dimensions":["wings","legs"],"bee_group":{"antennae":"X","wings":"1","pattern":"X","legs":"M"},"action":"avoid","summary":"good-avoid","bonus":1.3200000000000012},{"rt":2187.5999999998603,"stimulus":"\n                    <p><b>Action: <em>avoid</em></b></p>\n                    <p>This is the bee that you just saw.</p>\n                    <img src=\"bees-with-color/bee-A1DM.svg\" width=\"200\">\n                    <p><br>Your bonus pay is unchanged, and remains at $0.54.</p>\n            ","response":0,"trial_type":"html-button-response","trial_index":56,"time_elapsed":652491,"internal_node_id":"0.0-4.0-1.24","subject_id":"6026a3507e666237c315a0b0","study_id":"60edd13110225f80f9f3709b","session_id":"6196c7018b5787454145191f","condition":"contingent","relevant_dimensions":["wings","legs"],"bee_group":{"antennae":"X","wings":"1","pattern":"X","legs":"M"},"bonus":1.3200000000000012},{"rt":5134.699999999953,"stimulus":"bees-with-color/bee-A1SF.svg","response":0,"trial_type":"image-button-response","trial_index":57,"time_elapsed":657627,"internal_node_id":"0.0-4.0-0.25","subject_id":"6026a3507e666237c315a0b0","study_id":"60edd13110225f80f9f3709b","session_id":"6196c7018b5787454145191f","condition":"contingent","relevant_dimensions":["wings","legs"],"bee_group":{"antennae":"X","wings":"1","pattern":"X","legs":"M"},"action":"harvest","summary":"good-harvest","bonus":1.3200000000000012},{"rt":3864.5,"stimulus":"\n                    <p><b>Action: <em>harvest</em></b></p>\n                    <p>This is the bee that you just saw.</p>\n                    <img src=\"bees-with-color/bee-A1SF.svg\" width=\"200\">\n                    <p><span class=\"greenText\"><b>Successful harvest!</b></span><br>Your pay has increased by $0.02. Your bonus pay is now $0.56.</p>\n            ","response":0,"trial_type":"html-button-response","trial_index":58,"time_elapsed":661492,"internal_node_id":"0.0-4.0-1.25","subject_id":"6026a3507e666237c315a0b0","study_id":"60edd13110225f80f9f3709b","session_id":"6196c7018b5787454145191f","condition":"contingent","relevant_dimensions":["wings","legs"],"bee_group":{"antennae":"X","wings":"1","pattern":"X","legs":"M"},"bonus":1.3200000000000012},{"rt":8057.399999999907,"stimulus":"bees-with-color/bee-A2DM.svg","response":0,"trial_type":"image-button-response","trial_index":59,"time_elapsed":669551,"internal_node_id":"0.0-4.0-0.26","subject_id":"6026a3507e666237c315a0b0","study_id":"60edd13110225f80f9f3709b","session_id":"6196c7018b5787454145191f","condition":"contingent","relevant_dimensions":["wings","legs"],"bee_group":{"antennae":"X","wings":"1","pattern":"X","legs":"M"},"action":"harvest","summary":"good-harvest","bonus":1.3200000000000012},{"rt":1972.5,"stimulus":"\n                    <p><b>Action: <em>harvest</em></b></p>\n                    <p>This is the bee that you just saw.</p>\n                    <img src=\"bees-with-color/bee-A2DM.svg\" width=\"200\">\n                    <p><span class=\"greenText\"><b>Successful harvest!</b></span><br>Your pay has increased by $0.02. Your bonus pay is now $0.58.</p>\n            ","response":0,"trial_type":"html-button-response","trial_index":60,"time_elapsed":671524,"internal_node_id":"0.0-4.0-1.26","subject_id":"6026a3507e666237c315a0b0","study_id":"60edd13110225f80f9f3709b","session_id":"6196c7018b5787454145191f","condition":"contingent","relevant_dimensions":["wings","legs"],"bee_group":{"antennae":"X","wings":"1","pattern":"X","legs":"M"},"bonus":1.3200000000000012},{"rt":10469.699999999953,"stimulus":"bees-with-color/bee-B2SM.svg","response":0,"trial_type":"image-button-response","trial_index":61,"time_elapsed":681995,"internal_node_id":"0.0-4.0-0.27","subject_id":"6026a3507e666237c315a0b0","study_id":"60edd13110225f80f9f3709b","session_id":"6196c7018b5787454145191f","condition":"contingent","relevant_dimensions":["wings","legs"],"bee_group":{"antennae":"X","wings":"1","pattern":"X","legs":"M"},"action":"harvest","summary":"good-harvest","bonus":1.3200000000000012},{"rt":899.5,"stimulus":"\n                    <p><b>Action: <em>harvest</em></b></p>\n                    <p>This is the bee that you just saw.</p>\n                    <img src=\"bees-with-color/bee-B2SM.svg\" width=\"200\">\n                    <p><span class=\"greenText\"><b>Successful harvest!</b></span><br>Your pay has increased by $0.02. Your bonus pay is now $0.60.</p>\n            ","response":0,"trial_type":"html-button-response","trial_index":62,"time_elapsed":682895,"internal_node_id":"0.0-4.0-1.27","subject_id":"6026a3507e666237c315a0b0","study_id":"60edd13110225f80f9f3709b","session_id":"6196c7018b5787454145191f","condition":"contingent","relevant_dimensions":["wings","legs"],"bee_group":{"antennae":"X","wings":"1","pattern":"X","legs":"M"},"bonus":1.3200000000000012},{"rt":5086,"stimulus":"bees-with-color/bee-A2SF.svg","response":0,"trial_type":"image-button-response","trial_index":63,"time_elapsed":687981,"internal_node_id":"0.0-4.0-0.28","subject_id":"6026a3507e666237c315a0b0","study_id":"60edd13110225f80f9f3709b","session_id":"6196c7018b5787454145191f","condition":"contingent","relevant_dimensions":["wings","legs"],"bee_group":{"antennae":"X","wings":"1","pattern":"X","legs":"M"},"action":"harvest","summary":"good-harvest","bonus":1.3200000000000012},{"rt":864.2999999998137,"stimulus":"\n                    <p><b>Action: <em>harvest</em></b></p>\n                    <p>This is the bee that you just saw.</p>\n                    <img src=\"bees-with-color/bee-A2SF.svg\" width=\"200\">\n                    <p><span class=\"greenText\"><b>Successful harvest!</b></span><br>Your pay has increased by $0.02. Your bonus pay is now $0.62.</p>\n            ","response":0,"trial_type":"html-button-response","trial_index":64,"time_elapsed":688847,"internal_node_id":"0.0-4.0-1.28","subject_id":"6026a3507e666237c315a0b0","study_id":"60edd13110225f80f9f3709b","session_id":"6196c7018b5787454145191f","condition":"contingent","relevant_dimensions":["wings","legs"],"bee_group":{"antennae":"X","wings":"1","pattern":"X","legs":"M"},"bonus":1.3200000000000012},{"rt":2322,"stimulus":"bees-with-color/bee-B2SF.svg","response":0,"trial_type":"image-button-response","trial_index":65,"time_elapsed":691169,"internal_node_id":"0.0-4.0-0.29","subject_id":"6026a3507e666237c315a0b0","study_id":"60edd13110225f80f9f3709b","session_id":"6196c7018b5787454145191f","condition":"contingent","relevant_dimensions":["wings","legs"],"bee_group":{"antennae":"X","wings":"1","pattern":"X","legs":"M"},"action":"harvest","summary":"good-harvest","bonus":1.3200000000000012},{"rt":1085.1999999999534,"stimulus":"\n                    <p><b>Action: <em>harvest</em></b></p>\n                    <p>This is the bee that you just saw.</p>\n                    <img src=\"bees-with-color/bee-B2SF.svg\" width=\"200\">\n                    <p><span class=\"greenText\"><b>Successful harvest!</b></span><br>Your pay has increased by $0.02. Your bonus pay is now $0.64.</p>\n            ","response":0,"trial_type":"html-button-response","trial_index":66,"time_elapsed":692256,"internal_node_id":"0.0-4.0-1.29","subject_id":"6026a3507e666237c315a0b0","study_id":"60edd13110225f80f9f3709b","session_id":"6196c7018b5787454145191f","condition":"contingent","relevant_dimensions":["wings","legs"],"bee_group":{"antennae":"X","wings":"1","pattern":"X","legs":"M"},"bonus":1.3200000000000012},{"rt":4192.800000000047,"stimulus":"bees-with-color/bee-A2SM.svg","response":0,"trial_type":"image-button-response","trial_index":67,"time_elapsed":696449,"internal_node_id":"0.0-4.0-0.30","subject_id":"6026a3507e666237c315a0b0","study_id":"60edd13110225f80f9f3709b","session_id":"6196c7018b5787454145191f","condition":"contingent","relevant_dimensions":["wings","legs"],"bee_group":{"antennae":"X","wings":"1","pattern":"X","legs":"M"},"action":"harvest","summary":"good-harvest","bonus":1.3200000000000012},{"rt":597.3000000000466,"stimulus":"\n                    <p><b>Action: <em>harvest</em></b></p>\n                    <p>This is the bee that you just saw.</p>\n                    <img src=\"bees-with-color/bee-A2SM.svg\" width=\"200\">\n                    <p><span class=\"greenText\"><b>Successful harvest!</b></span><br>Your pay has increased by $0.02. Your bonus pay is now $0.66.</p>\n            ","response":0,"trial_type":"html-button-response","trial_index":68,"time_elapsed":697047,"internal_node_id":"0.0-4.0-1.30","subject_id":"6026a3507e666237c315a0b0","study_id":"60edd13110225f80f9f3709b","session_id":"6196c7018b5787454145191f","condition":"contingent","relevant_dimensions":["wings","legs"],"bee_group":{"antennae":"X","wings":"1","pattern":"X","legs":"M"},"bonus":1.3200000000000012},{"rt":4388.100000000093,"stimulus":"bees-with-color/bee-B1DM.svg","response":0,"trial_type":"image-button-response","trial_index":69,"time_elapsed":701436,"internal_node_id":"0.0-4.0-0.31","subject_id":"6026a3507e666237c315a0b0","study_id":"60edd13110225f80f9f3709b","session_id":"6196c7018b5787454145191f","condition":"contingent","relevant_dimensions":["wings","legs"],"bee_group":{"antennae":"X","wings":"1","pattern":"X","legs":"M"},"action":"harvest","summary":"bad-harvest","bonus":1.3200000000000012},{"rt":9225.199999999953,"stimulus":"\n                    <p><b>Action: <em>harvest</em></b></p>\n                    <p>This is the bee that you just saw.</p>\n                    <img src=\"bees-with-color/bee-B1DM.svg\" width=\"200\">\n                    <p><span class=\"redText\">Bad choice, the bee was angry.</span><br><b>You have been stung!</b><br>Your pay has been decreased by $0.10. Your bonus pay is now $0.56.</p>\n            ","response":0,"trial_type":"html-button-response","trial_index":70,"time_elapsed":710662,"internal_node_id":"0.0-4.0-1.31","subject_id":"6026a3507e666237c315a0b0","study_id":"60edd13110225f80f9f3709b","session_id":"6196c7018b5787454145191f","condition":"contingent","relevant_dimensions":["wings","legs"],"bee_group":{"antennae":"X","wings":"1","pattern":"X","legs":"M"},"bonus":1.3200000000000012},{"rt":5444.699999999953,"stimulus":"bees-with-color/bee-A1SM.svg","response":1,"trial_type":"image-button-response","trial_index":71,"time_elapsed":716108,"internal_node_id":"0.0-4.0-0.32","subject_id":"6026a3507e666237c315a0b0","study_id":"60edd13110225f80f9f3709b","session_id":"6196c7018b5787454145191f","condition":"contingent","relevant_dimensions":["wings","legs"],"bee_group":{"antennae":"X","wings":"1","pattern":"X","legs":"M"},"action":"avoid","summary":"good-avoid","bonus":1.3200000000000012},{"rt":1403.1999999999534,"stimulus":"\n                    <p><b>Action: <em>avoid</em></b></p>\n                    <p>This is the bee that you just saw.</p>\n                    <img src=\"bees-with-color/bee-A1SM.svg\" width=\"200\">\n                    <p><br>Your bonus pay is unchanged, and remains at $0.56.</p>\n            ","response":0,"trial_type":"html-button-response","trial_index":72,"time_elapsed":717512,"internal_node_id":"0.0-4.0-1.32","subject_id":"6026a3507e666237c315a0b0","study_id":"60edd13110225f80f9f3709b","session_id":"6196c7018b5787454145191f","condition":"contingent","relevant_dimensions":["wings","legs"],"bee_group":{"antennae":"X","wings":"1","pattern":"X","legs":"M"},"bonus":1.3200000000000012},{"rt":5886.90000000014,"stimulus":"bees-with-color/bee-A1DF.svg","response":0,"trial_type":"image-button-response","trial_index":73,"time_elapsed":723400,"internal_node_id":"0.0-4.0-0.33","subject_id":"6026a3507e666237c315a0b0","study_id":"60edd13110225f80f9f3709b","session_id":"6196c7018b5787454145191f","condition":"contingent","relevant_dimensions":["wings","legs"],"bee_group":{"antennae":"X","wings":"1","pattern":"X","legs":"M"},"action":"harvest","summary":"good-harvest","bonus":1.3200000000000012},{"rt":847.2000000001863,"stimulus":"\n                    <p><b>Action: <em>harvest</em></b></p>\n                    <p>This is the bee that you just saw.</p>\n                    <img src=\"bees-with-color/bee-A1DF.svg\" width=\"200\">\n                    <p><span class=\"greenText\"><b>Successful harvest!</b></span><br>Your pay has increased by $0.02. Your bonus pay is now $0.58.</p>\n            ","response":0,"trial_type":"html-button-response","trial_index":74,"time_elapsed":724248,"internal_node_id":"0.0-4.0-1.33","subject_id":"6026a3507e666237c315a0b0","study_id":"60edd13110225f80f9f3709b","session_id":"6196c7018b5787454145191f","condition":"contingent","relevant_dimensions":["wings","legs"],"bee_group":{"antennae":"X","wings":"1","pattern":"X","legs":"M"},"bonus":1.3200000000000012},{"rt":2480.399999999907,"stimulus":"bees-with-color/bee-B2SF.svg","response":0,"trial_type":"image-button-response","trial_index":75,"time_elapsed":726730,"internal_node_id":"0.0-4.0-0.34","subject_id":"6026a3507e666237c315a0b0","study_id":"60edd13110225f80f9f3709b","session_id":"6196c7018b5787454145191f","condition":"contingent","relevant_dimensions":["wings","legs"],"bee_group":{"antennae":"X","wings":"1","pattern":"X","legs":"M"},"action":"harvest","summary":"good-harvest","bonus":1.3200000000000012},{"rt":640.1999999999534,"stimulus":"\n                    <p><b>Action: <em>harvest</em></b></p>\n                    <p>This is the bee that you just saw.</p>\n                    <img src=\"bees-with-color/bee-B2SF.svg\" width=\"200\">\n                    <p><span class=\"greenText\"><b>Successful harvest!</b></span><br>Your pay has increased by $0.02. Your bonus pay is now $0.60.</p>\n            ","response":0,"trial_type":"html-button-response","trial_index":76,"time_elapsed":727370,"internal_node_id":"0.0-4.0-1.34","subject_id":"6026a3507e666237c315a0b0","study_id":"60edd13110225f80f9f3709b","session_id":"6196c7018b5787454145191f","condition":"contingent","relevant_dimensions":["wings","legs"],"bee_group":{"antennae":"X","wings":"1","pattern":"X","legs":"M"},"bonus":1.3200000000000012},{"rt":5552.800000000047,"stimulus":"bees-with-color/bee-A2DF.svg","response":0,"trial_type":"image-button-response","trial_index":77,"time_elapsed":732924,"internal_node_id":"0.0-4.0-0.35","subject_id":"6026a3507e666237c315a0b0","study_id":"60edd13110225f80f9f3709b","session_id":"6196c7018b5787454145191f","condition":"contingent","relevant_dimensions":["wings","legs"],"bee_group":{"antennae":"X","wings":"1","pattern":"X","legs":"M"},"action":"harvest","summary":"good-harvest","bonus":1.3200000000000012},{"rt":677.3000000000466,"stimulus":"\n                    <p><b>Action: <em>harvest</em></b></p>\n                    <p>This is the bee that you just saw.</p>\n                    <img src=\"bees-with-color/bee-A2DF.svg\" width=\"200\">\n                    <p><span class=\"greenText\"><b>Successful harvest!</b></span><br>Your pay has increased by $0.02. Your bonus pay is now $0.62.</p>\n            ","response":0,"trial_type":"html-button-response","trial_index":78,"time_elapsed":733602,"internal_node_id":"0.0-4.0-1.35","subject_id":"6026a3507e666237c315a0b0","study_id":"60edd13110225f80f9f3709b","session_id":"6196c7018b5787454145191f","condition":"contingent","relevant_dimensions":["wings","legs"],"bee_group":{"antennae":"X","wings":"1","pattern":"X","legs":"M"},"bonus":1.3200000000000012},{"rt":3472.8000000000466,"stimulus":"bees-with-color/bee-A2SM.svg","response":0,"trial_type":"image-button-response","trial_index":79,"time_elapsed":737076,"internal_node_id":"0.0-4.0-0.36","subject_id":"6026a3507e666237c315a0b0","study_id":"60edd13110225f80f9f3709b","session_id":"6196c7018b5787454145191f","condition":"contingent","relevant_dimensions":["wings","legs"],"bee_group":{"antennae":"X","wings":"1","pattern":"X","legs":"M"},"action":"harvest","summary":"good-harvest","bonus":1.3200000000000012},{"rt":597.1000000000931,"stimulus":"\n                    <p><b>Action: <em>harvest</em></b></p>\n                    <p>This is the bee that you just saw.</p>\n                    <img src=\"bees-with-color/bee-A2SM.svg\" width=\"200\">\n                    <p><span class=\"greenText\"><b>Successful harvest!</b></span><br>Your pay has increased by $0.02. Your bonus pay is now $0.64.</p>\n            ","response":0,"trial_type":"html-button-response","trial_index":80,"time_elapsed":737674,"internal_node_id":"0.0-4.0-1.36","subject_id":"6026a3507e666237c315a0b0","study_id":"60edd13110225f80f9f3709b","session_id":"6196c7018b5787454145191f","condition":"contingent","relevant_dimensions":["wings","legs"],"bee_group":{"antennae":"X","wings":"1","pattern":"X","legs":"M"},"bonus":1.3200000000000012},{"rt":3402.2999999998137,"stimulus":"bees-with-color/bee-B2SM.svg","response":0,"trial_type":"image-button-response","trial_index":81,"time_elapsed":741078,"internal_node_id":"0.0-4.0-0.37","subject_id":"6026a3507e666237c315a0b0","study_id":"60edd13110225f80f9f3709b","session_id":"6196c7018b5787454145191f","condition":"contingent","relevant_dimensions":["wings","legs"],"bee_group":{"antennae":"X","wings":"1","pattern":"X","legs":"M"},"action":"harvest","summary":"good-harvest","bonus":1.3200000000000012},{"rt":609.6999999999534,"stimulus":"\n                    <p><b>Action: <em>harvest</em></b></p>\n                    <p>This is the bee that you just saw.</p>\n                    <img src=\"bees-with-color/bee-B2SM.svg\" width=\"200\">\n                    <p><span class=\"greenText\"><b>Successful harvest!</b></span><br>Your pay has increased by $0.02. Your bonus pay is now $0.66.</p>\n            ","response":0,"trial_type":"html-button-response","trial_index":82,"time_elapsed":741688,"internal_node_id":"0.0-4.0-1.37","subject_id":"6026a3507e666237c315a0b0","study_id":"60edd13110225f80f9f3709b","session_id":"6196c7018b5787454145191f","condition":"contingent","relevant_dimensions":["wings","legs"],"bee_group":{"antennae":"X","wings":"1","pattern":"X","legs":"M"},"bonus":1.3200000000000012},{"rt":3450.1999999999534,"stimulus":"bees-with-color/bee-B1SM.svg","response":1,"trial_type":"image-button-response","trial_index":83,"time_elapsed":745140,"internal_node_id":"0.0-4.0-0.38","subject_id":"6026a3507e666237c315a0b0","study_id":"60edd13110225f80f9f3709b","session_id":"6196c7018b5787454145191f","condition":"contingent","relevant_dimensions":["wings","legs"],"bee_group":{"antennae":"X","wings":"1","pattern":"X","legs":"M"},"action":"avoid","summary":"good-avoid","bonus":1.3200000000000012},{"rt":930.0999999998603,"stimulus":"\n                    <p><b>Action: <em>avoid</em></b></p>\n                    <p>This is the bee that you just saw.</p>\n                    <img src=\"bees-with-color/bee-B1SM.svg\" width=\"200\">\n                    <p><br>Your bonus pay is unchanged, and remains at $0.66.</p>\n            ","response":0,"trial_type":"html-button-response","trial_index":84,"time_elapsed":746071,"internal_node_id":"0.0-4.0-1.38","subject_id":"6026a3507e666237c315a0b0","study_id":"60edd13110225f80f9f3709b","session_id":"6196c7018b5787454145191f","condition":"contingent","relevant_dimensions":["wings","legs"],"bee_group":{"antennae":"X","wings":"1","pattern":"X","legs":"M"},"bonus":1.3200000000000012},{"rt":5485.199999999953,"stimulus":"bees-with-color/bee-B1DF.svg","response":0,"trial_type":"image-button-response","trial_index":85,"time_elapsed":751557,"internal_node_id":"0.0-4.0-0.39","subject_id":"6026a3507e666237c315a0b0","study_id":"60edd13110225f80f9f3709b","session_id":"6196c7018b5787454145191f","condition":"contingent","relevant_dimensions":["wings","legs"],"bee_group":{"antennae":"X","wings":"1","pattern":"X","legs":"M"},"action":"harvest","summary":"good-harvest","bonus":1.3200000000000012},{"rt":4522,"stimulus":"\n                    <p><b>Action: <em>harvest</em></b></p>\n                    <p>This is the bee that you just saw.</p>\n                    <img src=\"bees-with-color/bee-B1DF.svg\" width=\"200\">\n                    <p><span class=\"greenText\"><b>Successful harvest!</b></span><br>Your pay has increased by $0.02. Your bonus pay is now $0.68.</p>\n            ","response":0,"trial_type":"html-button-response","trial_index":86,"time_elapsed":756080,"internal_node_id":"0.0-4.0-1.39","subject_id":"6026a3507e666237c315a0b0","study_id":"60edd13110225f80f9f3709b","session_id":"6196c7018b5787454145191f","condition":"contingent","relevant_dimensions":["wings","legs"],"bee_group":{"antennae":"X","wings":"1","pattern":"X","legs":"M"},"bonus":1.3200000000000012},{"rt":4071.1999999999534,"stimulus":"bees-with-color/bee-B1SF.svg","response":0,"trial_type":"image-button-response","trial_index":87,"time_elapsed":760152,"internal_node_id":"0.0-4.0-0.40","subject_id":"6026a3507e666237c315a0b0","study_id":"60edd13110225f80f9f3709b","session_id":"6196c7018b5787454145191f","condition":"contingent","relevant_dimensions":["wings","legs"],"bee_group":{"antennae":"X","wings":"1","pattern":"X","legs":"M"},"action":"harvest","summary":"good-harvest","bonus":1.3200000000000012},{"rt":640,"stimulus":"\n                    <p><b>Action: <em>harvest</em></b></p>\n                    <p>This is the bee that you just saw.</p>\n                    <img src=\"bees-with-color/bee-B1SF.svg\" width=\"200\">\n                    <p><span class=\"greenText\"><b>Successful harvest!</b></span><br>Your pay has increased by $0.02. Your bonus pay is now $0.70.</p>\n            ","response":0,"trial_type":"html-button-response","trial_index":88,"time_elapsed":760793,"internal_node_id":"0.0-4.0-1.40","subject_id":"6026a3507e666237c315a0b0","study_id":"60edd13110225f80f9f3709b","session_id":"6196c7018b5787454145191f","condition":"contingent","relevant_dimensions":["wings","legs"],"bee_group":{"antennae":"X","wings":"1","pattern":"X","legs":"M"},"bonus":1.3200000000000012},{"rt":10977.199999999953,"stimulus":"bees-with-color/bee-B1DM.svg","response":1,"trial_type":"image-button-response","trial_index":89,"time_elapsed":771771,"internal_node_id":"0.0-4.0-0.41","subject_id":"6026a3507e666237c315a0b0","study_id":"60edd13110225f80f9f3709b","session_id":"6196c7018b5787454145191f","condition":"contingent","relevant_dimensions":["wings","legs"],"bee_group":{"antennae":"X","wings":"1","pattern":"X","legs":"M"},"action":"avoid","summary":"good-avoid","bonus":1.3200000000000012},{"rt":856,"stimulus":"\n                    <p><b>Action: <em>avoid</em></b></p>\n                    <p>This is the bee that you just saw.</p>\n                    <img src=\"bees-with-color/bee-B1DM.svg\" width=\"200\">\n                    <p><br>Your bonus pay is unchanged, and remains at $0.70.</p>\n            ","response":0,"trial_type":"html-button-response","trial_index":90,"time_elapsed":772628,"internal_node_id":"0.0-4.0-1.41","subject_id":"6026a3507e666237c315a0b0","study_id":"60edd13110225f80f9f3709b","session_id":"6196c7018b5787454145191f","condition":"contingent","relevant_dimensions":["wings","legs"],"bee_group":{"antennae":"X","wings":"1","pattern":"X","legs":"M"},"bonus":1.3200000000000012},{"rt":4908.100000000093,"stimulus":"bees-with-color/bee-B2DF.svg","response":0,"trial_type":"image-button-response","trial_index":91,"time_elapsed":777537,"internal_node_id":"0.0-4.0-0.42","subject_id":"6026a3507e666237c315a0b0","study_id":"60edd13110225f80f9f3709b","session_id":"6196c7018b5787454145191f","condition":"contingent","relevant_dimensions":["wings","legs"],"bee_group":{"antennae":"X","wings":"1","pattern":"X","legs":"M"},"action":"harvest","summary":"good-harvest","bonus":1.3200000000000012},{"rt":716.0999999998603,"stimulus":"\n                    <p><b>Action: <em>harvest</em></b></p>\n                    <p>This is the bee that you just saw.</p>\n                    <img src=\"bees-with-color/bee-B2DF.svg\" width=\"200\">\n                    <p><span class=\"greenText\"><b>Successful harvest!</b></span><br>Your pay has increased by $0.02. Your bonus pay is now $0.72.</p>\n            ","response":0,"trial_type":"html-button-response","trial_index":92,"time_elapsed":778254,"internal_node_id":"0.0-4.0-1.42","subject_id":"6026a3507e666237c315a0b0","study_id":"60edd13110225f80f9f3709b","session_id":"6196c7018b5787454145191f","condition":"contingent","relevant_dimensions":["wings","legs"],"bee_group":{"antennae":"X","wings":"1","pattern":"X","legs":"M"},"bonus":1.3200000000000012},{"rt":6979.09999999986,"stimulus":"bees-with-color/bee-A1DM.svg","response":0,"trial_type":"image-button-response","trial_index":93,"time_elapsed":785234,"internal_node_id":"0.0-4.0-0.43","subject_id":"6026a3507e666237c315a0b0","study_id":"60edd13110225f80f9f3709b","session_id":"6196c7018b5787454145191f","condition":"contingent","relevant_dimensions":["wings","legs"],"bee_group":{"antennae":"X","wings":"1","pattern":"X","legs":"M"},"action":"harvest","summary":"bad-harvest","bonus":1.3200000000000012},{"rt":12846.5,"stimulus":"\n                    <p><b>Action: <em>harvest</em></b></p>\n                    <p>This is the bee that you just saw.</p>\n                    <img src=\"bees-with-color/bee-A1DM.svg\" width=\"200\">\n                    <p><span class=\"redText\">Bad choice, the bee was angry.</span><br><b>You have been stung!</b><br>Your pay has been decreased by $0.10. Your bonus pay is now $0.62.</p>\n            ","response":0,"trial_type":"html-button-response","trial_index":94,"time_elapsed":798081,"internal_node_id":"0.0-4.0-1.43","subject_id":"6026a3507e666237c315a0b0","study_id":"60edd13110225f80f9f3709b","session_id":"6196c7018b5787454145191f","condition":"contingent","relevant_dimensions":["wings","legs"],"bee_group":{"antennae":"X","wings":"1","pattern":"X","legs":"M"},"bonus":1.3200000000000012},{"rt":7091.5,"stimulus":"bees-with-color/bee-A1SF.svg","response":0,"trial_type":"image-button-response","trial_index":95,"time_elapsed":805174,"internal_node_id":"0.0-4.0-0.44","subject_id":"6026a3507e666237c315a0b0","study_id":"60edd13110225f80f9f3709b","session_id":"6196c7018b5787454145191f","condition":"contingent","relevant_dimensions":["wings","legs"],"bee_group":{"antennae":"X","wings":"1","pattern":"X","legs":"M"},"action":"harvest","summary":"good-harvest","bonus":1.3200000000000012},{"rt":691.9000000001397,"stimulus":"\n                    <p><b>Action: <em>harvest</em></b></p>\n                    <p>This is the bee that you just saw.</p>\n                    <img src=\"bees-with-color/bee-A1SF.svg\" width=\"200\">\n                    <p><span class=\"greenText\"><b>Successful harvest!</b></span><br>Your pay has increased by $0.02. Your bonus pay is now $0.64.</p>\n            ","response":0,"trial_type":"html-button-response","trial_index":96,"time_elapsed":805867,"internal_node_id":"0.0-4.0-1.44","subject_id":"6026a3507e666237c315a0b0","study_id":"60edd13110225f80f9f3709b","session_id":"6196c7018b5787454145191f","condition":"contingent","relevant_dimensions":["wings","legs"],"bee_group":{"antennae":"X","wings":"1","pattern":"X","legs":"M"},"bonus":1.3200000000000012},{"rt":2833.5,"stimulus":"bees-with-color/bee-A2SF.svg","response":0,"trial_type":"image-button-response","trial_index":97,"time_elapsed":808701,"internal_node_id":"0.0-4.0-0.45","subject_id":"6026a3507e666237c315a0b0","study_id":"60edd13110225f80f9f3709b","session_id":"6196c7018b5787454145191f","condition":"contingent","relevant_dimensions":["wings","legs"],"bee_group":{"antennae":"X","wings":"1","pattern":"X","legs":"M"},"action":"harvest","summary":"good-harvest","bonus":1.3200000000000012},{"rt":607.3000000000466,"stimulus":"\n                    <p><b>Action: <em>harvest</em></b></p>\n                    <p>This is the bee that you just saw.</p>\n                    <img src=\"bees-with-color/bee-A2SF.svg\" width=\"200\">\n                    <p><span class=\"greenText\"><b>Successful harvest!</b></span><br>Your pay has increased by $0.02. Your bonus pay is now $0.66.</p>\n            ","response":0,"trial_type":"html-button-response","trial_index":98,"time_elapsed":809309,"internal_node_id":"0.0-4.0-1.45","subject_id":"6026a3507e666237c315a0b0","study_id":"60edd13110225f80f9f3709b","session_id":"6196c7018b5787454145191f","condition":"contingent","relevant_dimensions":["wings","legs"],"bee_group":{"antennae":"X","wings":"1","pattern":"X","legs":"M"},"bonus":1.3200000000000012},{"rt":6840.299999999814,"stimulus":"bees-with-color/bee-B2DM.svg","response":0,"trial_type":"image-button-response","trial_index":99,"time_elapsed":816150,"internal_node_id":"0.0-4.0-0.46","subject_id":"6026a3507e666237c315a0b0","study_id":"60edd13110225f80f9f3709b","session_id":"6196c7018b5787454145191f","condition":"contingent","relevant_dimensions":["wings","legs"],"bee_group":{"antennae":"X","wings":"1","pattern":"X","legs":"M"},"action":"harvest","summary":"good-harvest","bonus":1.3200000000000012},{"rt":627,"stimulus":"\n                    <p><b>Action: <em>harvest</em></b></p>\n                    <p>This is the bee that you just saw.</p>\n                    <img src=\"bees-with-color/bee-B2DM.svg\" width=\"200\">\n                    <p><span class=\"greenText\"><b>Successful harvest!</b></span><br>Your pay has increased by $0.02. Your bonus pay is now $0.68.</p>\n            ","response":0,"trial_type":"html-button-response","trial_index":100,"time_elapsed":816778,"internal_node_id":"0.0-4.0-1.46","subject_id":"6026a3507e666237c315a0b0","study_id":"60edd13110225f80f9f3709b","session_id":"6196c7018b5787454145191f","condition":"contingent","relevant_dimensions":["wings","legs"],"bee_group":{"antennae":"X","wings":"1","pattern":"X","legs":"M"},"bonus":1.3200000000000012},{"rt":3204.1999999999534,"stimulus":"bees-with-color/bee-A2DM.svg","response":0,"trial_type":"image-button-response","trial_index":101,"time_elapsed":819983,"internal_node_id":"0.0-4.0-0.47","subject_id":"6026a3507e666237c315a0b0","study_id":"60edd13110225f80f9f3709b","session_id":"6196c7018b5787454145191f","condition":"contingent","relevant_dimensions":["wings","legs"],"bee_group":{"antennae":"X","wings":"1","pattern":"X","legs":"M"},"action":"harvest","summary":"good-harvest","bonus":1.3200000000000012},{"rt":603.0999999998603,"stimulus":"\n                    <p><b>Action: <em>harvest</em></b></p>\n                    <p>This is the bee that you just saw.</p>\n                    <img src=\"bees-with-color/bee-A2DM.svg\" width=\"200\">\n                    <p><span class=\"greenText\"><b>Successful harvest!</b></span><br>Your pay has increased by $0.02. Your bonus pay is now $0.70.</p>\n            ","response":0,"trial_type":"html-button-response","trial_index":102,"time_elapsed":820587,"internal_node_id":"0.0-4.0-1.47","subject_id":"6026a3507e666237c315a0b0","study_id":"60edd13110225f80f9f3709b","session_id":"6196c7018b5787454145191f","condition":"contingent","relevant_dimensions":["wings","legs"],"bee_group":{"antennae":"X","wings":"1","pattern":"X","legs":"M"},"bonus":1.3200000000000012},{"rt":11083.100000000093,"stimulus":"bees-with-color/bee-A1DF.svg","response":0,"trial_type":"image-button-response","trial_index":103,"time_elapsed":831671,"internal_node_id":"0.0-4.0-0.48","subject_id":"6026a3507e666237c315a0b0","study_id":"60edd13110225f80f9f3709b","session_id":"6196c7018b5787454145191f","condition":"contingent","relevant_dimensions":["wings","legs"],"bee_group":{"antennae":"X","wings":"1","pattern":"X","legs":"M"},"action":"harvest","summary":"good-harvest","bonus":1.3200000000000012},{"rt":644.1999999999534,"stimulus":"\n                    <p><b>Action: <em>harvest</em></b></p>\n                    <p>This is the bee that you just saw.</p>\n                    <img src=\"bees-with-color/bee-A1DF.svg\" width=\"200\">\n                    <p><span class=\"greenText\"><b>Successful harvest!</b></span><br>Your pay has increased by $0.02. Your bonus pay is now $0.72.</p>\n            ","response":0,"trial_type":"html-button-response","trial_index":104,"time_elapsed":832316,"internal_node_id":"0.0-4.0-1.48","subject_id":"6026a3507e666237c315a0b0","study_id":"60edd13110225f80f9f3709b","session_id":"6196c7018b5787454145191f","condition":"contingent","relevant_dimensions":["wings","legs"],"bee_group":{"antennae":"X","wings":"1","pattern":"X","legs":"M"},"bonus":1.3200000000000012},{"rt":10807.700000000186,"stimulus":"bees-with-color/bee-A1SM.svg","response":1,"trial_type":"image-button-response","trial_index":105,"time_elapsed":843125,"internal_node_id":"0.0-4.0-0.49","subject_id":"6026a3507e666237c315a0b0","study_id":"60edd13110225f80f9f3709b","session_id":"6196c7018b5787454145191f","condition":"contingent","relevant_dimensions":["wings","legs"],"bee_group":{"antennae":"X","wings":"1","pattern":"X","legs":"M"},"action":"avoid","summary":"good-avoid","bonus":1.3200000000000012},{"rt":1600.1999999999534,"stimulus":"\n                    <p><b>Action: <em>avoid</em></b></p>\n                    <p>This is the bee that you just saw.</p>\n                    <img src=\"bees-with-color/bee-A1SM.svg\" width=\"200\">\n                    <p><br>Your bonus pay is unchanged, and remains at $0.72.</p>\n            ","response":0,"trial_type":"html-button-response","trial_index":106,"time_elapsed":844726,"internal_node_id":"0.0-4.0-1.49","subject_id":"6026a3507e666237c315a0b0","study_id":"60edd13110225f80f9f3709b","session_id":"6196c7018b5787454145191f","condition":"contingent","relevant_dimensions":["wings","legs"],"bee_group":{"antennae":"X","wings":"1","pattern":"X","legs":"M"},"bonus":1.3200000000000012},{"rt":4388.299999999814,"stimulus":"bees-with-color/bee-A2SF.svg","response":0,"trial_type":"image-button-response","trial_index":107,"time_elapsed":849115,"internal_node_id":"0.0-4.0-0.50","subject_id":"6026a3507e666237c315a0b0","study_id":"60edd13110225f80f9f3709b","session_id":"6196c7018b5787454145191f","condition":"contingent","relevant_dimensions":["wings","legs"],"bee_group":{"antennae":"X","wings":"1","pattern":"X","legs":"M"},"action":"harvest","summary":"good-harvest","bonus":1.3200000000000012},{"rt":1036.1999999999534,"stimulus":"\n                    <p><b>Action: <em>harvest</em></b></p>\n                    <p>This is the bee that you just saw.</p>\n                    <img src=\"bees-with-color/bee-A2SF.svg\" width=\"200\">\n                    <p><span class=\"greenText\"><b>Successful harvest!</b></span><br>Your pay has increased by $0.02. Your bonus pay is now $0.74.</p>\n            ","response":0,"trial_type":"html-button-response","trial_index":108,"time_elapsed":850152,"internal_node_id":"0.0-4.0-1.50","subject_id":"6026a3507e666237c315a0b0","study_id":"60edd13110225f80f9f3709b","session_id":"6196c7018b5787454145191f","condition":"contingent","relevant_dimensions":["wings","legs"],"bee_group":{"antennae":"X","wings":"1","pattern":"X","legs":"M"},"bonus":1.3200000000000012},{"rt":6068.199999999953,"stimulus":"bees-with-color/bee-B1DM.svg","response":1,"trial_type":"image-button-response","trial_index":109,"time_elapsed":856221,"internal_node_id":"0.0-4.0-0.51","subject_id":"6026a3507e666237c315a0b0","study_id":"60edd13110225f80f9f3709b","session_id":"6196c7018b5787454145191f","condition":"contingent","relevant_dimensions":["wings","legs"],"bee_group":{"antennae":"X","wings":"1","pattern":"X","legs":"M"},"action":"avoid","summary":"good-avoid","bonus":1.3200000000000012},{"rt":3488.1999999999534,"stimulus":"\n                    <p><b>Action: <em>avoid</em></b></p>\n                    <p>This is the bee that you just saw.</p>\n                    <img src=\"bees-with-color/bee-B1DM.svg\" width=\"200\">\n                    <p><br>Your bonus pay is unchanged, and remains at $0.74.</p>\n            ","response":0,"trial_type":"html-button-response","trial_index":110,"time_elapsed":859710,"internal_node_id":"0.0-4.0-1.51","subject_id":"6026a3507e666237c315a0b0","study_id":"60edd13110225f80f9f3709b","session_id":"6196c7018b5787454145191f","condition":"contingent","relevant_dimensions":["wings","legs"],"bee_group":{"antennae":"X","wings":"1","pattern":"X","legs":"M"},"bonus":1.3200000000000012},{"rt":2346,"stimulus":"bees-with-color/bee-A2SM.svg","response":0,"trial_type":"image-button-response","trial_index":111,"time_elapsed":862057,"internal_node_id":"0.0-4.0-0.52","subject_id":"6026a3507e666237c315a0b0","study_id":"60edd13110225f80f9f3709b","session_id":"6196c7018b5787454145191f","condition":"contingent","relevant_dimensions":["wings","legs"],"bee_group":{"antennae":"X","wings":"1","pattern":"X","legs":"M"},"action":"harvest","summary":"good-harvest","bonus":1.3200000000000012},{"rt":830.1999999999534,"stimulus":"\n                    <p><b>Action: <em>harvest</em></b></p>\n                    <p>This is the bee that you just saw.</p>\n                    <img src=\"bees-with-color/bee-A2SM.svg\" width=\"200\">\n                    <p><span class=\"greenText\"><b>Successful harvest!</b></span><br>Your pay has increased by $0.02. Your bonus pay is now $0.76.</p>\n            ","response":0,"trial_type":"html-button-response","trial_index":112,"time_elapsed":862888,"internal_node_id":"0.0-4.0-1.52","subject_id":"6026a3507e666237c315a0b0","study_id":"60edd13110225f80f9f3709b","session_id":"6196c7018b5787454145191f","condition":"contingent","relevant_dimensions":["wings","legs"],"bee_group":{"antennae":"X","wings":"1","pattern":"X","legs":"M"},"bonus":1.3200000000000012},{"rt":5661,"stimulus":"bees-with-color/bee-A1SF.svg","response":0,"trial_type":"image-button-response","trial_index":113,"time_elapsed":868550,"internal_node_id":"0.0-4.0-0.53","subject_id":"6026a3507e666237c315a0b0","study_id":"60edd13110225f80f9f3709b","session_id":"6196c7018b5787454145191f","condition":"contingent","relevant_dimensions":["wings","legs"],"bee_group":{"antennae":"X","wings":"1","pattern":"X","legs":"M"},"action":"harvest","summary":"good-harvest","bonus":1.3200000000000012},{"rt":707.2000000001863,"stimulus":"\n                    <p><b>Action: <em>harvest</em></b></p>\n                    <p>This is the bee that you just saw.</p>\n                    <img src=\"bees-with-color/bee-A1SF.svg\" width=\"200\">\n                    <p><span class=\"greenText\"><b>Successful harvest!</b></span><br>Your pay has increased by $0.02. Your bonus pay is now $0.78.</p>\n            ","response":0,"trial_type":"html-button-response","trial_index":114,"time_elapsed":869258,"internal_node_id":"0.0-4.0-1.53","subject_id":"6026a3507e666237c315a0b0","study_id":"60edd13110225f80f9f3709b","session_id":"6196c7018b5787454145191f","condition":"contingent","relevant_dimensions":["wings","legs"],"bee_group":{"antennae":"X","wings":"1","pattern":"X","legs":"M"},"bonus":1.3200000000000012},{"rt":3246.4000000001397,"stimulus":"bees-with-color/bee-B2SF.svg","response":0,"trial_type":"image-button-response","trial_index":115,"time_elapsed":872505,"internal_node_id":"0.0-4.0-0.54","subject_id":"6026a3507e666237c315a0b0","study_id":"60edd13110225f80f9f3709b","session_id":"6196c7018b5787454145191f","condition":"contingent","relevant_dimensions":["wings","legs"],"bee_group":{"antennae":"X","wings":"1","pattern":"X","legs":"M"},"action":"harvest","summary":"good-harvest","bonus":1.3200000000000012},{"rt":1396.0999999998603,"stimulus":"\n                    <p><b>Action: <em>harvest</em></b></p>\n                    <p>This is the bee that you just saw.</p>\n                    <img src=\"bees-with-color/bee-B2SF.svg\" width=\"200\">\n                    <p><span class=\"greenText\"><b>Successful harvest!</b></span><br>Your pay has increased by $0.02. Your bonus pay is now $0.80.</p>\n            ","response":0,"trial_type":"html-button-response","trial_index":116,"time_elapsed":873902,"internal_node_id":"0.0-4.0-1.54","subject_id":"6026a3507e666237c315a0b0","study_id":"60edd13110225f80f9f3709b","session_id":"6196c7018b5787454145191f","condition":"contingent","relevant_dimensions":["wings","legs"],"bee_group":{"antennae":"X","wings":"1","pattern":"X","legs":"M"},"bonus":1.3200000000000012},{"rt":4583.299999999814,"stimulus":"bees-with-color/bee-B2DF.svg","response":0,"trial_type":"image-button-response","trial_index":117,"time_elapsed":878486,"internal_node_id":"0.0-4.0-0.55","subject_id":"6026a3507e666237c315a0b0","study_id":"60edd13110225f80f9f3709b","session_id":"6196c7018b5787454145191f","condition":"contingent","relevant_dimensions":["wings","legs"],"bee_group":{"antennae":"X","wings":"1","pattern":"X","legs":"M"},"action":"harvest","summary":"good-harvest","bonus":1.3200000000000012},{"rt":661,"stimulus":"\n                    <p><b>Action: <em>harvest</em></b></p>\n                    <p>This is the bee that you just saw.</p>\n                    <img src=\"bees-with-color/bee-B2DF.svg\" width=\"200\">\n                    <p><span class=\"greenText\"><b>Successful harvest!</b></span><br>Your pay has increased by $0.02. Your bonus pay is now $0.82.</p>\n            ","response":0,"trial_type":"html-button-response","trial_index":118,"time_elapsed":879148,"internal_node_id":"0.0-4.0-1.55","subject_id":"6026a3507e666237c315a0b0","study_id":"60edd13110225f80f9f3709b","session_id":"6196c7018b5787454145191f","condition":"contingent","relevant_dimensions":["wings","legs"],"bee_group":{"antennae":"X","wings":"1","pattern":"X","legs":"M"},"bonus":1.3200000000000012},{"rt":5174.399999999907,"stimulus":"bees-with-color/bee-B1SF.svg","response":0,"trial_type":"image-button-response","trial_index":119,"time_elapsed":884323,"internal_node_id":"0.0-4.0-0.56","subject_id":"6026a3507e666237c315a0b0","study_id":"60edd13110225f80f9f3709b","session_id":"6196c7018b5787454145191f","condition":"contingent","relevant_dimensions":["wings","legs"],"bee_group":{"antennae":"X","wings":"1","pattern":"X","legs":"M"},"action":"harvest","summary":"good-harvest","bonus":1.3200000000000012},{"rt":618.8000000000466,"stimulus":"\n                    <p><b>Action: <em>harvest</em></b></p>\n                    <p>This is the bee that you just saw.</p>\n                    <img src=\"bees-with-color/bee-B1SF.svg\" width=\"200\">\n                    <p><span class=\"greenText\"><b>Successful harvest!</b></span><br>Your pay has increased by $0.02. Your bonus pay is now $0.84.</p>\n            ","response":0,"trial_type":"html-button-response","trial_index":120,"time_elapsed":884943,"internal_node_id":"0.0-4.0-1.56","subject_id":"6026a3507e666237c315a0b0","study_id":"60edd13110225f80f9f3709b","session_id":"6196c7018b5787454145191f","condition":"contingent","relevant_dimensions":["wings","legs"],"bee_group":{"antennae":"X","wings":"1","pattern":"X","legs":"M"},"bonus":1.3200000000000012},{"rt":4023,"stimulus":"bees-with-color/bee-B2SM.svg","response":0,"trial_type":"image-button-response","trial_index":121,"time_elapsed":888967,"internal_node_id":"0.0-4.0-0.57","subject_id":"6026a3507e666237c315a0b0","study_id":"60edd13110225f80f9f3709b","session_id":"6196c7018b5787454145191f","condition":"contingent","relevant_dimensions":["wings","legs"],"bee_group":{"antennae":"X","wings":"1","pattern":"X","legs":"M"},"action":"harvest","summary":"good-harvest","bonus":1.3200000000000012},{"rt":795.3000000000466,"stimulus":"\n                    <p><b>Action: <em>harvest</em></b></p>\n                    <p>This is the bee that you just saw.</p>\n                    <img src=\"bees-with-color/bee-B2SM.svg\" width=\"200\">\n                    <p><span class=\"greenText\"><b>Successful harvest!</b></span><br>Your pay has increased by $0.02. Your bonus pay is now $0.86.</p>\n            ","response":0,"trial_type":"html-button-response","trial_index":122,"time_elapsed":889763,"internal_node_id":"0.0-4.0-1.57","subject_id":"6026a3507e666237c315a0b0","study_id":"60edd13110225f80f9f3709b","session_id":"6196c7018b5787454145191f","condition":"contingent","relevant_dimensions":["wings","legs"],"bee_group":{"antennae":"X","wings":"1","pattern":"X","legs":"M"},"bonus":1.3200000000000012},{"rt":4725,"stimulus":"bees-with-color/bee-B1SM.svg","response":1,"trial_type":"image-button-response","trial_index":123,"time_elapsed":894489,"internal_node_id":"0.0-4.0-0.58","subject_id":"6026a3507e666237c315a0b0","study_id":"60edd13110225f80f9f3709b","session_id":"6196c7018b5787454145191f","condition":"contingent","relevant_dimensions":["wings","legs"],"bee_group":{"antennae":"X","wings":"1","pattern":"X","legs":"M"},"action":"avoid","summary":"good-avoid","bonus":1.3200000000000012},{"rt":1207.1999999999534,"stimulus":"\n                    <p><b>Action: <em>avoid</em></b></p>\n                    <p>This is the bee that you just saw.</p>\n                    <img src=\"bees-with-color/bee-B1SM.svg\" width=\"200\">\n                    <p><br>Your bonus pay is unchanged, and remains at $0.86.</p>\n            ","response":0,"trial_type":"html-button-response","trial_index":124,"time_elapsed":895697,"internal_node_id":"0.0-4.0-1.58","subject_id":"6026a3507e666237c315a0b0","study_id":"60edd13110225f80f9f3709b","session_id":"6196c7018b5787454145191f","condition":"contingent","relevant_dimensions":["wings","legs"],"bee_group":{"antennae":"X","wings":"1","pattern":"X","legs":"M"},"bonus":1.3200000000000012},{"rt":3961.3000000000466,"stimulus":"bees-with-color/bee-A2DM.svg","response":0,"trial_type":"image-button-response","trial_index":125,"time_elapsed":899659,"internal_node_id":"0.0-4.0-0.59","subject_id":"6026a3507e666237c315a0b0","study_id":"60edd13110225f80f9f3709b","session_id":"6196c7018b5787454145191f","condition":"contingent","relevant_dimensions":["wings","legs"],"bee_group":{"antennae":"X","wings":"1","pattern":"X","legs":"M"},"action":"harvest","summary":"good-harvest","bonus":1.3200000000000012},{"rt":626,"stimulus":"\n                    <p><b>Action: <em>harvest</em></b></p>\n                    <p>This is the bee that you just saw.</p>\n                    <img src=\"bees-with-color/bee-A2DM.svg\" width=\"200\">\n                    <p><span class=\"greenText\"><b>Successful harvest!</b></span><br>Your pay has increased by $0.02. Your bonus pay is now $0.88.</p>\n            ","response":0,"trial_type":"html-button-response","trial_index":126,"time_elapsed":900286,"internal_node_id":"0.0-4.0-1.59","subject_id":"6026a3507e666237c315a0b0","study_id":"60edd13110225f80f9f3709b","session_id":"6196c7018b5787454145191f","condition":"contingent","relevant_dimensions":["wings","legs"],"bee_group":{"antennae":"X","wings":"1","pattern":"X","legs":"M"},"bonus":1.3200000000000012},{"rt":4487.100000000093,"stimulus":"bees-with-color/bee-B1DF.svg","response":1,"trial_type":"image-button-response","trial_index":127,"time_elapsed":904774,"internal_node_id":"0.0-4.0-0.60","subject_id":"6026a3507e666237c315a0b0","study_id":"60edd13110225f80f9f3709b","session_id":"6196c7018b5787454145191f","condition":"contingent","relevant_dimensions":["wings","legs"],"bee_group":{"antennae":"X","wings":"1","pattern":"X","legs":"M"},"action":"avoid","summary":"bad-avoid","bonus":1.3200000000000012},{"rt":942.1999999999534,"stimulus":"\n                    <p><b>Action: <em>avoid</em></b></p>\n                    <p>This is the bee that you just saw.</p>\n                    <img src=\"bees-with-color/bee-B1DF.svg\" width=\"200\">\n                    <p><br>Your bonus pay is unchanged, and remains at $0.88.</p>\n            ","response":0,"trial_type":"html-button-response","trial_index":128,"time_elapsed":905717,"internal_node_id":"0.0-4.0-1.60","subject_id":"6026a3507e666237c315a0b0","study_id":"60edd13110225f80f9f3709b","session_id":"6196c7018b5787454145191f","condition":"contingent","relevant_dimensions":["wings","legs"],"bee_group":{"antennae":"X","wings":"1","pattern":"X","legs":"M"},"bonus":1.3200000000000012},{"rt":1860.8000000000466,"stimulus":"bees-with-color/bee-B2DM.svg","response":0,"trial_type":"image-button-response","trial_index":129,"time_elapsed":907579,"internal_node_id":"0.0-4.0-0.61","subject_id":"6026a3507e666237c315a0b0","study_id":"60edd13110225f80f9f3709b","session_id":"6196c7018b5787454145191f","condition":"contingent","relevant_dimensions":["wings","legs"],"bee_group":{"antennae":"X","wings":"1","pattern":"X","legs":"M"},"action":"harvest","summary":"good-harvest","bonus":1.3200000000000012},{"rt":628.2999999998137,"stimulus":"\n                    <p><b>Action: <em>harvest</em></b></p>\n                    <p>This is the bee that you just saw.</p>\n                    <img src=\"bees-with-color/bee-B2DM.svg\" width=\"200\">\n                    <p><span class=\"greenText\"><b>Successful harvest!</b></span><br>Your pay has increased by $0.02. Your bonus pay is now $0.90.</p>\n            ","response":0,"trial_type":"html-button-response","trial_index":130,"time_elapsed":908208,"internal_node_id":"0.0-4.0-1.61","subject_id":"6026a3507e666237c315a0b0","study_id":"60edd13110225f80f9f3709b","session_id":"6196c7018b5787454145191f","condition":"contingent","relevant_dimensions":["wings","legs"],"bee_group":{"antennae":"X","wings":"1","pattern":"X","legs":"M"},"bonus":1.3200000000000012},{"rt":1397,"stimulus":"bees-with-color/bee-A2DF.svg","response":0,"trial_type":"image-button-response","trial_index":131,"time_elapsed":909606,"internal_node_id":"0.0-4.0-0.62","subject_id":"6026a3507e666237c315a0b0","study_id":"60edd13110225f80f9f3709b","session_id":"6196c7018b5787454145191f","condition":"contingent","relevant_dimensions":["wings","legs"],"bee_group":{"antennae":"X","wings":"1","pattern":"X","legs":"M"},"action":"harvest","summary":"good-harvest","bonus":1.3200000000000012},{"rt":586.1999999999534,"stimulus":"\n                    <p><b>Action: <em>harvest</em></b></p>\n                    <p>This is the bee that you just saw.</p>\n                    <img src=\"bees-with-color/bee-A2DF.svg\" width=\"200\">\n                    <p><span class=\"greenText\"><b>Successful harvest!</b></span><br>Your pay has increased by $0.02. Your bonus pay is now $0.92.</p>\n            ","response":0,"trial_type":"html-button-response","trial_index":132,"time_elapsed":910193,"internal_node_id":"0.0-4.0-1.62","subject_id":"6026a3507e666237c315a0b0","study_id":"60edd13110225f80f9f3709b","session_id":"6196c7018b5787454145191f","condition":"contingent","relevant_dimensions":["wings","legs"],"bee_group":{"antennae":"X","wings":"1","pattern":"X","legs":"M"},"bonus":1.3200000000000012},{"rt":3094.3000000000466,"stimulus":"bees-with-color/bee-A1DM.svg","response":1,"trial_type":"image-button-response","trial_index":133,"time_elapsed":913288,"internal_node_id":"0.0-4.0-0.63","subject_id":"6026a3507e666237c315a0b0","study_id":"60edd13110225f80f9f3709b","session_id":"6196c7018b5787454145191f","condition":"contingent","relevant_dimensions":["wings","legs"],"bee_group":{"antennae":"X","wings":"1","pattern":"X","legs":"M"},"action":"avoid","summary":"good-avoid","bonus":1.3200000000000012},{"rt":836.3000000000466,"stimulus":"\n                    <p><b>Action: <em>avoid</em></b></p>\n                    <p>This is the bee that you just saw.</p>\n                    <img src=\"bees-with-color/bee-A1DM.svg\" width=\"200\">\n                    <p><br>Your bonus pay is unchanged, and remains at $0.92.</p>\n            ","response":0,"trial_type":"html-button-response","trial_index":134,"time_elapsed":914125,"internal_node_id":"0.0-4.0-1.63","subject_id":"6026a3507e666237c315a0b0","study_id":"60edd13110225f80f9f3709b","session_id":"6196c7018b5787454145191f","condition":"contingent","relevant_dimensions":["wings","legs"],"bee_group":{"antennae":"X","wings":"1","pattern":"X","legs":"M"},"bonus":1.3200000000000012},{"rt":31719.399999999907,"stimulus":"You have completed the first part of this experiment.<br><br>You will now begin a shorter second part, in which you will receive no feedback.<br>The same rules regarding bonus pay apply.<br><br>Press any key to begin.","response":"k","trial_type":"html-keyboard-response","trial_index":135,"time_elapsed":945844,"internal_node_id":"0.0-5.0","subject_id":"6026a3507e666237c315a0b0","study_id":"60edd13110225f80f9f3709b","session_id":"6196c7018b5787454145191f","condition":"contingent","relevant_dimensions":["wings","legs"],"bee_group":{"antennae":"X","wings":"1","pattern":"X","legs":"M"},"bonus":1.3200000000000012},{"rt":12955,"stimulus":"bees-with-color/bee-B1DF.svg","response":1,"trial_type":"image-button-response","trial_index":136,"time_elapsed":958805,"internal_node_id":"0.0-6.0-0.0","subject_id":"6026a3507e666237c315a0b0","study_id":"60edd13110225f80f9f3709b","session_id":"6196c7018b5787454145191f","condition":"contingent","relevant_dimensions":["wings","legs"],"bee_group":{"antennae":"X","wings":"1","pattern":"X","legs":"M"},"bonus":1.3200000000000012},{"rt":5025.600000000093,"stimulus":"bees-with-color/bee-B2SF.svg","response":0,"trial_type":"image-button-response","trial_index":137,"time_elapsed":963832,"internal_node_id":"0.0-6.0-0.1","subject_id":"6026a3507e666237c315a0b0","study_id":"60edd13110225f80f9f3709b","session_id":"6196c7018b5787454145191f","condition":"contingent","relevant_dimensions":["wings","legs"],"bee_group":{"antennae":"X","wings":"1","pattern":"X","legs":"M"},"bonus":1.3200000000000012},{"rt":1809.5,"stimulus":"bees-with-color/bee-A1DF.svg","response":1,"trial_type":"image-button-response","trial_index":138,"time_elapsed":965643,"internal_node_id":"0.0-6.0-0.2","subject_id":"6026a3507e666237c315a0b0","study_id":"60edd13110225f80f9f3709b","session_id":"6196c7018b5787454145191f","condition":"contingent","relevant_dimensions":["wings","legs"],"bee_group":{"antennae":"X","wings":"1","pattern":"X","legs":"M"},"bonus":1.3200000000000012},{"rt":920.0999999998603,"stimulus":"bees-with-color/bee-A2DF.svg","response":0,"trial_type":"image-button-response","trial_index":139,"time_elapsed":966564,"internal_node_id":"0.0-6.0-0.3","subject_id":"6026a3507e666237c315a0b0","study_id":"60edd13110225f80f9f3709b","session_id":"6196c7018b5787454145191f","condition":"contingent","relevant_dimensions":["wings","legs"],"bee_group":{"antennae":"X","wings":"1","pattern":"X","legs":"M"},"bonus":1.3200000000000012},{"rt":3205,"stimulus":"bees-with-color/bee-A1SM.svg","response":1,"trial_type":"image-button-response","trial_index":140,"time_elapsed":969770,"internal_node_id":"0.0-6.0-0.4","subject_id":"6026a3507e666237c315a0b0","study_id":"60edd13110225f80f9f3709b","session_id":"6196c7018b5787454145191f","condition":"contingent","relevant_dimensions":["wings","legs"],"bee_group":{"antennae":"X","wings":"1","pattern":"X","legs":"M"},"bonus":1.3200000000000012},{"rt":3471.399999999907,"stimulus":"bees-with-color/bee-B1DM.svg","response":1,"trial_type":"image-button-response","trial_index":141,"time_elapsed":973243,"internal_node_id":"0.0-6.0-0.5","subject_id":"6026a3507e666237c315a0b0","study_id":"60edd13110225f80f9f3709b","session_id":"6196c7018b5787454145191f","condition":"contingent","relevant_dimensions":["wings","legs"],"bee_group":{"antennae":"X","wings":"1","pattern":"X","legs":"M"},"bonus":1.3200000000000012},{"rt":1615.7999999998137,"stimulus":"bees-with-color/bee-B2DM.svg","response":0,"trial_type":"image-button-response","trial_index":142,"time_elapsed":974860,"internal_node_id":"0.0-6.0-0.6","subject_id":"6026a3507e666237c315a0b0","study_id":"60edd13110225f80f9f3709b","session_id":"6196c7018b5787454145191f","condition":"contingent","relevant_dimensions":["wings","legs"],"bee_group":{"antennae":"X","wings":"1","pattern":"X","legs":"M"},"bonus":1.3200000000000012},{"rt":940.7999999998137,"stimulus":"bees-with-color/bee-A2SF.svg","response":0,"trial_type":"image-button-response","trial_index":143,"time_elapsed":975803,"internal_node_id":"0.0-6.0-0.7","subject_id":"6026a3507e666237c315a0b0","study_id":"60edd13110225f80f9f3709b","session_id":"6196c7018b5787454145191f","condition":"contingent","relevant_dimensions":["wings","legs"],"bee_group":{"antennae":"X","wings":"1","pattern":"X","legs":"M"},"bonus":1.3200000000000012},{"rt":1098.6999999999534,"stimulus":"bees-with-color/bee-B2SM.svg","response":0,"trial_type":"image-button-response","trial_index":144,"time_elapsed":976902,"internal_node_id":"0.0-6.0-0.8","subject_id":"6026a3507e666237c315a0b0","study_id":"60edd13110225f80f9f3709b","session_id":"6196c7018b5787454145191f","condition":"contingent","relevant_dimensions":["wings","legs"],"bee_group":{"antennae":"X","wings":"1","pattern":"X","legs":"M"},"bonus":1.3200000000000012},{"rt":1345.3999999999069,"stimulus":"bees-with-color/bee-A2SM.svg","response":0,"trial_type":"image-button-response","trial_index":145,"time_elapsed":978249,"internal_node_id":"0.0-6.0-0.9","subject_id":"6026a3507e666237c315a0b0","study_id":"60edd13110225f80f9f3709b","session_id":"6196c7018b5787454145191f","condition":"contingent","relevant_dimensions":["wings","legs"],"bee_group":{"antennae":"X","wings":"1","pattern":"X","legs":"M"},"bonus":1.3200000000000012},{"rt":4232.600000000093,"stimulus":"bees-with-color/bee-B1SF.svg","response":1,"trial_type":"image-button-response","trial_index":146,"time_elapsed":982483,"internal_node_id":"0.0-6.0-0.10","subject_id":"6026a3507e666237c315a0b0","study_id":"60edd13110225f80f9f3709b","session_id":"6196c7018b5787454145191f","condition":"contingent","relevant_dimensions":["wings","legs"],"bee_group":{"antennae":"X","wings":"1","pattern":"X","legs":"M"},"bonus":1.3200000000000012},{"rt":1065,"stimulus":"bees-with-color/bee-A2DM.svg","response":0,"trial_type":"image-button-response","trial_index":147,"time_elapsed":983549,"internal_node_id":"0.0-6.0-0.11","subject_id":"6026a3507e666237c315a0b0","study_id":"60edd13110225f80f9f3709b","session_id":"6196c7018b5787454145191f","condition":"contingent","relevant_dimensions":["wings","legs"],"bee_group":{"antennae":"X","wings":"1","pattern":"X","legs":"M"},"bonus":1.3200000000000012},{"rt":3061.1999999999534,"stimulus":"bees-with-color/bee-A1DM.svg","response":1,"trial_type":"image-button-response","trial_index":148,"time_elapsed":986611,"internal_node_id":"0.0-6.0-0.12","subject_id":"6026a3507e666237c315a0b0","study_id":"60edd13110225f80f9f3709b","session_id":"6196c7018b5787454145191f","condition":"contingent","relevant_dimensions":["wings","legs"],"bee_group":{"antennae":"X","wings":"1","pattern":"X","legs":"M"},"bonus":1.3200000000000012},{"rt":3854.4000000001397,"stimulus":"bees-with-color/bee-B2DF.svg","response":0,"trial_type":"image-button-response","trial_index":149,"time_elapsed":990467,"internal_node_id":"0.0-6.0-0.13","subject_id":"6026a3507e666237c315a0b0","study_id":"60edd13110225f80f9f3709b","session_id":"6196c7018b5787454145191f","condition":"contingent","relevant_dimensions":["wings","legs"],"bee_group":{"antennae":"X","wings":"1","pattern":"X","legs":"M"},"bonus":1.3200000000000012},{"rt":2585.1999999999534,"stimulus":"bees-with-color/bee-A1SF.svg","response":0,"trial_type":"image-button-response","trial_index":150,"time_elapsed":993053,"internal_node_id":"0.0-6.0-0.14","subject_id":"6026a3507e666237c315a0b0","study_id":"60edd13110225f80f9f3709b","session_id":"6196c7018b5787454145191f","condition":"contingent","relevant_dimensions":["wings","legs"],"bee_group":{"antennae":"X","wings":"1","pattern":"X","legs":"M"},"bonus":1.3200000000000012},{"rt":2682.8000000000466,"stimulus":"bees-with-color/bee-B1SM.svg","response":1,"trial_type":"image-button-response","trial_index":151,"time_elapsed":995737,"internal_node_id":"0.0-6.0-0.15","subject_id":"6026a3507e666237c315a0b0","study_id":"60edd13110225f80f9f3709b","session_id":"6196c7018b5787454145191f","condition":"contingent","relevant_dimensions":["wings","legs"],"bee_group":{"antennae":"X","wings":"1","pattern":"X","legs":"M"},"bonus":1.3200000000000012},{"rt":10203.800000000047,"stimulus":"bees-with-color/bee-A1DF.svg","response":1,"trial_type":"image-button-response","trial_index":152,"time_elapsed":1005943,"internal_node_id":"0.0-6.0-0.16","subject_id":"6026a3507e666237c315a0b0","study_id":"60edd13110225f80f9f3709b","session_id":"6196c7018b5787454145191f","condition":"contingent","relevant_dimensions":["wings","legs"],"bee_group":{"antennae":"X","wings":"1","pattern":"X","legs":"M"},"bonus":1.3200000000000012},{"rt":2652.9000000001397,"stimulus":"bees-with-color/bee-A1DM.svg","response":1,"trial_type":"image-button-response","trial_index":153,"time_elapsed":1008597,"internal_node_id":"0.0-6.0-0.17","subject_id":"6026a3507e666237c315a0b0","study_id":"60edd13110225f80f9f3709b","session_id":"6196c7018b5787454145191f","condition":"contingent","relevant_dimensions":["wings","legs"],"bee_group":{"antennae":"X","wings":"1","pattern":"X","legs":"M"},"bonus":1.3200000000000012},{"rt":8656,"stimulus":"bees-with-color/bee-B1DF.svg","response":0,"trial_type":"image-button-response","trial_index":154,"time_elapsed":1017254,"internal_node_id":"0.0-6.0-0.18","subject_id":"6026a3507e666237c315a0b0","study_id":"60edd13110225f80f9f3709b","session_id":"6196c7018b5787454145191f","condition":"contingent","relevant_dimensions":["wings","legs"],"bee_group":{"antennae":"X","wings":"1","pattern":"X","legs":"M"},"bonus":1.3200000000000012},{"rt":5321,"stimulus":"bees-with-color/bee-B1SM.svg","response":1,"trial_type":"image-button-response","trial_index":155,"time_elapsed":1022576,"internal_node_id":"0.0-6.0-0.19","subject_id":"6026a3507e666237c315a0b0","study_id":"60edd13110225f80f9f3709b","session_id":"6196c7018b5787454145191f","condition":"contingent","relevant_dimensions":["wings","legs"],"bee_group":{"antennae":"X","wings":"1","pattern":"X","legs":"M"},"bonus":1.3200000000000012},{"rt":1424.6999999999534,"stimulus":"bees-with-color/bee-B2SF.svg","response":0,"trial_type":"image-button-response","trial_index":156,"time_elapsed":1024002,"internal_node_id":"0.0-6.0-0.20","subject_id":"6026a3507e666237c315a0b0","study_id":"60edd13110225f80f9f3709b","session_id":"6196c7018b5787454145191f","condition":"contingent","relevant_dimensions":["wings","legs"],"bee_group":{"antennae":"X","wings":"1","pattern":"X","legs":"M"},"bonus":1.3200000000000012},{"rt":645.8999999999069,"stimulus":"bees-with-color/bee-B2DF.svg","response":0,"trial_type":"image-button-response","trial_index":157,"time_elapsed":1024649,"internal_node_id":"0.0-6.0-0.21","subject_id":"6026a3507e666237c315a0b0","study_id":"60edd13110225f80f9f3709b","session_id":"6196c7018b5787454145191f","condition":"contingent","relevant_dimensions":["wings","legs"],"bee_group":{"antennae":"X","wings":"1","pattern":"X","legs":"M"},"bonus":1.3200000000000012},{"rt":6212.299999999814,"stimulus":"bees-with-color/bee-B1SF.svg","response":0,"trial_type":"image-button-response","trial_index":158,"time_elapsed":1030862,"internal_node_id":"0.0-6.0-0.22","subject_id":"6026a3507e666237c315a0b0","study_id":"60edd13110225f80f9f3709b","session_id":"6196c7018b5787454145191f","condition":"contingent","relevant_dimensions":["wings","legs"],"bee_group":{"antennae":"X","wings":"1","pattern":"X","legs":"M"},"bonus":1.3200000000000012},{"rt":993.8000000000466,"stimulus":"bees-with-color/bee-A2SF.svg","response":0,"trial_type":"image-button-response","trial_index":159,"time_elapsed":1031857,"internal_node_id":"0.0-6.0-0.23","subject_id":"6026a3507e666237c315a0b0","study_id":"60edd13110225f80f9f3709b","session_id":"6196c7018b5787454145191f","condition":"contingent","relevant_dimensions":["wings","legs"],"bee_group":{"antennae":"X","wings":"1","pattern":"X","legs":"M"},"bonus":1.3200000000000012},{"rt":898.1999999999534,"stimulus":"bees-with-color/bee-A2DF.svg","response":0,"trial_type":"image-button-response","trial_index":160,"time_elapsed":1032756,"internal_node_id":"0.0-6.0-0.24","subject_id":"6026a3507e666237c315a0b0","study_id":"60edd13110225f80f9f3709b","session_id":"6196c7018b5787454145191f","condition":"contingent","relevant_dimensions":["wings","legs"],"bee_group":{"antennae":"X","wings":"1","pattern":"X","legs":"M"},"bonus":1.3200000000000012},{"rt":1880.8000000000466,"stimulus":"bees-with-color/bee-B1DM.svg","response":1,"trial_type":"image-button-response","trial_index":161,"time_elapsed":1034638,"internal_node_id":"0.0-6.0-0.25","subject_id":"6026a3507e666237c315a0b0","study_id":"60edd13110225f80f9f3709b","session_id":"6196c7018b5787454145191f","condition":"contingent","relevant_dimensions":["wings","legs"],"bee_group":{"antennae":"X","wings":"1","pattern":"X","legs":"M"},"bonus":1.3200000000000012},{"rt":8329.5,"stimulus":"bees-with-color/bee-A1SF.svg","response":0,"trial_type":"image-button-response","trial_index":162,"time_elapsed":1042968,"internal_node_id":"0.0-6.0-0.26","subject_id":"6026a3507e666237c315a0b0","study_id":"60edd13110225f80f9f3709b","session_id":"6196c7018b5787454145191f","condition":"contingent","relevant_dimensions":["wings","legs"],"bee_group":{"antennae":"X","wings":"1","pattern":"X","legs":"M"},"bonus":1.3200000000000012},{"rt":3061.6999999999534,"stimulus":"bees-with-color/bee-A1SM.svg","response":1,"trial_type":"image-button-response","trial_index":163,"time_elapsed":1046031,"internal_node_id":"0.0-6.0-0.27","subject_id":"6026a3507e666237c315a0b0","study_id":"60edd13110225f80f9f3709b","session_id":"6196c7018b5787454145191f","condition":"contingent","relevant_dimensions":["wings","legs"],"bee_group":{"antennae":"X","wings":"1","pattern":"X","legs":"M"},"bonus":1.3200000000000012},{"rt":839.3999999999069,"sti