[{"success":true,"trial_type":"fullscreen","trial_index":0,"time_elapsed":9154,"internal_node_id":"0.0-0.0","subject_id":"60fc39cce64c39328a7c8904","study_id":"6197b3f67c2b5cd3b6d9596a","session_id":"619be3198de857856e68ad89","condition":"full-information","relevant_dimensions":["wings","legs"],"bee_group":{"antennae":"X","wings":"2","pattern":"X","legs":"M"},"bonus":1.7000000000000013},{"success":true,"timeout":false,"failed_images":[],"failed_audio":[],"failed_video":[],"trial_type":"preload","trial_index":1,"time_elapsed":11151,"internal_node_id":"0.0-1.0","subject_id":"60fc39cce64c39328a7c8904","study_id":"6197b3f67c2b5cd3b6d9596a","session_id":"619be3198de857856e68ad89","condition":"full-information","relevant_dimensions":["wings","legs"],"bee_group":{"antennae":"X","wings":"2","pattern":"X","legs":"M"},"bonus":1.7000000000000013},{"rt":17092.90000000596,"stimulus":"Welcome! Press any key to begin.","response":"arrowright","trial_type":"html-keyboard-response","trial_index":2,"time_elapsed":28244,"internal_node_id":"0.0-2.0","subject_id":"60fc39cce64c39328a7c8904","study_id":"6197b3f67c2b5cd3b6d9596a","session_id":"619be3198de857856e68ad89","condition":"full-information","relevant_dimensions":["wings","legs"],"bee_group":{"antennae":"X","wings":"2","pattern":"X","legs":"M"},"bonus":1.7000000000000013},{"view_history":[{"page_index":0,"viewing_time":3299.2999999970198},{"page_index":1,"viewing_time":8240},{"page_index":2,"viewing_time":3746},{"page_index":1,"viewing_time":8572.20000000298},{"page_index":2,"viewing_time":9891.70000000298},{"page_index":3,"viewing_time":15771.09999999404},{"page_index":4,"viewing_time":3661},{"page_index":5,"viewing_time":4366},{"page_index":6,"viewing_time":11133.20000000298},{"page_index":7,"viewing_time":25911.70000000298},{"page_index":6,"viewing_time":6639},{"page_index":7,"viewing_time":2755.8999999910593},{"page_index":8,"viewing_time":4340},{"page_index":9,"viewing_time":5440.100000008941},{"page_index":10,"viewing_time":3713.8999999910593},{"page_index":11,"viewing_time":13295},{"page_index":12,"viewing_time":22990.90000000596},{"page_index":13,"viewing_time":1445},{"page_index":14,"viewing_time":1610.0999999940395}],"rt":156822.5,"trial_type":"instructions","trial_index":3,"time_elapsed":185067,"internal_node_id":"0.0-3.0-0.0","subject_id":"60fc39cce64c39328a7c8904","study_id":"6197b3f67c2b5cd3b6d9596a","session_id":"619be3198de857856e68ad89","condition":"full-information","relevant_dimensions":["wings","legs"],"bee_group":{"antennae":"X","wings":"2","pattern":"X","legs":"M"},"bonus":1.7000000000000013},{"rt":14521,"response":{"Q0":["Two or six legs","Stripes or spots on body","Single or double wings","Antennae or no antennae"]},"question_order":[0],"trial_type":"survey-multi-select","trial_index":4,"time_elapsed":199591,"internal_node_id":"0.0-3.0-1.0","subject_id":"60fc39cce64c39328a7c8904","study_id":"6197b3f67c2b5cd3b6d9596a","session_id":"619be3198de857856e68ad89","condition":"full-information","relevant_dimensions":["wings","legs"],"bee_group":{"antennae":"X","wings":"2","pattern":"X","legs":"M"},"correct":true,"bonus":1.7000000000000013},{"rt":33193.69999998808,"response":{"Q1":"No.","Q2":"Based on the four features of the bee.","Q3":"You learn if it was friendly or dangerous and alter your bonus."},"question_order":[0,1,2],"trial_type":"survey-multi-choice","trial_index":5,"time_elapsed":232786,"internal_node_id":"0.0-3.0-2.0","subject_id":"60fc39cce64c39328a7c8904","study_id":"6197b3f67c2b5cd3b6d9596a","session_id":"619be3198de857856e68ad89","condition":"full-information","relevant_dimensions":["wings","legs"],"bee_group":{"antennae":"X","wings":"2","pattern":"X","legs":"M"},"correct":false,"bonus":1.7000000000000013},{"rt":3261.699999988079,"stimulus":"<p>You did not answer all comprehension questions correctly.<br>Press <b>continue</b> to review the instructions again.</p>","response":0,"trial_type":"html-button-response","trial_index":6,"time_elapsed":236049,"internal_node_id":"0.0-3.0-3.0","subject_id":"60fc39cce64c39328a7c8904","study_id":"6197b3f67c2b5cd3b6d9596a","session_id":"619be3198de857856e68ad89","condition":"full-information","relevant_dimensions":["wings","legs"],"bee_group":{"antennae":"X","wings":"2","pattern":"X","legs":"M"},"bonus":1.7000000000000013},{"view_history":[{"page_index":0,"viewing_time":1758.2000000029802},{"page_index":1,"viewing_time":8031},{"page_index":2,"viewing_time":7451.100000008941},{"page_index":3,"viewing_time":4794.79999999702},{"page_index":4,"viewing_time":9650.29999999702},{"page_index":5,"viewing_time":2291.7999999970198},{"page_index":6,"viewing_time":8580.10000000894},{"page_index":7,"viewing_time":4661},{"page_index":8,"viewing_time":1734.7999999970198},{"page_index":9,"viewing_time":1309.0999999940395},{"page_index":10,"viewing_time":1270.2999999970198},{"page_index":11,"viewing_time":11037.800000011921},{"page_index":12,"viewing_time":953.7999999970198},{"page_index":13,"viewing_time":1244},{"page_index":14,"viewing_time":672.2000000029802}],"rt":65440.70000000298,"trial_type":"instructions","trial_index":7,"time_elapsed":301490,"internal_node_id":"0.0-3.0-4.0-0.0","subject_id":"60fc39cce64c39328a7c8904","study_id":"6197b3f67c2b5cd3b6d9596a","session_id":"619be3198de857856e68ad89","condition":"full-information","relevant_dimensions":["wings","legs"],"bee_group":{"antennae":"X","wings":"2","pattern":"X","legs":"M"},"bonus":1.7000000000000013},{"rt":11010.5,"response":{"Q0":["Two or six legs","Stripes or spots on body","Single or double wings","Antennae or no antennae"]},"question_order":[0],"trial_type":"survey-multi-select","trial_index":8,"time_elapsed":312503,"internal_node_id":"0.0-3.0-4.0-1.0","subject_id":"60fc39cce64c39328a7c8904","study_id":"6197b3f67c2b5cd3b6d9596a","session_id":"619be3198de857856e68ad89","condition":"full-information","relevant_dimensions":["wings","legs"],"bee_group":{"antennae":"X","wings":"2","pattern":"X","legs":"M"},"correct":true,"bonus":1.7000000000000013},{"rt":9862.90000000596,"response":{"Q1":"No.","Q2":"Based on the four features of the bee.","Q3":"You learn if it was friendly or dangerous, but do not alter your bonus."},"question_order":[0,1,2],"trial_type":"survey-multi-choice","trial_index":9,"time_elapsed":322367,"internal_node_id":"0.0-3.0-4.0-2.0","subject_id":"60fc39cce64c39328a7c8904","study_id":"6197b3f67c2b5cd3b6d9596a","session_id":"619be3198de857856e68ad89","condition":"full-information","relevant_dimensions":["wings","legs"],"bee_group":{"antennae":"X","wings":"2","pattern":"X","legs":"M"},"correct":true,"bonus":1.7000000000000013},{"rt":2824.8999999910593,"stimulus":"<p>Congrats, you got everything right<br>When you're ready, click the button below to continue to the experiment.</p>","response":0,"trial_type":"html-button-response","trial_index":10,"time_elapsed":325193,"internal_node_id":"0.0-3.0-4.0-3.0","subject_id":"60fc39cce64c39328a7c8904","study_id":"6197b3f67c2b5cd3b6d9596a","session_id":"619be3198de857856e68ad89","condition":"full-information","relevant_dimensions":["wings","legs"],"bee_group":{"antennae":"X","wings":"2","pattern":"X","legs":"M"},"bonus":1.7000000000000013},{"rt":4284.5999999940395,"stimulus":"bees-with-color/bee-A2DM.svg","response":1,"trial_type":"image-button-response","trial_index":11,"time_elapsed":329479,"internal_node_id":"0.0-4.0-0.0","subject_id":"60fc39cce64c39328a7c8904","study_id":"6197b3f67c2b5cd3b6d9596a","session_id":"619be3198de857856e68ad89","condition":"full-information","relevant_dimensions":["wings","legs"],"bee_group":{"antennae":"X","wings":"2","pattern":"X","legs":"M"},"action":"avoid","summary":"good-avoid","bonus":1.7000000000000013},{"rt":16571.20000000298,"stimulus":"\n                    <p><b>Action: <em>avoid</em></b></p>\n                    <p>This is the bee that you just saw.</p>\n                    <img src=\"bees-with-color/bee-A2DM.svg\" width=\"200\">\n                    <p><span class=\"greenText\">Good choice!</span>  This bee would have stung you.<br>Your bonus pay is unchanged, and remains at $0.54.</p>\n            ","response":0,"trial_type":"html-button-response","trial_index":12,"time_elapsed":346052,"internal_node_id":"0.0-4.0-1.0","subject_id":"60fc39cce64c39328a7c8904","study_id":"6197b3f67c2b5cd3b6d9596a","session_id":"619be3198de857856e68ad89","condition":"full-information","relevant_dimensions":["wings","legs"],"bee_group":{"antennae":"X","wings":"2","pattern":"X","legs":"M"},"bonus":1.7000000000000013},{"rt":2643.699999988079,"stimulus":"bees-with-color/bee-A2SF.svg","response":0,"trial_type":"image-button-response","trial_index":13,"time_elapsed":348696,"internal_node_id":"0.0-4.0-0.1","subject_id":"60fc39cce64c39328a7c8904","study_id":"6197b3f67c2b5cd3b6d9596a","session_id":"619be3198de857856e68ad89","condition":"full-information","relevant_dimensions":["wings","legs"],"bee_group":{"antennae":"X","wings":"2","pattern":"X","legs":"M"},"action":"harvest","summary":"good-harvest","bonus":1.7000000000000013},{"rt":3690.2999999970198,"stimulus":"\n                    <p><b>Action: <em>harvest</em></b></p>\n                    <p>This is the bee that you just saw.</p>\n                    <img src=\"bees-with-color/bee-A2SF.svg\" width=\"200\">\n                    <p><span class=\"greenText\"><b>Successful harvest!</b></span><br>Your pay has increased by $0.02. Your bonus pay is now $0.56.</p>\n            ","response":0,"trial_type":"html-button-response","trial_index":14,"time_elapsed":352387,"internal_node_id":"0.0-4.0-1.1","subject_id":"60fc39cce64c39328a7c8904","study_id":"6197b3f67c2b5cd3b6d9596a","session_id":"619be3198de857856e68ad89","condition":"full-information","relevant_dimensions":["wings","legs"],"bee_group":{"antennae":"X","wings":"2","pattern":"X","legs":"M"},"bonus":1.7000000000000013},{"rt":5047.79999999702,"stimulus":"bees-with-color/bee-B1DF.svg","response":1,"trial_type":"image-button-response","trial_index":15,"time_elapsed":357436,"internal_node_id":"0.0-4.0-0.2","subject_id":"60fc39cce64c39328a7c8904","study_id":"6197b3f67c2b5cd3b6d9596a","session_id":"619be3198de857856e68ad89","condition":"full-information","relevant_dimensions":["wings","legs"],"bee_group":{"antennae":"X","wings":"2","pattern":"X","legs":"M"},"action":"avoid","summary":"bad-avoid","bonus":1.7000000000000013},{"rt":5183.199999988079,"stimulus":"\n                    <p><b>Action: <em>avoid</em></b></p>\n                    <p>This is the bee that you just saw.</p>\n                    <img src=\"bees-with-color/bee-B1DF.svg\" width=\"200\">\n                    <p><span class=\"redText\">Bad choice,</span> the bee was friendly.<br>Your bonus pay is unchanged, and remains at $0.56.</p>\n            ","response":0,"trial_type":"html-button-response","trial_index":16,"time_elapsed":362620,"internal_node_id":"0.0-4.0-1.2","subject_id":"60fc39cce64c39328a7c8904","study_id":"6197b3f67c2b5cd3b6d9596a","session_id":"619be3198de857856e68ad89","condition":"full-information","relevant_dimensions":["wings","legs"],"bee_group":{"antennae":"X","wings":"2","pattern":"X","legs":"M"},"bonus":1.7000000000000013},{"rt":1738.0999999940395,"stimulus":"bees-with-color/bee-A1SF.svg","response":0,"trial_type":"image-button-response","trial_index":17,"time_elapsed":364359,"internal_node_id":"0.0-4.0-0.3","subject_id":"60fc39cce64c39328a7c8904","study_id":"6197b3f67c2b5cd3b6d9596a","session_id":"619be3198de857856e68ad89","condition":"full-information","relevant_dimensions":["wings","legs"],"bee_group":{"antennae":"X","wings":"2","pattern":"X","legs":"M"},"action":"harvest","summary":"good-harvest","bonus":1.7000000000000013},{"rt":3688.2000000029802,"stimulus":"\n                    <p><b>Action: <em>harvest</em></b></p>\n                    <p>This is the bee that you just saw.</p>\n                    <img src=\"bees-with-color/bee-A1SF.svg\" width=\"200\">\n                    <p><span class=\"greenText\"><b>Successful harvest!</b></span><br>Your pay has increased by $0.02. Your bonus pay is now $0.58.</p>\n            ","response":0,"trial_type":"html-button-response","trial_index":18,"time_elapsed":368049,"internal_node_id":"0.0-4.0-1.3","subject_id":"60fc39cce64c39328a7c8904","study_id":"6197b3f67c2b5cd3b6d9596a","session_id":"619be3198de857856e68ad89","condition":"full-information","relevant_dimensions":["wings","legs"],"bee_group":{"antennae":"X","wings":"2","pattern":"X","legs":"M"},"bonus":1.7000000000000013},{"rt":1949,"stimulus":"bees-with-color/bee-A1DM.svg","response":1,"trial_type":"image-button-response","trial_index":19,"time_elapsed":369998,"internal_node_id":"0.0-4.0-0.4","subject_id":"60fc39cce64c39328a7c8904","study_id":"6197b3f67c2b5cd3b6d9596a","session_id":"619be3198de857856e68ad89","condition":"full-information","relevant_dimensions":["wings","legs"],"bee_group":{"antennae":"X","wings":"2","pattern":"X","legs":"M"},"action":"avoid","summary":"bad-avoid","bonus":1.7000000000000013},{"rt":3585.9000000059605,"stimulus":"\n                    <p><b>Action: <em>avoid</em></b></p>\n                    <p>This is the bee that you just saw.</p>\n                    <img src=\"bees-with-color/bee-A1DM.svg\" width=\"200\">\n                    <p><span class=\"redText\">Bad choice,</span> the bee was friendly.<br>Your bonus pay is unchanged, and remains at $0.58.</p>\n            ","response":0,"trial_type":"html-button-response","trial_index":20,"time_elapsed":373585,"internal_node_id":"0.0-4.0-1.4","subject_id":"60fc39cce64c39328a7c8904","study_id":"6197b3f67c2b5cd3b6d9596a","session_id":"619be3198de857856e68ad89","condition":"full-information","relevant_dimensions":["wings","legs"],"bee_group":{"antennae":"X","wings":"2","pattern":"X","legs":"M"},"bonus":1.7000000000000013},{"rt":17219,"stimulus":"bees-with-color/bee-A1DF.svg","response":1,"trial_type":"image-button-response","trial_index":21,"time_elapsed":390805,"internal_node_id":"0.0-4.0-0.5","subject_id":"60fc39cce64c39328a7c8904","study_id":"6197b3f67c2b5cd3b6d9596a","session_id":"619be3198de857856e68ad89","condition":"full-information","relevant_dimensions":["wings","legs"],"bee_group":{"antennae":"X","wings":"2","pattern":"X","legs":"M"},"action":"avoid","summary":"bad-avoid","bonus":1.7000000000000013},{"rt":3173.2000000029802,"stimulus":"\n                    <p><b>Action: <em>avoid</em></b></p>\n                    <p>This is the bee that you just saw.</p>\n                    <img src=\"bees-with-color/bee-A1DF.svg\" width=\"200\">\n                    <p><span class=\"redText\">Bad choice,</span> the bee was friendly.<br>Your bonus pay is unchanged, and remains at $0.58.</p>\n            ","response":0,"trial_type":"html-button-response","trial_index":22,"time_elapsed":393979,"internal_node_id":"0.0-4.0-1.5","subject_id":"60fc39cce64c39328a7c8904","study_id":"6197b3f67c2b5cd3b6d9596a","session_id":"619be3198de857856e68ad89","condition":"full-information","relevant_dimensions":["wings","legs"],"bee_group":{"antennae":"X","wings":"2","pattern":"X","legs":"M"},"bonus":1.7000000000000013},{"rt":7844.9000000059605,"stimulus":"bees-with-color/bee-A1SM.svg","response":0,"trial_type":"image-button-response","trial_index":23,"time_elapsed":401825,"internal_node_id":"0.0-4.0-0.6","subject_id":"60fc39cce64c39328a7c8904","study_id":"6197b3f67c2b5cd3b6d9596a","session_id":"619be3198de857856e68ad89","condition":"full-information","relevant_dimensions":["wings","legs"],"bee_group":{"antennae":"X","wings":"2","pattern":"X","legs":"M"},"action":"harvest","summary":"good-harvest","bonus":1.7000000000000013},{"rt":5633.20000000298,"stimulus":"\n                    <p><b>Action: <em>harvest</em></b></p>\n                    <p>This is the bee that you just saw.</p>\n                    <img src=\"bees-with-color/bee-A1SM.svg\" width=\"200\">\n                    <p><span class=\"greenText\"><b>Successful harvest!</b></span><br>Your pay has increased by $0.02. Your bonus pay is now $0.60.</p>\n            ","response":0,"trial_type":"html-button-response","trial_index":24,"time_elapsed":407459,"internal_node_id":"0.0-4.0-1.6","subject_id":"60fc39cce64c39328a7c8904","study_id":"6197b3f67c2b5cd3b6d9596a","session_id":"619be3198de857856e68ad89","condition":"full-information","relevant_dimensions":["wings","legs"],"bee_group":{"antennae":"X","wings":"2","pattern":"X","legs":"M"},"bonus":1.7000000000000013},{"rt":1728.199999988079,"stimulus":"bees-with-color/bee-A2SM.svg","response":1,"trial_type":"image-button-response","trial_index":25,"time_elapsed":409188,"internal_node_id":"0.0-4.0-0.7","subject_id":"60fc39cce64c39328a7c8904","study_id":"6197b3f67c2b5cd3b6d9596a","session_id":"619be3198de857856e68ad89","condition":"full-information","relevant_dimensions":["wings","legs"],"bee_group":{"antennae":"X","wings":"2","pattern":"X","legs":"M"},"action":"avoid","summary":"good-avoid","bonus":1.7000000000000013},{"rt":5455.0999999940395,"stimulus":"\n                    <p><b>Action: <em>avoid</em></b></p>\n                    <p>This is the bee that you just saw.</p>\n                    <img src=\"bees-with-color/bee-A2SM.svg\" width=\"200\">\n                    <p><span class=\"greenText\">Good choice!</span>  This bee would have stung you.<br>Your bonus pay is unchanged, and remains at $0.60.</p>\n            ","response":0,"trial_type":"html-button-response","trial_index":26,"time_elapsed":414644,"internal_node_id":"0.0-4.0-1.7","subject_id":"60fc39cce64c39328a7c8904","study_id":"6197b3f67c2b5cd3b6d9596a","session_id":"619be3198de857856e68ad89","condition":"full-information","relevant_dimensions":["wings","legs"],"bee_group":{"antennae":"X","wings":"2","pattern":"X","legs":"M"},"bonus":1.7000000000000013},{"rt":6016.70000000298,"stimulus":"bees-with-color/bee-B2SM.svg","response":0,"trial_type":"image-button-response","trial_index":27,"time_elapsed":420662,"internal_node_id":"0.0-4.0-0.8","subject_id":"60fc39cce64c39328a7c8904","study_id":"6197b3f67c2b5cd3b6d9596a","session_id":"619be3198de857856e68ad89","condition":"full-information","relevant_dimensions":["wings","legs"],"bee_group":{"antennae":"X","wings":"2","pattern":"X","legs":"M"},"action":"harvest","summary":"bad-harvest","bonus":1.7000000000000013},{"rt":4451.20000000298,"stimulus":"\n                    <p><b>Action: <em>harvest</em></b></p>\n                    <p>This is the bee that you just saw.</p>\n                    <img src=\"bees-with-color/bee-B2SM.svg\" width=\"200\">\n                    <p><span class=\"redText\">Bad choice, the bee was angry.</span><br><b>You have been stung!</b><br>Your pay has been decreased by $0.10. Your bonus pay is now $0.50.</p>\n            ","response":0,"trial_type":"html-button-response","trial_index":28,"time_elapsed":425114,"internal_node_id":"0.0-4.0-1.8","subject_id":"60fc39cce64c39328a7c8904","study_id":"6197b3f67c2b5cd3b6d9596a","session_id":"619be3198de857856e68ad89","condition":"full-information","relevant_dimensions":["wings","legs"],"bee_group":{"antennae":"X","wings":"2","pattern":"X","legs":"M"},"bonus":1.7000000000000013},{"rt":1534.0999999940395,"stimulus":"bees-with-color/bee-B2SF.svg","response":0,"trial_type":"image-button-response","trial_index":29,"time_elapsed":426649,"internal_node_id":"0.0-4.0-0.9","subject_id":"60fc39cce64c39328a7c8904","study_id":"6197b3f67c2b5cd3b6d9596a","session_id":"619be3198de857856e68ad89","condition":"full-information","relevant_dimensions":["wings","legs"],"bee_group":{"antennae":"X","wings":"2","pattern":"X","legs":"M"},"action":"harvest","summary":"good-harvest","bonus":1.7000000000000013},{"rt":850.2000000029802,"stimulus":"\n                    <p><b>Action: <em>harvest</em></b></p>\n                    <p>This is the bee that you just saw.</p>\n                    <img src=\"bees-with-color/bee-B2SF.svg\" width=\"200\">\n                    <p><span class=\"greenText\"><b>Successful harvest!</b></span><br>Your pay has increased by $0.02. Your bonus pay is now $0.52.</p>\n            ","response":0,"trial_type":"html-button-response","trial_index":30,"time_elapsed":427500,"internal_node_id":"0.0-4.0-1.9","subject_id":"60fc39cce64c39328a7c8904","study_id":"6197b3f67c2b5cd3b6d9596a","session_id":"619be3198de857856e68ad89","condition":"full-information","relevant_dimensions":["wings","legs"],"bee_group":{"antennae":"X","wings":"2","pattern":"X","legs":"M"},"bonus":1.7000000000000013},{"rt":2856.2999999970198,"stimulus":"bees-with-color/bee-A2DF.svg","response":1,"trial_type":"image-button-response","trial_index":31,"time_elapsed":430357,"internal_node_id":"0.0-4.0-0.10","subject_id":"60fc39cce64c39328a7c8904","study_id":"6197b3f67c2b5cd3b6d9596a","session_id":"619be3198de857856e68ad89","condition":"full-information","relevant_dimensions":["wings","legs"],"bee_group":{"antennae":"X","wings":"2","pattern":"X","legs":"M"},"action":"avoid","summary":"bad-avoid","bonus":1.7000000000000013},{"rt":840.9000000059605,"stimulus":"\n                    <p><b>Action: <em>avoid</em></b></p>\n                    <p>This is the bee that you just saw.</p>\n                    <img src=\"bees-with-color/bee-A2DF.svg\" width=\"200\">\n                    <p><span class=\"redText\">Bad choice,</span> the bee was friendly.<br>Your bonus pay is unchanged, and remains at $0.52.</p>\n            ","response":0,"trial_type":"html-button-response","trial_index":32,"time_elapsed":431199,"internal_node_id":"0.0-4.0-1.10","subject_id":"60fc39cce64c39328a7c8904","study_id":"6197b3f67c2b5cd3b6d9596a","session_id":"619be3198de857856e68ad89","condition":"full-information","relevant_dimensions":["wings","legs"],"bee_group":{"antennae":"X","wings":"2","pattern":"X","legs":"M"},"bonus":1.7000000000000013},{"rt":1629.2000000029802,"stimulus":"bees-with-color/bee-B1SF.svg","response":0,"trial_type":"image-button-response","trial_index":33,"time_elapsed":432829,"internal_node_id":"0.0-4.0-0.11","subject_id":"60fc39cce64c39328a7c8904","study_id":"6197b3f67c2b5cd3b6d9596a","session_id":"619be3198de857856e68ad89","condition":"full-information","relevant_dimensions":["wings","legs"],"bee_group":{"antennae":"X","wings":"2","pattern":"X","legs":"M"},"action":"harvest","summary":"good-harvest","bonus":1.7000000000000013},{"rt":1032.4000000059605,"stimulus":"\n                    <p><b>Action: <em>harvest</em></b></p>\n                    <p>This is the bee that you just saw.</p>\n                    <img src=\"bees-with-color/bee-B1SF.svg\" width=\"200\">\n                    <p><span class=\"greenText\"><b>Successful harvest!</b></span><br>Your pay has increased by $0.02. Your bonus pay is now $0.54.</p>\n            ","response":0,"trial_type":"html-button-response","trial_index":34,"time_elapsed":433862,"internal_node_id":"0.0-4.0-1.11","subject_id":"60fc39cce64c39328a7c8904","study_id":"6197b3f67c2b5cd3b6d9596a","session_id":"619be3198de857856e68ad89","condition":"full-information","relevant_dimensions":["wings","legs"],"bee_group":{"antennae":"X","wings":"2","pattern":"X","legs":"M"},"bonus":1.7000000000000013},{"rt":1899.2000000029802,"stimulus":"bees-with-color/bee-B1SM.svg","response":0,"trial_type":"image-button-response","trial_index":35,"time_elapsed":435762,"internal_node_id":"0.0-4.0-0.12","subject_id":"60fc39cce64c39328a7c8904","study_id":"6197b3f67c2b5cd3b6d9596a","session_id":"619be3198de857856e68ad89","condition":"full-information","relevant_dimensions":["wings","legs"],"bee_group":{"antennae":"X","wings":"2","pattern":"X","legs":"M"},"action":"harvest","summary":"good-harvest","bonus":1.7000000000000013},{"rt":847.3000000119209,"stimulus":"\n                    <p><b>Action: <em>harvest</em></b></p>\n                    <p>This is the bee that you just saw.</p>\n                    <img src=\"bees-with-color/bee-B1SM.svg\" width=\"200\">\n                    <p><span class=\"greenText\"><b>Successful harvest!</b></span><br>Your pay has increased by $0.02. Your bonus pay is now $0.56.</p>\n            ","response":0,"trial_type":"html-button-response","trial_index":36,"time_elapsed":436610,"internal_node_id":"0.0-4.0-1.12","subject_id":"60fc39cce64c39328a7c8904","study_id":"6197b3f67c2b5cd3b6d9596a","session_id":"619be3198de857856e68ad89","condition":"full-information","relevant_dimensions":["wings","legs"],"bee_group":{"antennae":"X","wings":"2","pattern":"X","legs":"M"},"bonus":1.7000000000000013},{"rt":1609.5,"stimulus":"bees-with-color/bee-B1DM.svg","response":0,"trial_type":"image-button-response","trial_index":37,"time_elapsed":438220,"internal_node_id":"0.0-4.0-0.13","subject_id":"60fc39cce64c39328a7c8904","study_id":"6197b3f67c2b5cd3b6d9596a","session_id":"619be3198de857856e68ad89","condition":"full-information","relevant_dimensions":["wings","legs"],"bee_group":{"antennae":"X","wings":"2","pattern":"X","legs":"M"},"action":"harvest","summary":"good-harvest","bonus":1.7000000000000013},{"rt":674.2999999970198,"stimulus":"\n                    <p><b>Action: <em>harvest</em></b></p>\n                    <p>This is the bee that you just saw.</p>\n                    <img src=\"bees-with-color/bee-B1DM.svg\" width=\"200\">\n                    <p><span class=\"greenText\"><b>Successful harvest!</b></span><br>Your pay has increased by $0.02. Your bonus pay is now $0.58.</p>\n            ","response":0,"trial_type":"html-button-response","trial_index":38,"time_elapsed":438895,"internal_node_id":"0.0-4.0-1.13","subject_id":"60fc39cce64c39328a7c8904","study_id":"6197b3f67c2b5cd3b6d9596a","session_id":"619be3198de857856e68ad89","condition":"full-information","relevant_dimensions":["wings","legs"],"bee_group":{"antennae":"X","wings":"2","pattern":"X","legs":"M"},"bonus":1.7000000000000013},{"rt":1799.4000000059605,"stimulus":"bees-with-color/bee-B2DF.svg","response":0,"trial_type":"image-button-response","trial_index":39,"time_elapsed":440695,"internal_node_id":"0.0-4.0-0.14","subject_id":"60fc39cce64c39328a7c8904","study_id":"6197b3f67c2b5cd3b6d9596a","session_id":"619be3198de857856e68ad89","condition":"full-information","relevant_dimensions":["wings","legs"],"bee_group":{"antennae":"X","wings":"2","pattern":"X","legs":"M"},"action":"harvest","summary":"good-harvest","bonus":1.7000000000000013},{"rt":675.1000000089407,"stimulus":"\n                    <p><b>Action: <em>harvest</em></b></p>\n                    <p>This is the bee that you just saw.</p>\n                    <img src=\"bees-with-color/bee-B2DF.svg\" width=\"200\">\n                    <p><span class=\"greenText\"><b>Successful harvest!</b></span><br>Your pay has increased by $0.02. Your bonus pay is now $0.60.</p>\n            ","response":0,"trial_type":"html-button-response","trial_index":40,"time_elapsed":441371,"internal_node_id":"0.0-4.0-1.14","subject_id":"60fc39cce64c39328a7c8904","study_id":"6197b3f67c2b5cd3b6d9596a","session_id":"619be3198de857856e68ad89","condition":"full-information","relevant_dimensions":["wings","legs"],"bee_group":{"antennae":"X","wings":"2","pattern":"X","legs":"M"},"bonus":1.7000000000000013},{"rt":1643.2999999970198,"stimulus":"bees-with-color/bee-B2DM.svg","response":1,"trial_type":"image-button-response","trial_index":41,"time_elapsed":443015,"internal_node_id":"0.0-4.0-0.15","subject_id":"60fc39cce64c39328a7c8904","study_id":"6197b3f67c2b5cd3b6d9596a","session_id":"619be3198de857856e68ad89","condition":"full-information","relevant_dimensions":["wings","legs"],"bee_group":{"antennae":"X","wings":"2","pattern":"X","legs":"M"},"action":"avoid","summary":"good-avoid","bonus":1.7000000000000013},{"rt":910.2000000029802,"stimulus":"\n                    <p><b>Action: <em>avoid</em></b></p>\n                    <p>This is the bee that you just saw.</p>\n                    <img src=\"bees-with-color/bee-B2DM.svg\" width=\"200\">\n                    <p><span class=\"greenText\">Good choice!</span>  This bee would have stung you.<br>Your bonus pay is unchanged, and remains at $0.60.</p>\n            ","response":0,"trial_type":"html-button-response","trial_index":42,"time_elapsed":443926,"internal_node_id":"0.0-4.0-1.15","subject_id":"60fc39cce64c39328a7c8904","study_id":"6197b3f67c2b5cd3b6d9596a","session_id":"619be3198de857856e68ad89","condition":"full-information","relevant_dimensions":["wings","legs"],"bee_group":{"antennae":"X","wings":"2","pattern":"X","legs":"M"},"bonus":1.7000000000000013},{"rt":1127.5,"stimulus":"bees-with-color/bee-A2DF.svg","response":0,"trial_type":"image-button-response","trial_index":43,"time_elapsed":445054,"internal_node_id":"0.0-4.0-0.16","subject_id":"60fc39cce64c39328a7c8904","study_id":"6197b3f67c2b5cd3b6d9596a","session_id":"619be3198de857856e68ad89","condition":"full-information","relevant_dimensions":["wings","legs"],"bee_group":{"antennae":"X","wings":"2","pattern":"X","legs":"M"},"action":"harvest","summary":"good-harvest","bonus":1.7000000000000013},{"rt":705.2000000029802,"stimulus":"\n                    <p><b>Action: <em>harvest</em></b></p>\n                    <p>This is the bee that you just saw.</p>\n                    <img src=\"bees-with-color/bee-A2DF.svg\" width=\"200\">\n                    <p><span class=\"greenText\"><b>Successful harvest!</b></span><br>Your pay has increased by $0.02. Your bonus pay is now $0.62.</p>\n            ","response":0,"trial_type":"html-button-response","trial_index":44,"time_elapsed":445760,"internal_node_id":"0.0-4.0-1.16","subject_id":"60fc39cce64c39328a7c8904","study_id":"6197b3f67c2b5cd3b6d9596a","session_id":"619be3198de857856e68ad89","condition":"full-information","relevant_dimensions":["wings","legs"],"bee_group":{"antennae":"X","wings":"2","pattern":"X","legs":"M"},"bonus":1.7000000000000013},{"rt":685.2999999970198,"stimulus":"bees-with-color/bee-A1DF.svg","response":0,"trial_type":"image-button-response","trial_index":45,"time_elapsed":446446,"internal_node_id":"0.0-4.0-0.17","subject_id":"60fc39cce64c39328a7c8904","study_id":"6197b3f67c2b5cd3b6d9596a","session_id":"619be3198de857856e68ad89","condition":"full-information","relevant_dimensions":["wings","legs"],"bee_group":{"antennae":"X","wings":"2","pattern":"X","legs":"M"},"action":"harvest","summary":"good-harvest","bonus":1.7000000000000013},{"rt":490.30000001192093,"stimulus":"\n                    <p><b>Action: <em>harvest</em></b></p>\n                    <p>This is the bee that you just saw.</p>\n                    <img src=\"bees-with-color/bee-A1DF.svg\" width=\"200\">\n                    <p><span class=\"greenText\"><b>Successful harvest!</b></span><br>Your pay has increased by $0.02. Your bonus pay is now $0.64.</p>\n            ","response":0,"trial_type":"html-button-response","trial_index":46,"time_elapsed":446937,"internal_node_id":"0.0-4.0-1.17","subject_id":"60fc39cce64c39328a7c8904","study_id":"6197b3f67c2b5cd3b6d9596a","session_id":"619be3198de857856e68ad89","condition":"full-information","relevant_dimensions":["wings","legs"],"bee_group":{"antennae":"X","wings":"2","pattern":"X","legs":"M"},"bonus":1.7000000000000013},{"rt":604.2999999970198,"stimulus":"bees-with-color/bee-A1SF.svg","response":0,"trial_type":"image-button-response","trial_index":47,"time_elapsed":447542,"internal_node_id":"0.0-4.0-0.18","subject_id":"60fc39cce64c39328a7c8904","study_id":"6197b3f67c2b5cd3b6d9596a","session_id":"619be3198de857856e68ad89","condition":"full-information","relevant_dimensions":["wings","legs"],"bee_group":{"antennae":"X","wings":"2","pattern":"X","legs":"M"},"action":"harvest","summary":"good-harvest","bonus":1.7000000000000013},{"rt":445.40000000596046,"stimulus":"\n                    <p><b>Action: <em>harvest</em></b></p>\n                    <p>This is the bee that you just saw.</p>\n                    <img src=\"bees-with-color/bee-A1SF.svg\" width=\"200\">\n                    <p><span class=\"greenText\"><b>Successful harvest!</b></span><br>Your pay has increased by $0.02. Your bonus pay is now $0.66.</p>\n            ","response":0,"trial_type":"html-button-response","trial_index":48,"time_elapsed":447988,"internal_node_id":"0.0-4.0-1.18","subject_id":"60fc39cce64c39328a7c8904","study_id":"6197b3f67c2b5cd3b6d9596a","session_id":"619be3198de857856e68ad89","condition":"full-information","relevant_dimensions":["wings","legs"],"bee_group":{"antennae":"X","wings":"2","pattern":"X","legs":"M"},"bonus":1.7000000000000013},{"rt":1029.5,"stimulus":"bees-with-color/bee-A2SM.svg","response":1,"trial_type":"image-button-response","trial_index":49,"time_elapsed":449018,"internal_node_id":"0.0-4.0-0.19","subject_id":"60fc39cce64c39328a7c8904","study_id":"6197b3f67c2b5cd3b6d9596a","session_id":"619be3198de857856e68ad89","condition":"full-information","relevant_dimensions":["wings","legs"],"bee_group":{"antennae":"X","wings":"2","pattern":"X","legs":"M"},"action":"avoid","summary":"good-avoid","bonus":1.7000000000000013},{"rt":505.5,"stimulus":"\n                    <p><b>Action: <em>avoid</em></b></p>\n                    <p>This is the bee that you just saw.</p>\n                    <img src=\"bees-with-color/bee-A2SM.svg\" width=\"200\">\n                    <p><span class=\"greenText\">Good choice!</span>  This bee would have stung you.<br>Your bonus pay is unchanged, and remains at $0.66.</p>\n            ","response":0,"trial_type":"html-button-response","trial_index":50,"time_elapsed":449524,"internal_node_id":"0.0-4.0-1.19","subject_id":"60fc39cce64c39328a7c8904","study_id":"6197b3f67c2b5cd3b6d9596a","session_id":"619be3198de857856e68ad89","condition":"full-information","relevant_dimensions":["wings","legs"],"bee_group":{"antennae":"X","wings":"2","pattern":"X","legs":"M"},"bonus":1.7000000000000013},{"rt":794.5,"stimulus":"bees-with-color/bee-B1DM.svg","response":0,"trial_type":"image-button-response","trial_index":51,"time_elapsed":450320,"internal_node_id":"0.0-4.0-0.20","subject_id":"60fc39cce64c39328a7c8904","study_id":"6197b3f67c2b5cd3b6d9596a","session_id":"619be3198de857856e68ad89","condition":"full-information","relevant_dimensions":["wings","legs"],"bee_group":{"antennae":"X","wings":"2","pattern":"X","legs":"M"},"action":"harvest","summary":"good-harvest","bonus":1.7000000000000013},{"rt":659,"stimulus":"\n                    <p><b>Action: <em>harvest</em></b></p>\n                    <p>This is the bee that you just saw.</p>\n                    <img src=\"bees-with-color/bee-B1DM.svg\" width=\"200\">\n                    <p><span class=\"greenText\"><b>Successful harvest!</b></span><br>Your pay has increased by $0.02. Your bonus pay is now $0.68.</p>\n            ","response":0,"trial_type":"html-button-response","trial_index":52,"time_elapsed":450979,"internal_node_id":"0.0-4.0-1.20","subject_id":"60fc39cce64c39328a7c8904","study_id":"6197b3f67c2b5cd3b6d9596a","session_id":"619be3198de857856e68ad89","condition":"full-information","relevant_dimensions":["wings","legs"],"bee_group":{"antennae":"X","wings":"2","pattern":"X","legs":"M"},"bonus":1.7000000000000013},{"rt":1464.4000000059605,"stimulus":"bees-with-color/bee-A1SM.svg","response":0,"trial_type":"image-button-response","trial_index":53,"time_elapsed":452444,"internal_node_id":"0.0-4.0-0.21","subject_id":"60fc39cce64c39328a7c8904","study_id":"6197b3f67c2b5cd3b6d9596a","session_id":"619be3198de857856e68ad89","condition":"full-information","relevant_dimensions":["wings","legs"],"bee_group":{"antennae":"X","wings":"2","pattern":"X","legs":"M"},"action":"harvest","summary":"good-harvest","bonus":1.7000000000000013},{"rt":595.2000000029802,"stimulus":"\n                    <p><b>Action: <em>harvest</em></b></p>\n                    <p>This is the bee that you just saw.</p>\n                    <img src=\"bees-with-color/bee-A1SM.svg\" width=\"200\">\n                    <p><span class=\"greenText\"><b>Successful harvest!</b></span><br>Your pay has increased by $0.02. Your bonus pay is now $0.70.</p>\n            ","response":0,"trial_type":"html-button-response","trial_index":54,"time_elapsed":453040,"internal_node_id":"0.0-4.0-1.21","subject_id":"60fc39cce64c39328a7c8904","study_id":"6197b3f67c2b5cd3b6d9596a","session_id":"619be3198de857856e68ad89","condition":"full-information","relevant_dimensions":["wings","legs"],"bee_group":{"antennae":"X","wings":"2","pattern":"X","legs":"M"},"bonus":1.7000000000000013},{"rt":745.5999999940395,"stimulus":"bees-with-color/bee-B2DF.svg","response":0,"trial_type":"image-button-response","trial_index":55,"time_elapsed":453786,"internal_node_id":"0.0-4.0-0.22","subject_id":"60fc39cce64c39328a7c8904","study_id":"6197b3f67c2b5cd3b6d9596a","session_id":"619be3198de857856e68ad89","condition":"full-information","relevant_dimensions":["wings","legs"],"bee_group":{"antennae":"X","wings":"2","pattern":"X","legs":"M"},"action":"harvest","summary":"good-harvest","bonus":1.7000000000000013},{"rt":522.2999999970198,"stimulus":"\n                    <p><b>Action: <em>harvest</em></b></p>\n                    <p>This is the bee that you just saw.</p>\n                    <img src=\"bees-with-color/bee-B2DF.svg\" width=\"200\">\n                    <p><span class=\"greenText\"><b>Successful harvest!</b></span><br>Your pay has increased by $0.02. Your bonus pay is now $0.72.</p>\n            ","response":0,"trial_type":"html-button-response","trial_index":56,"time_elapsed":454309,"internal_node_id":"0.0-4.0-1.22","subject_id":"60fc39cce64c39328a7c8904","study_id":"6197b3f67c2b5cd3b6d9596a","session_id":"619be3198de857856e68ad89","condition":"full-information","relevant_dimensions":["wings","legs"],"bee_group":{"antennae":"X","wings":"2","pattern":"X","legs":"M"},"bonus":1.7000000000000013},{"rt":861.2000000029802,"stimulus":"bees-with-color/bee-B2SM.svg","response":1,"trial_type":"image-button-response","trial_index":57,"time_elapsed":455171,"internal_node_id":"0.0-4.0-0.23","subject_id":"60fc39cce64c39328a7c8904","study_id":"6197b3f67c2b5cd3b6d9596a","session_id":"619be3198de857856e68ad89","condition":"full-information","relevant_dimensions":["wings","legs"],"bee_group":{"antennae":"X","wings":"2","pattern":"X","legs":"M"},"action":"avoid","summary":"good-avoid","bonus":1.7000000000000013},{"rt":515.4000000059605,"stimulus":"\n                    <p><b>Action: <em>avoid</em></b></p>\n                    <p>This is the bee that you just saw.</p>\n                    <img src=\"bees-with-color/bee-B2SM.svg\" width=\"200\">\n                    <p><span class=\"greenText\">Good choice!</span>  This bee would have stung you.<br>Your bonus pay is unchanged, and remains at $0.72.</p>\n            ","response":0,"trial_type":"html-button-response","trial_index":58,"time_elapsed":455687,"internal_node_id":"0.0-4.0-1.23","subject_id":"60fc39cce64c39328a7c8904","study_id":"6197b3f67c2b5cd3b6d9596a","session_id":"619be3198de857856e68ad89","condition":"full-information","relevant_dimensions":["wings","legs"],"bee_group":{"antennae":"X","wings":"2","pattern":"X","legs":"M"},"bonus":1.7000000000000013},{"rt":1121.2000000029802,"stimulus":"bees-with-color/bee-B1DF.svg","response":0,"trial_type":"image-button-response","trial_index":59,"time_elapsed":456809,"internal_node_id":"0.0-4.0-0.24","subject_id":"60fc39cce64c39328a7c8904","study_id":"6197b3f67c2b5cd3b6d9596a","session_id":"619be3198de857856e68ad89","condition":"full-information","relevant_dimensions":["wings","legs"],"bee_group":{"antennae":"X","wings":"2","pattern":"X","legs":"M"},"action":"harvest","summary":"good-harvest","bonus":1.7000000000000013},{"rt":645.5,"stimulus":"\n                    <p><b>Action: <em>harvest</em></b></p>\n                    <p>This is the bee that you just saw.</p>\n                    <img src=\"bees-with-color/bee-B1DF.svg\" width=\"200\">\n                    <p><span class=\"greenText\"><b>Successful harvest!</b></span><br>Your pay has increased by $0.02. Your bonus pay is now $0.74.</p>\n            ","response":0,"trial_type":"html-button-response","trial_index":60,"time_elapsed":457455,"internal_node_id":"0.0-4.0-1.24","subject_id":"60fc39cce64c39328a7c8904","study_id":"6197b3f67c2b5cd3b6d9596a","session_id":"619be3198de857856e68ad89","condition":"full-information","relevant_dimensions":["wings","legs"],"bee_group":{"antennae":"X","wings":"2","pattern":"X","legs":"M"},"bonus":1.7000000000000013},{"rt":1229.1000000089407,"stimulus":"bees-with-color/bee-B1SM.svg","response":0,"trial_type":"image-button-response","trial_index":61,"time_elapsed":458685,"internal_node_id":"0.0-4.0-0.25","subject_id":"60fc39cce64c39328a7c8904","study_id":"6197b3f67c2b5cd3b6d9596a","session_id":"619be3198de857856e68ad89","condition":"full-information","relevant_dimensions":["wings","legs"],"bee_group":{"antennae":"X","wings":"2","pattern":"X","legs":"M"},"action":"harvest","summary":"good-harvest","bonus":1.7000000000000013},{"rt":701.4000000059605,"stimulus":"\n                    <p><b>Action: <em>harvest</em></b></p>\n                    <p>This is the bee that you just saw.</p>\n                    <img src=\"bees-with-color/bee-B1SM.svg\" width=\"200\">\n                    <p><span class=\"greenText\"><b>Successful harvest!</b></span><br>Your pay has increased by $0.02. Your bonus pay is now $0.76.</p>\n            ","response":0,"trial_type":"html-button-response","trial_index":62,"time_elapsed":459387,"internal_node_id":"0.0-4.0-1.25","subject_id":"60fc39cce64c39328a7c8904","study_id":"6197b3f67c2b5cd3b6d9596a","session_id":"619be3198de857856e68ad89","condition":"full-information","relevant_dimensions":["wings","legs"],"bee_group":{"antennae":"X","wings":"2","pattern":"X","legs":"M"},"bonus":1.7000000000000013},{"rt":880.5,"stimulus":"bees-with-color/bee-B1SF.svg","response":0,"trial_type":"image-button-response","trial_index":63,"time_elapsed":460268,"internal_node_id":"0.0-4.0-0.26","subject_id":"60fc39cce64c39328a7c8904","study_id":"6197b3f67c2b5cd3b6d9596a","session_id":"619be3198de857856e68ad89","condition":"full-information","relevant_dimensions":["wings","legs"],"bee_group":{"antennae":"X","wings":"2","pattern":"X","legs":"M"},"action":"harvest","summary":"good-harvest","bonus":1.7000000000000013},{"rt":736.9000000059605,"stimulus":"\n                    <p><b>Action: <em>harvest</em></b></p>\n                    <p>This is the bee that you just saw.</p>\n                    <img src=\"bees-with-color/bee-B1SF.svg\" width=\"200\">\n                    <p><span class=\"greenText\"><b>Successful harvest!</b></span><br>Your pay has increased by $0.02. Your bonus pay is now $0.78.</p>\n            ","response":0,"trial_type":"html-button-response","trial_index":64,"time_elapsed":461006,"internal_node_id":"0.0-4.0-1.26","subject_id":"60fc39cce64c39328a7c8904","study_id":"6197b3f67c2b5cd3b6d9596a","session_id":"619be3198de857856e68ad89","condition":"full-information","relevant_dimensions":["wings","legs"],"bee_group":{"antennae":"X","wings":"2","pattern":"X","legs":"M"},"bonus":1.7000000000000013},{"rt":1042.5,"stimulus":"bees-with-color/bee-B2DM.svg","response":1,"trial_type":"image-button-response","trial_index":65,"time_elapsed":462049,"internal_node_id":"0.0-4.0-0.27","subject_id":"60fc39cce64c39328a7c8904","study_id":"6197b3f67c2b5cd3b6d9596a","session_id":"619be3198de857856e68ad89","condition":"full-information","relevant_dimensions":["wings","legs"],"bee_group":{"antennae":"X","wings":"2","pattern":"X","legs":"M"},"action":"avoid","summary":"good-avoid","bonus":1.7000000000000013},{"rt":669.0999999940395,"stimulus":"\n                    <p><b>Action: <em>avoid</em></b></p>\n                    <p>This is the bee that you just saw.</p>\n                    <img src=\"bees-with-color/bee-B2DM.svg\" width=\"200\">\n                    <p><span class=\"greenText\">Good choice!</span>  This bee would have stung you.<br>Your bonus pay is unchanged, and remains at $0.78.</p>\n            ","response":0,"trial_type":"html-button-response","trial_index":66,"time_elapsed":462719,"internal_node_id":"0.0-4.0-1.27","subject_id":"60fc39cce64c39328a7c8904","study_id":"6197b3f67c2b5cd3b6d9596a","session_id":"619be3198de857856e68ad89","condition":"full-information","relevant_dimensions":["wings","legs"],"bee_group":{"antennae":"X","wings":"2","pattern":"X","legs":"M"},"bonus":1.7000000000000013},{"rt":994.3999999910593,"stimulus":"bees-with-color/bee-A2SF.svg","response":0,"trial_type":"image-button-response","trial_index":67,"time_elapsed":463714,"internal_node_id":"0.0-4.0-0.28","subject_id":"60fc39cce64c39328a7c8904","study_id":"6197b3f67c2b5cd3b6d9596a","session_id":"619be3198de857856e68ad89","condition":"full-information","relevant_dimensions":["wings","legs"],"bee_group":{"antennae":"X","wings":"2","pattern":"X","legs":"M"},"action":"harvest","summary":"good-harvest","bonus":1.7000000000000013},{"rt":820.2999999970198,"stimulus":"\n                    <p><b>Action: <em>harvest</em></b></p>\n                    <p>This is the bee that you just saw.</p>\n                    <img src=\"bees-with-color/bee-A2SF.svg\" width=\"200\">\n                    <p><span class=\"greenText\"><b>Successful harvest!</b></span><br>Your pay has increased by $0.02. Your bonus pay is now $0.80.</p>\n            ","response":0,"trial_type":"html-button-response","trial_index":68,"time_elapsed":464535,"internal_node_id":"0.0-4.0-1.28","subject_id":"60fc39cce64c39328a7c8904","study_id":"6197b3f67c2b5cd3b6d9596a","session_id":"619be3198de857856e68ad89","condition":"full-information","relevant_dimensions":["wings","legs"],"bee_group":{"antennae":"X","wings":"2","pattern":"X","legs":"M"},"bonus":1.7000000000000013},{"rt":776.7000000029802,"stimulus":"bees-with-color/bee-B2SF.svg","response":0,"trial_type":"image-button-response","trial_index":69,"time_elapsed":465312,"internal_node_id":"0.0-4.0-0.29","subject_id":"60fc39cce64c39328a7c8904","study_id":"6197b3f67c2b5cd3b6d9596a","session_id":"619be3198de857856e68ad89","condition":"full-information","relevant_dimensions":["wings","legs"],"bee_group":{"antennae":"X","wings":"2","pattern":"X","legs":"M"},"action":"harvest","summary":"good-harvest","bonus":1.7000000000000013},{"rt":410.8999999910593,"stimulus":"\n                    <p><b>Action: <em>harvest</em></b></p>\n                    <p>This is the bee that you just saw.</p>\n                    <img src=\"bees-with-color/bee-B2SF.svg\" width=\"200\">\n                    <p><span class=\"greenText\"><b>Successful harvest!</b></span><br>Your pay has increased by $0.02. Your bonus pay is now $0.82.</p>\n            ","response":0,"trial_type":"html-button-response","trial_index":70,"time_elapsed":465724,"internal_node_id":"0.0-4.0-1.29","subject_id":"60fc39cce64c39328a7c8904","study_id":"6197b3f67c2b5cd3b6d9596a","session_id":"619be3198de857856e68ad89","condition":"full-information","relevant_dimensions":["wings","legs"],"bee_group":{"antennae":"X","wings":"2","pattern":"X","legs":"M"},"bonus":1.7000000000000013},{"rt":991.4000000059605,"stimulus":"bees-with-color/bee-A2DM.svg","response":1,"trial_type":"image-button-response","trial_index":71,"time_elapsed":466716,"internal_node_id":"0.0-4.0-0.30","subject_id":"60fc39cce64c39328a7c8904","study_id":"6197b3f67c2b5cd3b6d9596a","session_id":"619be3198de857856e68ad89","condition":"full-information","relevant_dimensions":["wings","legs"],"bee_group":{"antennae":"X","wings":"2","pattern":"X","legs":"M"},"action":"avoid","summary":"good-avoid","bonus":1.7000000000000013},{"rt":476.20000000298023,"stimulus":"\n                    <p><b>Action: <em>avoid</em></b></p>\n                    <p>This is the bee that you just saw.</p>\n                    <img src=\"bees-with-color/bee-A2DM.svg\" width=\"200\">\n                    <p><span class=\"greenText\">Good choice!</span>  This bee would have stung you.<br>Your bonus pay is unchanged, and remains at $0.82.</p>\n            ","response":0,"trial_type":"html-button-response","trial_index":72,"time_elapsed":467193,"internal_node_id":"0.0-4.0-1.30","subject_id":"60fc39cce64c39328a7c8904","study_id":"6197b3f67c2b5cd3b6d9596a","session_id":"619be3198de857856e68ad89","condition":"full-information","relevant_dimensions":["wings","legs"],"bee_group":{"antennae":"X","wings":"2","pattern":"X","legs":"M"},"bonus":1.7000000000000013},{"rt":1012.0999999940395,"stimulus":"bees-with-color/bee-A1DM.svg","response":0,"trial_type":"image-button-response","trial_index":73,"time_elapsed":468206,"internal_node_id":"0.0-4.0-0.31","subject_id":"60fc39cce64c39328a7c8904","study_id":"6197b3f67c2b5cd3b6d9596a","session_id":"619be3198de857856e68ad89","condition":"full-information","relevant_dimensions":["wings","legs"],"bee_group":{"antennae":"X","wings":"2","pattern":"X","legs":"M"},"action":"harvest","summary":"good-harvest","bonus":1.7000000000000013},{"rt":445.5,"stimulus":"\n                    <p><b>Action: <em>harvest</em></b></p>\n                    <p>This is the bee that you just saw.</p>\n                    <img src=\"bees-with-color/bee-A1DM.svg\" width=\"200\">\n                    <p><span class=\"greenText\"><b>Successful harvest!</b></span><br>Your pay has increased by $0.02. Your bonus pay is now $0.84.</p>\n            ","response":0,"trial_type":"html-button-response","trial_index":74,"time_elapsed":468652,"internal_node_id":"0.0-4.0-1.31","subject_id":"60fc39cce64c39328a7c8904","study_id":"6197b3f67c2b5cd3b6d9596a","session_id":"619be3198de857856e68ad89","condition":"full-information","relevant_dimensions":["wings","legs"],"bee_group":{"antennae":"X","wings":"2","pattern":"X","legs":"M"},"bonus":1.7000000000000013},{"rt":726.2999999970198,"stimulus":"bees-with-color/bee-B1DM.svg","response":0,"trial_type":"image-button-response","trial_index":75,"time_elapsed":469379,"internal_node_id":"0.0-4.0-0.32","subject_id":"60fc39cce64c39328a7c8904","study_id":"6197b3f67c2b5cd3b6d9596a","session_id":"619be3198de857856e68ad89","condition":"full-information","relevant_dimensions":["wings","legs"],"bee_group":{"antennae":"X","wings":"2","pattern":"X","legs":"M"},"action":"harvest","summary":"good-harvest","bonus":1.7000000000000013},{"rt":489.79999999701977,"stimulus":"\n                    <p><b>Action: <em>harvest</em></b></p>\n                    <p>This is the bee that you just saw.</p>\n                    <img src=\"bees-with-color/bee-B1DM.svg\" width=\"200\">\n                    <p><span class=\"greenText\"><b>Successful harvest!</b></span><br>Your pay has increased by $0.02. Your bonus pay is now $0.86.</p>\n            ","response":0,"trial_type":"html-button-response","trial_index":76,"time_elapsed":469870,"internal_node_id":"0.0-4.0-1.32","subject_id":"60fc39cce64c39328a7c8904","study_id":"6197b3f67c2b5cd3b6d9596a","session_id":"619be3198de857856e68ad89","condition":"full-information","relevant_dimensions":["wings","legs"],"bee_group":{"antennae":"X","wings":"2","pattern":"X","legs":"M"},"bonus":1.7000000000000013},{"rt":655.3000000119209,"stimulus":"bees-with-color/bee-B1SM.svg","response":0,"trial_type":"image-button-response","trial_index":77,"time_elapsed":470526,"internal_node_id":"0.0-4.0-0.33","subject_id":"60fc39cce64c39328a7c8904","study_id":"6197b3f67c2b5cd3b6d9596a","session_id":"619be3198de857856e68ad89","condition":"full-information","relevant_dimensions":["wings","legs"],"bee_group":{"antennae":"X","wings":"2","pattern":"X","legs":"M"},"action":"harvest","summary":"good-harvest","bonus":1.7000000000000013},{"rt":389.29999999701977,"stimulus":"\n                    <p><b>Action: <em>harvest</em></b></p>\n                    <p>This is the bee that you just saw.</p>\n                    <img src=\"bees-with-color/bee-B1SM.svg\" width=\"200\">\n                    <p><span class=\"greenText\"><b>Successful harvest!</b></span><br>Your pay has increased by $0.02. Your bonus pay is now $0.88.</p>\n            ","response":0,"trial_type":"html-button-response","trial_index":78,"time_elapsed":470916,"internal_node_id":"0.0-4.0-1.33","subject_id":"60fc39cce64c39328a7c8904","study_id":"6197b3f67c2b5cd3b6d9596a","session_id":"619be3198de857856e68ad89","condition":"full-information","relevant_dimensions":["wings","legs"],"bee_group":{"antennae":"X","wings":"2","pattern":"X","legs":"M"},"bonus":1.7000000000000013},{"rt":933.3000000119209,"stimulus":"bees-with-color/bee-B2DF.svg","response":0,"trial_type":"image-button-response","trial_index":79,"time_elapsed":471850,"internal_node_id":"0.0-4.0-0.34","subject_id":"60fc39cce64c39328a7c8904","study_id":"6197b3f67c2b5cd3b6d9596a","session_id":"619be3198de857856e68ad89","condition":"full-information","relevant_dimensions":["wings","legs"],"bee_group":{"antennae":"X","wings":"2","pattern":"X","legs":"M"},"action":"harvest","summary":"good-harvest","bonus":1.7000000000000013},{"rt":508,"stimulus":"\n                    <p><b>Action: <em>harvest</em></b></p>\n                    <p>This is the bee that you just saw.</p>\n                    <img src=\"bees-with-color/bee-B2DF.svg\" width=\"200\">\n                    <p><span class=\"greenText\"><b>Successful harvest!</b></span><br>Your pay has increased by $0.02. Your bonus pay is now $0.90.</p>\n            ","response":0,"trial_type":"html-button-response","trial_index":80,"time_elapsed":472359,"internal_node_id":"0.0-4.0-1.34","subject_id":"60fc39cce64c39328a7c8904","study_id":"6197b3f67c2b5cd3b6d9596a","session_id":"619be3198de857856e68ad89","condition":"full-information","relevant_dimensions":["wings","legs"],"bee_group":{"antennae":"X","wings":"2","pattern":"X","legs":"M"},"bonus":1.7000000000000013},{"rt":1786.4000000059605,"stimulus":"bees-with-color/bee-B2DM.svg","response":1,"trial_type":"image-button-response","trial_index":81,"time_elapsed":474146,"internal_node_id":"0.0-4.0-0.35","subject_id":"60fc39cce64c39328a7c8904","study_id":"6197b3f67c2b5cd3b6d9596a","session_id":"619be3198de857856e68ad89","condition":"full-information","relevant_dimensions":["wings","legs"],"bee_group":{"antennae":"X","wings":"2","pattern":"X","legs":"M"},"action":"avoid","summary":"good-avoid","bonus":1.7000000000000013},{"rt":522.2000000029802,"stimulus":"\n                    <p><b>Action: <em>avoid</em></b></p>\n                    <p>This is the bee that you just saw.</p>\n                    <img src=\"bees-with-color/bee-B2DM.svg\" width=\"200\">\n                    <p><span class=\"greenText\">Good choice!</span>  This bee would have stung you.<br>Your bonus pay is unchanged, and remains at $0.90.</p>\n            ","response":0,"trial_type":"html-button-response","trial_index":82,"time_elapsed":474669,"internal_node_id":"0.0-4.0-1.35","subject_id":"60fc39cce64c39328a7c8904","study_id":"6197b3f67c2b5cd3b6d9596a","session_id":"619be3198de857856e68ad89","condition":"full-information","relevant_dimensions":["wings","legs"],"bee_group":{"antennae":"X","wings":"2","pattern":"X","legs":"M"},"bonus":1.7000000000000013},{"rt":372.5,"stimulus":"bees-with-color/bee-A2SM.svg","response":0,"trial_type":"image-button-response","trial_index":83,"time_elapsed":475042,"internal_node_id":"0.0-4.0-0.36","subject_id":"60fc39cce64c39328a7c8904","study_id":"6197b3f67c2b5cd3b6d9596a","session_id":"619be3198de857856e68ad89","condition":"full-information","relevant_dimensions":["wings","legs"],"bee_group":{"antennae":"X","wings":"2","pattern":"X","legs":"M"},"action":"harvest","summary":"bad-harvest","bonus":1.7000000000000013},{"rt":1100.300000011921,"stimulus":"\n                    <p><b>Action: <em>harvest</em></b></p>\n                    <p>This is the bee that you just saw.</p>\n                    <img src=\"bees-with-color/bee-A2SM.svg\" width=\"200\">\n                    <p><span class=\"redText\">Bad choice, the bee was angry.</span><br><b>You have been stung!</b><br>Your pay has been decreased by $0.10. Your bonus pay is now $0.80.</p>\n            ","response":0,"trial_type":"html-button-response","trial_index":84,"time_elapsed":476143,"internal_node_id":"0.0-4.0-1.36","subject_id":"60fc39cce64c39328a7c8904","study_id":"6197b3f67c2b5cd3b6d9596a","session_id":"619be3198de857856e68ad89","condition":"full-information","relevant_dimensions":["wings","legs"],"bee_group":{"antennae":"X","wings":"2","pattern":"X","legs":"M"},"bonus":1.7000000000000013},{"rt":1512.4000000059605,"stimulus":"bees-with-color/bee-B2SF.svg","response":0,"trial_type":"image-button-response","trial_index":85,"time_elapsed":477656,"internal_node_id":"0.0-4.0-0.37","subject_id":"60fc39cce64c39328a7c8904","study_id":"6197b3f67c2b5cd3b6d9596a","session_id":"619be3198de857856e68ad89","condition":"full-information","relevant_dimensions":["wings","legs"],"bee_group":{"antennae":"X","wings":"2","pattern":"X","legs":"M"},"action":"harvest","summary":"good-harvest","bonus":1.7000000000000013},{"rt":525.2999999970198,"stimulus":"\n                    <p><b>Action: <em>harvest</em></b></p>\n                    <p>This is the bee that you just saw.</p>\n                    <img src=\"bees-with-color/bee-B2SF.svg\" width=\"200\">\n                    <p><span class=\"greenText\"><b>Successful harvest!</b></span><br>Your pay has increased by $0.02. Your bonus pay is now $0.82.</p>\n            ","response":0,"trial_type":"html-button-response","trial_index":86,"time_elapsed":478182,"internal_node_id":"0.0-4.0-1.37","subject_id":"60fc39cce64c39328a7c8904","study_id":"6197b3f67c2b5cd3b6d9596a","session_id":"619be3198de857856e68ad89","condition":"full-information","relevant_dimensions":["wings","legs"],"bee_group":{"antennae":"X","wings":"2","pattern":"X","legs":"M"},"bonus":1.7000000000000013},{"rt":1190.2999999970198,"stimulus":"bees-with-color/bee-A1DM.svg","response":0,"trial_type":"image-button-response","trial_index":87,"time_elapsed":479373,"internal_node_id":"0.0-4.0-0.38","subject_id":"60fc39cce64c39328a7c8904","study_id":"6197b3f67c2b5cd3b6d9596a","session_id":"619be3198de857856e68ad89","condition":"full-information","relevant_dimensions":["wings","legs"],"bee_group":{"antennae":"X","wings":"2","pattern":"X","legs":"M"},"action":"harvest","summary":"good-harvest","bonus":1.7000000000000013},{"rt":486.40000000596046,"stimulus":"\n                    <p><b>Action: <em>harvest</em></b></p>\n                    <p>This is the bee that you just saw.</p>\n                    <img src=\"bees-with-color/bee-A1DM.svg\" width=\"200\">\n                    <p><span class=\"greenText\"><b>Successful harvest!</b></span><br>Your pay has increased by $0.02. Your bonus pay is now $0.84.</p>\n            ","response":0,"trial_type":"html-button-response","trial_index":88,"time_elapsed":479860,"internal_node_id":"0.0-4.0-1.38","subject_id":"60fc39cce64c39328a7c8904","study_id":"6197b3f67c2b5cd3b6d9596a","session_id":"619be3198de857856e68ad89","condition":"full-information","relevant_dimensions":["wings","legs"],"bee_group":{"antennae":"X","wings":"2","pattern":"X","legs":"M"},"bonus":1.7000000000000013},{"rt":5076.4000000059605,"stimulus":"bees-with-color/bee-A2SF.svg","response":0,"trial_type":"image-button-response","trial_index":89,"time_elapsed":484937,"internal_node_id":"0.0-4.0-0.39","subject_id":"60fc39cce64c39328a7c8904","study_id":"6197b3f67c2b5cd3b6d9596a","session_id":"619be3198de857856e68ad89","condition":"full-information","relevant_dimensions":["wings","legs"],"bee_group":{"antennae":"X","wings":"2","pattern":"X","legs":"M"},"action":"harvest","summary":"good-harvest","bonus":1.7000000000000013},{"rt":571.2000000029802,"stimulus":"\n                    <p><b>Action: <em>harvest</em></b></p>\n                    <p>This is the bee that you just saw.</p>\n                    <img src=\"bees-with-color/bee-A2SF.svg\" width=\"200\">\n                    <p><span class=\"greenText\"><b>Successful harvest!</b></span><br>Your pay has increased by $0.02. Your bonus pay is now $0.86.</p>\n            ","response":0,"trial_type":"html-button-response","trial_index":90,"time_elapsed":485509,"internal_node_id":"0.0-4.0-1.39","subject_id":"60fc39cce64c39328a7c8904","study_id":"6197b3f67c2b5cd3b6d9596a","session_id":"619be3198de857856e68ad89","condition":"full-information","relevant_dimensions":["wings","legs"],"bee_group":{"antennae":"X","wings":"2","pattern":"X","legs":"M"},"bonus":1.7000000000000013},{"rt":1016,"stimulus":"bees-with-color/bee-A1DF.svg","response":0,"trial_type":"image-button-response","trial_index":91,"time_elapsed":486526,"internal_node_id":"0.0-4.0-0.40","subject_id":"60fc39cce64c39328a7c8904","study_id":"6197b3f67c2b5cd3b6d9596a","session_id":"619be3198de857856e68ad89","condition":"full-information","relevant_dimensions":["wings","legs"],"bee_group":{"antennae":"X","wings":"2","pattern":"X","legs":"M"},"action":"harvest","summary":"good-harvest","bonus":1.7000000000000013},{"rt":828.2999999970198,"stimulus":"\n                    <p><b>Action: <em>harvest</em></b></p>\n                    <p>This is the bee that you just saw.</p>\n                    <img src=\"bees-with-color/bee-A1DF.svg\" width=\"200\">\n                    <p><span class=\"greenText\"><b>Successful harvest!</b></span><br>Your pay has increased by $0.02. Your bonus pay is now $0.88.</p>\n            ","response":0,"trial_type":"html-button-response","trial_index":92,"time_elapsed":487355,"internal_node_id":"0.0-4.0-1.40","subject_id":"60fc39cce64c39328a7c8904","study_id":"6197b3f67c2b5cd3b6d9596a","session_id":"619be3198de857856e68ad89","condition":"full-information","relevant_dimensions":["wings","legs"],"bee_group":{"antennae":"X","wings":"2","pattern":"X","legs":"M"},"bonus":1.7000000000000013},{"rt":1125.2000000029802,"stimulus":"bees-with-color/bee-A2DM.svg","response":1,"trial_type":"image-button-response","trial_index":93,"time_elapsed":488481,"internal_node_id":"0.0-4.0-0.41","subject_id":"60fc39cce64c39328a7c8904","study_id":"6197b3f67c2b5cd3b6d9596a","session_id":"619be3198de857856e68ad89","condition":"full-information","relevant_dimensions":["wings","legs"],"bee_group":{"antennae":"X","wings":"2","pattern":"X","legs":"M"},"action":"avoid","summary":"good-avoid","bonus":1.7000000000000013},{"rt":435.3999999910593,"stimulus":"\n                    <p><b>Action: <em>avoid</em></b></p>\n                    <p>This is the bee that you just saw.</p>\n                    <img src=\"bees-with-color/bee-A2DM.svg\" width=\"200\">\n                    <p><span class=\"greenText\">Good choice!</span>  This bee would have stung you.<br>Your bonus pay is unchanged, and remains at $0.88.</p>\n            ","response":0,"trial_type":"html-button-response","trial_index":94,"time_elapsed":488917,"internal_node_id":"0.0-4.0-1.41","subject_id":"60fc39cce64c39328a7c8904","study_id":"6197b3f67c2b5cd3b6d9596a","session_id":"619be3198de857856e68ad89","condition":"full-information","relevant_dimensions":["wings","legs"],"bee_group":{"antennae":"X","wings":"2","pattern":"X","legs":"M"},"bonus":1.7000000000000013},{"rt":1268.3999999910593,"stimulus":"bees-with-color/bee-B1DF.svg","response":0,"trial_type":"image-button-response","trial_index":95,"time_elapsed":490186,"internal_node_id":"0.0-4.0-0.42","subject_id":"60fc39cce64c39328a7c8904","study_id":"6197b3f67c2b5cd3b6d9596a","session_id":"619be3198de857856e68ad89","condition":"full-information","relevant_dimensions":["wings","legs"],"bee_group":{"antennae":"X","wings":"2","pattern":"X","legs":"M"},"action":"harvest","summary":"good-harvest","bonus":1.7000000000000013},{"rt":710.2999999970198,"stimulus":"\n                    <p><b>Action: <em>harvest</em></b></p>\n                    <p>This is the bee that you just saw.</p>\n                    <img src=\"bees-with-color/bee-B1DF.svg\" width=\"200\">\n                    <p><span class=\"greenText\"><b>Successful harvest!</b></span><br>Your pay has increased by $0.02. Your bonus pay is now $0.90.</p>\n            ","response":0,"trial_type":"html-button-response","trial_index":96,"time_elapsed":490897,"internal_node_id":"0.0-4.0-1.42","subject_id":"60fc39cce64c39328a7c8904","study_id":"6197b3f67c2b5cd3b6d9596a","session_id":"619be3198de857856e68ad89","condition":"full-information","relevant_dimensions":["wings","legs"],"bee_group":{"antennae":"X","wings":"2","pattern":"X","legs":"M"},"bonus":1.7000000000000013},{"rt":881.3999999910593,"stimulus":"bees-with-color/bee-A1SF.svg","response":0,"trial_type":"image-button-response","trial_index":97,"time_elapsed":491779,"internal_node_id":"0.0-4.0-0.43","subject_id":"60fc39cce64c39328a7c8904","study_id":"6197b3f67c2b5cd3b6d9596a","session_id":"619be3198de857856e68ad89","condition":"full-information","relevant_dimensions":["wings","legs"],"bee_group":{"antennae":"X","wings":"2","pattern":"X","legs":"M"},"action":"harvest","summary":"good-harvest","bonus":1.7000000000000013},{"rt":496.20000000298023,"stimulus":"\n                    <p><b>Action: <em>harvest</em></b></p>\n                    <p>This is the bee that you just saw.</p>\n                    <img src=\"bees-with-color/bee-A1SF.svg\" width=\"200\">\n                    <p><span class=\"greenText\"><b>Successful harvest!</b></span><br>Your pay has increased by $0.02. Your bonus pay is now $0.92.</p>\n            ","response":0,"trial_type":"html-button-response","trial_index":98,"time_elapsed":492276,"internal_node_id":"0.0-4.0-1.43","subject_id":"60fc39cce64c39328a7c8904","study_id":"6197b3f67c2b5cd3b6d9596a","session_id":"619be3198de857856e68ad89","condition":"full-information","relevant_dimensions":["wings","legs"],"bee_group":{"antennae":"X","wings":"2","pattern":"X","legs":"M"},"bonus":1.7000000000000013},{"rt":915.4000000059605,"stimulus":"bees-with-color/bee-A2DF.svg","response":0,"trial_type":"image-button-response","trial_index":99,"time_elapsed":493192,"internal_node_id":"0.0-4.0-0.44","subject_id":"60fc39cce64c39328a7c8904","study_id":"6197b3f67c2b5cd3b6d9596a","session_id":"619be3198de857856e68ad89","condition":"full-information","relevant_dimensions":["wings","legs"],"bee_group":{"antennae":"X","wings":"2","pattern":"X","legs":"M"},"action":"harvest","summary":"good-harvest","bonus":1.7000000000000013},{"rt":426.09999999403954,"stimulus":"\n                    <p><b>Action: <em>harvest</em></b></p>\n                    <p>This is the bee that you just saw.</p>\n                    <img src=\"bees-with-color/bee-A2DF.svg\" width=\"200\">\n                    <p><span class=\"greenText\"><b>Successful harvest!</b></span><br>Your pay has increased by $0.02. Your bonus pay is now $0.94.</p>\n            ","response":0,"trial_type":"html-button-response","trial_index":100,"time_elapsed":493619,"internal_node_id":"0.0-4.0-1.44","subject_id":"60fc39cce64c39328a7c8904","study_id":"6197b3f67c2b5cd3b6d9596a","session_id":"619be3198de857856e68ad89","condition":"full-information","relevant_dimensions":["wings","legs"],"bee_group":{"antennae":"X","wings":"2","pattern":"X","legs":"M"},"bonus":1.7000000000000013},{"rt":995.4000000059605,"stimulus":"bees-with-color/bee-B2SM.svg","response":1,"trial_type":"image-button-response","trial_index":101,"time_elapsed":494615,"internal_node_id":"0.0-4.0-0.45","subject_id":"60fc39cce64c39328a7c8904","study_id":"6197b3f67c2b5cd3b6d9596a","session_id":"619be3198de857856e68ad89","condition":"full-information","relevant_dimensions":["wings","legs"],"bee_group":{"antennae":"X","wings":"2","pattern":"X","legs":"M"},"action":"avoid","summary":"good-avoid","bonus":1.7000000000000013},{"rt":543.5,"stimulus":"\n                    <p><b>Action: <em>avoid</em></b></p>\n                    <p>This is the bee that you just saw.</p>\n                    <img src=\"bees-with-color/bee-B2SM.svg\" width=\"200\">\n                    <p><span class=\"greenText\">Good choice!</span>  This bee would have stung you.<br>Your bonus pay is unchanged, and remains at $0.94.</p>\n            ","response":0,"trial_type":"html-button-response","trial_index":102,"time_elapsed":495159,"internal_node_id":"0.0-4.0-1.45","subject_id":"60fc39cce64c39328a7c8904","study_id":"6197b3f67c2b5cd3b6d9596a","session_id":"619be3198de857856e68ad89","condition":"full-information","relevant_dimensions":["wings","legs"],"bee_group":{"antennae":"X","wings":"2","pattern":"X","legs":"M"},"bonus":1.7000000000000013},{"rt":949.2999999970198,"stimulus":"bees-with-color/bee-A1SM.svg","response":0,"trial_type":"image-button-response","trial_index":103,"time_elapsed":496109,"internal_node_id":"0.0-4.0-0.46","subject_id":"60fc39cce64c39328a7c8904","study_id":"6197b3f67c2b5cd3b6d9596a","session_id":"619be3198de857856e68ad89","condition":"full-information","relevant_dimensions":["wings","legs"],"bee_group":{"antennae":"X","wings":"2","pattern":"X","legs":"M"},"action":"harvest","summary":"good-harvest","bonus":1.7000000000000013},{"rt":436.20000000298023,"stimulus":"\n                    <p><b>Action: <em>harvest</em></b></p>\n                    <p>This is the bee that you just saw.</p>\n                    <img src=\"bees-with-color/bee-A1SM.svg\" width=\"200\">\n                    <p><span class=\"greenText\"><b>Successful harvest!</b></span><br>Your pay has increased by $0.02. Your bonus pay is now $0.96.</p>\n            ","response":0,"trial_type":"html-button-response","trial_index":104,"time_elapsed":496546,"internal_node_id":"0.0-4.0-1.46","subject_id":"60fc39cce64c39328a7c8904","study_id":"6197b3f67c2b5cd3b6d9596a","session_id":"619be3198de857856e68ad89","condition":"full-information","relevant_dimensions":["wings","legs"],"bee_group":{"antennae":"X","wings":"2","pattern":"X","legs":"M"},"bonus":1.7000000000000013},{"rt":1338.5,"stimulus":"bees-with-color/bee-B1SF.svg","response":0,"trial_type":"image-button-response","trial_index":105,"time_elapsed":497885,"internal_node_id":"0.0-4.0-0.47","subject_id":"60fc39cce64c39328a7c8904","study_id":"6197b3f67c2b5cd3b6d9596a","session_id":"619be3198de857856e68ad89","condition":"full-information","relevant_dimensions":["wings","legs"],"bee_group":{"antennae":"X","wings":"2","pattern":"X","legs":"M"},"action":"harvest","summary":"good-harvest","bonus":1.7000000000000013},{"rt":469.29999999701977,"stimulus":"\n                    <p><b>Action: <em>harvest</em></b></p>\n                    <p>This is the bee that you just saw.</p>\n                    <img src=\"bees-with-color/bee-B1SF.svg\" width=\"200\">\n                    <p><span class=\"greenText\"><b>Successful harvest!</b></span><br>Your pay has increased by $0.02. Your bonus pay is now $0.98.</p>\n            ","response":0,"trial_type":"html-button-response","trial_index":106,"time_elapsed":498355,"internal_node_id":"0.0-4.0-1.47","subject_id":"60fc39cce64c39328a7c8904","study_id":"6197b3f67c2b5cd3b6d9596a","session_id":"619be3198de857856e68ad89","condition":"full-information","relevant_dimensions":["wings","legs"],"bee_group":{"antennae":"X","wings":"2","pattern":"X","legs":"M"},"bonus":1.7000000000000013},{"rt":998,"stimulus":"bees-with-color/bee-A1SM.svg","response":0,"trial_type":"image-button-response","trial_index":107,"time_elapsed":499354,"internal_node_id":"0.0-4.0-0.48","subject_id":"60fc39cce64c39328a7c8904","study_id":"6197b3f67c2b5cd3b6d9596a","session_id":"619be3198de857856e68ad89","condition":"full-information","relevant_dimensions":["wings","legs"],"bee_group":{"antennae":"X","wings":"2","pattern":"X","legs":"M"},"action":"harvest","summary":"good-harvest","bonus":1.7000000000000013},{"rt":456.3999999910593,"stimulus":"\n                    <p><b>Action: <em>harvest</em></b></p>\n                    <p>This is the bee that you just saw.</p>\n                    <img src=\"bees-with-color/bee-A1SM.svg\" width=\"200\">\n                    <p><span class=\"greenText\"><b>Successful harvest!</b></span><br>Your pay has increased by $0.02. Your bonus pay is now $1.00.</p>\n            ","response":0,"trial_type":"html-button-response","trial_index":108,"time_elapsed":499811,"internal_node_id":"0.0-4.0-1.48","subject_id":"60fc39cce64c39328a7c8904","study_id":"6197b3f67c2b5cd3b6d9596a","session_id":"619be3198de857856e68ad89","condition":"full-information","relevant_dimensions":["wings","legs"],"bee_group":{"antennae":"X","wings":"2","pattern":"X","legs":"M"},"bonus":1.7000000000000013},{"rt":922.2999999970198,"stimulus":"bees-with-color/bee-B2SF.svg","response":0,"trial_type":"image-button-response","trial_index":109,"time_elapsed":500734,"internal_node_id":"0.0-4.0-0.49","subject_id":"60fc39cce64c39328a7c8904","study_id":"6197b3f67c2b5cd3b6d9596a","session_id":"619be3198de857856e68ad89","condition":"full-information","relevant_dimensions":["wings","legs"],"bee_group":{"antennae":"X","wings":"2","pattern":"X","legs":"M"},"action":"harvest","summary":"good-harvest","bonus":1.7000000000000013},{"rt":431,"stimulus":"\n                    <p><b>Action: <em>harvest</em></b></p>\n                    <p>This is the bee that you just saw.</p>\n                    <img src=\"bees-with-color/bee-B2SF.svg\" width=\"200\">\n                    <p><span class=\"greenText\"><b>Successful harvest!</b></span><br>Your pay has increased by $0.02. Your bonus pay is now $1.02.</p>\n            ","response":0,"trial_type":"html-button-response","trial_index":110,"time_elapsed":501166,"internal_node_id":"0.0-4.0-1.49","subject_id":"60fc39cce64c39328a7c8904","study_id":"6197b3f67c2b5cd3b6d9596a","session_id":"619be3198de857856e68ad89","condition":"full-information","relevant_dimensions":["wings","legs"],"bee_group":{"antennae":"X","wings":"2","pattern":"X","legs":"M"},"bonus":1.7000000000000013},{"rt":1604.2999999970198,"stimulus":"bees-with-color/bee-B1SM.svg","response":0,"trial_type":"image-button-response","trial_index":111,"time_elapsed":502771,"internal_node_id":"0.0-4.0-0.50","subject_id":"60fc39cce64c39328a7c8904","study_id":"6197b3f67c2b5cd3b6d9596a","session_id":"619be3198de857856e68ad89","condition":"full-information","relevant_dimensions":["wings","legs"],"bee_group":{"antennae":"X","wings":"2","pattern":"X","legs":"M"},"action":"harvest","summary":"good-harvest","bonus":1.7000000000000013},{"rt":480,"stimulus":"\n                    <p><b>Action: <em>harvest</em></b></p>\n                    <p>This is the bee that you just saw.</p>\n                    <img src=\"bees-with-color/bee-B1SM.svg\" width=\"200\">\n                    <p><span class=\"greenText\"><b>Successful harvest!</b></span><br>Your pay has increased by $0.02. Your bonus pay is now $1.04.</p>\n            ","response":0,"trial_type":"html-button-response","trial_index":112,"time_elapsed":503252,"internal_node_id":"0.0-4.0-1.50","subject_id":"60fc39cce64c39328a7c8904","study_id":"6197b3f67c2b5cd3b6d9596a","session_id":"619be3198de857856e68ad89","condition":"full-information","relevant_dimensions":["wings","legs"],"bee_group":{"antennae":"X","wings":"2","pattern":"X","legs":"M"},"bonus":1.7000000000000013},{"rt":1080.5,"stimulus":"bees-with-color/bee-B2SM.svg","response":1,"trial_type":"image-button-response","trial_index":113,"time_elapsed":504333,"internal_node_id":"0.0-4.0-0.51","subject_id":"60fc39cce64c39328a7c8904","study_id":"6197b3f67c2b5cd3b6d9596a","session_id":"619be3198de857856e68ad89","condition":"full-information","relevant_dimensions":["wings","legs"],"bee_group":{"antennae":"X","wings":"2","pattern":"X","legs":"M"},"action":"avoid","summary":"good-avoid","bonus":1.7000000000000013},{"rt":464.29999999701977,"stimulus":"\n                    <p><b>Action: <em>avoid</em></b></p>\n                    <p>This is the bee that you just saw.</p>\n                    <img src=\"bees-with-color/bee-B2SM.svg\" width=\"200\">\n                    <p><span class=\"greenText\">Good choice!</span>  This bee would have stung you.<br>Your bonus pay is unchanged, and remains at $1.04.</p>\n            ","response":0,"trial_type":"html-button-response","trial_index":114,"time_elapsed":504798,"internal_node_id":"0.0-4.0-1.51","subject_id":"60fc39cce64c39328a7c8904","study_id":"6197b3f67c2b5cd3b6d9596a","session_id":"619be3198de857856e68ad89","condition":"full-information","relevant_dimensions":["wings","legs"],"bee_group":{"antennae":"X","wings":"2","pattern":"X","legs":"M"},"bonus":1.7000000000000013},{"rt":930.4000000059605,"stimulus":"bees-with-color/bee-A1SF.svg","response":0,"trial_type":"image-button-response","trial_index":115,"time_elapsed":505729,"internal_node_id":"0.0-4.0-0.52","subject_id":"60fc39cce64c39328a7c8904","study_id":"6197b3f67c2b5cd3b6d9596a","session_id":"619be3198de857856e68ad89","condition":"full-information","relevant_dimensions":["wings","legs"],"bee_group":{"antennae":"X","wings":"2","pattern":"X","legs":"M"},"action":"harvest","summary":"good-harvest","bonus":1.7000000000000013},{"rt":673.2999999970198,"stimulus":"\n                    <p><b>Action: <em>harvest</em></b></p>\n                    <p>This is the bee that you just saw.</p>\n                    <img src=\"bees-with-color/bee-A1SF.svg\" width=\"200\">\n                    <p><span class=\"greenText\"><b>Successful harvest!</b></span><br>Your pay has increased by $0.02. Your bonus pay is now $1.06.</p>\n            ","response":0,"trial_type":"html-button-response","trial_index":116,"time_elapsed":506403,"internal_node_id":"0.0-4.0-1.52","subject_id":"60fc39cce64c39328a7c8904","study_id":"6197b3f67c2b5cd3b6d9596a","session_id":"619be3198de857856e68ad89","condition":"full-information","relevant_dimensions":["wings","legs"],"bee_group":{"antennae":"X","wings":"2","pattern":"X","legs":"M"},"bonus":1.7000000000000013},{"rt":1031.2999999970198,"stimulus":"bees-with-color/bee-B2DF.svg","response":0,"trial_type":"image-button-response","trial_index":117,"time_elapsed":507435,"internal_node_id":"0.0-4.0-0.53","subject_id":"60fc39cce64c39328a7c8904","study_id":"6197b3f67c2b5cd3b6d9596a","session_id":"619be3198de857856e68ad89","condition":"full-information","relevant_dimensions":["wings","legs"],"bee_group":{"antennae":"X","wings":"2","pattern":"X","legs":"M"},"action":"harvest","summary":"good-harvest","bonus":1.7000000000000013},{"rt":488.70000000298023,"stimulus":"\n                    <p><b>Action: <em>harvest</em></b></p>\n                    <p>This is the bee that you just saw.</p>\n                    <img src=\"bees-with-color/bee-B2DF.svg\" width=\"200\">\n                    <p><span class=\"greenText\"><b>Successful harvest!</b></span><br>Your pay has increased by $0.02. Your bonus pay is now $1.08.</p>\n            ","response":0,"trial_type":"html-button-response","trial_index":118,"time_elapsed":507925,"internal_node_id":"0.0-4.0-1.53","subject_id":"60fc39cce64c39328a7c8904","study_id":"6197b3f67c2b5cd3b6d9596a","session_id":"619be3198de857856e68ad89","condition":"full-information","relevant_dimensions":["wings","legs"],"bee_group":{"antennae":"X","wings":"2","pattern":"X","legs":"M"},"bonus":1.7000000000000013},{"rt":1131,"stimulus":"bees-with-color/bee-B2DM.svg","response":1,"trial_type":"image-button-response","trial_index":119,"time_elapsed":509056,"internal_node_id":"0.0-4.0-0.54","subject_id":"60fc39cce64c39328a7c8904","study_id":"6197b3f67c2b5cd3b6d9596a","session_id":"619be3198de857856e68ad89","condition":"full-information","relevant_dimensions":["wings","legs"],"bee_group":{"antennae":"X","wings":"2","pattern":"X","legs":"M"},"action":"avoid","summary":"good-avoid","bonus":1.7000000000000013},{"rt":414.30000001192093,"stimulus":"\n                    <p><b>Action: <em>avoid</em></b></p>\n                    <p>This is the bee that you just saw.</p>\n                    <img src=\"bees-with-color/bee-B2DM.svg\" width=\"200\">\n                    <p><span class=\"greenText\">Good choice!</span>  This bee would have stung you.<br>Your bonus pay is unchanged, and remains at $1.08.</p>\n            ","response":0,"trial_type":"html-button-response","trial_index":120,"time_elapsed":509471,"internal_node_id":"0.0-4.0-1.54","subject_id":"60fc39cce64c39328a7c8904","study_id":"6197b3f67c2b5cd3b6d9596a","session_id":"619be3198de857856e68ad89","condition":"full-information","relevant_dimensions":["wings","legs"],"bee_group":{"antennae":"X","wings":"2","pattern":"X","legs":"M"},"bonus":1.7000000000000013},{"rt":697.2000000029802,"stimulus":"bees-with-color/bee-A1DF.svg","response":0,"trial_type":"image-button-response","trial_index":121,"time_elapsed":510169,"internal_node_id":"0.0-4.0-0.55","subject_id":"60fc39cce64c39328a7c8904","study_id":"6197b3f67c2b5cd3b6d9596a","session_id":"619be3198de857856e68ad89","condition":"full-information","relevant_dimensions":["wings","legs"],"bee_group":{"antennae":"X","wings":"2","pattern":"X","legs":"M"},"action":"harvest","summary":"good-harvest","bonus":1.7000000000000013},{"rt":650.4000000059605,"stimulus":"\n                    <p><b>Action: <em>harvest</em></b></p>\n                    <p>This is the bee that you just saw.</p>\n                    <img src=\"bees-with-color/bee-A1DF.svg\" width=\"200\">\n                    <p><span class=\"greenText\"><b>Successful harvest!</b></span><br>Your pay has increased by $0.02. Your bonus pay is now $1.10.</p>\n            ","response":0,"trial_type":"html-button-response","trial_index":122,"time_elapsed":510820,"internal_node_id":"0.0-4.0-1.55","subject_id":"60fc39cce64c39328a7c8904","study_id":"6197b3f67c2b5cd3b6d9596a","session_id":"619be3198de857856e68ad89","condition":"full-information","relevant_dimensions":["wings","legs"],"bee_group":{"antennae":"X","wings":"2","pattern":"X","legs":"M"},"bonus":1.7000000000000013},{"rt":879.2000000029802,"stimulus":"bees-with-color/bee-A2DF.svg","response":0,"trial_type":"image-button-response","trial_index":123,"time_elapsed":511700,"internal_node_id":"0.0-4.0-0.56","subject_id":"60fc39cce64c39328a7c8904","study_id":"6197b3f67c2b5cd3b6d9596a","session_id":"619be3198de857856e68ad89","condition":"full-information","relevant_dimensions":["wings","legs"],"bee_group":{"antennae":"X","wings":"2","pattern":"X","legs":"M"},"action":"harvest","summary":"good-harvest","bonus":1.7000000000000013},{"rt":435.20000000298023,"stimulus":"\n                    <p><b>Action: <em>harvest</em></b></p>\n                    <p>This is the bee that you just saw.</p>\n                    <img src=\"bees-with-color/bee-A2DF.svg\" width=\"200\">\n                    <p><span class=\"greenText\"><b>Successful harvest!</b></span><br>Your pay has increased by $0.02. Your bonus pay is now $1.12.</p>\n            ","response":0,"trial_type":"html-button-response","trial_index":124,"time_elapsed":512136,"internal_node_id":"0.0-4.0-1.56","subject_id":"60fc39cce64c39328a7c8904","study_id":"6197b3f67c2b5cd3b6d9596a","session_id":"619be3198de857856e68ad89","condition":"full-information","relevant_dimensions":["wings","legs"],"bee_group":{"antennae":"X","wings":"2","pattern":"X","legs":"M"},"bonus":1.7000000000000013},{"rt":908.1999999880791,"stimulus":"bees-with-color/bee-A2DM.svg","response":1,"trial_type":"image-button-response","trial_index":125,"time_elapsed":513045,"internal_node_id":"0.0-4.0-0.57","subject_id":"60fc39cce64c39328a7c8904","study_id":"6197b3f67c2b5cd3b6d9596a","session_id":"619be3198de857856e68ad89","condition":"full-information","relevant_dimensions":["wings","legs"],"bee_group":{"antennae":"X","wings":"2","pattern":"X","legs":"M"},"action":"avoid","summary":"good-avoid","bonus":1.7000000000000013},{"rt":421.5,"stimulus":"\n                    <p><b>Action: <em>avoid</em></b></p>\n                    <p>This is the bee that you just saw.</p>\n                    <img src=\"bees-with-color/bee-A2DM.svg\" width=\"200\">\n                    <p><span class=\"greenText\">Good choice!</span>  This bee would have stung you.<br>Your bonus pay is unchanged, and remains at $1.12.</p>\n            ","response":0,"trial_type":"html-button-response","trial_index":126,"time_elapsed":513467,"internal_node_id":"0.0-4.0-1.57","subject_id":"60fc39cce64c39328a7c8904","study_id":"6197b3f67c2b5cd3b6d9596a","session_id":"619be3198de857856e68ad89","condition":"full-information","relevant_dimensions":["wings","legs"],"bee_group":{"antennae":"X","wings":"2","pattern":"X","legs":"M"},"bonus":1.7000000000000013},{"rt":641.6000000089407,"stimulus":"bees-with-color/bee-B1DF.svg","response":0,"trial_type":"image-button-response","trial_index":127,"time_elapsed":514109,"internal_node_id":"0.0-4.0-0.58","subject_id":"60fc39cce64c39328a7c8904","study_id":"6197b3f67c2b5cd3b6d9596a","session_id":"619be3198de857856e68ad89","condition":"full-information","relevant_dimensions":["wings","legs"],"bee_group":{"antennae":"X","wings":"2","pattern":"X","legs":"M"},"action":"harvest","summary":"good-harvest","bonus":1.7000000000000013},{"rt":518.2999999970198,"stimulus":"\n                    <p><b>Action: <em>harvest</em></b></p>\n                    <p>This is the bee that you just saw.</p>\n                    <img src=\"bees-with-color/bee-B1DF.svg\" width=\"200\">\n                    <p><span class=\"greenText\"><b>Successful harvest!</b></span><br>Your pay has increased by $0.02. Your bonus pay is now $1.14.</p>\n            ","response":0,"trial_type":"html-button-response","trial_index":128,"time_elapsed":514628,"internal_node_id":"0.0-4.0-1.58","subject_id":"60fc39cce64c39328a7c8904","study_id":"6197b3f67c2b5cd3b6d9596a","session_id":"619be3198de857856e68ad89","condition":"full-information","relevant_dimensions":["wings","legs"],"bee_group":{"antennae":"X","wings":"2","pattern":"X","legs":"M"},"bonus":1.7000000000000013},{"rt":1007.2999999970198,"stimulus":"bees-with-color/bee-A1DM.svg","response":0,"trial_type":"image-button-response","trial_index":129,"time_elapsed":515636,"internal_node_id":"0.0-4.0-0.59","subject_id":"60fc39cce64c39328a7c8904","study_id":"6197b3f67c2b5cd3b6d9596a","session_id":"619be3198de857856e68ad89","condition":"full-information","relevant_dimensions":["wings","legs"],"bee_group":{"antennae":"X","wings":"2","pattern":"X","legs":"M"},"action":"harvest","summary":"good-harvest","bonus":1.7000000000000013},{"rt":388.6000000089407,"stimulus":"\n                    <p><b>Action: <em>harvest</em></b></p>\n                    <p>This is the bee that you just saw.</p>\n                    <img src=\"bees-with-color/bee-A1DM.svg\" width=\"200\">\n                    <p><span class=\"greenText\"><b>Successful harvest!</b></span><br>Your pay has increased by $0.02. Your bonus pay is now $1.16.</p>\n            ","response":0,"trial_type":"html-button-response","trial_index":130,"time_elapsed":516025,"internal_node_id":"0.0-4.0-1.59","subject_id":"60fc39cce64c39328a7c8904","study_id":"6197b3f67c2b5cd3b6d9596a","session_id":"619be3198de857856e68ad89","condition":"full-information","relevant_dimensions":["wings","legs"],"bee_group":{"antennae":"X","wings":"2","pattern":"X","legs":"M"},"bonus":1.7000000000000013},{"rt":951.1000000089407,"stimulus":"bees-with-color/bee-A2SF.svg","response":0,"trial_type":"image-button-response","trial_index":131,"time_elapsed":516977,"internal_node_id":"0.0-4.0-0.60","subject_id":"60fc39cce64c39328a7c8904","study_id":"6197b3f67c2b5cd3b6d9596a","session_id":"619be3198de857856e68ad89","condition":"full-information","relevant_dimensions":["wings","legs"],"bee_group":{"antennae":"X","wings":"2","pattern":"X","legs":"M"},"action":"harvest","summary":"good-harvest","bonus":1.7000000000000013},{"rt":384.5,"stimulus":"\n                    <p><b>Action: <em>harvest</em></b></p>\n                    <p>This is the bee that you just saw.</p>\n                    <img src=\"bees-with-color/bee-A2SF.svg\" width=\"200\">\n                    <p><span class=\"greenText\"><b>Successful harvest!</b></span><br>Your pay has increased by $0.02. Your bonus pay is now $1.18.</p>\n            ","response":0,"trial_type":"html-button-response","trial_index":132,"time_elapsed":517362,"internal_node_id":"0.0-4.0-1.60","subject_id":"60fc39cce64c39328a7c8904","study_id":"6197b3f67c2b5cd3b6d9596a","session_id":"619be3198de857856e68ad89","condition":"full-information","relevant_dimensions":["wings","legs"],"bee_group":{"antennae":"X","wings":"2","pattern":"X","legs":"M"},"bonus":1.7000000000000013},{"rt":859.1000000089407,"stimulus":"bees-with-color/bee-B1DM.svg","response":0,"trial_type":"image-button-response","trial_index":133,"time_elapsed":518222,"internal_node_id":"0.0-4.0-0.61","subject_id":"60fc39cce64c39328a7c8904","study_id":"6197b3f67c2b5cd3b6d9596a","session_id":"619be3198de857856e68ad89","condition":"full-information","relevant_dimensions":["wings","legs"],"bee_group":{"antennae":"X","wings":"2","pattern":"X","legs":"M"},"action":"harvest","summary":"good-harvest","bonus":1.7000000000000013},{"rt":371.29999999701977,"stimulus":"\n                    <p><b>Action: <em>harvest</em></b></p>\n                    <p>This is the bee that you just saw.</p>\n                    <img src=\"bees-with-color/bee-B1DM.svg\" width=\"200\">\n                    <p><span class=\"greenText\"><b>Successful harvest!</b></span><br>Your pay has increased by $0.02. Your bonus pay is now $1.20.</p>\n            ","response":0,"trial_type":"html-button-response","trial_index":134,"time_elapsed":518594,"internal_node_id":"0.0-4.0-1.61","subject_id":"60fc39cce64c39328a7c8904","study_id":"6197b3f67c2b5cd3b6d9596a","session_id":"619be3198de857856e68ad89","condition":"full-information","relevant_dimensions":["wings","legs"],"bee_group":{"antennae":"X","wings":"2","pattern":"X","legs":"M"},"bonus":1.7000000000000013},{"rt":880.2999999970198,"stimulus":"bees-with-color/bee-A2SM.svg","response":1,"trial_type":"image-button-response","trial_index":135,"time_elapsed":519475,"internal_node_id":"0.0-4.0-0.62","subject_id":"60fc39cce64c39328a7c8904","study_id":"6197b3f67c2b5cd3b6d9596a","session_id":"619be3198de857856e68ad89","condition":"full-information","relevant_dimensions":["wings","legs"],"bee_group":{"antennae":"X","wings":"2","pattern":"X","legs":"M"},"action":"avoid","summary":"good-avoid","bonus":1.7000000000000013},{"rt":370.40000000596046,"stimulus":"\n                    <p><b>Action: <em>avoid</em></b></p>\n                    <p>This is the bee that you just saw.</p>\n                    <img src=\"bees-with-color/bee-A2SM.svg\" width=\"200\">\n                    <p><span class=\"greenText\">Good choice!</span>  This bee would have stung you.<br>Your bonus pay is unchanged, and remains at $1.20.</p>\n            ","response":0,"trial_type":"html-button-response","trial_index":136,"time_elapsed":519846,"internal_node_id":"0.0-4.0-1.62","subject_id":"60fc39cce64c39328a7c8904","study_id":"6197b3f67c2b5cd3b6d9596a","session_id":"619be3198de857856e68ad89","condition":"full-information","relevant_dimensions":["wings","legs"],"bee_group":{"antennae":"X","wings":"2","pattern":"X","legs":"M"},"bonus":1.7000000000000013},{"rt":653.3999999910593,"stimulus":"bees-with-color/bee-B1SF.svg","response":0,"trial_type":"image-button-response","trial_index":137,"time_elapsed":520500,"internal_node_id":"0.0-4.0-0.63","subject_id":"60fc39cce64c39328a7c8904","study_id":"6197b3f67c2b5cd3b6d9596a","session_id":"619be3198de857856e68ad89","condition":"full-information","relevant_dimensions":["wings","legs"],"bee_group":{"antennae":"X","wings":"2","pattern":"X","legs":"M"},"action":"harvest","summary":"good-harvest","bonus":1.7000000000000013},{"rt":365.29999999701977,"stimulus":"\n                    <p><b>Action: <em>harvest</em></b></p>\n                    <p>This is the bee that you just saw.</p>\n                    <img src=\"bees-with-color/bee-B1SF.svg\" width=\"200\">\n                    <p><span class=\"greenText\"><b>Successful harvest!</b></span><br>Your pay has increased by $0.02. Your bonus pay is now $1.22.</p>\n            ","response":0,"trial_type":"html-button-response","trial_index":138,"time_elapsed":520866,"internal_node_id":"0.0-4.0-1.63","subject_id":"60fc39cce64c39328a7c8904","study_id":"6197b3f67c2b5cd3b6d9596a","session_id":"619be3198de857856e68ad89","condition":"full-information","relevant_dimensions":["wings","legs"],"bee_group":{"antennae":"X","wings":"2","pattern":"X","legs":"M"},"bonus":1.7000000000000013},{"rt":9456.59999999404,"stimulus":"You have completed the first part of this experiment.<br><br>You will now begin a shorter second part, in which you will receive no feedback.<br>The same rules regarding bonus pay apply.<br><br>Press any key to begin.","response":"arrowup","trial_type":"html-keyboard-response","trial_index":139,"time_elapsed":530323,"internal_node_id":"0.0-5.0","subject_id":"60fc39cce64c39328a7c8904","study_id":"6197b3f67c2b5cd3b6d9596a","session_id":"619be3198de857856e68ad89","condition":"full-information","relevant_dimensions":["wings","legs"],"bee_group":{"antennae":"X","wings":"2","pattern":"X","legs":"M"},"bonus":1.7000000000000013},{"rt":3195,"stimulus":"bees-with-color/bee-B1DF.svg","response":0,"trial_type":"image-button-response","trial_index":140,"time_elapsed":533522,"internal_node_id":"0.0-6.0-0.0","subject_id":"60fc39cce64c39328a7c8904","study_id":"6197b3f67c2b5cd3b6d9596a","session_id":"619be3198de857856e68ad89","condition":"full-information","relevant_dimensions":["wings","legs"],"bee_group":{"antennae":"X","wings":"2","pattern":"X","legs":"M"},"bonus":1.7000000000000013},{"rt":4927.5,"stimulus":"bees-with-color/bee-B2SF.svg","response":0,"trial_type":"image-button-response","trial_index":141,"time_elapsed":538451,"internal_node_id":"0.0-6.0-0.1","subject_id":"60fc39cce64c39328a7c8904","study_id":"6197b3f67c2b5cd3b6d9596a","session_id":"619be3198de857856e68ad89","condition":"full-information","relevant_dimensions":["wings","legs"],"bee_group":{"antennae":"X","wings":"2","pattern":"X","legs":"M"},"bonus":1.7000000000000013},{"rt":1277.8999999910593,"stimulus":"bees-with-color/bee-B2DM.svg","response":1,"trial_type":"image-button-response","trial_index":142,"time_elapsed":539730,"internal_node_id":"0.0-6.0-0.2","subject_id":"60fc39cce64c39328a7c8904","study_id":"6197b3f67c2b5cd3b6d9596a","session_id":"619be3198de857856e68ad89","condition":"full-information","relevant_dimensions":["wings","legs"],"bee_group":{"antennae":"X","wings":"2","pattern":"X","legs":"M"},"bonus":1.7000000000000013},{"rt":1149.7000000029802,"stimulus":"bees-with-color/bee-B1SM.svg","response":0,"trial_type":"image-button-response","trial_index":143,"time_elapsed":540881,"internal_node_id":"0.0-6.0-0.3","subject_id":"60fc39cce64c39328a7c8904","study_id":"6197b3f67c2b5cd3b6d9596a","session_id":"619be3198de857856e68ad89","condition":"full-information","relevant_dimensions":["wings","legs"],"bee_group":{"antennae":"X","wings":"2","pattern":"X","legs":"M"},"bonus":1.7000000000000013},{"rt":1531.7999999970198,"stimulus":"bees-with-color/bee-A1DM.svg","response":0,"trial_type":"image-button-response","trial_index":144,"time_elapsed":542414,"internal_node_id":"0.0-6.0-0.4","subject_id":"60fc39cce64c39328a7c8904","study_id":"6197b3f67c2b5cd3b6d9596a","session_id":"619be3198de857856e68ad89","condition":"full-information","relevant_dimensions":["wings","legs"],"bee_group":{"antennae":"X","wings":"2","pattern":"X","legs":"M"},"bonus":1.7000000000000013},{"rt":1032.2000000029802,"stimulus":"bees-with-color/bee-B2SM.svg","response":1,"trial_type":"image-button-response","trial_index":145,"time_elapsed":543447,"internal_node_id":"0.0-6.0-0.5","subject_id":"60fc39cce64c39328a7c8904","study_id":"6197b3f67c2b5cd3b6d9596a","session_id":"619be3198de857856e68ad89","condition":"full-information","relevant_dimensions":["wings","legs"],"bee_group":{"antennae":"X","wings":"2","pattern":"X","legs":"M"},"bonus":1.7000000000000013},{"rt":1619,"stimulus":"bees-with-color/bee-A2DF.svg","response":0,"trial_type":"image-button-response","trial_index":146,"time_elapsed":545067,"internal_node_id":"0.0-6.0-0.6","subject_id":"60fc39cce64c39328a7c8904","study_id":"6197b3f67c2b5cd3b6d9596a","session_id":"619be3198de857856e68ad89","condition":"full-information","relevant_dimensions":["wings","legs"],"bee_group":{"antennae":"X","wings":"2","pattern":"X","legs":"M"},"bonus":1.7000000000000013},{"rt":643.7999999970198,"stimulus":"bees-with-color/bee-A1DF.svg","response":0,"trial_type":"image-button-response","trial_index":147,"time_elapsed":545712,"internal_node_id":"0.0-6.0-0.7","subject_id":"60fc39cce64c39328a7c8904","study_id":"6197b3f67c2b5cd3b6d9596a","session_id":"619be3198de857856e68ad89","condition":"full-information","relevant_dimensions":["wings","legs"],"bee_group":{"antennae":"X","wings":"2","pattern":"X","legs":"M"},"bonus":1.7000000000000013},{"rt":912.5999999940395,"stimulus":"bees-with-color/bee-A2SM.svg","response":1,"trial_type":"image-button-response","trial_index":148,"time_elapsed":546626,"internal_node_id":"0.0-6.0-0.8","subject_id":"60fc39cce64c39328a7c8904","study_id":"6197b3f67c2b5cd3b6d9596a","session_id":"619be3198de857856e68ad89","condition":"full-information","relevant_dimensions":["wings","legs"],"bee_group":{"antennae":"X","wings":"2","pattern":"X","legs":"M"},"bonus":1.7000000000000013},{"rt":686.8999999910593,"stimulus":"bees-with-color/bee-A2DM.svg","response":1,"trial_type":"image-button-response","trial_index":149,"time_elapsed":547314,"internal_node_id":"0.0-6.0-0.9","subject_id":"60fc39cce64c39328a7c8904","study_id":"6197b3f67c2b5cd3b6d9596a","session_id":"619be3198de857856e68ad89","condition":"full-information","relevant_dimensions":["wings","legs"],"bee_group":{"antennae":"X","wings":"2","pattern":"X","legs":"M"},"bonus":1.7000000000000013},{"rt":1145.0999999940395,"stimulus":"bees-with-color/bee-B2DF.svg","response":0,"trial_type":"image-button-response","trial_index":150,"time_elapsed":548460,"internal_node_id":"0.0-6.0-0.10","subject_id":"60fc39cce64c39328a7c8904","study_id":"6197b3f67c2b5cd3b6d9596a","session_id":"619be3198de857856e68ad89","condition":"full-information","relevant_dimensions":["wings","legs"],"bee_group":{"antennae":"X","wings":"2","pattern":"X","legs":"M"},"bonus":1.7000000000000013},{"rt":802,"stimulus":"bees-with-color/bee-B1DM.svg","response":0,"trial_type":"image-button-response","trial_index":151,"time_elapsed":549263,"internal_node_id":"0.0-6.0-0.11","subject_id":"60fc39cce64c39328a7c8904","study_id":"6197b3f67c2b5cd3b6d9596a","session_id":"619be3198de857856e68ad89","condition":"full-information","relevant_dimensions":["wings","legs"],"bee_group":{"antennae":"X","wings":"2","pattern":"X","legs":"M"},"bonus":1.7000000000000013},{"rt":1934.4000000059605,"stimulus":"bees-with-color/bee-A1SM.svg","response":0,"trial_type":"image-button-response","trial_index":152,"time_elapsed":551198,"internal_node_id":"0.0-6.0-0.12","subject_id":"60fc39cce64c39328a7c8904","study_id":"6197b3f67c2b5cd3b6d9596a","session_id":"619be3198de857856e68ad89","condition":"full-information","relevant_dimensions":["wings","legs"],"bee_group":{"antennae":"X","wings":"2","pattern":"X","legs":"M"},"bonus":1.7000000000000013},{"rt":1132.5,"stimulus":"bees-with-color/bee-B1SF.svg","response":0,"trial_type":"image-button-response","trial_index":153,"time_elapsed":552332,"internal_node_id":"0.0-6.0-0.13","subject_id":"60fc39cce64c39328a7c8904","study_id":"6197b3f67c2b5cd3b6d9596a","session_id":"619be3198de857856e68ad89","condition":"full-information","relevant_dimensions":["wings","legs"],"bee_group":{"antennae":"X","wings":"2","pattern":"X","legs":"M"},"bonus":1.7000000000000013},{"rt":887.2000000029802,"stimulus":"bees-with-color/bee-A2SF.svg","response":0,"trial_type":"image-button-response","trial_index":154,"time_elapsed":553220,"internal_node_id":"0.0-6.0-0.14","subject_id":"60fc39cce64c39328a7c8904","study_id":"6197b3f67c2b5cd3b6d9596a","session_id":"619be3198de857856e68ad89","condition":"full-information","relevant_dimensions":["wings","legs"],"bee_group":{"antennae":"X","wings":"2","pattern":"X","legs":"M"},"bonus":1.7000000000000013},{"rt":952.7999999970198,"stimulus":"bees-with-color/bee-A1SF.svg","response":0,"trial_type":"image-button-response","trial_index":155,"time_elapsed":554174,"internal_node_id":"0.0-6.0-0.15","subject_id":"60fc39cce64c39328a7c8904","study_id":"6197b3f67c2b5cd3b6d9596a","session_id":"619be3198de857856e68ad89","condition":"full-information","relevant_dimensions":["wings","legs"],"bee_group":{"antennae":"X","wings":"2","pattern":"X","legs":"M"},"bonus":1.7000000000000013},{"rt":848.1000000089407,"stimulus":"bees-with-color/bee-B2SF.svg","response