[{"success":true,"trial_type":"fullscreen","trial_index":0,"time_elapsed":265852,"internal_node_id":"0.0-0.0","subject_id":"6140b5b201e55201433c2383","study_id":"60edd13110225f80f9f3709b","session_id":"6196c70513d70ca9a9b0e633","condition":"contingent","relevant_dimensions":["antennae","pattern"],"bee_group":{"antennae":"B","wings":"X","pattern":"S","legs":"X"},"bonus":1.0000000000000009},{"success":true,"timeout":false,"failed_images":[],"failed_audio":[],"failed_video":[],"trial_type":"preload","trial_index":1,"time_elapsed":267187,"internal_node_id":"0.0-1.0","subject_id":"6140b5b201e55201433c2383","study_id":"60edd13110225f80f9f3709b","session_id":"6196c70513d70ca9a9b0e633","condition":"contingent","relevant_dimensions":["antennae","pattern"],"bee_group":{"antennae":"B","wings":"X","pattern":"S","legs":"X"},"bonus":1.0000000000000009},{"rt":2509.5999999046326,"stimulus":"Welcome! Press any key to begin.","response":"enter","trial_type":"html-keyboard-response","trial_index":2,"time_elapsed":269697,"internal_node_id":"0.0-2.0","subject_id":"6140b5b201e55201433c2383","study_id":"60edd13110225f80f9f3709b","session_id":"6196c70513d70ca9a9b0e633","condition":"contingent","relevant_dimensions":["antennae","pattern"],"bee_group":{"antennae":"B","wings":"X","pattern":"S","legs":"X"},"bonus":1.0000000000000009},{"view_history":[{"page_index":0,"viewing_time":10866.300000071526},{"page_index":1,"viewing_time":16228.399999976158},{"page_index":2,"viewing_time":17231.200000047684},{"page_index":3,"viewing_time":9174.799999952316},{"page_index":2,"viewing_time":21909.899999976158},{"page_index":3,"viewing_time":16144.899999976158},{"page_index":4,"viewing_time":23283},{"page_index":5,"viewing_time":8839.100000023842},{"page_index":6,"viewing_time":41089.10000002384},{"page_index":7,"viewing_time":4362.799999952316},{"page_index":8,"viewing_time":3692.4000000953674},{"page_index":9,"viewing_time":3149.7999999523163},{"page_index":10,"viewing_time":13091.899999976158},{"page_index":11,"viewing_time":15667.899999976158},{"page_index":12,"viewing_time":19824},{"page_index":13,"viewing_time":4523.100000023842},{"page_index":14,"viewing_time":4840}],"rt":233919.20000004768,"trial_type":"instructions","trial_index":3,"time_elapsed":503617,"internal_node_id":"0.0-3.0-0.0","subject_id":"6140b5b201e55201433c2383","study_id":"60edd13110225f80f9f3709b","session_id":"6196c70513d70ca9a9b0e633","condition":"contingent","relevant_dimensions":["antennae","pattern"],"bee_group":{"antennae":"B","wings":"X","pattern":"S","legs":"X"},"bonus":1.0000000000000009},{"rt":16700,"response":{"Q0":["Two or six legs","Stripes or spots on body","Single or double wings","Antennae or no antennae"]},"question_order":[0],"trial_type":"survey-multi-select","trial_index":4,"time_elapsed":520321,"internal_node_id":"0.0-3.0-1.0","subject_id":"6140b5b201e55201433c2383","study_id":"60edd13110225f80f9f3709b","session_id":"6196c70513d70ca9a9b0e633","condition":"contingent","relevant_dimensions":["antennae","pattern"],"bee_group":{"antennae":"B","wings":"X","pattern":"S","legs":"X"},"correct":true,"bonus":1.0000000000000009},{"rt":33020.10000002384,"response":{"Q1":"No.","Q2":"Based on the four features of the bee.","Q3":"You learn if it was friendly or dangerous, but do not alter your bonus."},"question_order":[0,1,2],"trial_type":"survey-multi-choice","trial_index":5,"time_elapsed":553343,"internal_node_id":"0.0-3.0-2.0","subject_id":"6140b5b201e55201433c2383","study_id":"60edd13110225f80f9f3709b","session_id":"6196c70513d70ca9a9b0e633","condition":"contingent","relevant_dimensions":["antennae","pattern"],"bee_group":{"antennae":"B","wings":"X","pattern":"S","legs":"X"},"correct":false,"bonus":1.0000000000000009},{"rt":8562.299999952316,"stimulus":"<p>You did not answer all comprehension questions correctly.<br>Press <b>continue</b> to review the instructions again.</p>","response":0,"trial_type":"html-button-response","trial_index":6,"time_elapsed":561906,"internal_node_id":"0.0-3.0-3.0","subject_id":"6140b5b201e55201433c2383","study_id":"60edd13110225f80f9f3709b","session_id":"6196c70513d70ca9a9b0e633","condition":"contingent","relevant_dimensions":["antennae","pattern"],"bee_group":{"antennae":"B","wings":"X","pattern":"S","legs":"X"},"bonus":1.0000000000000009},{"view_history":[{"page_index":0,"viewing_time":5139.5},{"page_index":1,"viewing_time":8798.899999976158},{"page_index":2,"viewing_time":3461.5},{"page_index":3,"viewing_time":4935.5},{"page_index":2,"viewing_time":5858.900000095367},{"page_index":3,"viewing_time":7775},{"page_index":4,"viewing_time":10101.099999904633},{"page_index":5,"viewing_time":3152},{"page_index":6,"viewing_time":2651},{"page_index":7,"viewing_time":1713.1000000238419},{"page_index":8,"viewing_time":1160},{"page_index":9,"viewing_time":1299.8000000715256},{"page_index":10,"viewing_time":919},{"page_index":11,"viewing_time":8491},{"page_index":12,"viewing_time":930},{"page_index":13,"viewing_time":976},{"page_index":14,"viewing_time":764.1999999284744}],"rt":68127,"trial_type":"instructions","trial_index":7,"time_elapsed":630034,"internal_node_id":"0.0-3.0-4.0-0.0","subject_id":"6140b5b201e55201433c2383","study_id":"60edd13110225f80f9f3709b","session_id":"6196c70513d70ca9a9b0e633","condition":"contingent","relevant_dimensions":["antennae","pattern"],"bee_group":{"antennae":"B","wings":"X","pattern":"S","legs":"X"},"bonus":1.0000000000000009},{"rt":6822.100000023842,"response":{"Q0":["Two or six legs","Stripes or spots on body","Single or double wings","Antennae or no antennae"]},"question_order":[0],"trial_type":"survey-multi-select","trial_index":8,"time_elapsed":636859,"internal_node_id":"0.0-3.0-4.0-1.0","subject_id":"6140b5b201e55201433c2383","study_id":"60edd13110225f80f9f3709b","session_id":"6196c70513d70ca9a9b0e633","condition":"contingent","relevant_dimensions":["antennae","pattern"],"bee_group":{"antennae":"B","wings":"X","pattern":"S","legs":"X"},"correct":true,"bonus":1.0000000000000009},{"rt":20862.800000071526,"response":{"Q1":"No.","Q2":"Based on the four features of the bee.","Q3":"You do not learn if it was friendly or dangerous, and do not alter your bonus."},"question_order":[0,1,2],"trial_type":"survey-multi-choice","trial_index":9,"time_elapsed":657724,"internal_node_id":"0.0-3.0-4.0-2.0","subject_id":"6140b5b201e55201433c2383","study_id":"60edd13110225f80f9f3709b","session_id":"6196c70513d70ca9a9b0e633","condition":"contingent","relevant_dimensions":["antennae","pattern"],"bee_group":{"antennae":"B","wings":"X","pattern":"S","legs":"X"},"correct":true,"bonus":1.0000000000000009},{"rt":2900,"stimulus":"<p>Congrats, you got everything right<br>When you're ready, click the button below to continue to the experiment.</p>","response":0,"trial_type":"html-button-response","trial_index":10,"time_elapsed":660625,"internal_node_id":"0.0-3.0-4.0-3.0","subject_id":"6140b5b201e55201433c2383","study_id":"60edd13110225f80f9f3709b","session_id":"6196c70513d70ca9a9b0e633","condition":"contingent","relevant_dimensions":["antennae","pattern"],"bee_group":{"antennae":"B","wings":"X","pattern":"S","legs":"X"},"bonus":1.0000000000000009},{"rt":9758.600000023842,"stimulus":"bees-with-color/bee-B2SF.svg","response":0,"trial_type":"image-button-response","trial_index":11,"time_elapsed":670385,"internal_node_id":"0.0-4.0-0.0","subject_id":"6140b5b201e55201433c2383","study_id":"60edd13110225f80f9f3709b","session_id":"6196c70513d70ca9a9b0e633","condition":"contingent","relevant_dimensions":["antennae","pattern"],"bee_group":{"antennae":"B","wings":"X","pattern":"S","legs":"X"},"action":"harvest","summary":"bad-harvest","bonus":1.0000000000000009},{"rt":6651.100000023842,"stimulus":"\n                    <p><b>Action: <em>harvest</em></b></p>\n                    <p>This is the bee that you just saw.</p>\n                    <img src=\"bees-with-color/bee-B2SF.svg\" width=\"200\">\n                    <p><span class=\"redText\">Bad choice, the bee was angry.</span><br><b>You have been stung!</b><br>Your pay has been decreased by $0.10. Your bonus pay is now $0.44.</p>\n            ","response":0,"trial_type":"html-button-response","trial_index":12,"time_elapsed":677039,"internal_node_id":"0.0-4.0-1.0","subject_id":"6140b5b201e55201433c2383","study_id":"60edd13110225f80f9f3709b","session_id":"6196c70513d70ca9a9b0e633","condition":"contingent","relevant_dimensions":["antennae","pattern"],"bee_group":{"antennae":"B","wings":"X","pattern":"S","legs":"X"},"bonus":1.0000000000000009},{"rt":3851.0999999046326,"stimulus":"bees-with-color/bee-A2DM.svg","response":1,"trial_type":"image-button-response","trial_index":13,"time_elapsed":680891,"internal_node_id":"0.0-4.0-0.1","subject_id":"6140b5b201e55201433c2383","study_id":"60edd13110225f80f9f3709b","session_id":"6196c70513d70ca9a9b0e633","condition":"contingent","relevant_dimensions":["antennae","pattern"],"bee_group":{"antennae":"B","wings":"X","pattern":"S","legs":"X"},"action":"avoid","summary":"bad-avoid","bonus":1.0000000000000009},{"rt":3972.9000000953674,"stimulus":"\n                    <p><b>Action: <em>avoid</em></b></p>\n                    <p>This is the bee that you just saw.</p>\n                    <img src=\"bees-with-color/bee-A2DM.svg\" width=\"200\">\n                    <p><br>Your bonus pay is unchanged, and remains at $0.44.</p>\n            ","response":0,"trial_type":"html-button-response","trial_index":14,"time_elapsed":684865,"internal_node_id":"0.0-4.0-1.1","subject_id":"6140b5b201e55201433c2383","study_id":"60edd13110225f80f9f3709b","session_id":"6196c70513d70ca9a9b0e633","condition":"contingent","relevant_dimensions":["antennae","pattern"],"bee_group":{"antennae":"B","wings":"X","pattern":"S","legs":"X"},"bonus":1.0000000000000009},{"rt":1536.4000000953674,"stimulus":"bees-with-color/bee-B1SF.svg","response":0,"trial_type":"image-button-response","trial_index":15,"time_elapsed":686403,"internal_node_id":"0.0-4.0-0.2","subject_id":"6140b5b201e55201433c2383","study_id":"60edd13110225f80f9f3709b","session_id":"6196c70513d70ca9a9b0e633","condition":"contingent","relevant_dimensions":["antennae","pattern"],"bee_group":{"antennae":"B","wings":"X","pattern":"S","legs":"X"},"action":"harvest","summary":"bad-harvest","bonus":1.0000000000000009},{"rt":93880.80000007153,"stimulus":"\n                    <p><b>Action: <em>harvest</em></b></p>\n                    <p>This is the bee that you just saw.</p>\n                    <img src=\"bees-with-color/bee-B1SF.svg\" width=\"200\">\n                    <p><span class=\"redText\">Bad choice, the bee was angry.</span><br><b>You have been stung!</b><br>Your pay has been decreased by $0.10. Your bonus pay is now $0.34.</p>\n            ","response":0,"trial_type":"html-button-response","trial_index":16,"time_elapsed":780285,"internal_node_id":"0.0-4.0-1.2","subject_id":"6140b5b201e55201433c2383","study_id":"60edd13110225f80f9f3709b","session_id":"6196c70513d70ca9a9b0e633","condition":"contingent","relevant_dimensions":["antennae","pattern"],"bee_group":{"antennae":"B","wings":"X","pattern":"S","legs":"X"},"bonus":1.0000000000000009},{"rt":3476.7000000476837,"stimulus":"bees-with-color/bee-B2DM.svg","response":0,"trial_type":"image-button-response","trial_index":17,"time_elapsed":783763,"internal_node_id":"0.0-4.0-0.3","subject_id":"6140b5b201e55201433c2383","study_id":"60edd13110225f80f9f3709b","session_id":"6196c70513d70ca9a9b0e633","condition":"contingent","relevant_dimensions":["antennae","pattern"],"bee_group":{"antennae":"B","wings":"X","pattern":"S","legs":"X"},"action":"harvest","summary":"good-harvest","bonus":1.0000000000000009},{"rt":37885,"stimulus":"\n                    <p><b>Action: <em>harvest</em></b></p>\n                    <p>This is the bee that you just saw.</p>\n                    <img src=\"bees-with-color/bee-B2DM.svg\" width=\"200\">\n                    <p><span class=\"greenText\"><b>Successful harvest!</b></span><br>Your pay has increased by $0.02. Your bonus pay is now $0.36.</p>\n            ","response":0,"trial_type":"html-button-response","trial_index":18,"time_elapsed":821649,"internal_node_id":"0.0-4.0-1.3","subject_id":"6140b5b201e55201433c2383","study_id":"60edd13110225f80f9f3709b","session_id":"6196c70513d70ca9a9b0e633","condition":"contingent","relevant_dimensions":["antennae","pattern"],"bee_group":{"antennae":"B","wings":"X","pattern":"S","legs":"X"},"bonus":1.0000000000000009},{"rt":6240.700000047684,"stimulus":"bees-with-color/bee-A2SM.svg","response":0,"trial_type":"image-button-response","trial_index":19,"time_elapsed":827891,"internal_node_id":"0.0-4.0-0.4","subject_id":"6140b5b201e55201433c2383","study_id":"60edd13110225f80f9f3709b","session_id":"6196c70513d70ca9a9b0e633","condition":"contingent","relevant_dimensions":["antennae","pattern"],"bee_group":{"antennae":"B","wings":"X","pattern":"S","legs":"X"},"action":"harvest","summary":"good-harvest","bonus":1.0000000000000009},{"rt":35040.700000047684,"stimulus":"\n                    <p><b>Action: <em>harvest</em></b></p>\n                    <p>This is the bee that you just saw.</p>\n                    <img src=\"bees-with-color/bee-A2SM.svg\" width=\"200\">\n                    <p><span class=\"greenText\"><b>Successful harvest!</b></span><br>Your pay has increased by $0.02. Your bonus pay is now $0.38.</p>\n            ","response":0,"trial_type":"html-button-response","trial_index":20,"time_elapsed":862933,"internal_node_id":"0.0-4.0-1.4","subject_id":"6140b5b201e55201433c2383","study_id":"60edd13110225f80f9f3709b","session_id":"6196c70513d70ca9a9b0e633","condition":"contingent","relevant_dimensions":["antennae","pattern"],"bee_group":{"antennae":"B","wings":"X","pattern":"S","legs":"X"},"bonus":1.0000000000000009},{"rt":13320.800000071526,"stimulus":"bees-with-color/bee-A2SF.svg","response":1,"trial_type":"image-button-response","trial_index":21,"time_elapsed":876255,"internal_node_id":"0.0-4.0-0.5","subject_id":"6140b5b201e55201433c2383","study_id":"60edd13110225f80f9f3709b","session_id":"6196c70513d70ca9a9b0e633","condition":"contingent","relevant_dimensions":["antennae","pattern"],"bee_group":{"antennae":"B","wings":"X","pattern":"S","legs":"X"},"action":"avoid","summary":"bad-avoid","bonus":1.0000000000000009},{"rt":1836.1000000238419,"stimulus":"\n                    <p><b>Action: <em>avoid</em></b></p>\n                    <p>This is the bee that you just saw.</p>\n                    <img src=\"bees-with-color/bee-A2SF.svg\" width=\"200\">\n                    <p><br>Your bonus pay is unchanged, and remains at $0.38.</p>\n            ","response":0,"trial_type":"html-button-response","trial_index":22,"time_elapsed":878092,"internal_node_id":"0.0-4.0-1.5","subject_id":"6140b5b201e55201433c2383","study_id":"60edd13110225f80f9f3709b","session_id":"6196c70513d70ca9a9b0e633","condition":"contingent","relevant_dimensions":["antennae","pattern"],"bee_group":{"antennae":"B","wings":"X","pattern":"S","legs":"X"},"bonus":1.0000000000000009},{"rt":12005.599999904633,"stimulus":"bees-with-color/bee-A1DM.svg","response":0,"trial_type":"image-button-response","trial_index":23,"time_elapsed":890100,"internal_node_id":"0.0-4.0-0.6","subject_id":"6140b5b201e55201433c2383","study_id":"60edd13110225f80f9f3709b","session_id":"6196c70513d70ca9a9b0e633","condition":"contingent","relevant_dimensions":["antennae","pattern"],"bee_group":{"antennae":"B","wings":"X","pattern":"S","legs":"X"},"action":"harvest","summary":"good-harvest","bonus":1.0000000000000009},{"rt":25392.800000071526,"stimulus":"\n                    <p><b>Action: <em>harvest</em></b></p>\n                    <p>This is the bee that you just saw.</p>\n                    <img src=\"bees-with-color/bee-A1DM.svg\" width=\"200\">\n                    <p><span class=\"greenText\"><b>Successful harvest!</b></span><br>Your pay has increased by $0.02. Your bonus pay is now $0.40.</p>\n            ","response":0,"trial_type":"html-button-response","trial_index":24,"time_elapsed":915494,"internal_node_id":"0.0-4.0-1.6","subject_id":"6140b5b201e55201433c2383","study_id":"60edd13110225f80f9f3709b","session_id":"6196c70513d70ca9a9b0e633","condition":"contingent","relevant_dimensions":["antennae","pattern"],"bee_group":{"antennae":"B","wings":"X","pattern":"S","legs":"X"},"bonus":1.0000000000000009},{"rt":16114.700000047684,"stimulus":"bees-with-color/bee-B1DM.svg","response":0,"trial_type":"image-button-response","trial_index":25,"time_elapsed":931609,"internal_node_id":"0.0-4.0-0.7","subject_id":"6140b5b201e55201433c2383","study_id":"60edd13110225f80f9f3709b","session_id":"6196c70513d70ca9a9b0e633","condition":"contingent","relevant_dimensions":["antennae","pattern"],"bee_group":{"antennae":"B","wings":"X","pattern":"S","legs":"X"},"action":"harvest","summary":"good-harvest","bonus":1.0000000000000009},{"rt":34181.700000047684,"stimulus":"\n                    <p><b>Action: <em>harvest</em></b></p>\n                    <p>This is the bee that you just saw.</p>\n                    <img src=\"bees-with-color/bee-B1DM.svg\" width=\"200\">\n                    <p><span class=\"greenText\"><b>Successful harvest!</b></span><br>Your pay has increased by $0.02. Your bonus pay is now $0.42.</p>\n            ","response":0,"trial_type":"html-button-response","trial_index":26,"time_elapsed":965792,"internal_node_id":"0.0-4.0-1.7","subject_id":"6140b5b201e55201433c2383","study_id":"60edd13110225f80f9f3709b","session_id":"6196c70513d70ca9a9b0e633","condition":"contingent","relevant_dimensions":["antennae","pattern"],"bee_group":{"antennae":"B","wings":"X","pattern":"S","legs":"X"},"bonus":1.0000000000000009},{"rt":19852.399999976158,"stimulus":"bees-with-color/bee-A1SF.svg","response":0,"trial_type":"image-button-response","trial_index":27,"time_elapsed":985646,"internal_node_id":"0.0-4.0-0.8","subject_id":"6140b5b201e55201433c2383","study_id":"60edd13110225f80f9f3709b","session_id":"6196c70513d70ca9a9b0e633","condition":"contingent","relevant_dimensions":["antennae","pattern"],"bee_group":{"antennae":"B","wings":"X","pattern":"S","legs":"X"},"action":"harvest","summary":"good-harvest","bonus":1.0000000000000009},{"rt":35713.199999928474,"stimulus":"\n                    <p><b>Action: <em>harvest</em></b></p>\n                    <p>This is the bee that you just saw.</p>\n                    <img src=\"bees-with-color/bee-A1SF.svg\" width=\"200\">\n                    <p><span class=\"greenText\"><b>Successful harvest!</b></span><br>Your pay has increased by $0.02. Your bonus pay is now $0.44.</p>\n            ","response":0,"trial_type":"html-button-response","trial_index":28,"time_elapsed":1021360,"internal_node_id":"0.0-4.0-1.8","subject_id":"6140b5b201e55201433c2383","study_id":"60edd13110225f80f9f3709b","session_id":"6196c70513d70ca9a9b0e633","condition":"contingent","relevant_dimensions":["antennae","pattern"],"bee_group":{"antennae":"B","wings":"X","pattern":"S","legs":"X"},"bonus":1.0000000000000009},{"rt":11336.5,"stimulus":"bees-with-color/bee-B1SM.svg","response":0,"trial_type":"image-button-response","trial_index":29,"time_elapsed":1032698,"internal_node_id":"0.0-4.0-0.9","subject_id":"6140b5b201e55201433c2383","study_id":"60edd13110225f80f9f3709b","session_id":"6196c70513d70ca9a9b0e633","condition":"contingent","relevant_dimensions":["antennae","pattern"],"bee_group":{"antennae":"B","wings":"X","pattern":"S","legs":"X"},"action":"harvest","summary":"bad-harvest","bonus":1.0000000000000009},{"rt":36003.59999990463,"stimulus":"\n                    <p><b>Action: <em>harvest</em></b></p>\n                    <p>This is the bee that you just saw.</p>\n                    <img src=\"bees-with-color/bee-B1SM.svg\" width=\"200\">\n                    <p><span class=\"redText\">Bad choice, the bee was angry.</span><br><b>You have been stung!</b><br>Your pay has been decreased by $0.10. Your bonus pay is now $0.34.</p>\n            ","response":0,"trial_type":"html-button-response","trial_index":30,"time_elapsed":1068703,"internal_node_id":"0.0-4.0-1.9","subject_id":"6140b5b201e55201433c2383","study_id":"60edd13110225f80f9f3709b","session_id":"6196c70513d70ca9a9b0e633","condition":"contingent","relevant_dimensions":["antennae","pattern"],"bee_group":{"antennae":"B","wings":"X","pattern":"S","legs":"X"},"bonus":1.0000000000000009},{"rt":7678.199999928474,"stimulus":"bees-with-color/bee-B2SM.svg","response":1,"trial_type":"image-button-response","trial_index":31,"time_elapsed":1076383,"internal_node_id":"0.0-4.0-0.10","subject_id":"6140b5b201e55201433c2383","study_id":"60edd13110225f80f9f3709b","session_id":"6196c70513d70ca9a9b0e633","condition":"contingent","relevant_dimensions":["antennae","pattern"],"bee_group":{"antennae":"B","wings":"X","pattern":"S","legs":"X"},"action":"avoid","summary":"good-avoid","bonus":1.0000000000000009},{"rt":3772.600000023842,"stimulus":"\n                    <p><b>Action: <em>avoid</em></b></p>\n                    <p>This is the bee that you just saw.</p>\n                    <img src=\"bees-with-color/bee-B2SM.svg\" width=\"200\">\n                    <p><br>Your bonus pay is unchanged, and remains at $0.34.</p>\n            ","response":0,"trial_type":"html-button-response","trial_index":32,"time_elapsed":1080156,"internal_node_id":"0.0-4.0-1.10","subject_id":"6140b5b201e55201433c2383","study_id":"60edd13110225f80f9f3709b","session_id":"6196c70513d70ca9a9b0e633","condition":"contingent","relevant_dimensions":["antennae","pattern"],"bee_group":{"antennae":"B","wings":"X","pattern":"S","legs":"X"},"bonus":1.0000000000000009},{"rt":3607.7999999523163,"stimulus":"bees-with-color/bee-B2DF.svg","response":0,"trial_type":"image-button-response","trial_index":33,"time_elapsed":1083765,"internal_node_id":"0.0-4.0-0.11","subject_id":"6140b5b201e55201433c2383","study_id":"60edd13110225f80f9f3709b","session_id":"6196c70513d70ca9a9b0e633","condition":"contingent","relevant_dimensions":["antennae","pattern"],"bee_group":{"antennae":"B","wings":"X","pattern":"S","legs":"X"},"action":"harvest","summary":"good-harvest","bonus":1.0000000000000009},{"rt":669.8999999761581,"stimulus":"\n                    <p><b>Action: <em>harvest</em></b></p>\n                    <p>This is the bee that you just saw.</p>\n                    <img src=\"bees-with-color/bee-B2DF.svg\" width=\"200\">\n                    <p><span class=\"greenText\"><b>Successful harvest!</b></span><br>Your pay has increased by $0.02. Your bonus pay is now $0.36.</p>\n            ","response":0,"trial_type":"html-button-response","trial_index":34,"time_elapsed":1084436,"internal_node_id":"0.0-4.0-1.11","subject_id":"6140b5b201e55201433c2383","study_id":"60edd13110225f80f9f3709b","session_id":"6196c70513d70ca9a9b0e633","condition":"contingent","relevant_dimensions":["antennae","pattern"],"bee_group":{"antennae":"B","wings":"X","pattern":"S","legs":"X"},"bonus":1.0000000000000009},{"rt":13432.599999904633,"stimulus":"bees-with-color/bee-A1SM.svg","response":0,"trial_type":"image-button-response","trial_index":35,"time_elapsed":1097870,"internal_node_id":"0.0-4.0-0.12","subject_id":"6140b5b201e55201433c2383","study_id":"60edd13110225f80f9f3709b","session_id":"6196c70513d70ca9a9b0e633","condition":"contingent","relevant_dimensions":["antennae","pattern"],"bee_group":{"antennae":"B","wings":"X","pattern":"S","legs":"X"},"action":"harvest","summary":"good-harvest","bonus":1.0000000000000009},{"rt":1182.2000000476837,"stimulus":"\n                    <p><b>Action: <em>harvest</em></b></p>\n                    <p>This is the bee that you just saw.</p>\n                    <img src=\"bees-with-color/bee-A1SM.svg\" width=\"200\">\n                    <p><span class=\"greenText\"><b>Successful harvest!</b></span><br>Your pay has increased by $0.02. Your bonus pay is now $0.38.</p>\n            ","response":0,"trial_type":"html-button-response","trial_index":36,"time_elapsed":1099053,"internal_node_id":"0.0-4.0-1.12","subject_id":"6140b5b201e55201433c2383","study_id":"60edd13110225f80f9f3709b","session_id":"6196c70513d70ca9a9b0e633","condition":"contingent","relevant_dimensions":["antennae","pattern"],"bee_group":{"antennae":"B","wings":"X","pattern":"S","legs":"X"},"bonus":1.0000000000000009},{"rt":17214.799999952316,"stimulus":"bees-with-color/bee-A1DF.svg","response":1,"trial_type":"image-button-response","trial_index":37,"time_elapsed":1116269,"internal_node_id":"0.0-4.0-0.13","subject_id":"6140b5b201e55201433c2383","study_id":"60edd13110225f80f9f3709b","session_id":"6196c70513d70ca9a9b0e633","condition":"contingent","relevant_dimensions":["antennae","pattern"],"bee_group":{"antennae":"B","wings":"X","pattern":"S","legs":"X"},"action":"avoid","summary":"bad-avoid","bonus":1.0000000000000009},{"rt":799.6000000238419,"stimulus":"\n                    <p><b>Action: <em>avoid</em></b></p>\n                    <p>This is the bee that you just saw.</p>\n                    <img src=\"bees-with-color/bee-A1DF.svg\" width=\"200\">\n                    <p><br>Your bonus pay is unchanged, and remains at $0.38.</p>\n            ","response":0,"trial_type":"html-button-response","trial_index":38,"time_elapsed":1117070,"internal_node_id":"0.0-4.0-1.13","subject_id":"6140b5b201e55201433c2383","study_id":"60edd13110225f80f9f3709b","session_id":"6196c70513d70ca9a9b0e633","condition":"contingent","relevant_dimensions":["antennae","pattern"],"bee_group":{"antennae":"B","wings":"X","pattern":"S","legs":"X"},"bonus":1.0000000000000009},{"rt":11875,"stimulus":"bees-with-color/bee-B1DF.svg","response":0,"trial_type":"image-button-response","trial_index":39,"time_elapsed":1128946,"internal_node_id":"0.0-4.0-0.14","subject_id":"6140b5b201e55201433c2383","study_id":"60edd13110225f80f9f3709b","session_id":"6196c70513d70ca9a9b0e633","condition":"contingent","relevant_dimensions":["antennae","pattern"],"bee_group":{"antennae":"B","wings":"X","pattern":"S","legs":"X"},"action":"harvest","summary":"good-harvest","bonus":1.0000000000000009},{"rt":758.8999999761581,"stimulus":"\n                    <p><b>Action: <em>harvest</em></b></p>\n                    <p>This is the bee that you just saw.</p>\n                    <img src=\"bees-with-color/bee-B1DF.svg\" width=\"200\">\n                    <p><span class=\"greenText\"><b>Successful harvest!</b></span><br>Your pay has increased by $0.02. Your bonus pay is now $0.40.</p>\n            ","response":0,"trial_type":"html-button-response","trial_index":40,"time_elapsed":1129706,"internal_node_id":"0.0-4.0-1.14","subject_id":"6140b5b201e55201433c2383","study_id":"60edd13110225f80f9f3709b","session_id":"6196c70513d70ca9a9b0e633","condition":"contingent","relevant_dimensions":["antennae","pattern"],"bee_group":{"antennae":"B","wings":"X","pattern":"S","legs":"X"},"bonus":1.0000000000000009},{"rt":17855.200000047684,"stimulus":"bees-with-color/bee-A2DF.svg","response":0,"trial_type":"image-button-response","trial_index":41,"time_elapsed":1147563,"internal_node_id":"0.0-4.0-0.15","subject_id":"6140b5b201e55201433c2383","study_id":"60edd13110225f80f9f3709b","session_id":"6196c70513d70ca9a9b0e633","condition":"contingent","relevant_dimensions":["antennae","pattern"],"bee_group":{"antennae":"B","wings":"X","pattern":"S","legs":"X"},"action":"harvest","summary":"good-harvest","bonus":1.0000000000000009},{"rt":1540.6999999284744,"stimulus":"\n                    <p><b>Action: <em>harvest</em></b></p>\n                    <p>This is the bee that you just saw.</p>\n                    <img src=\"bees-with-color/bee-A2DF.svg\" width=\"200\">\n                    <p><span class=\"greenText\"><b>Successful harvest!</b></span><br>Your pay has increased by $0.02. Your bonus pay is now $0.42.</p>\n            ","response":0,"trial_type":"html-button-response","trial_index":42,"time_elapsed":1149104,"internal_node_id":"0.0-4.0-1.15","subject_id":"6140b5b201e55201433c2383","study_id":"60edd13110225f80f9f3709b","session_id":"6196c70513d70ca9a9b0e633","condition":"contingent","relevant_dimensions":["antennae","pattern"],"bee_group":{"antennae":"B","wings":"X","pattern":"S","legs":"X"},"bonus":1.0000000000000009},{"rt":11321.100000023842,"stimulus":"bees-with-color/bee-A1DM.svg","response":0,"trial_type":"image-button-response","trial_index":43,"time_elapsed":1160427,"internal_node_id":"0.0-4.0-0.16","subject_id":"6140b5b201e55201433c2383","study_id":"60edd13110225f80f9f3709b","session_id":"6196c70513d70ca9a9b0e633","condition":"contingent","relevant_dimensions":["antennae","pattern"],"bee_group":{"antennae":"B","wings":"X","pattern":"S","legs":"X"},"action":"harvest","summary":"good-harvest","bonus":1.0000000000000009},{"rt":755.8999999761581,"stimulus":"\n                    <p><b>Action: <em>harvest</em></b></p>\n                    <p>This is the bee that you just saw.</p>\n                    <img src=\"bees-with-color/bee-A1DM.svg\" width=\"200\">\n                    <p><span class=\"greenText\"><b>Successful harvest!</b></span><br>Your pay has increased by $0.02. Your bonus pay is now $0.44.</p>\n            ","response":0,"trial_type":"html-button-response","trial_index":44,"time_elapsed":1161183,"internal_node_id":"0.0-4.0-1.16","subject_id":"6140b5b201e55201433c2383","study_id":"60edd13110225f80f9f3709b","session_id":"6196c70513d70ca9a9b0e633","condition":"contingent","relevant_dimensions":["antennae","pattern"],"bee_group":{"antennae":"B","wings":"X","pattern":"S","legs":"X"},"bonus":1.0000000000000009},{"rt":53426.89999997616,"stimulus":"bees-with-color/bee-B2SM.svg","response":1,"trial_type":"image-button-response","trial_index":45,"time_elapsed":1214611,"internal_node_id":"0.0-4.0-0.17","subject_id":"6140b5b201e55201433c2383","study_id":"60edd13110225f80f9f3709b","session_id":"6196c70513d70ca9a9b0e633","condition":"contingent","relevant_dimensions":["antennae","pattern"],"bee_group":{"antennae":"B","wings":"X","pattern":"S","legs":"X"},"action":"avoid","summary":"good-avoid","bonus":1.0000000000000009},{"rt":680.6000000238419,"stimulus":"\n                    <p><b>Action: <em>avoid</em></b></p>\n                    <p>This is the bee that you just saw.</p>\n                    <img src=\"bees-with-color/bee-B2SM.svg\" width=\"200\">\n                    <p><br>Your bonus pay is unchanged, and remains at $0.44.</p>\n            ","response":0,"trial_type":"html-button-response","trial_index":46,"time_elapsed":1215293,"internal_node_id":"0.0-4.0-1.17","subject_id":"6140b5b201e55201433c2383","study_id":"60edd13110225f80f9f3709b","session_id":"6196c70513d70ca9a9b0e633","condition":"contingent","relevant_dimensions":["antennae","pattern"],"bee_group":{"antennae":"B","wings":"X","pattern":"S","legs":"X"},"bonus":1.0000000000000009},{"rt":22080.899999976158,"stimulus":"bees-with-color/bee-A2DF.svg","response":0,"trial_type":"image-button-response","trial_index":47,"time_elapsed":1237375,"internal_node_id":"0.0-4.0-0.18","subject_id":"6140b5b201e55201433c2383","study_id":"60edd13110225f80f9f3709b","session_id":"6196c70513d70ca9a9b0e633","condition":"contingent","relevant_dimensions":["antennae","pattern"],"bee_group":{"antennae":"B","wings":"X","pattern":"S","legs":"X"},"action":"harvest","summary":"good-harvest","bonus":1.0000000000000009},{"rt":994,"stimulus":"\n                    <p><b>Action: <em>harvest</em></b></p>\n                    <p>This is the bee that you just saw.</p>\n                    <img src=\"bees-with-color/bee-A2DF.svg\" width=\"200\">\n                    <p><span class=\"greenText\"><b>Successful harvest!</b></span><br>Your pay has increased by $0.02. Your bonus pay is now $0.46.</p>\n            ","response":0,"trial_type":"html-button-response","trial_index":48,"time_elapsed":1238370,"internal_node_id":"0.0-4.0-1.18","subject_id":"6140b5b201e55201433c2383","study_id":"60edd13110225f80f9f3709b","session_id":"6196c70513d70ca9a9b0e633","condition":"contingent","relevant_dimensions":["antennae","pattern"],"bee_group":{"antennae":"B","wings":"X","pattern":"S","legs":"X"},"bonus":1.0000000000000009},{"rt":11894,"stimulus":"bees-with-color/bee-A2SF.svg","response":1,"trial_type":"image-button-response","trial_index":49,"time_elapsed":1250265,"internal_node_id":"0.0-4.0-0.19","subject_id":"6140b5b201e55201433c2383","study_id":"60edd13110225f80f9f3709b","session_id":"6196c70513d70ca9a9b0e633","condition":"contingent","relevant_dimensions":["antennae","pattern"],"bee_group":{"antennae":"B","wings":"X","pattern":"S","legs":"X"},"action":"avoid","summary":"bad-avoid","bonus":1.0000000000000009},{"rt":617.1000000238419,"stimulus":"\n                    <p><b>Action: <em>avoid</em></b></p>\n                    <p>This is the bee that you just saw.</p>\n                    <img src=\"bees-with-color/bee-A2SF.svg\" width=\"200\">\n                    <p><br>Your bonus pay is unchanged, and remains at $0.46.</p>\n            ","response":0,"trial_type":"html-button-response","trial_index":50,"time_elapsed":1250883,"internal_node_id":"0.0-4.0-1.19","subject_id":"6140b5b201e55201433c2383","study_id":"60edd13110225f80f9f3709b","session_id":"6196c70513d70ca9a9b0e633","condition":"contingent","relevant_dimensions":["antennae","pattern"],"bee_group":{"antennae":"B","wings":"X","pattern":"S","legs":"X"},"bonus":1.0000000000000009},{"rt":11557.600000023842,"stimulus":"bees-with-color/bee-A1SM.svg","response":0,"trial_type":"image-button-response","trial_index":51,"time_elapsed":1262442,"internal_node_id":"0.0-4.0-0.20","subject_id":"6140b5b201e55201433c2383","study_id":"60edd13110225f80f9f3709b","session_id":"6196c70513d70ca9a9b0e633","condition":"contingent","relevant_dimensions":["antennae","pattern"],"bee_group":{"antennae":"B","wings":"X","pattern":"S","legs":"X"},"action":"harvest","summary":"good-harvest","bonus":1.0000000000000009},{"rt":738.1000000238419,"stimulus":"\n                    <p><b>Action: <em>harvest</em></b></p>\n                    <p>This is the bee that you just saw.</p>\n                    <img src=\"bees-with-color/bee-A1SM.svg\" width=\"200\">\n                    <p><span class=\"greenText\"><b>Successful harvest!</b></span><br>Your pay has increased by $0.02. Your bonus pay is now $0.48.</p>\n            ","response":0,"trial_type":"html-button-response","trial_index":52,"time_elapsed":1263181,"internal_node_id":"0.0-4.0-1.20","subject_id":"6140b5b201e55201433c2383","study_id":"60edd13110225f80f9f3709b","session_id":"6196c70513d70ca9a9b0e633","condition":"contingent","relevant_dimensions":["antennae","pattern"],"bee_group":{"antennae":"B","wings":"X","pattern":"S","legs":"X"},"bonus":1.0000000000000009},{"rt":24246.799999952316,"stimulus":"bees-with-color/bee-B2SF.svg","response":1,"trial_type":"image-button-response","trial_index":53,"time_elapsed":1287429,"internal_node_id":"0.0-4.0-0.21","subject_id":"6140b5b201e55201433c2383","study_id":"60edd13110225f80f9f3709b","session_id":"6196c70513d70ca9a9b0e633","condition":"contingent","relevant_dimensions":["antennae","pattern"],"bee_group":{"antennae":"B","wings":"X","pattern":"S","legs":"X"},"action":"avoid","summary":"good-avoid","bonus":1.0000000000000009},{"rt":591.2000000476837,"stimulus":"\n                    <p><b>Action: <em>avoid</em></b></p>\n                    <p>This is the bee that you just saw.</p>\n                    <img src=\"bees-with-color/bee-B2SF.svg\" width=\"200\">\n                    <p><br>Your bonus pay is unchanged, and remains at $0.48.</p>\n            ","response":0,"trial_type":"html-button-response","trial_index":54,"time_elapsed":1288022,"internal_node_id":"0.0-4.0-1.21","subject_id":"6140b5b201e55201433c2383","study_id":"60edd13110225f80f9f3709b","session_id":"6196c70513d70ca9a9b0e633","condition":"contingent","relevant_dimensions":["antennae","pattern"],"bee_group":{"antennae":"B","wings":"X","pattern":"S","legs":"X"},"bonus":1.0000000000000009},{"rt":7012.5,"stimulus":"bees-with-color/bee-A2DM.svg","response":0,"trial_type":"image-button-response","trial_index":55,"time_elapsed":1295035,"internal_node_id":"0.0-4.0-0.22","subject_id":"6140b5b201e55201433c2383","study_id":"60edd13110225f80f9f3709b","session_id":"6196c70513d70ca9a9b0e633","condition":"contingent","relevant_dimensions":["antennae","pattern"],"bee_group":{"antennae":"B","wings":"X","pattern":"S","legs":"X"},"action":"harvest","summary":"good-harvest","bonus":1.0000000000000009},{"rt":850.8999999761581,"stimulus":"\n                    <p><b>Action: <em>harvest</em></b></p>\n                    <p>This is the bee that you just saw.</p>\n                    <img src=\"bees-with-color/bee-A2DM.svg\" width=\"200\">\n                    <p><span class=\"greenText\"><b>Successful harvest!</b></span><br>Your pay has increased by $0.02. Your bonus pay is now $0.50.</p>\n            ","response":0,"trial_type":"html-button-response","trial_index":56,"time_elapsed":1295887,"internal_node_id":"0.0-4.0-1.22","subject_id":"6140b5b201e55201433c2383","study_id":"60edd13110225f80f9f3709b","session_id":"6196c70513d70ca9a9b0e633","condition":"contingent","relevant_dimensions":["antennae","pattern"],"bee_group":{"antennae":"B","wings":"X","pattern":"S","legs":"X"},"bonus":1.0000000000000009},{"rt":12067.5,"stimulus":"bees-with-color/bee-B2DM.svg","response":0,"trial_type":"image-button-response","trial_index":57,"time_elapsed":1307956,"internal_node_id":"0.0-4.0-0.23","subject_id":"6140b5b201e55201433c2383","study_id":"60edd13110225f80f9f3709b","session_id":"6196c70513d70ca9a9b0e633","condition":"contingent","relevant_dimensions":["antennae","pattern"],"bee_group":{"antennae":"B","wings":"X","pattern":"S","legs":"X"},"action":"harvest","summary":"good-harvest","bonus":1.0000000000000009},{"rt":617.6000000238419,"stimulus":"\n                    <p><b>Action: <em>harvest</em></b></p>\n                    <p>This is the bee that you just saw.</p>\n                    <img src=\"bees-with-color/bee-B2DM.svg\" width=\"200\">\n                    <p><span class=\"greenText\"><b>Successful harvest!</b></span><br>Your pay has increased by $0.02. Your bonus pay is now $0.52.</p>\n            ","response":0,"trial_type":"html-button-response","trial_index":58,"time_elapsed":1308574,"internal_node_id":"0.0-4.0-1.23","subject_id":"6140b5b201e55201433c2383","study_id":"60edd13110225f80f9f3709b","session_id":"6196c70513d70ca9a9b0e633","condition":"contingent","relevant_dimensions":["antennae","pattern"],"bee_group":{"antennae":"B","wings":"X","pattern":"S","legs":"X"},"bonus":1.0000000000000009},{"rt":10328.400000095367,"stimulus":"bees-with-color/bee-A2SM.svg","response":0,"trial_type":"image-button-response","trial_index":59,"time_elapsed":1318904,"internal_node_id":"0.0-4.0-0.24","subject_id":"6140b5b201e55201433c2383","study_id":"60edd13110225f80f9f3709b","session_id":"6196c70513d70ca9a9b0e633","condition":"contingent","relevant_dimensions":["antennae","pattern"],"bee_group":{"antennae":"B","wings":"X","pattern":"S","legs":"X"},"action":"harvest","summary":"good-harvest","bonus":1.0000000000000009},{"rt":641.1000000238419,"stimulus":"\n                    <p><b>Action: <em>harvest</em></b></p>\n                    <p>This is the bee that you just saw.</p>\n                    <img src=\"bees-with-color/bee-A2SM.svg\" width=\"200\">\n                    <p><span class=\"greenText\"><b>Successful harvest!</b></span><br>Your pay has increased by $0.02. Your bonus pay is now $0.54.</p>\n            ","response":0,"trial_type":"html-button-response","trial_index":60,"time_elapsed":1319546,"internal_node_id":"0.0-4.0-1.24","subject_id":"6140b5b201e55201433c2383","study_id":"60edd13110225f80f9f3709b","session_id":"6196c70513d70ca9a9b0e633","condition":"contingent","relevant_dimensions":["antennae","pattern"],"bee_group":{"antennae":"B","wings":"X","pattern":"S","legs":"X"},"bonus":1.0000000000000009},{"rt":17876.800000071526,"stimulus":"bees-with-color/bee-A1DF.svg","response":1,"trial_type":"image-button-response","trial_index":61,"time_elapsed":1337424,"internal_node_id":"0.0-4.0-0.25","subject_id":"6140b5b201e55201433c2383","study_id":"60edd13110225f80f9f3709b","session_id":"6196c70513d70ca9a9b0e633","condition":"contingent","relevant_dimensions":["antennae","pattern"],"bee_group":{"antennae":"B","wings":"X","pattern":"S","legs":"X"},"action":"avoid","summary":"bad-avoid","bonus":1.0000000000000009},{"rt":668.6000000238419,"stimulus":"\n                    <p><b>Action: <em>avoid</em></b></p>\n                    <p>This is the bee that you just saw.</p>\n                    <img src=\"bees-with-color/bee-A1DF.svg\" width=\"200\">\n                    <p><br>Your bonus pay is unchanged, and remains at $0.54.</p>\n            ","response":0,"trial_type":"html-button-response","trial_index":62,"time_elapsed":1338094,"internal_node_id":"0.0-4.0-1.25","subject_id":"6140b5b201e55201433c2383","study_id":"60edd13110225f80f9f3709b","session_id":"6196c70513d70ca9a9b0e633","condition":"contingent","relevant_dimensions":["antennae","pattern"],"bee_group":{"antennae":"B","wings":"X","pattern":"S","legs":"X"},"bonus":1.0000000000000009},{"rt":11607,"stimulus":"bees-with-color/bee-B1DM.svg","response":0,"trial_type":"image-button-response","trial_index":63,"time_elapsed":1349702,"internal_node_id":"0.0-4.0-0.26","subject_id":"6140b5b201e55201433c2383","study_id":"60edd13110225f80f9f3709b","session_id":"6196c70513d70ca9a9b0e633","condition":"contingent","relevant_dimensions":["antennae","pattern"],"bee_group":{"antennae":"B","wings":"X","pattern":"S","legs":"X"},"action":"harvest","summary":"good-harvest","bonus":1.0000000000000009},{"rt":808.1999999284744,"stimulus":"\n                    <p><b>Action: <em>harvest</em></b></p>\n                    <p>This is the bee that you just saw.</p>\n                    <img src=\"bees-with-color/bee-B1DM.svg\" width=\"200\">\n                    <p><span class=\"greenText\"><b>Successful harvest!</b></span><br>Your pay has increased by $0.02. Your bonus pay is now $0.56.</p>\n            ","response":0,"trial_type":"html-button-response","trial_index":64,"time_elapsed":1350511,"internal_node_id":"0.0-4.0-1.26","subject_id":"6140b5b201e55201433c2383","study_id":"60edd13110225f80f9f3709b","session_id":"6196c70513d70ca9a9b0e633","condition":"contingent","relevant_dimensions":["antennae","pattern"],"bee_group":{"antennae":"B","wings":"X","pattern":"S","legs":"X"},"bonus":1.0000000000000009},{"rt":17417.700000047684,"stimulus":"bees-with-color/bee-B1SM.svg","response":1,"trial_type":"image-button-response","trial_index":65,"time_elapsed":1367930,"internal_node_id":"0.0-4.0-0.27","subject_id":"6140b5b201e55201433c2383","study_id":"60edd13110225f80f9f3709b","session_id":"6196c70513d70ca9a9b0e633","condition":"contingent","relevant_dimensions":["antennae","pattern"],"bee_group":{"antennae":"B","wings":"X","pattern":"S","legs":"X"},"action":"avoid","summary":"good-avoid","bonus":1.0000000000000009},{"rt":1371,"stimulus":"\n                    <p><b>Action: <em>avoid</em></b></p>\n                    <p>This is the bee that you just saw.</p>\n                    <img src=\"bees-with-color/bee-B1SM.svg\" width=\"200\">\n                    <p><br>Your bonus pay is unchanged, and remains at $0.56.</p>\n            ","response":0,"trial_type":"html-button-response","trial_index":66,"time_elapsed":1369302,"internal_node_id":"0.0-4.0-1.27","subject_id":"6140b5b201e55201433c2383","study_id":"60edd13110225f80f9f3709b","session_id":"6196c70513d70ca9a9b0e633","condition":"contingent","relevant_dimensions":["antennae","pattern"],"bee_group":{"antennae":"B","wings":"X","pattern":"S","legs":"X"},"bonus":1.0000000000000009},{"rt":15762.600000023842,"stimulus":"bees-with-color/bee-B2DF.svg","response":1,"trial_type":"image-button-response","trial_index":67,"time_elapsed":1385066,"internal_node_id":"0.0-4.0-0.28","subject_id":"6140b5b201e55201433c2383","study_id":"60edd13110225f80f9f3709b","session_id":"6196c70513d70ca9a9b0e633","condition":"contingent","relevant_dimensions":["antennae","pattern"],"bee_group":{"antennae":"B","wings":"X","pattern":"S","legs":"X"},"action":"avoid","summary":"bad-avoid","bonus":1.0000000000000009},{"rt":1154.3999999761581,"stimulus":"\n                    <p><b>Action: <em>avoid</em></b></p>\n                    <p>This is the bee that you just saw.</p>\n                    <img src=\"bees-with-color/bee-B2DF.svg\" width=\"200\">\n                    <p><br>Your bonus pay is unchanged, and remains at $0.56.</p>\n            ","response":0,"trial_type":"html-button-response","trial_index":68,"time_elapsed":1386221,"internal_node_id":"0.0-4.0-1.28","subject_id":"6140b5b201e55201433c2383","study_id":"60edd13110225f80f9f3709b","session_id":"6196c70513d70ca9a9b0e633","condition":"contingent","relevant_dimensions":["antennae","pattern"],"bee_group":{"antennae":"B","wings":"X","pattern":"S","legs":"X"},"bonus":1.0000000000000009},{"rt":12445.899999976158,"stimulus":"bees-with-color/bee-B1DF.svg","response":0,"trial_type":"image-button-response","trial_index":69,"time_elapsed":1398668,"internal_node_id":"0.0-4.0-0.29","subject_id":"6140b5b201e55201433c2383","study_id":"60edd13110225f80f9f3709b","session_id":"6196c70513d70ca9a9b0e633","condition":"contingent","relevant_dimensions":["antennae","pattern"],"bee_group":{"antennae":"B","wings":"X","pattern":"S","legs":"X"},"action":"harvest","summary":"good-harvest","bonus":1.0000000000000009},{"rt":762.9000000953674,"stimulus":"\n                    <p><b>Action: <em>harvest</em></b></p>\n                    <p>This is the bee that you just saw.</p>\n                    <img src=\"bees-with-color/bee-B1DF.svg\" width=\"200\">\n                    <p><span class=\"greenText\"><b>Successful harvest!</b></span><br>Your pay has increased by $0.02. Your bonus pay is now $0.58.</p>\n            ","response":0,"trial_type":"html-button-response","trial_index":70,"time_elapsed":1399432,"internal_node_id":"0.0-4.0-1.29","subject_id":"6140b5b201e55201433c2383","study_id":"60edd13110225f80f9f3709b","session_id":"6196c70513d70ca9a9b0e633","condition":"contingent","relevant_dimensions":["antennae","pattern"],"bee_group":{"antennae":"B","wings":"X","pattern":"S","legs":"X"},"bonus":1.0000000000000009},{"rt":12352.700000047684,"stimulus":"bees-with-color/bee-B1SF.svg","response":1,"trial_type":"image-button-response","trial_index":71,"time_elapsed":1411785,"internal_node_id":"0.0-4.0-0.30","subject_id":"6140b5b201e55201433c2383","study_id":"60edd13110225f80f9f3709b","session_id":"6196c70513d70ca9a9b0e633","condition":"contingent","relevant_dimensions":["antennae","pattern"],"bee_group":{"antennae":"B","wings":"X","pattern":"S","legs":"X"},"action":"avoid","summary":"good-avoid","bonus":1.0000000000000009},{"rt":611,"stimulus":"\n                    <p><b>Action: <em>avoid</em></b></p>\n                    <p>This is the bee that you just saw.</p>\n                    <img src=\"bees-with-color/bee-B1SF.svg\" width=\"200\">\n                    <p><br>Your bonus pay is unchanged, and remains at $0.58.</p>\n            ","response":0,"trial_type":"html-button-response","trial_index":72,"time_elapsed":1412397,"internal_node_id":"0.0-4.0-1.30","subject_id":"6140b5b201e55201433c2383","study_id":"60edd13110225f80f9f3709b","session_id":"6196c70513d70ca9a9b0e633","condition":"contingent","relevant_dimensions":["antennae","pattern"],"bee_group":{"antennae":"B","wings":"X","pattern":"S","legs":"X"},"bonus":1.0000000000000009},{"rt":13427.199999928474,"stimulus":"bees-with-color/bee-A1SF.svg","response":0,"trial_type":"image-button-response","trial_index":73,"time_elapsed":1425826,"internal_node_id":"0.0-4.0-0.31","subject_id":"6140b5b201e55201433c2383","study_id":"60edd13110225f80f9f3709b","session_id":"6196c70513d70ca9a9b0e633","condition":"contingent","relevant_dimensions":["antennae","pattern"],"bee_group":{"antennae":"B","wings":"X","pattern":"S","legs":"X"},"action":"harvest","summary":"good-harvest","bonus":1.0000000000000009},{"rt":1083.7999999523163,"stimulus":"\n                    <p><b>Action: <em>harvest</em></b></p>\n                    <p>This is the bee that you just saw.</p>\n                    <img src=\"bees-with-color/bee-A1SF.svg\" width=\"200\">\n                    <p><span class=\"greenText\"><b>Successful harvest!</b></span><br>Your pay has increased by $0.02. Your bonus pay is now $0.60.</p>\n            ","response":0,"trial_type":"html-button-response","trial_index":74,"time_elapsed":1426911,"internal_node_id":"0.0-4.0-1.31","subject_id":"6140b5b201e55201433c2383","study_id":"60edd13110225f80f9f3709b","session_id":"6196c70513d70ca9a9b0e633","condition":"contingent","relevant_dimensions":["antennae","pattern"],"bee_group":{"antennae":"B","wings":"X","pattern":"S","legs":"X"},"bonus":1.0000000000000009},{"rt":5023.799999952316,"stimulus":"bees-with-color/bee-B1SF.svg","response":1,"trial_type":"image-button-response","trial_index":75,"time_elapsed":1431936,"internal_node_id":"0.0-4.0-0.32","subject_id":"6140b5b201e55201433c2383","study_id":"60edd13110225f80f9f3709b","session_id":"6196c70513d70ca9a9b0e633","condition":"contingent","relevant_dimensions":["antennae","pattern"],"bee_group":{"antennae":"B","wings":"X","pattern":"S","legs":"X"},"action":"avoid","summary":"good-avoid","bonus":1.0000000000000009},{"rt":636,"stimulus":"\n                    <p><b>Action: <em>avoid</em></b></p>\n                    <p>This is the bee that you just saw.</p>\n                    <img src=\"bees-with-color/bee-B1SF.svg\" width=\"200\">\n                    <p><br>Your bonus pay is unchanged, and remains at $0.60.</p>\n            ","response":0,"trial_type":"html-button-response","trial_index":76,"time_elapsed":1432572,"internal_node_id":"0.0-4.0-1.32","subject_id":"6140b5b201e55201433c2383","study_id":"60edd13110225f80f9f3709b","session_id":"6196c70513d70ca9a9b0e633","condition":"contingent","relevant_dimensions":["antennae","pattern"],"bee_group":{"antennae":"B","wings":"X","pattern":"S","legs":"X"},"bonus":1.0000000000000009},{"rt":10363.700000047684,"stimulus":"bees-with-color/bee-A2SF.svg","response":1,"trial_type":"image-button-response","trial_index":77,"time_elapsed":1442937,"internal_node_id":"0.0-4.0-0.33","subject_id":"6140b5b201e55201433c2383","study_id":"60edd13110225f80f9f3709b","session_id":"6196c70513d70ca9a9b0e633","condition":"contingent","relevant_dimensions":["antennae","pattern"],"bee_group":{"antennae":"B","wings":"X","pattern":"S","legs":"X"},"action":"avoid","summary":"bad-avoid","bonus":1.0000000000000009},{"rt":689.1000000238419,"stimulus":"\n                    <p><b>Action: <em>avoid</em></b></p>\n                    <p>This is the bee that you just saw.</p>\n                    <img src=\"bees-with-color/bee-A2SF.svg\" width=\"200\">\n                    <p><br>Your bonus pay is unchanged, and remains at $0.60.</p>\n            ","response":0,"trial_type":"html-button-response","trial_index":78,"time_elapsed":1443628,"internal_node_id":"0.0-4.0-1.33","subject_id":"6140b5b201e55201433c2383","study_id":"60edd13110225f80f9f3709b","session_id":"6196c70513d70ca9a9b0e633","condition":"contingent","relevant_dimensions":["antennae","pattern"],"bee_group":{"antennae":"B","wings":"X","pattern":"S","legs":"X"},"bonus":1.0000000000000009},{"rt":9264.700000047684,"stimulus":"bees-with-color/bee-B2DM.svg","response":0,"trial_type":"image-button-response","trial_index":79,"time_elapsed":1452894,"internal_node_id":"0.0-4.0-0.34","subject_id":"6140b5b201e55201433c2383","study_id":"60edd13110225f80f9f3709b","session_id":"6196c70513d70ca9a9b0e633","condition":"contingent","relevant_dimensions":["antennae","pattern"],"bee_group":{"antennae":"B","wings":"X","pattern":"S","legs":"X"},"action":"harvest","summary":"good-harvest","bonus":1.0000000000000009},{"rt":711,"stimulus":"\n                    <p><b>Action: <em>harvest</em></b></p>\n                    <p>This is the bee that you just saw.</p>\n                    <img src=\"bees-with-color/bee-B2DM.svg\" width=\"200\">\n                    <p><span class=\"greenText\"><b>Successful harvest!</b></span><br>Your pay has increased by $0.02. Your bonus pay is now $0.62.</p>\n            ","response":0,"trial_type":"html-button-response","trial_index":80,"time_elapsed":1453606,"internal_node_id":"0.0-4.0-1.34","subject_id":"6140b5b201e55201433c2383","study_id":"60edd13110225f80f9f3709b","session_id":"6196c70513d70ca9a9b0e633","condition":"contingent","relevant_dimensions":["antennae","pattern"],"bee_group":{"antennae":"B","wings":"X","pattern":"S","legs":"X"},"bonus":1.0000000000000009},{"rt":41905.199999928474,"stimulus":"bees-with-color/bee-A1DF.svg","response":1,"trial_type":"image-button-response","trial_index":81,"time_elapsed":1495512,"internal_node_id":"0.0-4.0-0.35","subject_id":"6140b5b201e55201433c2383","study_id":"60edd13110225f80f9f3709b","session_id":"6196c70513d70ca9a9b0e633","condition":"contingent","relevant_dimensions":["antennae","pattern"],"bee_group":{"antennae":"B","wings":"X","pattern":"S","legs":"X"},"action":"avoid","summary":"bad-avoid","bonus":1.0000000000000009},{"rt":899.9000000953674,"stimulus":"\n                    <p><b>Action: <em>avoid</em></b></p>\n                    <p>This is the bee that you just saw.</p>\n                    <img src=\"bees-with-color/bee-A1DF.svg\" width=\"200\">\n                    <p><br>Your bonus pay is unchanged, and remains at $0.62.</p>\n            ","response":0,"trial_type":"html-button-response","trial_index":82,"time_elapsed":1496413,"internal_node_id":"0.0-4.0-1.35","subject_id":"6140b5b201e55201433c2383","study_id":"60edd13110225f80f9f3709b","session_id":"6196c70513d70ca9a9b0e633","condition":"contingent","relevant_dimensions":["antennae","pattern"],"bee_group":{"antennae":"B","wings":"X","pattern":"S","legs":"X"},"bonus":1.0000000000000009},{"rt":21261.5,"stimulus":"bees-with-color/bee-A2DM.svg","response":0,"trial_type":"image-button-response","trial_index":83,"time_elapsed":1517676,"internal_node_id":"0.0-4.0-0.36","subject_id":"6140b5b201e55201433c2383","study_id":"60edd13110225f80f9f3709b","session_id":"6196c70513d70ca9a9b0e633","condition":"contingent","relevant_dimensions":["antennae","pattern"],"bee_group":{"antennae":"B","wings":"X","pattern":"S","legs":"X"},"action":"harvest","summary":"good-harvest","bonus":1.0000000000000009},{"rt":692.3000000715256,"stimulus":"\n                    <p><b>Action: <em>harvest</em></b></p>\n                    <p>This is the bee that you just saw.</p>\n                    <img src=\"bees-with-color/bee-A2DM.svg\" width=\"200\">\n                    <p><span class=\"greenText\"><b>Successful harvest!</b></span><br>Your pay has increased by $0.02. Your bonus pay is now $0.64.</p>\n            ","response":0,"trial_type":"html-button-response","trial_index":84,"time_elapsed":1518369,"internal_node_id":"0.0-4.0-1.36","subject_id":"6140b5b201e55201433c2383","study_id":"60edd13110225f80f9f3709b","session_id":"6196c70513d70ca9a9b0e633","condition":"contingent","relevant_dimensions":["antennae","pattern"],"bee_group":{"antennae":"B","wings":"X","pattern":"S","legs":"X"},"bonus":1.0000000000000009},{"rt":26592.800000071526,"stimulus":"bees-with-color/bee-B2SM.svg","response":0,"trial_type":"image-button-response","trial_index":85,"time_elapsed":1544963,"internal_node_id":"0.0-4.0-0.37","subject_id":"6140b5b201e55201433c2383","study_id":"60edd13110225f80f9f3709b","session_id":"6196c70513d70ca9a9b0e633","condition":"contingent","relevant_dimensions":["antennae","pattern"],"bee_group":{"antennae":"B","wings":"X","pattern":"S","legs":"X"},"action":"harvest","summary":"bad-harvest","bonus":1.0000000000000009},{"rt":8367.199999928474,"stimulus":"\n                    <p><b>Action: <em>harvest</em></b></p>\n                    <p>This is the bee that you just saw.</p>\n                    <img src=\"bees-with-color/bee-B2SM.svg\" width=\"200\">\n                    <p><span class=\"redText\">Bad choice, the bee was angry.</span><br><b>You have been stung!</b><br>Your pay has been decreased by $0.10. Your bonus pay is now $0.54.</p>\n            ","response":0,"trial_type":"html-button-response","trial_index":86,"time_elapsed":1553331,"internal_node_id":"0.0-4.0-1.37","subject_id":"6140b5b201e55201433c2383","study_id":"60edd13110225f80f9f3709b","session_id":"6196c70513d70ca9a9b0e633","condition":"contingent","relevant_dimensions":["antennae","pattern"],"bee_group":{"antennae":"B","wings":"X","pattern":"S","legs":"X"},"bonus":1.0000000000000009},{"rt":17592.600000023842,"stimulus":"bees-with-color/bee-B1DF.svg","response":0,"trial_type":"image-button-response","trial_index":87,"time_elapsed":1570925,"internal_node_id":"0.0-4.0-0.38","subject_id":"6140b5b201e55201433c2383","study_id":"60edd13110225f80f9f3709b","session_id":"6196c70513d70ca9a9b0e633","condition":"contingent","relevant_dimensions":["antennae","pattern"],"bee_group":{"antennae":"B","wings":"X","pattern":"S","legs":"X"},"action":"harvest","summary":"good-harvest","bonus":1.0000000000000009},{"rt":637.5,"stimulus":"\n                    <p><b>Action: <em>harvest</em></b></p>\n                    <p>This is the bee that you just saw.</p>\n                    <img src=\"bees-with-color/bee-B1DF.svg\" width=\"200\">\n                    <p><span class=\"greenText\"><b>Successful harvest!</b></span><br>Your pay has increased by $0.02. Your bonus pay is now $0.56.</p>\n            ","response":0,"trial_type":"html-button-response","trial_index":88,"time_elapsed":1571563,"internal_node_id":"0.0-4.0-1.38","subject_id":"6140b5b201e55201433c2383","study_id":"60edd13110225f80f9f3709b","session_id":"6196c70513d70ca9a9b0e633","condition":"contingent","relevant_dimensions":["antennae","pattern"],"bee_group":{"antennae":"B","wings":"X","pattern":"S","legs":"X"},"bonus":1.0000000000000009},{"rt":9123.5,"stimulus":"bees-with-color/bee-A2SM.svg","response":0,"trial_type":"image-button-response","trial_index":89,"time_elapsed":1580688,"internal_node_id":"0.0-4.0-0.39","subject_id":"6140b5b201e55201433c2383","study_id":"60edd13110225f80f9f3709b","session_id":"6196c70513d70ca9a9b0e633","condition":"contingent","relevant_dimensions":["antennae","pattern"],"bee_group":{"antennae":"B","wings":"X","pattern":"S","legs":"X"},"action":"harvest","summary":"good-harvest","bonus":1.0000000000000009},{"rt":880.1000000238419,"stimulus":"\n                    <p><b>Action: <em>harvest</em></b></p>\n                    <p>This is the bee that you just saw.</p>\n                    <img src=\"bees-with-color/bee-A2SM.svg\" width=\"200\">\n                    <p><span class=\"greenText\"><b>Successful harvest!</b></span><br>Your pay has increased by $0.02. Your bonus pay is now $0.58.</p>\n            ","response":0,"trial_type":"html-button-response","trial_index":90,"time_elapsed":1581569,"internal_node_id":"0.0-4.0-1.39","subject_id":"6140b5b201e55201433c2383","study_id":"60edd13110225f80f9f3709b","session_id":"6196c70513d70ca9a9b0e633","condition":"contingent","relevant_dimensions":["antennae","pattern"],"bee_group":{"antennae":"B","wings":"X","pattern":"S","legs":"X"},"bonus":1.0000000000000009},{"rt":18366.600000023842,"stimulus":"bees-with-color/bee-A2DF.svg","response":0,"trial_type":"image-button-response","trial_index":91,"time_elapsed":1599937,"internal_node_id":"0.0-4.0-0.40","subject_id":"6140b5b201e55201433c2383","study_id":"60edd13110225f80f9f3709b","session_id":"6196c70513d70ca9a9b0e633","condition":"contingent","relevant_dimensions":["antennae","pattern"],"bee_group":{"antennae":"B","wings":"X","pattern":"S","legs":"X"},"action":"harvest","summary":"good-harvest","bonus":1.0000000000000009},{"rt":1390.3999999761581,"stimulus":"\n                    <p><b>Action: <em>harvest</em></b></p>\n                    <p>This is the bee that you just saw.</p>\n                    <img src=\"bees-with-color/bee-A2DF.svg\" width=\"200\">\n                    <p><span class=\"greenText\"><b>Successful harvest!</b></span><br>Your pay has increased by $0.02. Your bonus pay is now $0.60.</p>\n            ","response":0,"trial_type":"html-button-response","trial_index":92,"time_elapsed":1601328,"internal_node_id":"0.0-4.0-1.40","subject_id":"6140b5b201e55201433c2383","study_id":"60edd13110225f80f9f3709b","session_id":"6196c70513d70ca9a9b0e633","condition":"contingent","relevant_dimensions":["antennae","pattern"],"bee_group":{"antennae":"B","wings":"X","pattern":"S","legs":"X"},"bonus":1.0000000000000009},{"rt":11749.400000095367,"stimulus":"bees-with-color/bee-A1DM.svg","response":0,"trial_type":"image-button-response","trial_index":93,"time_elapsed":1613079,"internal_node_id":"0.0-4.0-0.41","subject_id":"6140b5b201e55201433c2383","study_id":"60edd13110225f80f9f3709b","session_id":"6196c70513d70ca9a9b0e633","condition":"contingent","relevant_dimensions":["antennae","pattern"],"bee_group":{"antennae":"B","wings":"X","pattern":"S","legs":"X"},"action":"harvest","summary":"good-harvest","bonus":1.0000000000000009},{"rt":1053.8999999761581,"stimulus":"\n                    <p><b>Action: <em>harvest</em></b></p>\n                    <p>This is the bee that you just saw.</p>\n                    <img src=\"bees-with-color/bee-A1DM.svg\" width=\"200\">\n                    <p><span class=\"greenText\"><b>Successful harvest!</b></span><br>Your pay has increased by $0.02. Your bonus pay is now $0.62.</p>\n            ","response":0,"trial_type":"html-button-response","trial_index":94,"time_elapsed":1614134,"internal_node_id":"0.0-4.0-1.41","subject_id":"6140b5b201e55201433c2383","study_id":"60edd13110225f80f9f3709b","session_id":"6196c70513d70ca9a9b0e633","condition":"contingent","relevant_dimensions":["antennae","pattern"],"bee_group":{"antennae":"B","wings":"X","pattern":"S","legs":"X"},"bonus":1.0000000000000009},{"rt":39525.89999997616,"stimulus":"bees-with-color/bee-B2SF.svg","response":0,"trial_type":"image-button-response","trial_index":95,"time_elapsed":1653660,"internal_node_id":"0.0-4.0-0.42","subject_id":"6140b5b201e55201433c2383","study_id":"60edd13110225f80f9f3709b","session_id":"6196c70513d70ca9a9b0e633","condition":"contingent","relevant_dimensions":["antennae","pattern"],"bee_group":{"antennae":"B","wings":"X","pattern":"S","legs":"X"},"action":"harvest","summary":"bad-harvest","bonus":1.0000000000000009},{"rt":14416,"stimulus":"\n                    <p><b>Action: <em>harvest</em></b></p>\n                    <p>This is the bee that you just saw.</p>\n                    <img src=\"bees-with-color/bee-B2SF.svg\" width=\"200\">\n                    <p><span class=\"redText\">Bad choice, the bee was angry.</span><br><b>You have been stung!</b><br>Your pay has been decreased by $0.10. Your bonus pay is now $0.52.</p>\n            ","response":0,"trial_type":"html-button-response","trial_index":96,"time_elapsed":1668077,"internal_node_id":"0.0-4.0-1.42","subject_id":"6140b5b201e55201433c2383","study_id":"60edd13110225f80f9f3709b","session_id":"6196c70513d70ca9a9b0e633","condition":"contingent","relevant_dimensions":["antennae","pattern"],"bee_group":{"antennae":"B","wings":"X","pattern":"S","legs":"X"},"bonus":1.0000000000000009},{"rt":18547.799999952316,"stimulus":"bees-with-color/bee-B1DM.svg","response":1,"trial_type":"image-button-response","trial_index":97,"time_elapsed":1686626,"internal_node_id":"0.0-4.0-0.43","subject_id":"6140b5b201e55201433c2383","study_id":"60edd13110225f80f9f3709b","session_id":"6196c70513d70ca9a9b0e633","condition":"contingent","relevant_dimensions":["antennae","pattern"],"bee_group":{"antennae":"B","wings":"X","pattern":"S","legs":"X"},"action":"avoid","summary":"bad-avoid","bonus":1.0000000000000009},{"rt":1041.2000000476837,"stimulus":"\n                    <p><b>Action: <em>avoid</em></b></p>\n                    <p>This is the bee that you just saw.</p>\n                    <img src=\"bees-with-color/bee-B1DM.svg\" width=\"200\">\n                    <p><br>Your bonus pay is unchanged, and remains at $0.52.</p>\n            ","response":0,"trial_type":"html-button-response","trial_index":98,"time_elapsed":1687668,"internal_node_id":"0.0-4.0-1.43","subject_id":"6140b5b201e55201433c2383","study_id":"60edd13110225f80f9f3709b","session_id":"6196c70513d70ca9a9b0e633","condition":"contingent","relevant_dimensions":["antennae","pattern"],"bee_group":{"antennae":"B","wings":"X","pattern":"S","legs":"X"},"bonus":1.0000000000000009},{"rt":14421.899999976158,"stimulus":"bees-with-color/bee-B2DF.svg","response":1,"trial_type":"image-button-response","trial_index":99,"time_elapsed":1702091,"internal_node_id":"0.0-4.0-0.44","subject_id":"6140b5b201e55201433c2383","study_id":"60edd13110225f80f9f3709b","session_id":"6196c70513d70ca9a9b0e633","condition":"contingent","relevant_dimensions":["antennae","pattern"],"bee_group":{"antennae":"B","wings":"X","pattern":"S","legs":"X"},"action":"avoid","summary":"bad-avoid","bonus":1.0000000000000009},{"rt":677.8999999761581,"stimulus":"\n                    <p><b>Action: <em>avoid</em></b></p>\n                    <p>This is the bee that you just saw.</p>\n                    <img src=\"bees-with-color/bee-B2DF.svg\" width=\"200\">\n                    <p><br>Your bonus pay is unchanged, and remains at $0.52.</p>\n            ","response":0,"trial_type":"html-button-response","trial_index":100,"time_elapsed":1702770,"internal_node_id":"0.0-4.0-1.44","subject_id":"6140b5b201e55201433c2383","study_id":"60edd13110225f80f9f3709b","session_id":"6196c70513d70ca9a9b0e633","condition":"contingent","relevant_dimensions":["antennae","pattern"],"bee_group":{"antennae":"B","wings":"X","pattern":"S","legs":"X"},"bonus":1.0000000000000009},{"rt":10485.699999928474,"stimulus":"bees-with-color/bee-A1SM.svg","response":0,"trial_type":"image-button-response","trial_index":101,"time_elapsed":1713257,"internal_node_id":"0.0-4.0-0.45","subject_id":"6140b5b201e55201433c2383","study_id":"60edd13110225f80f9f3709b","session_id":"6196c70513d70ca9a9b0e633","condition":"contingent","relevant_dimensions":["antennae","pattern"],"bee_group":{"antennae":"B","wings":"X","pattern":"S","legs":"X"},"action":"harvest","summary":"good-harvest","bonus":1.0000000000000009},{"rt":731.1000000238419,"stimulus":"\n                    <p><b>Action: <em>harvest</em></b></p>\n                    <p>This is the bee that you just saw.</p>\n                    <img src=\"bees-with-color/bee-A1SM.svg\" width=\"200\">\n                    <p><span class=\"greenText\"><b>Successful harvest!</b></span><br>Your pay has increased by $0.02. Your bonus pay is now $0.54.</p>\n            ","response":0,"trial_type":"html-button-response","trial_index":102,"time_elapsed":1713989,"internal_node_id":"0.0-4.0-1.45","subject_id":"6140b5b201e55201433c2383","study_id":"60edd13110225f80f9f3709b","session_id":"6196c70513d70ca9a9b0e633","condition":"contingent","relevant_dimensions":["antennae","pattern"],"bee_group":{"antennae":"B","wings":"X","pattern":"S","legs":"X"},"bonus":1.0000000000000009},{"rt":15270.5,"stimulus":"bees-with-color/bee-A1SF.svg","response":0,"trial_type":"image-button-response","trial_index":103,"time_elapsed":1729261,"internal_node_id":"0.0-4.0-0.46","subject_id":"6140b5b201e55201433c2383","study_id":"60edd13110225f80f9f3709b","session_id":"6196c70513d70ca9a9b0e633","condition":"contingent","relevant_dimensions":["antennae","pattern"],"bee_group":{"antennae":"B","wings":"X","pattern":"S","legs":"X"},"action":"harvest","summary":"good-harvest","bonus":1.0000000000000009},{"rt":614,"stimulus":"\n                    <p><b>Action: <em>harvest</em></b></p>\n                    <p>This is the bee that you just saw.</p>\n                    <img src=\"bees-with-color/bee-A1SF.svg\" width=\"200\">\n                    <p><span class=\"greenText\"><b>Successful harvest!</b></span><br>Your pay has increased by $0.02. Your bonus pay is now $0.56.</p>\n            ","response":0,"trial_type":"html-button-response","trial_index":104,"time_elapsed":1729876,"internal_node_id":"0.0-4.0-1.46","subject_id":"6140b5b201e55201433c2383","study_id":"60edd13110225f80f9f3709b","session_id":"6196c70513d70ca9a9b0e633","condition":"contingent","relevant_dimensions":["antennae","pattern"],"bee_group":{"antennae":"B","wings":"X","pattern":"S","legs":"X"},"bonus":1.0000000000000009},{"rt":18407,"stimulus":"bees-with-color/bee-B1SM.svg","response":1,"trial_type":"image-button-response","trial_index":105,"time_elapsed":1748284,"internal_node_id":"0.0-4.0-0.47","subject_id":"6140b5b201e55201433c2383","study_id":"60edd13110225f80f9f3709b","session_id":"6196c70513d70ca9a9b0e633","condition":"contingent","relevant_dimensions":["antennae","pattern"],"bee_group":{"antennae":"B","wings":"X","pattern":"S","legs":"X"},"action":"avoid","summary":"good-avoid","bonus":1.0000000000000009},{"rt":751.8999999761581,"stimulus":"\n                    <p><b>Action: <em>avoid</em></b></p>\n                    <p>This is the bee that you just saw.</p>\n                    <img src=\"bees-with-color/bee-B1SM.svg\" width=\"200\">\n                    <p><br>Your bonus pay is unchanged, and remains at $0.56.</p>\n            ","response":0,"trial_type":"html-button-response","trial_index":106,"time_elapsed":1749037,"internal_node_id":"0.0-4.0-1.47","subject_id":"6140b5b201e55201433c2383","study_id":"60edd13110225f80f9f3709b","session_id":"6196c70513d70ca9a9b0e633","condition":"contingent","relevant_dimensions":["antennae","pattern"],"bee_group":{"antennae":"B","wings":"X","pattern":"S","legs":"X"},"bonus":1.0000000000000009},{"rt":15150.899999976158,"stimulus":"bees-with-color/bee-B1DF.svg","response":0,"trial_type":"image-button-response","trial_index":107,"time_elapsed":1764189,"internal_node_id":"0.0-4.0-0.48","subject_id":"6140b5b201e55201433c2383","study_id":"60edd13110225f80f9f3709b","session_id":"6196c70513d70ca9a9b0e633","condition":"contingent","relevant_dimensions":["antennae","pattern"],"bee_group":{"antennae":"B","wings":"X","pattern":"S","legs":"X"},"action":"harvest","summary":"good-harvest","bonus":1.0000000000000009},{"rt":640.2999999523163,"stimulus":"\n                    <p><b>Action: <em>harvest</em></b></p>\n                    <p>This is the bee that you just saw.</p>\n                    <img src=\"bees-with-color/bee-B1DF.svg\" width=\"200\">\n                    <p><span class=\"greenText\"><b>Successful harvest!</b></span><br>Your pay has increased by $0.02. Your bonus pay is now $0.58.</p>\n            ","response":0,"trial_type":"html-button-response","trial_index":108,"time_elapsed":1764830,"internal_node_id":"0.0-4.0-1.48","subject_id":"6140b5b201e55201433c2383","study_id":"60edd13110225f80f9f3709b","session_id":"6196c70513d70ca9a9b0e633","condition":"contingent","relevant_dimensions":["antennae","pattern"],"bee_group":{"antennae":"B","wings":"X","pattern":"S","legs":"X"},"bonus":1.0000000000000009},{"rt":18871.899999976158,"stimulus":"bees-with-color/bee-A2DM.svg","response":0,"trial_type":"image-button-response","trial_index":109,"time_elapsed":1783704,"internal_node_id":"0.0-4.0-0.49","subject_id":"6140b5b201e55201433c2383","study_id":"60edd13110225f80f9f3709b","session_id":"6196c70513d70ca9a9b0e633","condition":"contingent","relevant_dimensions":["antennae","pattern"],"bee_group":{"antennae":"B","wings":"X","pattern":"S","legs":"X"},"action":"harvest","summary":"good-harvest","bonus":1.0000000000000009},{"rt":575,"stimulus":"\n                    <p><b>Action: <em>harvest</em></b></p>\n                    <p>This is the bee that you just saw.</p>\n                    <img src=\"bees-with-color/bee-A2DM.svg\" width=\"200\">\n                    <p><span class=\"greenText\"><b>Successful harvest!</b></span><br>Your pay has increased by $0.02. Your bonus pay is now $0.60.</p>\n            ","response":0,"trial_type":"html-button-response","trial_index":110,"time_elapsed":1784280,"internal_node_id":"0.0-4.0-1.49","subject_id":"6140b5b201e55201433c2383","study_id":"60edd13110225f80f9f3709b","session_id":"6196c70513d70ca9a9b0e633","condition":"contingent","relevant_dimensions":["antennae","pattern"],"bee_group":{"antennae":"B","wings":"X","pattern":"S","legs":"X"},"bonus":1.0000000000000009},{"rt":9037.299999952316,"stimulus":"bees-with-color/bee-B2DM.svg","response":0,"trial_type":"image-button-response","trial_index":111,"time_elapsed":1793318,"internal_node_id":"0.0-4.0-0.50","subject_id":"6140b5b201e55201433c2383","study_id":"60edd13110225f80f9f3709b","session_id":"6196c70513d70ca9a9b0e633","condition":"contingent","relevant_dimensions":["antennae","pattern"],"bee_group":{"antennae":"B","wings":"X","pattern":"S","legs":"X"},"action":"harvest","summary":"good-harvest","bonus":1.0000000000000009},{"rt":761.6000000238419,"stimulus":"\n                    <p><b>Action: <em>harvest</em></b></p>\n                    <p>This is the bee that you just saw.</p>\n                    <img src=\"bees-with-color/bee-B2DM.svg\" width=\"200\">\n                    <p><span class=\"greenText\"><b>Successful harvest!</b></span><br>Your pay has increased by $0.02. Your bonus pay is now $0.62.</p>\n            ","response":0,"trial_type":"html-button-response","trial_index":112,"time_elapsed":1794081,"internal_node_id":"0.0-4.0-1.50","subject_id":"6140b5b201e55201433c2383","study_id":"60edd13110225f80f9f3709b","session_id":"6196c70513d70ca9a9b0e633","condition":"contingent","relevant_dimensions":["antennae","pattern"],"bee_group":{"antennae":"B","wings":"X","pattern":"S","legs":"X"},"bonus":1.0000000000000009},{"rt":37394.5,"stimulus":"bees-with-color/bee-A2SF.svg","response":1,"trial_type":"image-button-response","trial_index":113,"time_elapsed":1831476,"internal_node_id":"0.0-4.0-0.51","subject_id":"6140b5b201e55201433c2383","study_id":"60edd13110225f80f9f3709b","session_id":"6196c70513d70ca9a9b0e633","condition":"contingent","relevant_dimensions":["antennae","pattern"],"bee_group":{"antennae":"B","wings":"X","pattern":"S","legs":"X"},"action":"avoid","summary":"bad-avoid","bonus":1.0000000000000009},{"rt":579.0999999046326,"stimulus":"\n                    <p><b>Action: <em>avoid</em></b></p>\n                    <p>This is the bee that you just saw.</p>\n                    <img src=\"bees-with-color/bee-A2SF.svg\" width=\"200\">\n                    <p><br>Your bonus pay is unchanged, and remains at $0.62.</p>\n            ","response":0,"trial_type":"html-button-response","trial_index":114,"time_elapsed":1832056,"internal_node_id":"0.0-4.0-1.51","subject_id":"6140b5b201e55201433c2383","study_id":"60edd13110225f80f9f3709b","session_id":"6196c70513d70ca9a9b0e633","condition":"contingent","relevant_dimensions":["antennae","pattern"],"bee_group":{"antennae":"B","wings":"X","pattern":"S","legs":"X"},"bonus":1.0000000000000009},{"rt":26249.699999928474,"stimulus":"bees-with-color/bee-B2SF.svg","response":1,"trial_type":"image-button-response","trial_index":115,"time_elapsed":1858307,"internal_node_id":"0.0-4.0-0.52","subject_id":"6140b5b201e55201433c2383","study_id":"60edd13110225f80f9f3709b","session_id":"6196c70513d70ca9a9b0e633","condition":"contingent","relevant_dimensions":["antennae","pattern"],"bee_group":{"antennae":"B","wings":"X","pattern":"S","legs":"X"},"action":"avoid","summary":"good-avoid","bonus":1.0000000000000009},{"rt":506,"stimulus":"\n                    <p><b>Action: <em>avoid</em></b></p>\n                    <p>This is the bee that you just saw.</p>\n                    <img src=\"bees-with-color/bee-B2SF.svg\" width=\"200\">\n                    <p><br>Your bonus pay is unchanged, and remains at $0.62.</p>\n            ","response":0,"trial_type":"html-button-response","trial_index":116,"time_elapsed":1858815,"internal_node_id":"0.0-4.0-1.52","subject_id":"6140b5b201e55201433c2383","study_id":"60edd13110225f80f9f3709b","session_id":"6196c70513d70ca9a9b0e633","condition":"contingent","relevant_dimensions":["antennae","pattern"],"bee_group":{"antennae":"B","wings":"X","pattern":"S","legs":"X"},"bonus":1.0000000000000009},{"rt":15485.600000023842,"stimulus":"bees-with-color/bee-A1SM.svg","response":0,"trial_type":"image-button-response","trial_index":117,"time_elapsed":1874301,"internal_node_id":"0.0-4.0-0.53","subject_id":"6140b5b201e55201433c2383","study_id":"60edd13110225f80f9f3709b","session_id":"6196c70513d70ca9a9b0e633","condition":"contingent","relevant_dimensions":["antennae","pattern"],"bee_group":{"antennae":"B","wings":"X","pattern":"S","legs":"X"},"action":"harvest","summary":"good-harvest","bonus":1.0000000000000009},{"rt":827.1999999284744,"stimulus":"\n                    <p><b>Action: <em>harvest</em></b></p>\n                    <p>This is the bee that you just saw.</p>\n                    <img src=\"bees-with-color/bee-A1SM.svg\" width=\"200\">\n                    <p><span class=\"greenText\"><b>Successful harvest!</b></span><br>Your pay has increased by $0.02. Your bonus pay is now $0.64.</p>\n            ","response":0,"trial_type":"html-button-response","trial_index":118,"time_elapsed":1875129,"internal_node_id":"0.0-4.0-1.53","subject_id":"6140b5b201e55201433c2383","study_id":"60edd13110225f80f9f3709b","session_id":"6196c70513d70ca9a9b0e633","condition":"contingent","relevant_dimensions":["antennae","pattern"],"bee_group":{"antennae":"B","wings":"X","pattern":"S","legs":"X"},"bonus":1.0000000000000009},{"rt":5502,"stimulus":"bees-with-color/bee-B1SF.svg","response":1,"trial_type":"image-button-response","trial_index":119,"time_elapsed":1880633,"internal_node_id":"0.0-4.0-0.54","subject_id":"6140b5b201e55201433c2383","study_id":"60edd13110225f80f9f3709b","session_id":"6196c70513d70ca9a9b0e633","condition":"contingent","relevant_dimensions":["antennae","pattern"],"bee_group":{"antennae":"B","wings":"X","pattern":"S","legs":"X"},"action":"avoid","summary":"good-avoid","bonus":1.0000000000000009},{"rt":1128.1000000238419,"stimulus":"\n                    <p><b>Action: <em>avoid</em></b></p>\n                    <p>This is the bee that you just saw.</p>\n                    <img src=\"bees-with-color/bee-B1SF.svg\" width=\"200\">\n                    <p><br>Your bonus pay is unchanged, and remains at $0.64.</p>\n            ","response":0,"trial_type":"html-button-response","trial_index":120,"time_elapsed":1881762,"internal_node_id":"0.0-4.0-1.54","subject_id":"6140b5b201e55201433c2383","study_id":"60edd13110225f80f9f3709b","session_id":"6196c70513d70ca9a9b0e633","condition":"contingent","relevant_dimensions":["antennae","pattern"],"bee_group":{"antennae":"B","wings":"X","pattern":"S","legs":"X"},"bonus":1.0000000000000009},{"rt":20947.799999952316,"stimulus":"bees-with-color/bee-A2SM.svg","response":0,"trial_type":"image-button-response","trial_index":121,"time_elapsed":1902710,"internal_node_id":"0.0-4.0-0.55","subject_id":"6140b5b201e55201433c2383","study_id":"60edd13110225f80f9f3709b","session_id":"6196c70513d70ca9a9b0e633","condition":"contingent","relevant_dimensions":["antennae","pattern"],"bee_group":{"antennae":"B","wings":"X","pattern":"S","legs":"X"},"action":"harvest","summary":"good-harvest","bonus":1.0000000000000009},{"rt":647.8999999761581,"stimulus":"\n                    <p><b>Action: <em>harvest</em></b></p>\n                    <p>This is the bee that you just saw.</p>\n                    <img src=\"bees-with-color/bee-A2SM.svg\" width=\"200\">\n                    <p><span class=\"greenText\"><b>Successful harvest!</b></span><br>Your pay has increased by $0.02. Your bonus pay is now $0.66.</p>\n            ","response":0,"trial_type":"html-button-response","trial_index":122,"time_elapsed":1903359,"internal_node_id":"0.0-4.0-1.55","subject_id":"6140b5b201e55201433c2383","study_id":"60edd13110225f80f9f3709b","session_id":"6196c70513d70ca9a9b0e633","condition":"contingent","relevant_dimensions":["antennae","pattern"],"bee_group":{"antennae":"B","wings":"X","pattern":"S","legs":"X"},"bonus":1.0000000000000009},{"rt":10772.799999952316,"stimulus":"bees-with-color/bee-A1DM.svg","response":0,"trial_type":"image-button-response","trial_index":123,"time_elapsed":1914133,"internal_node_id":"0.0-4.0-0.56","subject_id":"6140b5b201e55201433c2383","study_id":"60edd13110225f80f9f3709b","session_id":"6196c70513d70ca9a9b0e633","condition":"contingent","relevant_dimensions":["antennae","pattern"],"bee_group":{"antennae":"B","wings":"X","pattern":"S","legs":"X"},"action":"harvest","summary":"good-harvest","bonus":1.0000000000000009},{"rt":849,"stimulus":"\n                    <p><b>Action: <em>harvest</em></b></p>\n                    <p>This is the bee that you just saw.</p>\n                    <img src=\"bees-with-color/bee-A1DM.svg\" width=\"200\">\n                    <p><span class=\"greenText\"><b>Successful harvest!</b></span><br>Your pay has increased by $0.02. Your bonus pay is now $0.68.</p>\n            ","response":0,"trial_type":"html-button-response","trial_index":124,"time_elapsed":1914983,"internal_node_id":"0.0-4.0-1.56","subject_id":"6140b5b201e55201433c2383","study_id":"60edd13110225f80f9f3709b","session_id":"6196c70513d70ca9a9b0e633","condition":"contingent","relevant_dimensions":["antennae","pattern"],"bee_group":{"antennae":"B","wings":"X","pattern":"S","legs":"X"},"bonus":1.0000000000000009},{"rt":12341.100000023842,"stimulus":"bees-with-color/bee-A1SF.svg","response":0,"trial_type":"image-button-response","trial_index":125,"time_elapsed":1927325,"internal_node_id":"0.0-4.0-0.57","subject_id":"6140b5b201e55201433c2383","study_id":"60edd13110225f80f9f3709b","session_id":"6196c70513d70ca9a9b0e633","condition":"contingent","relevant_dimensions":["antennae","pattern"],"bee_group":{"antennae":"B","wings":"X","pattern":"S","legs":"X"},"action":"harvest","summary":"good-harvest","bonus":1.0000000000000009},{"rt":808.6000000238419,"stimulus":"\n                    <p><b>Action: <em>harvest</em></b></p>\n                    <p>This is the bee that you just saw.</p>\n                    <img src=\"bees-with-color/bee-A1SF.svg\" width=\"200\">\n                    <p><span class=\"greenText\"><b>Successful harvest!</b></span><br>Your pay has increased by $0.02. Your bonus pay is now $0.70.</p>\n            ","response":0,"trial_type":"html-button-response","trial_index":126,"time_elapsed":1928135,"internal_node_id":"0.0-4.0-1.57","subject_id":"6140b5b201e55201433c2383","study_id":"60edd13110225f80f9f3709b","session_id":"6196c70513d70ca9a9b0e633","condition":"contingent","relevant_dimensions":["antennae","pattern"],"bee_group":{"antennae":"B","wings":"X","pattern":"S","legs":"X"},"bonus":1.0000000000000009},{"rt":15692.600000023842,"stimulus":"bees-with-color/bee-B1SM.svg","response":1,"trial_type":"image-button-response","trial_index":127,"time_elapsed":1943829,"internal_node_id":"0.0-4.0-0.58","subject_id":"6140b5b201e55201433c2383","study_id":"60edd13110225f80f9f3709b","session_id":"6196c70513d70ca9a9b0e633","condition":"contingent","relevant_dimensions":["antennae","pattern"],"bee_group":{"antennae":"B","wings":"X","pattern":"S","legs":"X"},"action":"avoid","summary":"good-avoid","bonus":1.0000000000000009},{"rt":562,"stimulus":"\n                    <p><b>Action: <em>avoid</em></b></p>\n                    <p>This is the bee that you just saw.</p>\n                    <img src=\"bees-with-color/bee-B1SM.svg\" width=\"200\">\n                    <p><br>Your bonus pay is unchanged, and remains at $0.70.</p>\n            ","response":0,"trial_type":"html-button-response","trial_index":128,"time_elapsed":1944392,"internal_node_id":"0.0-4.0-1.58","subject_id":"6140b5b201e55201433c2383","study_id":"60edd13110225f80f9f3709b","session_id":"6196c70513d70ca9a9b0e633","condition":"contingent","relevant_dimensions":["antennae","pattern"],"bee_group":{"antennae":"B","wings":"X","pattern":"S","legs":"X"},"bonus":1.0000000000000009},{"rt":26802.899999976158,"stimulus":"bees-with-color/bee-B1DM.svg","response":1,"trial_type":"image-button-response","trial_index":129,"time_elapsed":1971197,"internal_node_id":"0.0-4.0-0.59","subject_id":"6140b5b201e55201433c2383","study_id":"60edd13110225f80f9f3709b","session_id":"6196c70513d70ca9a9b0e633","condition":"contingent","relevant_dimensions":["antennae","pattern"],"bee_group":{"antennae":"B","wings":"X","pattern":"S","legs":"X"},"action":"avoid","summary":"bad-avoid","bonus":1.0000000000000009},{"rt":508.7000000476837,"stimulus":"\n                    <p><b>Action: <em>avoid</em></b></p>\n                    <p>This is the bee that you just saw.</p>\n                    <img src=\"bees-with-color/bee-B1DM.svg\" width=\"200\">\n                    <p><br>Your bonus pay is unchanged, and remains at $0.70.</p>\n            ","response":0,"trial_type":"html-button-response","trial_index":130,"time_elapsed":1971707,"internal_node_id":"0.0-4.0-1.59","subject_id":"6140b5b201e55201433c2383","study_id":"60edd13110225f80f9f3709b","session_id":"6196c70513d70ca9a9b0e633","condition":"contingent","relevant_dimensions":["antennae","pattern"],"bee_group":{"antennae":"B","wings":"X","pattern":"S","legs":"X"},"bonus":1.0000000000000009},{"rt":17945,"stimulus":"bees-with-color/bee-A1DF.svg","response":1,"trial_type":"image-button-response","trial_index":131,"time_elapsed":1989653,"internal_node_id":"0.0-4.0-0.60","subject_id":"6140b5b201e55201433c2383","study_id":"60edd13110225f80f9f3709b","session_id":"6196c70513d70ca9a9b0e633","condition":"contingent","relevant_dimensions":["antennae","pattern"],"bee_group":{"antennae":"B","wings":"X","pattern":"S","legs":"X"},"action":"avoid","summary":"bad-avoid","bonus":1.0000000000000009},{"rt":510.60000002384186,"stimulus":"\n                    <p><b>Action: <em>avoid</em></b></p>\n                    <p>This is the bee that you just saw.</p>\n                    <img src=\"bees-with-color/bee-A1DF.svg\" width=\"200\">\n                    <p><br>Your bonus pay is unchanged, and remains at $0.70.</p>\n            ","response":0,"trial_type":"html-button-response","trial_index":132,"time_elapsed":1990165,"internal_node_id":"0.0-4.0-1.60","subject_id":"6140b5b201e55201433c2383","study_id":"60edd13110225f80f9f3709b","session_id":"6196c70513d70ca9a9b0e633","condition":"contingent","relevant_dimensions":["antennae","pattern"],"bee_group":{"antennae":"B","wings":"X","pattern":"S","legs":"X"},"bonus":1.0000000000000009},{"rt":17325.600000023842,"stimulus":"bees-with-color/bee-B2DF.svg","response":1,"trial_type":"image-button-response","trial_index":133,"time_elapsed":2007491,"internal_node_id":"0.0-4.0-0.61","subject_id":"6140b5b201e55201433c2383","study_id":"60edd13110225f80f9f3709b","session_id":"6196c70513d70ca9a9b0e633","condition":"contingent","relevant_dimensions":["antennae","pattern"],"bee_group":{"antennae":"B","wings":"X","pattern":"S","legs":"X"},"action":"avoid","summary":"bad-avoid","bonus":1.0000000000000009},{"rt":446.5,"stimulus":"\n                    <p><b>Action: <em>avoid</em></b></p>\n                    <p>This is the bee that you just saw.</p>\n                    <img src=\"bees-with-color/bee-B2DF.svg\" width=\"200\">\n                    <p><br>Your bonus pay is unchanged, and remains at $0.70.</p>\n            ","response":0,"trial_type":"html-button-response","trial_index":134,"time_elapsed":2007939,"internal_node_id":"0.0-4.0-1.61","subject_id":"6140b5b201e55201433c2383","study_id":"60edd13110225f80f9f3709b","session_id":"6196c70513d70ca9a9b0e633","condition":"contingent","relevant_dimensions":["antennae","pattern"],"bee_group":{"antennae":"B","wings":"X","pattern":"S","legs":"X"},"bonus":1.0000000000000009},{"rt":16271.600000023842,"stimulus":"bees-with-color/bee-A2DF.svg","response":0,"trial_type":"image-button-response","trial_index":135,"time_elapsed":2024211,"internal_node_id":"0.0-4.0-0.62","subject_id":"6140b5b201e55201433c2383","study_id":"60edd13110225f80f9f3709b","session_id":"6196c70513d70ca9a9b0e633","condition":"contingent","relevant_dimensions":["antennae","pattern"],"bee_group":{"antennae":"B","wings":"X","pattern":"S","legs":"X"},"action":"harvest","summary":"good-harvest","bonus":1.0000000000000009},{"rt":809.8999999761581,"stimulus":"\n                    <p><b>Action: <em>harvest</em></b></p>\n                    <p>This is the bee that you just saw.</p>\n                    <img src=\"bees-with-color/bee-A2DF.svg\" width=\"200\">\n                    <p><span class=\"greenText\"><b>Successful harvest!</b></span><br>Your pay has increased by $0.02. Your bonus pay is now $0.72.</p>\n            ","response":0,"trial_type":"html-button-response","trial_index":136,"time_elapsed":2025022,"internal_node_id":"0.0-4.0-1.62","subject_id":"6140b5b201e55201433c2383","study_id":"60edd13110225f80f9f3709b","session_id":"6196c70513d70ca9a9b0e633","condition":"contingent","relevant_dimensions":["antennae","pattern"],"bee_group":{"antennae":"B","wings":"X","pattern":"S","legs":"X"},"bonus":1.0000000000000009},{"rt":29013.799999952316,"stimulus":"bees-with-color/bee-B2SM.svg","response":1,"trial_type":"image-button-response","trial_index":137,"time_elapsed":2054037,"internal_node_id":"0.0-4.0-0.63","subject_id":"6140b5b201e55201433c2383","study_id":"60edd13110225f80f9f3709b","session_id":"6196c70513d70ca9a9b0e633","condition":"contingent","relevant_dimensions":["antennae","pattern"],"bee_group":{"antennae":"B","wings":"X","pattern":"S","legs":"X"},"action":"avoid","summary":"good-avoid","bonus":1.0000000000000009},{"rt":431.89999997615814,"stimulus":"\n                    <p><b>Action: <em>avoid</em></b></p>\n                    <p>This is the bee that you just saw.</p>\n                    <img src=\"bees-with-color/bee-B2SM.svg\" width=\"200\">\n                    <p><br>Your bonus pay is unchanged, and remains at $0.72.</p>\n            ","response":0,"trial_type":"html-button-response","trial_index":138,"time_elapsed":2054470,"internal_node_id":"0.0-4.0-1.63","subject_id":"6140b5b201e55201433c2383","study_id":"60edd13110225f80f9f3709b","session_id":"6196c70513d70ca9a9b0e633","condition":"contingent","relevant_dimensions":["antennae","pattern"],"bee_group":{"antennae":"B","wings":"X","pattern":"S","legs":"X"},"bonus":1.0000000000000009},{"rt":20257.200000047684,"stimulus":"You have completed the first part of this experiment.<br><br>You will now begin a shorter second part, in which you will receive no feedback.<br>The same rules regarding bonus pay apply.<br><br>Press any key to begin.","response":"enter","trial_type":"html-keyboard-response","trial_index":139,"time_elapsed":2074728,"internal_node_id":"0.0-5.0","subject_id":"6140b5b201e55201433c2383","study_id":"60edd13110225f80f9f3709b","session_id":"6196c70513d70ca9a9b0e633","condition":"contingent","relevant_dimensions":["antennae","pattern"],"bee_group":{"antennae":"B","wings":"X","pattern":"S","legs":"X"},"bonus":1.0000000000000009},{"rt":17970.299999952316,"stimulus":"bees-with-color/bee-A2SF.svg","response":1,"trial_type":"image-button-response","trial_index":140,"time_elapsed":2092705,"internal_node_id":"0.0-6.0-0.0","subject_id":"6140b5b201e55201433c2383","study_id":"60edd13110225f80f9f3709b","session_id":"6196c70513d70ca9a9b0e633","condition":"contingent","relevant_dimensions":["antennae","pattern"],"bee_group":{"antennae":"B","wings":"X","pattern":"S","legs":"X"},"bonus":1.0000000000000009},{"rt":14748.900000095367,"stimulus":"bees-with-color/bee-B1DM.svg","response":1,"trial_type":"image-button-response","trial_index":141,"time_elapsed":2107456,"internal_node_id":"0.0-6.0-0.1","subject_id":"6140b5b201e55201433c2383","study_id":"60edd13110225f80f9f3709b","session_id":"6196c70513d70ca9a9b0e633","condition":"contingent","relevant_dimensions":["antennae","pattern"],"bee_group":{"antennae":"B","wings":"X","pattern":"S","legs":"X"},"bonus":1.0000000000000009},{"rt":12372.300000071526,"stimulus":"bees-with-color/bee-A1SM.svg","response":0,"trial_type":"image-button-response","trial_index":142,"time_elapsed":2119829,"internal_node_id":"0.0-6.0-0.2","subject_id":"6140b5b201e55201433c2383","study_id":"60edd13110225f80f9f3709b","session_id":"6196c70513d70ca9a9b0e633","condition":"contingent","relevant_dimensions":["antennae","pattern"],"bee_group":{"antennae":"B","wings":"X","pattern":"S","legs":"X"},"bonus":1.0000000000000009},{"rt":26452.700000047684,"stimulus":"bees-with-color/bee-B2SF.svg","response":1,"trial_type":"image-button-response","trial_index":143,"time_elapsed":2146284,"internal_node_id":"0.0-6.0-0.3","subject_id":"6140b5b201e55201433c2383","study_id":"60edd13110225f80f9f3709b","session_id":"6196c70513d70ca9a9b0e633","condition":"contingent","relevant_dimensions":["antennae","pattern"],"bee_group":{"antennae":"B","wings":"X","pattern":"S","legs":"X"},"bonus":1.0000000000000009},{"rt":8413.899999976158,"stimulus":"bees-with-color/bee-B1SF.svg","response":1,"trial_type":"image-button-response","trial_index":144,"time_elapsed":2154700,"internal_node_id":"0.0-6.0-0.4","subject_id":"6140b5b201e55201433c2383","study_id":"60edd13110225f80f9f3709b","session_id":"6196c70513d70ca9a9b0e633","condition":"contingent","relevant_dimensions":["antennae","pattern"],"bee_group":{"antennae":"B","wings":"X","pattern":"S","legs":"X"},"bonus":1.0000000000000009},{"rt":11433.899999976158,"stimulus":"bees-with-color/bee-A1SF.svg","response":0,"trial_type":"image-button-response","trial_index":145,"time_elapsed":2166135,"internal_node_id":"0.0-6.0-0.5","subject_id":"6140b5b201e55201433c2383","study_id":"60edd13110225f80f9f3709b","session_id":"6196c70513d70ca9a9b0e633","condition":"contingent","relevant_dimensions":["antennae","pattern"],"bee_group":{"antennae":"B","wings":"X","pattern":"S","legs":"X"},"bonus":1.0000000000000009},{"rt":8285.400000095367,"stimulus":"bees-with-color/bee-A2SM.svg","response":0,"trial_type":"image-button-response","trial_index":146,"time_elapsed":2174422,"internal_node_id":"0.0-6.0-0.6","subject_id":"6140b5b201e55201433c2383","study_id":"60edd13110225f80f9f3709b","session_id":"6196c70513d70ca9a9b0e633","condition":"contingent","relevant_dimensions":["antennae","pattern"],"bee_group":{"antennae":"B","wings":"X","pattern":"S","legs":"X"},"bonus":1.0000000000000009},{"rt":5367.700000047684,"stimulus":"bees-with-color/bee-B2DM.svg","response":0,"trial_type":"image-button-response","trial_index":147,"time_elapsed":2179791,"internal_node_id":"0.0-6.0-0.7","subject_id":"6140b5b201e55201433c2383","study_id":"60edd13110225f80f9f3709b","session_id":"6196c70513d70ca9a9b0e633","condition":"contingent","relevant_dimensions":["antennae","pattern"],"bee_group":{"antennae":"B","wings":"X","pattern":"S","legs":"X"},"bonus":1.0000000000000009},{"rt":22601,"stimulus":"bees-with-color/bee-A2DF.svg","response":0,"trial_type":"image-button-response","trial_index":148,"time_elapsed":2202395,"internal_node_id":"0.0-6.0-0.8","subject_id":"6140b5b201e55201433c2383","study_id":"60edd13110225f80f9f3709b","session_id":"6196c70513d70ca9a9b0e633","condition":"contingent","relevant_dimensions":["antennae","pattern"],"bee_group":{"antennae":"B","wings":"X","pattern":"S","legs":"X"},"bonus":1.0000000000000009},{"rt":39742.200000047684,"stimulus":"bees-with-color/bee-A2DM.svg","response":1,"trial_type":"image-button-response","trial_index":149,"time_elapsed":2242139,"internal_node_id":"0.0-6.0-0.9","subject_id":"6140b5b201e55201433c2383","study_id":"60edd13110225f80f9f3709b","session_id":"6196c70513d70ca9a9b0e633","condition":"contingent","relevant_dimensions":["antennae","pattern"],"bee_group":{"antennae":"B","wings":"X","pattern":"S","legs":"X"},"bonus":1.0000000000000009},{"rt":15671.100000023842,"stimulus":"bees-with-color/bee-B1DF.svg","response":0,"trial_type":"image-button-response","trial_index":150,"time_elapsed":2257812,"internal_node_id":"0.0-6.0-0.10","subject_id":"6140b5b201e55201433c2383","study_id":"60edd13110225f80f9f3709b","session_id":"6196c70513d70ca9a9b0e633","condition":"contingent","relevant_dimensions":["antennae","pattern"],"bee_group":{"antennae":"B","wings":"X","pattern":"S","legs":"X"},"bonus":1.0000000000000009},{"rt":16665.5,"stimulus":"bees-with-color/bee-A1DF.svg","response":1,"trial_type":"image-button-response","trial_index":151,"time_elapsed":2274478,"internal_node_id":"0.0-6.0-0.11","subject_id":"6140b5b201e55201433c2383","study_id":"60edd13110225f80f9f3709b","session_id":"6196c70513d70ca9a9b0e633","condition":"contingent","relevant_dimensions":["antennae","pattern"],"bee_group":{"antennae":"B","wings":"X","pattern":"S","legs":"X"},"bonus":1.0000000000000009},{"rt":28345.5,"stimulus":"bees-with-color/bee-B1SM.svg","response":1,"trial_type":"image-button-response","trial_index":152,"time_elapsed":2302826,"internal_node_id":"0.0-6.0-0.12","subject_id":"6140b5b201e55201433c2383","study_id":"60edd13110225f80f9f3709b","session_id":"6196c70513d70ca9a9b0e633","condition":"contingent","relevant_dimensions":["antennae","pattern"],"bee_group":{"antennae":"B","wings":"X","pattern":"S","legs":"X"},"bonus":1.0000000000000009},{"rt":26952.300000071526,"stimulus":"bees-with-color/bee-B2DF.svg","response":1,"trial_type":"image-button-response","trial_index":153,"time_elapsed":2329779,"internal_node_id":"0.0-6.0-0.13","subject_id":"6140b5b201e55201433c2383","study_id":"60edd13110225f80f9f3709b","session_id":"6196c70513d70ca9a9b0e633","condition":"contingent","relevant_dimensions":["antennae","pattern"],"bee_group":{"antennae":"B","wings":"X","pattern":"S","legs":"X"},"bonus":1.0000000000000009},{"rt":8495.300000071526,"stimulus":"bees-with-color/bee-A1DM.svg","response":0,"trial_type":"image-button-response","trial_index":154,"time_elapsed":2338276,"internal_node_id":"0.0-6.0-0.14","subject_id":"6140b5b201e55201433c2383","study_id":"60edd13110225f80f9f3709b","session_id":"6196c70513d70ca9a9b0e633","condition":"contingent","relevant_dimensions":["antennae","pattern"],"bee_group":{"antennae":"B","wings":"X","pattern":"S","legs":"X"},"bonus":1.0000000000000009},{"rt":19239.399999976158,"stimulus":"bees-with-color/bee-B2SM.svg","response":1,"trial_type":"image-button-response","trial_index":155,"time_elapsed":2357517,"internal_node_id":"0.0-6.0-0.15","subject_id":"6140b5b201e55201433c2383","study_id":"60edd13110225f80f9f3709b","session_id":"6196c70513d70ca9a9b0e633","condition":"contingent","relevant_dimensions":["antennae","pattern"],"bee_group":{"antennae":"B","wings":"X","pattern":"S","legs":"X"},"bonus":1.0000000000000009},{"rt":24749.299999952316,"stimulus":"bees-with-color/bee-A2DF.svg","response":0,"trial_type":"image-button-response","trial_index":156,"time_elapsed":2382268,"internal_node_id":"0.0-6.0-0.16","subject_id":"6140b5b201e55201433c2383","study_id":"60edd13110225f80f9f3709b","session_id":"6196c70513d70ca9a9b0e633","condition":"contingent","relevant_dimensions":["antennae","pattern"],"bee_group":{"antennae":"B","wings":"X","pattern":"S","legs":"X"},"bonus":1.0000000000000009},{"rt":9108.700000047684,"stimulus":"bees-with-color/bee-A2SF.svg","response":1,"trial_type":"image-button-response","trial_index":157,"time_elapsed":2391378,"internal_node_id":"0.0-6.0-0.17","subject_id":"6140b5b201e55201433c2383","study_id":"60edd13110225f80f9f3709b","session_id":"6196c70513d70ca9a9b0e633","condition":"contingent","relevant_dimensions":["antennae","pattern"],"bee_group":{"antennae":"B","wings":"X","pattern":"S","legs":"X"},"bonus":1.0000000000000009},{"rt":8831.5,"stimulus":"bees-with-color/bee-B1DF.svg","response":0,"trial_type":"image-button-response","trial_index":158,"time_elapsed":2400211,"internal_node_id":"0.0-6.0-0.18","subject_id":"6140b5b201e55201433c2383","study_id":"60edd13110225f80f9f3709b","session_id":"6196c70513d70ca9a9b0e633","condition":"contingent","relevant_dimensions":["antennae","pattern"],"bee_group":{"antennae":"B","wings":"X","pattern":"S","legs":"X"},"bonus":1.0000000000000009},{"rt":5326.399999976158,"stimulus":"bees-with-color/bee-B1SF.svg","response":1,"trial_type":"image-button-response","trial_index":159,"time_elapsed":2405539,"internal_node_id":"0.0-6.0-0.19","subject_id":"6140b5b201e55201433c2383","study_id":"60edd13110225f80f9f3709b","session_id":"6196c70513d70ca9a9b0e63