[{"success":true,"trial_type":"fullscreen","trial_index":0,"time_elapsed":5938,"internal_node_id":"0.0-0.0","subject_id":"5fd6744da6778c581ec7bcef","study_id":"60edd13110225f80f9f3709b","session_id":"6196c4a6255d3a25c75b54fb","condition":"contingent","relevant_dimensions":["antennae","wings"],"bee_group":{"antennae":"A","wings":"2","pattern":"X","legs":"X"},"bonus":1.360000000000001},{"success":true,"timeout":false,"failed_images":[],"failed_audio":[],"failed_video":[],"trial_type":"preload","trial_index":1,"time_elapsed":14088,"internal_node_id":"0.0-1.0","subject_id":"5fd6744da6778c581ec7bcef","study_id":"60edd13110225f80f9f3709b","session_id":"6196c4a6255d3a25c75b54fb","condition":"contingent","relevant_dimensions":["antennae","wings"],"bee_group":{"antennae":"A","wings":"2","pattern":"X","legs":"X"},"bonus":1.360000000000001},{"rt":4818.0999999940395,"stimulus":"Welcome! Press any key to begin.","response":" ","trial_type":"html-keyboard-response","trial_index":2,"time_elapsed":18909,"internal_node_id":"0.0-2.0","subject_id":"5fd6744da6778c581ec7bcef","study_id":"60edd13110225f80f9f3709b","session_id":"6196c4a6255d3a25c75b54fb","condition":"contingent","relevant_dimensions":["antennae","wings"],"bee_group":{"antennae":"A","wings":"2","pattern":"X","legs":"X"},"bonus":1.360000000000001},{"view_history":[{"page_index":0,"viewing_time":4331.5},{"page_index":1,"viewing_time":10683.20000000298},{"page_index":2,"viewing_time":10396.60000000894},{"page_index":3,"viewing_time":10104.09999999404},{"page_index":4,"viewing_time":5360.5999999940395},{"page_index":5,"viewing_time":11367.70000000298},{"page_index":6,"viewing_time":7188.600000008941},{"page_index":7,"viewing_time":7736.399999991059},{"page_index":8,"viewing_time":4586.79999999702},{"page_index":9,"viewing_time":7530.20000000298},{"page_index":10,"viewing_time":4091.4000000059605},{"page_index":11,"viewing_time":10854.89999999106},{"page_index":12,"viewing_time":9983.20000000298},{"page_index":13,"viewing_time":1997.4000000059605},{"page_index":14,"viewing_time":3038.2000000029802}],"rt":109251.60000000894,"trial_type":"instructions","trial_index":3,"time_elapsed":128162,"internal_node_id":"0.0-3.0-0.0","subject_id":"5fd6744da6778c581ec7bcef","study_id":"60edd13110225f80f9f3709b","session_id":"6196c4a6255d3a25c75b54fb","condition":"contingent","relevant_dimensions":["antennae","wings"],"bee_group":{"antennae":"A","wings":"2","pattern":"X","legs":"X"},"bonus":1.360000000000001},{"rt":15822,"response":{"Q0":["Two or six legs","Stripes or spots on body","Single or double wings","Antennae or no antennae"]},"question_order":[0],"trial_type":"survey-multi-select","trial_index":4,"time_elapsed":144023,"internal_node_id":"0.0-3.0-1.0","subject_id":"5fd6744da6778c581ec7bcef","study_id":"60edd13110225f80f9f3709b","session_id":"6196c4a6255d3a25c75b54fb","condition":"contingent","relevant_dimensions":["antennae","wings"],"bee_group":{"antennae":"A","wings":"2","pattern":"X","legs":"X"},"correct":true,"bonus":1.360000000000001},{"rt":17779.20000000298,"response":{"Q1":"No.","Q2":"Based on the four features of the bee.","Q3":"You do not learn if it was friendly or dangerous, and do not alter your bonus."},"question_order":[0,1,2],"trial_type":"survey-multi-choice","trial_index":5,"time_elapsed":161868,"internal_node_id":"0.0-3.0-2.0","subject_id":"5fd6744da6778c581ec7bcef","study_id":"60edd13110225f80f9f3709b","session_id":"6196c4a6255d3a25c75b54fb","condition":"contingent","relevant_dimensions":["antennae","wings"],"bee_group":{"antennae":"A","wings":"2","pattern":"X","legs":"X"},"correct":true,"bonus":1.360000000000001},{"rt":3238.5,"stimulus":"<p>Congrats, you got everything right<br>When you're ready, click the button below to continue to the experiment.</p>","response":0,"trial_type":"html-button-response","trial_index":6,"time_elapsed":165110,"internal_node_id":"0.0-3.0-3.0","subject_id":"5fd6744da6778c581ec7bcef","study_id":"60edd13110225f80f9f3709b","session_id":"6196c4a6255d3a25c75b54fb","condition":"contingent","relevant_dimensions":["antennae","wings"],"bee_group":{"antennae":"A","wings":"2","pattern":"X","legs":"X"},"bonus":1.360000000000001},{"rt":9777.5,"stimulus":"bees-with-color/bee-A2SM.svg","response":0,"trial_type":"image-button-response","trial_index":7,"time_elapsed":174895,"internal_node_id":"0.0-4.0-0.0","subject_id":"5fd6744da6778c581ec7bcef","study_id":"60edd13110225f80f9f3709b","session_id":"6196c4a6255d3a25c75b54fb","condition":"contingent","relevant_dimensions":["antennae","wings"],"bee_group":{"antennae":"A","wings":"2","pattern":"X","legs":"X"},"action":"harvest","summary":"bad-harvest","bonus":1.360000000000001},{"rt":33102.90000000596,"stimulus":"\n                    <p><b>Action: <em>harvest</em></b></p>\n                    <p>This is the bee that you just saw.</p>\n                    <img src=\"bees-with-color/bee-A2SM.svg\" width=\"200\">\n                    <p><span class=\"redText\">Bad choice, the bee was angry.</span><br><b>You have been stung!</b><br>Your pay has been decreased by $0.10. Your bonus pay is now $0.44.</p>\n            ","response":0,"trial_type":"html-button-response","trial_index":8,"time_elapsed":208322,"internal_node_id":"0.0-4.0-1.0","subject_id":"5fd6744da6778c581ec7bcef","study_id":"60edd13110225f80f9f3709b","session_id":"6196c4a6255d3a25c75b54fb","condition":"contingent","relevant_dimensions":["antennae","wings"],"bee_group":{"antennae":"A","wings":"2","pattern":"X","legs":"X"},"bonus":1.360000000000001},{"rt":6833.600000008941,"stimulus":"bees-with-color/bee-A1SM.svg","response":0,"trial_type":"image-button-response","trial_index":9,"time_elapsed":215162,"internal_node_id":"0.0-4.0-0.1","subject_id":"5fd6744da6778c581ec7bcef","study_id":"60edd13110225f80f9f3709b","session_id":"6196c4a6255d3a25c75b54fb","condition":"contingent","relevant_dimensions":["antennae","wings"],"bee_group":{"antennae":"A","wings":"2","pattern":"X","legs":"X"},"action":"harvest","summary":"good-harvest","bonus":1.360000000000001},{"rt":15768.70000000298,"stimulus":"\n                    <p><b>Action: <em>harvest</em></b></p>\n                    <p>This is the bee that you just saw.</p>\n                    <img src=\"bees-with-color/bee-A1SM.svg\" width=\"200\">\n                    <p><span class=\"greenText\"><b>Successful harvest!</b></span><br>Your pay has increased by $0.02. Your bonus pay is now $0.46.</p>\n            ","response":0,"trial_type":"html-button-response","trial_index":10,"time_elapsed":230958,"internal_node_id":"0.0-4.0-1.1","subject_id":"5fd6744da6778c581ec7bcef","study_id":"60edd13110225f80f9f3709b","session_id":"6196c4a6255d3a25c75b54fb","condition":"contingent","relevant_dimensions":["antennae","wings"],"bee_group":{"antennae":"A","wings":"2","pattern":"X","legs":"X"},"bonus":1.360000000000001},{"rt":3925.5,"stimulus":"bees-with-color/bee-B1DF.svg","response":0,"trial_type":"image-button-response","trial_index":11,"time_elapsed":234889,"internal_node_id":"0.0-4.0-0.2","subject_id":"5fd6744da6778c581ec7bcef","study_id":"60edd13110225f80f9f3709b","session_id":"6196c4a6255d3a25c75b54fb","condition":"contingent","relevant_dimensions":["antennae","wings"],"bee_group":{"antennae":"A","wings":"2","pattern":"X","legs":"X"},"action":"harvest","summary":"good-harvest","bonus":1.360000000000001},{"rt":17719.70000000298,"stimulus":"\n                    <p><b>Action: <em>harvest</em></b></p>\n                    <p>This is the bee that you just saw.</p>\n                    <img src=\"bees-with-color/bee-B1DF.svg\" width=\"200\">\n                    <p><span class=\"greenText\"><b>Successful harvest!</b></span><br>Your pay has increased by $0.02. Your bonus pay is now $0.48.</p>\n            ","response":0,"trial_type":"html-button-response","trial_index":12,"time_elapsed":252613,"internal_node_id":"0.0-4.0-1.2","subject_id":"5fd6744da6778c581ec7bcef","study_id":"60edd13110225f80f9f3709b","session_id":"6196c4a6255d3a25c75b54fb","condition":"contingent","relevant_dimensions":["antennae","wings"],"bee_group":{"antennae":"A","wings":"2","pattern":"X","legs":"X"},"bonus":1.360000000000001},{"rt":5775.29999999702,"stimulus":"bees-with-color/bee-A2SF.svg","response":1,"trial_type":"image-button-response","trial_index":13,"time_elapsed":258391,"internal_node_id":"0.0-4.0-0.3","subject_id":"5fd6744da6778c581ec7bcef","study_id":"60edd13110225f80f9f3709b","session_id":"6196c4a6255d3a25c75b54fb","condition":"contingent","relevant_dimensions":["antennae","wings"],"bee_group":{"antennae":"A","wings":"2","pattern":"X","legs":"X"},"action":"avoid","summary":"good-avoid","bonus":1.360000000000001},{"rt":4533.0999999940395,"stimulus":"\n                    <p><b>Action: <em>avoid</em></b></p>\n                    <p>This is the bee that you just saw.</p>\n                    <img src=\"bees-with-color/bee-A2SF.svg\" width=\"200\">\n                    <p><br>Your bonus pay is unchanged, and remains at $0.48.</p>\n            ","response":0,"trial_type":"html-button-response","trial_index":14,"time_elapsed":262927,"internal_node_id":"0.0-4.0-1.3","subject_id":"5fd6744da6778c581ec7bcef","study_id":"60edd13110225f80f9f3709b","session_id":"6196c4a6255d3a25c75b54fb","condition":"contingent","relevant_dimensions":["antennae","wings"],"bee_group":{"antennae":"A","wings":"2","pattern":"X","legs":"X"},"bonus":1.360000000000001},{"rt":15670.60000000894,"stimulus":"bees-with-color/bee-B2SF.svg","response":0,"trial_type":"image-button-response","trial_index":15,"time_elapsed":278601,"internal_node_id":"0.0-4.0-0.4","subject_id":"5fd6744da6778c581ec7bcef","study_id":"60edd13110225f80f9f3709b","session_id":"6196c4a6255d3a25c75b54fb","condition":"contingent","relevant_dimensions":["antennae","wings"],"bee_group":{"antennae":"A","wings":"2","pattern":"X","legs":"X"},"action":"harvest","summary":"good-harvest","bonus":1.360000000000001},{"rt":5042.0999999940395,"stimulus":"\n                    <p><b>Action: <em>harvest</em></b></p>\n                    <p>This is the bee that you just saw.</p>\n                    <img src=\"bees-with-color/bee-B2SF.svg\" width=\"200\">\n                    <p><span class=\"greenText\"><b>Successful harvest!</b></span><br>Your pay has increased by $0.02. Your bonus pay is now $0.50.</p>\n            ","response":0,"trial_type":"html-button-response","trial_index":16,"time_elapsed":283646,"internal_node_id":"0.0-4.0-1.4","subject_id":"5fd6744da6778c581ec7bcef","study_id":"60edd13110225f80f9f3709b","session_id":"6196c4a6255d3a25c75b54fb","condition":"contingent","relevant_dimensions":["antennae","wings"],"bee_group":{"antennae":"A","wings":"2","pattern":"X","legs":"X"},"bonus":1.360000000000001},{"rt":9337,"stimulus":"bees-with-color/bee-A1DM.svg","response":0,"trial_type":"image-button-response","trial_index":17,"time_elapsed":292987,"internal_node_id":"0.0-4.0-0.5","subject_id":"5fd6744da6778c581ec7bcef","study_id":"60edd13110225f80f9f3709b","session_id":"6196c4a6255d3a25c75b54fb","condition":"contingent","relevant_dimensions":["antennae","wings"],"bee_group":{"antennae":"A","wings":"2","pattern":"X","legs":"X"},"action":"harvest","summary":"good-harvest","bonus":1.360000000000001},{"rt":8885.199999988079,"stimulus":"\n                    <p><b>Action: <em>harvest</em></b></p>\n                    <p>This is the bee that you just saw.</p>\n                    <img src=\"bees-with-color/bee-A1DM.svg\" width=\"200\">\n                    <p><span class=\"greenText\"><b>Successful harvest!</b></span><br>Your pay has increased by $0.02. Your bonus pay is now $0.52.</p>\n            ","response":0,"trial_type":"html-button-response","trial_index":18,"time_elapsed":301876,"internal_node_id":"0.0-4.0-1.5","subject_id":"5fd6744da6778c581ec7bcef","study_id":"60edd13110225f80f9f3709b","session_id":"6196c4a6255d3a25c75b54fb","condition":"contingent","relevant_dimensions":["antennae","wings"],"bee_group":{"antennae":"A","wings":"2","pattern":"X","legs":"X"},"bonus":1.360000000000001},{"rt":8361.40000000596,"stimulus":"bees-with-color/bee-B1SM.svg","response":0,"trial_type":"image-button-response","trial_index":19,"time_elapsed":310242,"internal_node_id":"0.0-4.0-0.6","subject_id":"5fd6744da6778c581ec7bcef","study_id":"60edd13110225f80f9f3709b","session_id":"6196c4a6255d3a25c75b54fb","condition":"contingent","relevant_dimensions":["antennae","wings"],"bee_group":{"antennae":"A","wings":"2","pattern":"X","legs":"X"},"action":"harvest","summary":"good-harvest","bonus":1.360000000000001},{"rt":2220,"stimulus":"\n                    <p><b>Action: <em>harvest</em></b></p>\n                    <p>This is the bee that you just saw.</p>\n                    <img src=\"bees-with-color/bee-B1SM.svg\" width=\"200\">\n                    <p><span class=\"greenText\"><b>Successful harvest!</b></span><br>Your pay has increased by $0.02. Your bonus pay is now $0.54.</p>\n            ","response":0,"trial_type":"html-button-response","trial_index":20,"time_elapsed":312465,"internal_node_id":"0.0-4.0-1.6","subject_id":"5fd6744da6778c581ec7bcef","study_id":"60edd13110225f80f9f3709b","session_id":"6196c4a6255d3a25c75b54fb","condition":"contingent","relevant_dimensions":["antennae","wings"],"bee_group":{"antennae":"A","wings":"2","pattern":"X","legs":"X"},"bonus":1.360000000000001},{"rt":4854.600000008941,"stimulus":"bees-with-color/bee-B2DF.svg","response":0,"trial_type":"image-button-response","trial_index":21,"time_elapsed":317323,"internal_node_id":"0.0-4.0-0.7","subject_id":"5fd6744da6778c581ec7bcef","study_id":"60edd13110225f80f9f3709b","session_id":"6196c4a6255d3a25c75b54fb","condition":"contingent","relevant_dimensions":["antennae","wings"],"bee_group":{"antennae":"A","wings":"2","pattern":"X","legs":"X"},"action":"harvest","summary":"good-harvest","bonus":1.360000000000001},{"rt":2230.4000000059605,"stimulus":"\n                    <p><b>Action: <em>harvest</em></b></p>\n                    <p>This is the bee that you just saw.</p>\n                    <img src=\"bees-with-color/bee-B2DF.svg\" width=\"200\">\n                    <p><span class=\"greenText\"><b>Successful harvest!</b></span><br>Your pay has increased by $0.02. Your bonus pay is now $0.56.</p>\n            ","response":0,"trial_type":"html-button-response","trial_index":22,"time_elapsed":319556,"internal_node_id":"0.0-4.0-1.7","subject_id":"5fd6744da6778c581ec7bcef","study_id":"60edd13110225f80f9f3709b","session_id":"6196c4a6255d3a25c75b54fb","condition":"contingent","relevant_dimensions":["antennae","wings"],"bee_group":{"antennae":"A","wings":"2","pattern":"X","legs":"X"},"bonus":1.360000000000001},{"rt":5716,"stimulus":"bees-with-color/bee-A1SF.svg","response":0,"trial_type":"image-button-response","trial_index":23,"time_elapsed":325276,"internal_node_id":"0.0-4.0-0.8","subject_id":"5fd6744da6778c581ec7bcef","study_id":"60edd13110225f80f9f3709b","session_id":"6196c4a6255d3a25c75b54fb","condition":"contingent","relevant_dimensions":["antennae","wings"],"bee_group":{"antennae":"A","wings":"2","pattern":"X","legs":"X"},"action":"harvest","summary":"good-harvest","bonus":1.360000000000001},{"rt":4080.7000000029802,"stimulus":"\n                    <p><b>Action: <em>harvest</em></b></p>\n                    <p>This is the bee that you just saw.</p>\n                    <img src=\"bees-with-color/bee-A1SF.svg\" width=\"200\">\n                    <p><span class=\"greenText\"><b>Successful harvest!</b></span><br>Your pay has increased by $0.02. Your bonus pay is now $0.58.</p>\n            ","response":0,"trial_type":"html-button-response","trial_index":24,"time_elapsed":329360,"internal_node_id":"0.0-4.0-1.8","subject_id":"5fd6744da6778c581ec7bcef","study_id":"60edd13110225f80f9f3709b","session_id":"6196c4a6255d3a25c75b54fb","condition":"contingent","relevant_dimensions":["antennae","wings"],"bee_group":{"antennae":"A","wings":"2","pattern":"X","legs":"X"},"bonus":1.360000000000001},{"rt":4639.20000000298,"stimulus":"bees-with-color/bee-A1DF.svg","response":0,"trial_type":"image-button-response","trial_index":25,"time_elapsed":334003,"internal_node_id":"0.0-4.0-0.9","subject_id":"5fd6744da6778c581ec7bcef","study_id":"60edd13110225f80f9f3709b","session_id":"6196c4a6255d3a25c75b54fb","condition":"contingent","relevant_dimensions":["antennae","wings"],"bee_group":{"antennae":"A","wings":"2","pattern":"X","legs":"X"},"action":"harvest","summary":"good-harvest","bonus":1.360000000000001},{"rt":2249.2000000029802,"stimulus":"\n                    <p><b>Action: <em>harvest</em></b></p>\n                    <p>This is the bee that you just saw.</p>\n                    <img src=\"bees-with-color/bee-A1DF.svg\" width=\"200\">\n                    <p><span class=\"greenText\"><b>Successful harvest!</b></span><br>Your pay has increased by $0.02. Your bonus pay is now $0.60.</p>\n            ","response":0,"trial_type":"html-button-response","trial_index":26,"time_elapsed":336255,"internal_node_id":"0.0-4.0-1.9","subject_id":"5fd6744da6778c581ec7bcef","study_id":"60edd13110225f80f9f3709b","session_id":"6196c4a6255d3a25c75b54fb","condition":"contingent","relevant_dimensions":["antennae","wings"],"bee_group":{"antennae":"A","wings":"2","pattern":"X","legs":"X"},"bonus":1.360000000000001},{"rt":8967.699999988079,"stimulus":"bees-with-color/bee-A2DM.svg","response":0,"trial_type":"image-button-response","trial_index":27,"time_elapsed":345226,"internal_node_id":"0.0-4.0-0.10","subject_id":"5fd6744da6778c581ec7bcef","study_id":"60edd13110225f80f9f3709b","session_id":"6196c4a6255d3a25c75b54fb","condition":"contingent","relevant_dimensions":["antennae","wings"],"bee_group":{"antennae":"A","wings":"2","pattern":"X","legs":"X"},"action":"harvest","summary":"bad-harvest","bonus":1.360000000000001},{"rt":27439.40000000596,"stimulus":"\n                    <p><b>Action: <em>harvest</em></b></p>\n                    <p>This is the bee that you just saw.</p>\n                    <img src=\"bees-with-color/bee-A2DM.svg\" width=\"200\">\n                    <p><span class=\"redText\">Bad choice, the bee was angry.</span><br><b>You have been stung!</b><br>Your pay has been decreased by $0.10. Your bonus pay is now $0.50.</p>\n            ","response":0,"trial_type":"html-button-response","trial_index":28,"time_elapsed":372669,"internal_node_id":"0.0-4.0-1.10","subject_id":"5fd6744da6778c581ec7bcef","study_id":"60edd13110225f80f9f3709b","session_id":"6196c4a6255d3a25c75b54fb","condition":"contingent","relevant_dimensions":["antennae","wings"],"bee_group":{"antennae":"A","wings":"2","pattern":"X","legs":"X"},"bonus":1.360000000000001},{"rt":4394.899999991059,"stimulus":"bees-with-color/bee-B1DM.svg","response":0,"trial_type":"image-button-response","trial_index":29,"time_elapsed":377068,"internal_node_id":"0.0-4.0-0.11","subject_id":"5fd6744da6778c581ec7bcef","study_id":"60edd13110225f80f9f3709b","session_id":"6196c4a6255d3a25c75b54fb","condition":"contingent","relevant_dimensions":["antennae","wings"],"bee_group":{"antennae":"A","wings":"2","pattern":"X","legs":"X"},"action":"harvest","summary":"good-harvest","bonus":1.360000000000001},{"rt":2650.199999988079,"stimulus":"\n                    <p><b>Action: <em>harvest</em></b></p>\n                    <p>This is the bee that you just saw.</p>\n                    <img src=\"bees-with-color/bee-B1DM.svg\" width=\"200\">\n                    <p><span class=\"greenText\"><b>Successful harvest!</b></span><br>Your pay has increased by $0.02. Your bonus pay is now $0.52.</p>\n            ","response":0,"trial_type":"html-button-response","trial_index":30,"time_elapsed":379722,"internal_node_id":"0.0-4.0-1.11","subject_id":"5fd6744da6778c581ec7bcef","study_id":"60edd13110225f80f9f3709b","session_id":"6196c4a6255d3a25c75b54fb","condition":"contingent","relevant_dimensions":["antennae","wings"],"bee_group":{"antennae":"A","wings":"2","pattern":"X","legs":"X"},"bonus":1.360000000000001},{"rt":5059.4000000059605,"stimulus":"bees-with-color/bee-B2DM.svg","response":1,"trial_type":"image-button-response","trial_index":31,"time_elapsed":384785,"internal_node_id":"0.0-4.0-0.12","subject_id":"5fd6744da6778c581ec7bcef","study_id":"60edd13110225f80f9f3709b","session_id":"6196c4a6255d3a25c75b54fb","condition":"contingent","relevant_dimensions":["antennae","wings"],"bee_group":{"antennae":"A","wings":"2","pattern":"X","legs":"X"},"action":"avoid","summary":"bad-avoid","bonus":1.360000000000001},{"rt":2506.2999999970198,"stimulus":"\n                    <p><b>Action: <em>avoid</em></b></p>\n                    <p>This is the bee that you just saw.</p>\n                    <img src=\"bees-with-color/bee-B2DM.svg\" width=\"200\">\n                    <p><br>Your bonus pay is unchanged, and remains at $0.52.</p>\n            ","response":0,"trial_type":"html-button-response","trial_index":32,"time_elapsed":387294,"internal_node_id":"0.0-4.0-1.12","subject_id":"5fd6744da6778c581ec7bcef","study_id":"60edd13110225f80f9f3709b","session_id":"6196c4a6255d3a25c75b54fb","condition":"contingent","relevant_dimensions":["antennae","wings"],"bee_group":{"antennae":"A","wings":"2","pattern":"X","legs":"X"},"bonus":1.360000000000001},{"rt":4138.29999999702,"stimulus":"bees-with-color/bee-B1SF.svg","response":0,"trial_type":"image-button-response","trial_index":33,"time_elapsed":391436,"internal_node_id":"0.0-4.0-0.13","subject_id":"5fd6744da6778c581ec7bcef","study_id":"60edd13110225f80f9f3709b","session_id":"6196c4a6255d3a25c75b54fb","condition":"contingent","relevant_dimensions":["antennae","wings"],"bee_group":{"antennae":"A","wings":"2","pattern":"X","legs":"X"},"action":"harvest","summary":"good-harvest","bonus":1.360000000000001},{"rt":4796,"stimulus":"\n                    <p><b>Action: <em>harvest</em></b></p>\n                    <p>This is the bee that you just saw.</p>\n                    <img src=\"bees-with-color/bee-B1SF.svg\" width=\"200\">\n                    <p><span class=\"greenText\"><b>Successful harvest!</b></span><br>Your pay has increased by $0.02. Your bonus pay is now $0.54.</p>\n            ","response":0,"trial_type":"html-button-response","trial_index":34,"time_elapsed":396235,"internal_node_id":"0.0-4.0-1.13","subject_id":"5fd6744da6778c581ec7bcef","study_id":"60edd13110225f80f9f3709b","session_id":"6196c4a6255d3a25c75b54fb","condition":"contingent","relevant_dimensions":["antennae","wings"],"bee_group":{"antennae":"A","wings":"2","pattern":"X","legs":"X"},"bonus":1.360000000000001},{"rt":5520.9000000059605,"stimulus":"bees-with-color/bee-A2DF.svg","response":1,"trial_type":"image-button-response","trial_index":35,"time_elapsed":401759,"internal_node_id":"0.0-4.0-0.14","subject_id":"5fd6744da6778c581ec7bcef","study_id":"60edd13110225f80f9f3709b","session_id":"6196c4a6255d3a25c75b54fb","condition":"contingent","relevant_dimensions":["antennae","wings"],"bee_group":{"antennae":"A","wings":"2","pattern":"X","legs":"X"},"action":"avoid","summary":"good-avoid","bonus":1.360000000000001},{"rt":5469.9000000059605,"stimulus":"\n                    <p><b>Action: <em>avoid</em></b></p>\n                    <p>This is the bee that you just saw.</p>\n                    <img src=\"bees-with-color/bee-A2DF.svg\" width=\"200\">\n                    <p><br>Your bonus pay is unchanged, and remains at $0.54.</p>\n            ","response":0,"trial_type":"html-button-response","trial_index":36,"time_elapsed":407232,"internal_node_id":"0.0-4.0-1.14","subject_id":"5fd6744da6778c581ec7bcef","study_id":"60edd13110225f80f9f3709b","session_id":"6196c4a6255d3a25c75b54fb","condition":"contingent","relevant_dimensions":["antennae","wings"],"bee_group":{"antennae":"A","wings":"2","pattern":"X","legs":"X"},"bonus":1.360000000000001},{"rt":5772,"stimulus":"bees-with-color/bee-B2SM.svg","response":1,"trial_type":"image-button-response","trial_index":37,"time_elapsed":413007,"internal_node_id":"0.0-4.0-0.15","subject_id":"5fd6744da6778c581ec7bcef","study_id":"60edd13110225f80f9f3709b","session_id":"6196c4a6255d3a25c75b54fb","condition":"contingent","relevant_dimensions":["antennae","wings"],"bee_group":{"antennae":"A","wings":"2","pattern":"X","legs":"X"},"action":"avoid","summary":"bad-avoid","bonus":1.360000000000001},{"rt":2993.300000011921,"stimulus":"\n                    <p><b>Action: <em>avoid</em></b></p>\n                    <p>This is the bee that you just saw.</p>\n                    <img src=\"bees-with-color/bee-B2SM.svg\" width=\"200\">\n                    <p><br>Your bonus pay is unchanged, and remains at $0.54.</p>\n            ","response":0,"trial_type":"html-button-response","trial_index":38,"time_elapsed":416004,"internal_node_id":"0.0-4.0-1.15","subject_id":"5fd6744da6778c581ec7bcef","study_id":"60edd13110225f80f9f3709b","session_id":"6196c4a6255d3a25c75b54fb","condition":"contingent","relevant_dimensions":["antennae","wings"],"bee_group":{"antennae":"A","wings":"2","pattern":"X","legs":"X"},"bonus":1.360000000000001},{"rt":7948.20000000298,"stimulus":"bees-with-color/bee-B2SF.svg","response":0,"trial_type":"image-button-response","trial_index":39,"time_elapsed":423955,"internal_node_id":"0.0-4.0-0.16","subject_id":"5fd6744da6778c581ec7bcef","study_id":"60edd13110225f80f9f3709b","session_id":"6196c4a6255d3a25c75b54fb","condition":"contingent","relevant_dimensions":["antennae","wings"],"bee_group":{"antennae":"A","wings":"2","pattern":"X","legs":"X"},"action":"harvest","summary":"good-harvest","bonus":1.360000000000001},{"rt":2414.6000000089407,"stimulus":"\n                    <p><b>Action: <em>harvest</em></b></p>\n                    <p>This is the bee that you just saw.</p>\n                    <img src=\"bees-with-color/bee-B2SF.svg\" width=\"200\">\n                    <p><span class=\"greenText\"><b>Successful harvest!</b></span><br>Your pay has increased by $0.02. Your bonus pay is now $0.56.</p>\n            ","response":0,"trial_type":"html-button-response","trial_index":40,"time_elapsed":426373,"internal_node_id":"0.0-4.0-1.16","subject_id":"5fd6744da6778c581ec7bcef","study_id":"60edd13110225f80f9f3709b","session_id":"6196c4a6255d3a25c75b54fb","condition":"contingent","relevant_dimensions":["antennae","wings"],"bee_group":{"antennae":"A","wings":"2","pattern":"X","legs":"X"},"bonus":1.360000000000001},{"rt":5745.20000000298,"stimulus":"bees-with-color/bee-B1DF.svg","response":0,"trial_type":"image-button-response","trial_index":41,"time_elapsed":432121,"internal_node_id":"0.0-4.0-0.17","subject_id":"5fd6744da6778c581ec7bcef","study_id":"60edd13110225f80f9f3709b","session_id":"6196c4a6255d3a25c75b54fb","condition":"contingent","relevant_dimensions":["antennae","wings"],"bee_group":{"antennae":"A","wings":"2","pattern":"X","legs":"X"},"action":"harvest","summary":"good-harvest","bonus":1.360000000000001},{"rt":2336.1000000089407,"stimulus":"\n                    <p><b>Action: <em>harvest</em></b></p>\n                    <p>This is the bee that you just saw.</p>\n                    <img src=\"bees-with-color/bee-B1DF.svg\" width=\"200\">\n                    <p><span class=\"greenText\"><b>Successful harvest!</b></span><br>Your pay has increased by $0.02. Your bonus pay is now $0.58.</p>\n            ","response":0,"trial_type":"html-button-response","trial_index":42,"time_elapsed":434461,"internal_node_id":"0.0-4.0-1.17","subject_id":"5fd6744da6778c581ec7bcef","study_id":"60edd13110225f80f9f3709b","session_id":"6196c4a6255d3a25c75b54fb","condition":"contingent","relevant_dimensions":["antennae","wings"],"bee_group":{"antennae":"A","wings":"2","pattern":"X","legs":"X"},"bonus":1.360000000000001},{"rt":7402.70000000298,"stimulus":"bees-with-color/bee-A2SM.svg","response":1,"trial_type":"image-button-response","trial_index":43,"time_elapsed":441867,"internal_node_id":"0.0-4.0-0.18","subject_id":"5fd6744da6778c581ec7bcef","study_id":"60edd13110225f80f9f3709b","session_id":"6196c4a6255d3a25c75b54fb","condition":"contingent","relevant_dimensions":["antennae","wings"],"bee_group":{"antennae":"A","wings":"2","pattern":"X","legs":"X"},"action":"avoid","summary":"good-avoid","bonus":1.360000000000001},{"rt":2123,"stimulus":"\n                    <p><b>Action: <em>avoid</em></b></p>\n                    <p>This is the bee that you just saw.</p>\n                    <img src=\"bees-with-color/bee-A2SM.svg\" width=\"200\">\n                    <p><br>Your bonus pay is unchanged, and remains at $0.58.</p>\n            ","response":0,"trial_type":"html-button-response","trial_index":44,"time_elapsed":443992,"internal_node_id":"0.0-4.0-1.18","subject_id":"5fd6744da6778c581ec7bcef","study_id":"60edd13110225f80f9f3709b","session_id":"6196c4a6255d3a25c75b54fb","condition":"contingent","relevant_dimensions":["antennae","wings"],"bee_group":{"antennae":"A","wings":"2","pattern":"X","legs":"X"},"bonus":1.360000000000001},{"rt":4237.100000008941,"stimulus":"bees-with-color/bee-A2SF.svg","response":1,"trial_type":"image-button-response","trial_index":45,"time_elapsed":448232,"internal_node_id":"0.0-4.0-0.19","subject_id":"5fd6744da6778c581ec7bcef","study_id":"60edd13110225f80f9f3709b","session_id":"6196c4a6255d3a25c75b54fb","condition":"contingent","relevant_dimensions":["antennae","wings"],"bee_group":{"antennae":"A","wings":"2","pattern":"X","legs":"X"},"action":"avoid","summary":"good-avoid","bonus":1.360000000000001},{"rt":2004.7000000029802,"stimulus":"\n                    <p><b>Action: <em>avoid</em></b></p>\n                    <p>This is the bee that you just saw.</p>\n                    <img src=\"bees-with-color/bee-A2SF.svg\" width=\"200\">\n                    <p><br>Your bonus pay is unchanged, and remains at $0.58.</p>\n            ","response":0,"trial_type":"html-button-response","trial_index":46,"time_elapsed":450240,"internal_node_id":"0.0-4.0-1.19","subject_id":"5fd6744da6778c581ec7bcef","study_id":"60edd13110225f80f9f3709b","session_id":"6196c4a6255d3a25c75b54fb","condition":"contingent","relevant_dimensions":["antennae","wings"],"bee_group":{"antennae":"A","wings":"2","pattern":"X","legs":"X"},"bonus":1.360000000000001},{"rt":7844.399999991059,"stimulus":"bees-with-color/bee-A1DM.svg","response":0,"trial_type":"image-button-response","trial_index":47,"time_elapsed":458089,"internal_node_id":"0.0-4.0-0.20","subject_id":"5fd6744da6778c581ec7bcef","study_id":"60edd13110225f80f9f3709b","session_id":"6196c4a6255d3a25c75b54fb","condition":"contingent","relevant_dimensions":["antennae","wings"],"bee_group":{"antennae":"A","wings":"2","pattern":"X","legs":"X"},"action":"harvest","summary":"good-harvest","bonus":1.360000000000001},{"rt":2580.2000000029802,"stimulus":"\n                    <p><b>Action: <em>harvest</em></b></p>\n                    <p>This is the bee that you just saw.</p>\n                    <img src=\"bees-with-color/bee-A1DM.svg\" width=\"200\">\n                    <p><span class=\"greenText\"><b>Successful harvest!</b></span><br>Your pay has increased by $0.02. Your bonus pay is now $0.60.</p>\n            ","response":0,"trial_type":"html-button-response","trial_index":48,"time_elapsed":460672,"internal_node_id":"0.0-4.0-1.20","subject_id":"5fd6744da6778c581ec7bcef","study_id":"60edd13110225f80f9f3709b","session_id":"6196c4a6255d3a25c75b54fb","condition":"contingent","relevant_dimensions":["antennae","wings"],"bee_group":{"antennae":"A","wings":"2","pattern":"X","legs":"X"},"bonus":1.360000000000001},{"rt":4813.4000000059605,"stimulus":"bees-with-color/bee-B1SF.svg","response":0,"trial_type":"image-button-response","trial_index":49,"time_elapsed":465489,"internal_node_id":"0.0-4.0-0.21","subject_id":"5fd6744da6778c581ec7bcef","study_id":"60edd13110225f80f9f3709b","session_id":"6196c4a6255d3a25c75b54fb","condition":"contingent","relevant_dimensions":["antennae","wings"],"bee_group":{"antennae":"A","wings":"2","pattern":"X","legs":"X"},"action":"harvest","summary":"good-harvest","bonus":1.360000000000001},{"rt":2268.199999988079,"stimulus":"\n                    <p><b>Action: <em>harvest</em></b></p>\n                    <p>This is the bee that you just saw.</p>\n                    <img src=\"bees-with-color/bee-B1SF.svg\" width=\"200\">\n                    <p><span class=\"greenText\"><b>Successful harvest!</b></span><br>Your pay has increased by $0.02. Your bonus pay is now $0.62.</p>\n            ","response":0,"trial_type":"html-button-response","trial_index":50,"time_elapsed":467760,"internal_node_id":"0.0-4.0-1.21","subject_id":"5fd6744da6778c581ec7bcef","study_id":"60edd13110225f80f9f3709b","session_id":"6196c4a6255d3a25c75b54fb","condition":"contingent","relevant_dimensions":["antennae","wings"],"bee_group":{"antennae":"A","wings":"2","pattern":"X","legs":"X"},"bonus":1.360000000000001},{"rt":10869.5,"stimulus":"bees-with-color/bee-A1DF.svg","response":0,"trial_type":"image-button-response","trial_index":51,"time_elapsed":478634,"internal_node_id":"0.0-4.0-0.22","subject_id":"5fd6744da6778c581ec7bcef","study_id":"60edd13110225f80f9f3709b","session_id":"6196c4a6255d3a25c75b54fb","condition":"contingent","relevant_dimensions":["antennae","wings"],"bee_group":{"antennae":"A","wings":"2","pattern":"X","legs":"X"},"action":"harvest","summary":"good-harvest","bonus":1.360000000000001},{"rt":2491.2000000029802,"stimulus":"\n                    <p><b>Action: <em>harvest</em></b></p>\n                    <p>This is the bee that you just saw.</p>\n                    <img src=\"bees-with-color/bee-A1DF.svg\" width=\"200\">\n                    <p><span class=\"greenText\"><b>Successful harvest!</b></span><br>Your pay has increased by $0.02. Your bonus pay is now $0.64.</p>\n            ","response":0,"trial_type":"html-button-response","trial_index":52,"time_elapsed":481129,"internal_node_id":"0.0-4.0-1.22","subject_id":"5fd6744da6778c581ec7bcef","study_id":"60edd13110225f80f9f3709b","session_id":"6196c4a6255d3a25c75b54fb","condition":"contingent","relevant_dimensions":["antennae","wings"],"bee_group":{"antennae":"A","wings":"2","pattern":"X","legs":"X"},"bonus":1.360000000000001},{"rt":3412.199999988079,"stimulus":"bees-with-color/bee-A1SF.svg","response":0,"trial_type":"image-button-response","trial_index":53,"time_elapsed":484546,"internal_node_id":"0.0-4.0-0.23","subject_id":"5fd6744da6778c581ec7bcef","study_id":"60edd13110225f80f9f3709b","session_id":"6196c4a6255d3a25c75b54fb","condition":"contingent","relevant_dimensions":["antennae","wings"],"bee_group":{"antennae":"A","wings":"2","pattern":"X","legs":"X"},"action":"harvest","summary":"good-harvest","bonus":1.360000000000001},{"rt":1898.1000000089407,"stimulus":"\n                    <p><b>Action: <em>harvest</em></b></p>\n                    <p>This is the bee that you just saw.</p>\n                    <img src=\"bees-with-color/bee-A1SF.svg\" width=\"200\">\n                    <p><span class=\"greenText\"><b>Successful harvest!</b></span><br>Your pay has increased by $0.02. Your bonus pay is now $0.66.</p>\n            ","response":0,"trial_type":"html-button-response","trial_index":54,"time_elapsed":486446,"internal_node_id":"0.0-4.0-1.23","subject_id":"5fd6744da6778c581ec7bcef","study_id":"60edd13110225f80f9f3709b","session_id":"6196c4a6255d3a25c75b54fb","condition":"contingent","relevant_dimensions":["antennae","wings"],"bee_group":{"antennae":"A","wings":"2","pattern":"X","legs":"X"},"bonus":1.360000000000001},{"rt":5537.79999999702,"stimulus":"bees-with-color/bee-B1DM.svg","response":0,"trial_type":"image-button-response","trial_index":55,"time_elapsed":491987,"internal_node_id":"0.0-4.0-0.24","subject_id":"5fd6744da6778c581ec7bcef","study_id":"60edd13110225f80f9f3709b","session_id":"6196c4a6255d3a25c75b54fb","condition":"contingent","relevant_dimensions":["antennae","wings"],"bee_group":{"antennae":"A","wings":"2","pattern":"X","legs":"X"},"action":"harvest","summary":"good-harvest","bonus":1.360000000000001},{"rt":3247.2999999970198,"stimulus":"\n                    <p><b>Action: <em>harvest</em></b></p>\n                    <p>This is the bee that you just saw.</p>\n                    <img src=\"bees-with-color/bee-B1DM.svg\" width=\"200\">\n                    <p><span class=\"greenText\"><b>Successful harvest!</b></span><br>Your pay has increased by $0.02. Your bonus pay is now $0.68.</p>\n            ","response":0,"trial_type":"html-button-response","trial_index":56,"time_elapsed":495237,"internal_node_id":"0.0-4.0-1.24","subject_id":"5fd6744da6778c581ec7bcef","study_id":"60edd13110225f80f9f3709b","session_id":"6196c4a6255d3a25c75b54fb","condition":"contingent","relevant_dimensions":["antennae","wings"],"bee_group":{"antennae":"A","wings":"2","pattern":"X","legs":"X"},"bonus":1.360000000000001},{"rt":3913.5999999940395,"stimulus":"bees-with-color/bee-A1SM.svg","response":0,"trial_type":"image-button-response","trial_index":57,"time_elapsed":499154,"internal_node_id":"0.0-4.0-0.25","subject_id":"5fd6744da6778c581ec7bcef","study_id":"60edd13110225f80f9f3709b","session_id":"6196c4a6255d3a25c75b54fb","condition":"contingent","relevant_dimensions":["antennae","wings"],"bee_group":{"antennae":"A","wings":"2","pattern":"X","legs":"X"},"action":"harvest","summary":"good-harvest","bonus":1.360000000000001},{"rt":2208.7000000029802,"stimulus":"\n                    <p><b>Action: <em>harvest</em></b></p>\n                    <p>This is the bee that you just saw.</p>\n                    <img src=\"bees-with-color/bee-A1SM.svg\" width=\"200\">\n                    <p><span class=\"greenText\"><b>Successful harvest!</b></span><br>Your pay has increased by $0.02. Your bonus pay is now $0.70.</p>\n            ","response":0,"trial_type":"html-button-response","trial_index":58,"time_elapsed":501366,"internal_node_id":"0.0-4.0-1.25","subject_id":"5fd6744da6778c581ec7bcef","study_id":"60edd13110225f80f9f3709b","session_id":"6196c4a6255d3a25c75b54fb","condition":"contingent","relevant_dimensions":["antennae","wings"],"bee_group":{"antennae":"A","wings":"2","pattern":"X","legs":"X"},"bonus":1.360000000000001},{"rt":4118.20000000298,"stimulus":"bees-with-color/bee-B2DF.svg","response":1,"trial_type":"image-button-response","trial_index":59,"time_elapsed":505489,"internal_node_id":"0.0-4.0-0.26","subject_id":"5fd6744da6778c581ec7bcef","study_id":"60edd13110225f80f9f3709b","session_id":"6196c4a6255d3a25c75b54fb","condition":"contingent","relevant_dimensions":["antennae","wings"],"bee_group":{"antennae":"A","wings":"2","pattern":"X","legs":"X"},"action":"avoid","summary":"bad-avoid","bonus":1.360000000000001},{"rt":2228.2999999970198,"stimulus":"\n                    <p><b>Action: <em>avoid</em></b></p>\n                    <p>This is the bee that you just saw.</p>\n                    <img src=\"bees-with-color/bee-B2DF.svg\" width=\"200\">\n                    <p><br>Your bonus pay is unchanged, and remains at $0.70.</p>\n            ","response":0,"trial_type":"html-button-response","trial_index":60,"time_elapsed":507719,"internal_node_id":"0.0-4.0-1.26","subject_id":"5fd6744da6778c581ec7bcef","study_id":"60edd13110225f80f9f3709b","session_id":"6196c4a6255d3a25c75b54fb","condition":"contingent","relevant_dimensions":["antennae","wings"],"bee_group":{"antennae":"A","wings":"2","pattern":"X","legs":"X"},"bonus":1.360000000000001},{"rt":4265.5999999940395,"stimulus":"bees-with-color/bee-B2SM.svg","response":1,"trial_type":"image-button-response","trial_index":61,"time_elapsed":511988,"internal_node_id":"0.0-4.0-0.27","subject_id":"5fd6744da6778c581ec7bcef","study_id":"60edd13110225f80f9f3709b","session_id":"6196c4a6255d3a25c75b54fb","condition":"contingent","relevant_dimensions":["antennae","wings"],"bee_group":{"antennae":"A","wings":"2","pattern":"X","legs":"X"},"action":"avoid","summary":"bad-avoid","bonus":1.360000000000001},{"rt":1769.2999999970198,"stimulus":"\n                    <p><b>Action: <em>avoid</em></b></p>\n                    <p>This is the bee that you just saw.</p>\n                    <img src=\"bees-with-color/bee-B2SM.svg\" width=\"200\">\n                    <p><br>Your bonus pay is unchanged, and remains at $0.70.</p>\n            ","response":0,"trial_type":"html-button-response","trial_index":62,"time_elapsed":513760,"internal_node_id":"0.0-4.0-1.27","subject_id":"5fd6744da6778c581ec7bcef","study_id":"60edd13110225f80f9f3709b","session_id":"6196c4a6255d3a25c75b54fb","condition":"contingent","relevant_dimensions":["antennae","wings"],"bee_group":{"antennae":"A","wings":"2","pattern":"X","legs":"X"},"bonus":1.360000000000001},{"rt":2827,"stimulus":"bees-with-color/bee-A2DM.svg","response":1,"trial_type":"image-button-response","trial_index":63,"time_elapsed":516590,"internal_node_id":"0.0-4.0-0.28","subject_id":"5fd6744da6778c581ec7bcef","study_id":"60edd13110225f80f9f3709b","session_id":"6196c4a6255d3a25c75b54fb","condition":"contingent","relevant_dimensions":["antennae","wings"],"bee_group":{"antennae":"A","wings":"2","pattern":"X","legs":"X"},"action":"avoid","summary":"good-avoid","bonus":1.360000000000001},{"rt":2580.800000011921,"stimulus":"\n                    <p><b>Action: <em>avoid</em></b></p>\n                    <p>This is the bee that you just saw.</p>\n                    <img src=\"bees-with-color/bee-A2DM.svg\" width=\"200\">\n                    <p><br>Your bonus pay is unchanged, and remains at $0.70.</p>\n            ","response":0,"trial_type":"html-button-response","trial_index":64,"time_elapsed":519173,"internal_node_id":"0.0-4.0-1.28","subject_id":"5fd6744da6778c581ec7bcef","study_id":"60edd13110225f80f9f3709b","session_id":"6196c4a6255d3a25c75b54fb","condition":"contingent","relevant_dimensions":["antennae","wings"],"bee_group":{"antennae":"A","wings":"2","pattern":"X","legs":"X"},"bonus":1.360000000000001},{"rt":3227.9000000059605,"stimulus":"bees-with-color/bee-A2DF.svg","response":1,"trial_type":"image-button-response","trial_index":65,"time_elapsed":522404,"internal_node_id":"0.0-4.0-0.29","subject_id":"5fd6744da6778c581ec7bcef","study_id":"60edd13110225f80f9f3709b","session_id":"6196c4a6255d3a25c75b54fb","condition":"contingent","relevant_dimensions":["antennae","wings"],"bee_group":{"antennae":"A","wings":"2","pattern":"X","legs":"X"},"action":"avoid","summary":"good-avoid","bonus":1.360000000000001},{"rt":2514.5,"stimulus":"\n                    <p><b>Action: <em>avoid</em></b></p>\n                    <p>This is the bee that you just saw.</p>\n                    <img src=\"bees-with-color/bee-A2DF.svg\" width=\"200\">\n                    <p><br>Your bonus pay is unchanged, and remains at $0.70.</p>\n            ","response":0,"trial_type":"html-button-response","trial_index":66,"time_elapsed":524921,"internal_node_id":"0.0-4.0-1.29","subject_id":"5fd6744da6778c581ec7bcef","study_id":"60edd13110225f80f9f3709b","session_id":"6196c4a6255d3a25c75b54fb","condition":"contingent","relevant_dimensions":["antennae","wings"],"bee_group":{"antennae":"A","wings":"2","pattern":"X","legs":"X"},"bonus":1.360000000000001},{"rt":2062.4000000059605,"stimulus":"bees-with-color/bee-B1SM.svg","response":0,"trial_type":"image-button-response","trial_index":67,"time_elapsed":526986,"internal_node_id":"0.0-4.0-0.30","subject_id":"5fd6744da6778c581ec7bcef","study_id":"60edd13110225f80f9f3709b","session_id":"6196c4a6255d3a25c75b54fb","condition":"contingent","relevant_dimensions":["antennae","wings"],"bee_group":{"antennae":"A","wings":"2","pattern":"X","legs":"X"},"action":"harvest","summary":"good-harvest","bonus":1.360000000000001},{"rt":2326.2999999970198,"stimulus":"\n                    <p><b>Action: <em>harvest</em></b></p>\n                    <p>This is the bee that you just saw.</p>\n                    <img src=\"bees-with-color/bee-B1SM.svg\" width=\"200\">\n                    <p><span class=\"greenText\"><b>Successful harvest!</b></span><br>Your pay has increased by $0.02. Your bonus pay is now $0.72.</p>\n            ","response":0,"trial_type":"html-button-response","trial_index":68,"time_elapsed":529315,"internal_node_id":"0.0-4.0-1.30","subject_id":"5fd6744da6778c581ec7bcef","study_id":"60edd13110225f80f9f3709b","session_id":"6196c4a6255d3a25c75b54fb","condition":"contingent","relevant_dimensions":["antennae","wings"],"bee_group":{"antennae":"A","wings":"2","pattern":"X","legs":"X"},"bonus":1.360000000000001},{"rt":2483.0999999940395,"stimulus":"bees-with-color/bee-B2DM.svg","response":1,"trial_type":"image-button-response","trial_index":69,"time_elapsed":531802,"internal_node_id":"0.0-4.0-0.31","subject_id":"5fd6744da6778c581ec7bcef","study_id":"60edd13110225f80f9f3709b","session_id":"6196c4a6255d3a25c75b54fb","condition":"contingent","relevant_dimensions":["antennae","wings"],"bee_group":{"antennae":"A","wings":"2","pattern":"X","legs":"X"},"action":"avoid","summary":"bad-avoid","bonus":1.360000000000001},{"rt":2420.7000000029802,"stimulus":"\n                    <p><b>Action: <em>avoid</em></b></p>\n                    <p>This is the bee that you just saw.</p>\n                    <img src=\"bees-with-color/bee-B2DM.svg\" width=\"200\">\n                    <p><br>Your bonus pay is unchanged, and remains at $0.72.</p>\n            ","response":0,"trial_type":"html-button-response","trial_index":70,"time_elapsed":534227,"internal_node_id":"0.0-4.0-1.31","subject_id":"5fd6744da6778c581ec7bcef","study_id":"60edd13110225f80f9f3709b","session_id":"6196c4a6255d3a25c75b54fb","condition":"contingent","relevant_dimensions":["antennae","wings"],"bee_group":{"antennae":"A","wings":"2","pattern":"X","legs":"X"},"bonus":1.360000000000001},{"rt":4611.20000000298,"stimulus":"bees-with-color/bee-A1DF.svg","response":0,"trial_type":"image-button-response","trial_index":71,"time_elapsed":538842,"internal_node_id":"0.0-4.0-0.32","subject_id":"5fd6744da6778c581ec7bcef","study_id":"60edd13110225f80f9f3709b","session_id":"6196c4a6255d3a25c75b54fb","condition":"contingent","relevant_dimensions":["antennae","wings"],"bee_group":{"antennae":"A","wings":"2","pattern":"X","legs":"X"},"action":"harvest","summary":"good-harvest","bonus":1.360000000000001},{"rt":2177.2000000029802,"stimulus":"\n                    <p><b>Action: <em>harvest</em></b></p>\n                    <p>This is the bee that you just saw.</p>\n                    <img src=\"bees-with-color/bee-A1DF.svg\" width=\"200\">\n                    <p><span class=\"greenText\"><b>Successful harvest!</b></span><br>Your pay has increased by $0.02. Your bonus pay is now $0.74.</p>\n            ","response":0,"trial_type":"html-button-response","trial_index":72,"time_elapsed":541022,"internal_node_id":"0.0-4.0-1.32","subject_id":"5fd6744da6778c581ec7bcef","study_id":"60edd13110225f80f9f3709b","session_id":"6196c4a6255d3a25c75b54fb","condition":"contingent","relevant_dimensions":["antennae","wings"],"bee_group":{"antennae":"A","wings":"2","pattern":"X","legs":"X"},"bonus":1.360000000000001},{"rt":2366.3999999910593,"stimulus":"bees-with-color/bee-B2SF.svg","response":1,"trial_type":"image-button-response","trial_index":73,"time_elapsed":543392,"internal_node_id":"0.0-4.0-0.33","subject_id":"5fd6744da6778c581ec7bcef","study_id":"60edd13110225f80f9f3709b","session_id":"6196c4a6255d3a25c75b54fb","condition":"contingent","relevant_dimensions":["antennae","wings"],"bee_group":{"antennae":"A","wings":"2","pattern":"X","legs":"X"},"action":"avoid","summary":"bad-avoid","bonus":1.360000000000001},{"rt":2102.7000000029802,"stimulus":"\n                    <p><b>Action: <em>avoid</em></b></p>\n                    <p>This is the bee that you just saw.</p>\n                    <img src=\"bees-with-color/bee-B2SF.svg\" width=\"200\">\n                    <p><br>Your bonus pay is unchanged, and remains at $0.74.</p>\n            ","response":0,"trial_type":"html-button-response","trial_index":74,"time_elapsed":545497,"internal_node_id":"0.0-4.0-1.33","subject_id":"5fd6744da6778c581ec7bcef","study_id":"60edd13110225f80f9f3709b","session_id":"6196c4a6255d3a25c75b54fb","condition":"contingent","relevant_dimensions":["antennae","wings"],"bee_group":{"antennae":"A","wings":"2","pattern":"X","legs":"X"},"bonus":1.360000000000001},{"rt":5210.399999991059,"stimulus":"bees-with-color/bee-A2SM.svg","response":1,"trial_type":"image-button-response","trial_index":75,"time_elapsed":550712,"internal_node_id":"0.0-4.0-0.34","subject_id":"5fd6744da6778c581ec7bcef","study_id":"60edd13110225f80f9f3709b","session_id":"6196c4a6255d3a25c75b54fb","condition":"contingent","relevant_dimensions":["antennae","wings"],"bee_group":{"antennae":"A","wings":"2","pattern":"X","legs":"X"},"action":"avoid","summary":"good-avoid","bonus":1.360000000000001},{"rt":2543.1000000089407,"stimulus":"\n                    <p><b>Action: <em>avoid</em></b></p>\n                    <p>This is the bee that you just saw.</p>\n                    <img src=\"bees-with-color/bee-A2SM.svg\" width=\"200\">\n                    <p><br>Your bonus pay is unchanged, and remains at $0.74.</p>\n            ","response":0,"trial_type":"html-button-response","trial_index":76,"time_elapsed":553257,"internal_node_id":"0.0-4.0-1.34","subject_id":"5fd6744da6778c581ec7bcef","study_id":"60edd13110225f80f9f3709b","session_id":"6196c4a6255d3a25c75b54fb","condition":"contingent","relevant_dimensions":["antennae","wings"],"bee_group":{"antennae":"A","wings":"2","pattern":"X","legs":"X"},"bonus":1.360000000000001},{"rt":5362.5,"stimulus":"bees-with-color/bee-A2DF.svg","response":1,"trial_type":"image-button-response","trial_index":77,"time_elapsed":558623,"internal_node_id":"0.0-4.0-0.35","subject_id":"5fd6744da6778c581ec7bcef","study_id":"60edd13110225f80f9f3709b","session_id":"6196c4a6255d3a25c75b54fb","condition":"contingent","relevant_dimensions":["antennae","wings"],"bee_group":{"antennae":"A","wings":"2","pattern":"X","legs":"X"},"action":"avoid","summary":"good-avoid","bonus":1.360000000000001},{"rt":2170.2999999970198,"stimulus":"\n                    <p><b>Action: <em>avoid</em></b></p>\n                    <p>This is the bee that you just saw.</p>\n                    <img src=\"bees-with-color/bee-A2DF.svg\" width=\"200\">\n                    <p><br>Your bonus pay is unchanged, and remains at $0.74.</p>\n            ","response":0,"trial_type":"html-button-response","trial_index":78,"time_elapsed":560796,"internal_node_id":"0.0-4.0-1.35","subject_id":"5fd6744da6778c581ec7bcef","study_id":"60edd13110225f80f9f3709b","session_id":"6196c4a6255d3a25c75b54fb","condition":"contingent","relevant_dimensions":["antennae","wings"],"bee_group":{"antennae":"A","wings":"2","pattern":"X","legs":"X"},"bonus":1.360000000000001},{"rt":2462.1000000089407,"stimulus":"bees-with-color/bee-B1DM.svg","response":0,"trial_type":"image-button-response","trial_index":79,"time_elapsed":563263,"internal_node_id":"0.0-4.0-0.36","subject_id":"5fd6744da6778c581ec7bcef","study_id":"60edd13110225f80f9f3709b","session_id":"6196c4a6255d3a25c75b54fb","condition":"contingent","relevant_dimensions":["antennae","wings"],"bee_group":{"antennae":"A","wings":"2","pattern":"X","legs":"X"},"action":"harvest","summary":"good-harvest","bonus":1.360000000000001},{"rt":2658.7999999970198,"stimulus":"\n                    <p><b>Action: <em>harvest</em></b></p>\n                    <p>This is the bee that you just saw.</p>\n                    <img src=\"bees-with-color/bee-B1DM.svg\" width=\"200\">\n                    <p><span class=\"greenText\"><b>Successful harvest!</b></span><br>Your pay has increased by $0.02. Your bonus pay is now $0.76.</p>\n            ","response":0,"trial_type":"html-button-response","trial_index":80,"time_elapsed":565925,"internal_node_id":"0.0-4.0-1.36","subject_id":"5fd6744da6778c581ec7bcef","study_id":"60edd13110225f80f9f3709b","session_id":"6196c4a6255d3a25c75b54fb","condition":"contingent","relevant_dimensions":["antennae","wings"],"bee_group":{"antennae":"A","wings":"2","pattern":"X","legs":"X"},"bonus":1.360000000000001},{"rt":2120.8999999910593,"stimulus":"bees-with-color/bee-B1SF.svg","response":0,"trial_type":"image-button-response","trial_index":81,"time_elapsed":568049,"internal_node_id":"0.0-4.0-0.37","subject_id":"5fd6744da6778c581ec7bcef","study_id":"60edd13110225f80f9f3709b","session_id":"6196c4a6255d3a25c75b54fb","condition":"contingent","relevant_dimensions":["antennae","wings"],"bee_group":{"antennae":"A","wings":"2","pattern":"X","legs":"X"},"action":"harvest","summary":"good-harvest","bonus":1.360000000000001},{"rt":2238.4000000059605,"stimulus":"\n                    <p><b>Action: <em>harvest</em></b></p>\n                    <p>This is the bee that you just saw.</p>\n                    <img src=\"bees-with-color/bee-B1SF.svg\" width=\"200\">\n                    <p><span class=\"greenText\"><b>Successful harvest!</b></span><br>Your pay has increased by $0.02. Your bonus pay is now $0.78.</p>\n            ","response":0,"trial_type":"html-button-response","trial_index":82,"time_elapsed":570290,"internal_node_id":"0.0-4.0-1.37","subject_id":"5fd6744da6778c581ec7bcef","study_id":"60edd13110225f80f9f3709b","session_id":"6196c4a6255d3a25c75b54fb","condition":"contingent","relevant_dimensions":["antennae","wings"],"bee_group":{"antennae":"A","wings":"2","pattern":"X","legs":"X"},"bonus":1.360000000000001},{"rt":2560.2999999970198,"stimulus":"bees-with-color/bee-B2SM.svg","response":1,"trial_type":"image-button-response","trial_index":83,"time_elapsed":572854,"internal_node_id":"0.0-4.0-0.38","subject_id":"5fd6744da6778c581ec7bcef","study_id":"60edd13110225f80f9f3709b","session_id":"6196c4a6255d3a25c75b54fb","condition":"contingent","relevant_dimensions":["antennae","wings"],"bee_group":{"antennae":"A","wings":"2","pattern":"X","legs":"X"},"action":"avoid","summary":"bad-avoid","bonus":1.360000000000001},{"rt":1925,"stimulus":"\n                    <p><b>Action: <em>avoid</em></b></p>\n                    <p>This is the bee that you just saw.</p>\n                    <img src=\"bees-with-color/bee-B2SM.svg\" width=\"200\">\n                    <p><br>Your bonus pay is unchanged, and remains at $0.78.</p>\n            ","response":0,"trial_type":"html-button-response","trial_index":84,"time_elapsed":574782,"internal_node_id":"0.0-4.0-1.38","subject_id":"5fd6744da6778c581ec7bcef","study_id":"60edd13110225f80f9f3709b","session_id":"6196c4a6255d3a25c75b54fb","condition":"contingent","relevant_dimensions":["antennae","wings"],"bee_group":{"antennae":"A","wings":"2","pattern":"X","legs":"X"},"bonus":1.360000000000001},{"rt":2522.5,"stimulus":"bees-with-color/bee-B1SM.svg","response":0,"trial_type":"image-button-response","trial_index":85,"time_elapsed":577307,"internal_node_id":"0.0-4.0-0.39","subject_id":"5fd6744da6778c581ec7bcef","study_id":"60edd13110225f80f9f3709b","session_id":"6196c4a6255d3a25c75b54fb","condition":"contingent","relevant_dimensions":["antennae","wings"],"bee_group":{"antennae":"A","wings":"2","pattern":"X","legs":"X"},"action":"harvest","summary":"good-harvest","bonus":1.360000000000001},{"rt":2393.2999999970198,"stimulus":"\n                    <p><b>Action: <em>harvest</em></b></p>\n                    <p>This is the bee that you just saw.</p>\n                    <img src=\"bees-with-color/bee-B1SM.svg\" width=\"200\">\n                    <p><span class=\"greenText\"><b>Successful harvest!</b></span><br>Your pay has increased by $0.02. Your bonus pay is now $0.80.</p>\n            ","response":0,"trial_type":"html-button-response","trial_index":86,"time_elapsed":579703,"internal_node_id":"0.0-4.0-1.39","subject_id":"5fd6744da6778c581ec7bcef","study_id":"60edd13110225f80f9f3709b","session_id":"6196c4a6255d3a25c75b54fb","condition":"contingent","relevant_dimensions":["antennae","wings"],"bee_group":{"antennae":"A","wings":"2","pattern":"X","legs":"X"},"bonus":1.360000000000001},{"rt":3258.7999999970198,"stimulus":"bees-with-color/bee-B2DM.svg","response":1,"trial_type":"image-button-response","trial_index":87,"time_elapsed":582965,"internal_node_id":"0.0-4.0-0.40","subject_id":"5fd6744da6778c581ec7bcef","study_id":"60edd13110225f80f9f3709b","session_id":"6196c4a6255d3a25c75b54fb","condition":"contingent","relevant_dimensions":["antennae","wings"],"bee_group":{"antennae":"A","wings":"2","pattern":"X","legs":"X"},"action":"avoid","summary":"bad-avoid","bonus":1.360000000000001},{"rt":2138.3999999910593,"stimulus":"\n                    <p><b>Action: <em>avoid</em></b></p>\n                    <p>This is the bee that you just saw.</p>\n                    <img src=\"bees-with-color/bee-B2DM.svg\" width=\"200\">\n                    <p><br>Your bonus pay is unchanged, and remains at $0.80.</p>\n            ","response":0,"trial_type":"html-button-response","trial_index":88,"time_elapsed":585107,"internal_node_id":"0.0-4.0-1.40","subject_id":"5fd6744da6778c581ec7bcef","study_id":"60edd13110225f80f9f3709b","session_id":"6196c4a6255d3a25c75b54fb","condition":"contingent","relevant_dimensions":["antennae","wings"],"bee_group":{"antennae":"A","wings":"2","pattern":"X","legs":"X"},"bonus":1.360000000000001},{"rt":1796.7000000029802,"stimulus":"bees-with-color/bee-A1SM.svg","response":0,"trial_type":"image-button-response","trial_index":89,"time_elapsed":586907,"internal_node_id":"0.0-4.0-0.41","subject_id":"5fd6744da6778c581ec7bcef","study_id":"60edd13110225f80f9f3709b","session_id":"6196c4a6255d3a25c75b54fb","condition":"contingent","relevant_dimensions":["antennae","wings"],"bee_group":{"antennae":"A","wings":"2","pattern":"X","legs":"X"},"action":"harvest","summary":"good-harvest","bonus":1.360000000000001},{"rt":1944.7000000029802,"stimulus":"\n                    <p><b>Action: <em>harvest</em></b></p>\n                    <p>This is the bee that you just saw.</p>\n                    <img src=\"bees-with-color/bee-A1SM.svg\" width=\"200\">\n                    <p><span class=\"greenText\"><b>Successful harvest!</b></span><br>Your pay has increased by $0.02. Your bonus pay is now $0.82.</p>\n            ","response":0,"trial_type":"html-button-response","trial_index":90,"time_elapsed":588855,"internal_node_id":"0.0-4.0-1.41","subject_id":"5fd6744da6778c581ec7bcef","study_id":"60edd13110225f80f9f3709b","session_id":"6196c4a6255d3a25c75b54fb","condition":"contingent","relevant_dimensions":["antennae","wings"],"bee_group":{"antennae":"A","wings":"2","pattern":"X","legs":"X"},"bonus":1.360000000000001},{"rt":7874.9000000059605,"stimulus":"bees-with-color/bee-A1DM.svg","response":0,"trial_type":"image-button-response","trial_index":91,"time_elapsed":596733,"internal_node_id":"0.0-4.0-0.42","subject_id":"5fd6744da6778c581ec7bcef","study_id":"60edd13110225f80f9f3709b","session_id":"6196c4a6255d3a25c75b54fb","condition":"contingent","relevant_dimensions":["antennae","wings"],"bee_group":{"antennae":"A","wings":"2","pattern":"X","legs":"X"},"action":"harvest","summary":"good-harvest","bonus":1.360000000000001},{"rt":2247.5999999940395,"stimulus":"\n                    <p><b>Action: <em>harvest</em></b></p>\n                    <p>This is the bee that you just saw.</p>\n                    <img src=\"bees-with-color/bee-A1DM.svg\" width=\"200\">\n                    <p><span class=\"greenText\"><b>Successful harvest!</b></span><br>Your pay has increased by $0.02. Your bonus pay is now $0.84.</p>\n            ","response":0,"trial_type":"html-button-response","trial_index":92,"time_elapsed":598983,"internal_node_id":"0.0-4.0-1.42","subject_id":"5fd6744da6778c581ec7bcef","study_id":"60edd13110225f80f9f3709b","session_id":"6196c4a6255d3a25c75b54fb","condition":"contingent","relevant_dimensions":["antennae","wings"],"bee_group":{"antennae":"A","wings":"2","pattern":"X","legs":"X"},"bonus":1.360000000000001},{"rt":2465,"stimulus":"bees-with-color/bee-A1SF.svg","response":0,"trial_type":"image-button-response","trial_index":93,"time_elapsed":601452,"internal_node_id":"0.0-4.0-0.43","subject_id":"5fd6744da6778c581ec7bcef","study_id":"60edd13110225f80f9f3709b","session_id":"6196c4a6255d3a25c75b54fb","condition":"contingent","relevant_dimensions":["antennae","wings"],"bee_group":{"antennae":"A","wings":"2","pattern":"X","legs":"X"},"action":"harvest","summary":"good-harvest","bonus":1.360000000000001},{"rt":3048.8999999910593,"stimulus":"\n                    <p><b>Action: <em>harvest</em></b></p>\n                    <p>This is the bee that you just saw.</p>\n                    <img src=\"bees-with-color/bee-A1SF.svg\" width=\"200\">\n                    <p><span class=\"greenText\"><b>Successful harvest!</b></span><br>Your pay has increased by $0.02. Your bonus pay is now $0.86.</p>\n            ","response":0,"trial_type":"html-button-response","trial_index":94,"time_elapsed":604504,"internal_node_id":"0.0-4.0-1.43","subject_id":"5fd6744da6778c581ec7bcef","study_id":"60edd13110225f80f9f3709b","session_id":"6196c4a6255d3a25c75b54fb","condition":"contingent","relevant_dimensions":["antennae","wings"],"bee_group":{"antennae":"A","wings":"2","pattern":"X","legs":"X"},"bonus":1.360000000000001},{"rt":3363.7000000029802,"stimulus":"bees-with-color/bee-B2DF.svg","response":1,"trial_type":"image-button-response","trial_index":95,"time_elapsed":607871,"internal_node_id":"0.0-4.0-0.44","subject_id":"5fd6744da6778c581ec7bcef","study_id":"60edd13110225f80f9f3709b","session_id":"6196c4a6255d3a25c75b54fb","condition":"contingent","relevant_dimensions":["antennae","wings"],"bee_group":{"antennae":"A","wings":"2","pattern":"X","legs":"X"},"action":"avoid","summary":"bad-avoid","bonus":1.360000000000001},{"rt":2855.6000000089407,"stimulus":"\n                    <p><b>Action: <em>avoid</em></b></p>\n                    <p>This is the bee that you just saw.</p>\n                    <img src=\"bees-with-color/bee-B2DF.svg\" width=\"200\">\n                    <p><br>Your bonus pay is unchanged, and remains at $0.86.</p>\n            ","response":0,"trial_type":"html-button-response","trial_index":96,"time_elapsed":610729,"internal_node_id":"0.0-4.0-1.44","subject_id":"5fd6744da6778c581ec7bcef","study_id":"60edd13110225f80f9f3709b","session_id":"6196c4a6255d3a25c75b54fb","condition":"contingent","relevant_dimensions":["antennae","wings"],"bee_group":{"antennae":"A","wings":"2","pattern":"X","legs":"X"},"bonus":1.360000000000001},{"rt":2932.5,"stimulus":"bees-with-color/bee-A2DM.svg","response":1,"trial_type":"image-button-response","trial_index":97,"time_elapsed":613665,"internal_node_id":"0.0-4.0-0.45","subject_id":"5fd6744da6778c581ec7bcef","study_id":"60edd13110225f80f9f3709b","session_id":"6196c4a6255d3a25c75b54fb","condition":"contingent","relevant_dimensions":["antennae","wings"],"bee_group":{"antennae":"A","wings":"2","pattern":"X","legs":"X"},"action":"avoid","summary":"good-avoid","bonus":1.360000000000001},{"rt":1728.2999999970198,"stimulus":"\n                    <p><b>Action: <em>avoid</em></b></p>\n                    <p>This is the bee that you just saw.</p>\n                    <img src=\"bees-with-color/bee-A2DM.svg\" width=\"200\">\n                    <p><br>Your bonus pay is unchanged, and remains at $0.86.</p>\n            ","response":0,"trial_type":"html-button-response","trial_index":98,"time_elapsed":615396,"internal_node_id":"0.0-4.0-1.45","subject_id":"5fd6744da6778c581ec7bcef","study_id":"60edd13110225f80f9f3709b","session_id":"6196c4a6255d3a25c75b54fb","condition":"contingent","relevant_dimensions":["antennae","wings"],"bee_group":{"antennae":"A","wings":"2","pattern":"X","legs":"X"},"bonus":1.360000000000001},{"rt":1915.7999999970198,"stimulus":"bees-with-color/bee-B1DF.svg","response":0,"trial_type":"image-button-response","trial_index":99,"time_elapsed":617315,"internal_node_id":"0.0-4.0-0.46","subject_id":"5fd6744da6778c581ec7bcef","study_id":"60edd13110225f80f9f3709b","session_id":"6196c4a6255d3a25c75b54fb","condition":"contingent","relevant_dimensions":["antennae","wings"],"bee_group":{"antennae":"A","wings":"2","pattern":"X","legs":"X"},"action":"harvest","summary":"good-harvest","bonus":1.360000000000001},{"rt":2454.2999999970198,"stimulus":"\n                    <p><b>Action: <em>harvest</em></b></p>\n                    <p>This is the bee that you just saw.</p>\n                    <img src=\"bees-with-color/bee-B1DF.svg\" width=\"200\">\n                    <p><span class=\"greenText\"><b>Successful harvest!</b></span><br>Your pay has increased by $0.02. Your bonus pay is now $0.88.</p>\n            ","response":0,"trial_type":"html-button-response","trial_index":100,"time_elapsed":619772,"internal_node_id":"0.0-4.0-1.46","subject_id":"5fd6744da6778c581ec7bcef","study_id":"60edd13110225f80f9f3709b","session_id":"6196c4a6255d3a25c75b54fb","condition":"contingent","relevant_dimensions":["antennae","wings"],"bee_group":{"antennae":"A","wings":"2","pattern":"X","legs":"X"},"bonus":1.360000000000001},{"rt":2618.300000011921,"stimulus":"bees-with-color/bee-A2SF.svg","response":1,"trial_type":"image-button-response","trial_index":101,"time_elapsed":622394,"internal_node_id":"0.0-4.0-0.47","subject_id":"5fd6744da6778c581ec7bcef","study_id":"60edd13110225f80f9f3709b","session_id":"6196c4a6255d3a25c75b54fb","condition":"contingent","relevant_dimensions":["antennae","wings"],"bee_group":{"antennae":"A","wings":"2","pattern":"X","legs":"X"},"action":"avoid","summary":"good-avoid","bonus":1.360000000000001},{"rt":1838,"stimulus":"\n                    <p><b>Action: <em>avoid</em></b></p>\n                    <p>This is the bee that you just saw.</p>\n                    <img src=\"bees-with-color/bee-A2SF.svg\" width=\"200\">\n                    <p><br>Your bonus pay is unchanged, and remains at $0.88.</p>\n            ","response":0,"trial_type":"html-button-response","trial_index":102,"time_elapsed":624235,"internal_node_id":"0.0-4.0-1.47","subject_id":"5fd6744da6778c581ec7bcef","study_id":"60edd13110225f80f9f3709b","session_id":"6196c4a6255d3a25c75b54fb","condition":"contingent","relevant_dimensions":["antennae","wings"],"bee_group":{"antennae":"A","wings":"2","pattern":"X","legs":"X"},"bonus":1.360000000000001},{"rt":2334.0999999940395,"stimulus":"bees-with-color/bee-A1SM.svg","response":0,"trial_type":"image-button-response","trial_index":103,"time_elapsed":626572,"internal_node_id":"0.0-4.0-0.48","subject_id":"5fd6744da6778c581ec7bcef","study_id":"60edd13110225f80f9f3709b","session_id":"6196c4a6255d3a25c75b54fb","condition":"contingent","relevant_dimensions":["antennae","wings"],"bee_group":{"antennae":"A","wings":"2","pattern":"X","legs":"X"},"action":"harvest","summary":"good-harvest","bonus":1.360000000000001},{"rt":2464.5999999940395,"stimulus":"\n                    <p><b>Action: <em>harvest</em></b></p>\n                    <p>This is the bee that you just saw.</p>\n                    <img src=\"bees-with-color/bee-A1SM.svg\" width=\"200\">\n                    <p><span class=\"greenText\"><b>Successful harvest!</b></span><br>Your pay has increased by $0.02. Your bonus pay is now $0.90.</p>\n            ","response":0,"trial_type":"html-button-response","trial_index":104,"time_elapsed":629039,"internal_node_id":"0.0-4.0-1.48","subject_id":"5fd6744da6778c581ec7bcef","study_id":"60edd13110225f80f9f3709b","session_id":"6196c4a6255d3a25c75b54fb","condition":"contingent","relevant_dimensions":["antennae","wings"],"bee_group":{"antennae":"A","wings":"2","pattern":"X","legs":"X"},"bonus":1.360000000000001},{"rt":6823.79999999702,"stimulus":"bees-with-color/bee-B1DM.svg","response":0,"trial_type":"image-button-response","trial_index":105,"time_elapsed":635868,"internal_node_id":"0.0-4.0-0.49","subject_id":"5fd6744da6778c581ec7bcef","study_id":"60edd13110225f80f9f3709b","session_id":"6196c4a6255d3a25c75b54fb","condition":"contingent","relevant_dimensions":["antennae","wings"],"bee_group":{"antennae":"A","wings":"2","pattern":"X","legs":"X"},"action":"harvest","summary":"good-harvest","bonus":1.360000000000001},{"rt":2551.3999999910593,"stimulus":"\n                    <p><b>Action: <em>harvest</em></b></p>\n                    <p>This is the bee that you just saw.</p>\n                    <img src=\"bees-with-color/bee-B1DM.svg\" width=\"200\">\n                    <p><span class=\"greenText\"><b>Successful harvest!</b></span><br>Your pay has increased by $0.02. Your bonus pay is now $0.92.</p>\n            ","response":0,"trial_type":"html-button-response","trial_index":106,"time_elapsed":638422,"internal_node_id":"0.0-4.0-1.49","subject_id":"5fd6744da6778c581ec7bcef","study_id":"60edd13110225f80f9f3709b","session_id":"6196c4a6255d3a25c75b54fb","condition":"contingent","relevant_dimensions":["antennae","wings"],"bee_group":{"antennae":"A","wings":"2","pattern":"X","legs":"X"},"bonus":1.360000000000001},{"rt":2589.1000000089407,"stimulus":"bees-with-color/bee-A2DF.svg","response":1,"trial_type":"image-button-response","trial_index":107,"time_elapsed":641015,"internal_node_id":"0.0-4.0-0.50","subject_id":"5fd6744da6778c581ec7bcef","study_id":"60edd13110225f80f9f3709b","session_id":"6196c4a6255d3a25c75b54fb","condition":"contingent","relevant_dimensions":["antennae","wings"],"bee_group":{"antennae":"A","wings":"2","pattern":"X","legs":"X"},"action":"avoid","summary":"good-avoid","bonus":1.360000000000001},{"rt":2444.1000000089407,"stimulus":"\n                    <p><b>Action: <em>avoid</em></b></p>\n                    <p>This is the bee that you just saw.</p>\n                    <img src=\"bees-with-color/bee-A2DF.svg\" width=\"200\">\n                    <p><br>Your bonus pay is unchanged, and remains at $0.92.</p>\n            ","response":0,"trial_type":"html-button-response","trial_index":108,"time_elapsed":643461,"internal_node_id":"0.0-4.0-1.50","subject_id":"5fd6744da6778c581ec7bcef","study_id":"60edd13110225f80f9f3709b","session_id":"6196c4a6255d3a25c75b54fb","condition":"contingent","relevant_dimensions":["antennae","wings"],"bee_group":{"antennae":"A","wings":"2","pattern":"X","legs":"X"},"bonus":1.360000000000001},{"rt":3138,"stimulus":"bees-with-color/bee-B2DF.svg","response":1,"trial_type":"image-button-response","trial_index":109,"time_elapsed":646603,"internal_node_id":"0.0-4.0-0.51","subject_id":"5fd6744da6778c581ec7bcef","study_id":"60edd13110225f80f9f3709b","session_id":"6196c4a6255d3a25c75b54fb","condition":"contingent","relevant_dimensions":["antennae","wings"],"bee_group":{"antennae":"A","wings":"2","pattern":"X","legs":"X"},"action":"avoid","summary":"bad-avoid","bonus":1.360000000000001},{"rt":1934.5999999940395,"stimulus":"\n                    <p><b>Action: <em>avoid</em></b></p>\n                    <p>This is the bee that you just saw.</p>\n                    <img src=\"bees-with-color/bee-B2DF.svg\" width=\"200\">\n                    <p><br>Your bonus pay is unchanged, and remains at $0.92.</p>\n            ","response":0,"trial_type":"html-button-response","trial_index":110,"time_elapsed":648540,"internal_node_id":"0.0-4.0-1.51","subject_id":"5fd6744da6778c581ec7bcef","study_id":"60edd13110225f80f9f3709b","session_id":"6196c4a6255d3a25c75b54fb","condition":"contingent","relevant_dimensions":["antennae","wings"],"bee_group":{"antennae":"A","wings":"2","pattern":"X","legs":"X"},"bonus":1.360000000000001},{"rt":3322.4000000059605,"stimulus":"bees-with-color/bee-A2SF.svg","response":1,"trial_type":"image-button-response","trial_index":111,"time_elapsed":651867,"internal_node_id":"0.0-4.0-0.52","subject_id":"5fd6744da6778c581ec7bcef","study_id":"60edd13110225f80f9f3709b","session_id":"6196c4a6255d3a25c75b54fb","condition":"contingent","relevant_dimensions":["antennae","wings"],"bee_group":{"antennae":"A","wings":"2","pattern":"X","legs":"X"},"action":"avoid","summary":"good-avoid","bonus":1.360000000000001},{"rt":1681.2999999970198,"stimulus":"\n                    <p><b>Action: <em>avoid</em></b></p>\n                    <p>This is the bee that you just saw.</p>\n                    <img src=\"bees-with-color/bee-A2SF.svg\" width=\"200\">\n                    <p><br>Your bonus pay is unchanged, and remains at $0.92.</p>\n            ","response":0,"trial_type":"html-button-response","trial_index":112,"time_elapsed":653550,"internal_node_id":"0.0-4.0-1.52","subject_id":"5fd6744da6778c581ec7bcef","study_id":"60edd13110225f80f9f3709b","session_id":"6196c4a6255d3a25c75b54fb","condition":"contingent","relevant_dimensions":["antennae","wings"],"bee_group":{"antennae":"A","wings":"2","pattern":"X","legs":"X"},"bonus":1.360000000000001},{"rt":2413.4000000059605,"stimulus":"bees-with-color/bee-B2DM.svg","response":1,"trial_type":"image-button-response","trial_index":113,"time_elapsed":655967,"internal_node_id":"0.0-4.0-0.53","subject_id":"5fd6744da6778c581ec7bcef","study_id":"60edd13110225f80f9f3709b","session_id":"6196c4a6255d3a25c75b54fb","condition":"contingent","relevant_dimensions":["antennae","wings"],"bee_group":{"antennae":"A","wings":"2","pattern":"X","legs":"X"},"action":"avoid","summary":"bad-avoid","bonus":1.360000000000001},{"rt":1612.199999988079,"stimulus":"\n                    <p><b>Action: <em>avoid</em></b></p>\n                    <p>This is the bee that you just saw.</p>\n                    <img src=\"bees-with-color/bee-B2DM.svg\" width=\"200\">\n                    <p><br>Your bonus pay is unchanged, and remains at $0.92.</p>\n            ","response":0,"trial_type":"html-button-response","trial_index":114,"time_elapsed":657582,"internal_node_id":"0.0-4.0-1.53","subject_id":"5fd6744da6778c581ec7bcef","study_id":"60edd13110225f80f9f3709b","session_id":"6196c4a6255d3a25c75b54fb","condition":"contingent","relevant_dimensions":["antennae","wings"],"bee_group":{"antennae":"A","wings":"2","pattern":"X","legs":"X"},"bonus":1.360000000000001},{"rt":2513.4000000059605,"stimulus":"bees-with-color/bee-B1DF.svg","response":0,"trial_type":"image-button-response","trial_index":115,"time_elapsed":660098,"internal_node_id":"0.0-4.0-0.54","subject_id":"5fd6744da6778c581ec7bcef","study_id":"60edd13110225f80f9f3709b","session_id":"6196c4a6255d3a25c75b54fb","condition":"contingent","relevant_dimensions":["antennae","wings"],"bee_group":{"antennae":"A","wings":"2","pattern":"X","legs":"X"},"action":"harvest","summary":"good-harvest","bonus":1.360000000000001},{"rt":2452.3999999910593,"stimulus":"\n                    <p><b>Action: <em>harvest</em></b></p>\n                    <p>This is the bee that you just saw.</p>\n                    <img src=\"bees-with-color/bee-B1DF.svg\" width=\"200\">\n                    <p><span class=\"greenText\"><b>Successful harvest!</b></span><br>Your pay has increased by $0.02. Your bonus pay is now $0.94.</p>\n            ","response":0,"trial_type":"html-button-response","trial_index":116,"time_elapsed":662553,"internal_node_id":"0.0-4.0-1.54","subject_id":"5fd6744da6778c581ec7bcef","study_id":"60edd13110225f80f9f3709b","session_id":"6196c4a6255d3a25c75b54fb","condition":"contingent","relevant_dimensions":["antennae","wings"],"bee_group":{"antennae":"A","wings":"2","pattern":"X","legs":"X"},"bonus":1.360000000000001},{"rt":2393.6000000089407,"stimulus":"bees-with-color/bee-B2SF.svg","response":1,"trial_type":"image-button-response","trial_index":117,"time_elapsed":664949,"internal_node_id":"0.0-4.0-0.55","subject_id":"5fd6744da6778c581ec7bcef","study_id":"60edd13110225f80f9f3709b","session_id":"6196c4a6255d3a25c75b54fb","condition":"contingent","relevant_dimensions":["antennae","wings"],"bee_group":{"antennae":"A","wings":"2","pattern":"X","legs":"X"},"action":"avoid","summary":"bad-avoid","bonus":1.360000000000001},{"rt":1983.7000000029802,"stimulus":"\n                    <p><b>Action: <em>avoid</em></b></p>\n                    <p>This is the bee that you just saw.</p>\n                    <img src=\"bees-with-color/bee-B2SF.svg\" width=\"200\">\n                    <p><br>Your bonus pay is unchanged, and remains at $0.94.</p>\n            ","response":0,"trial_type":"html-button-response","trial_index":118,"time_elapsed":666936,"internal_node_id":"0.0-4.0-1.55","subject_id":"5fd6744da6778c581ec7bcef","study_id":"60edd13110225f80f9f3709b","session_id":"6196c4a6255d3a25c75b54fb","condition":"contingent","relevant_dimensions":["antennae","wings"],"bee_group":{"antennae":"A","wings":"2","pattern":"X","legs":"X"},"bonus":1.360000000000001},{"rt":1769.5,"stimulus":"bees-with-color/bee-B1SF.svg","response":0,"trial_type":"image-button-response","trial_index":119,"time_elapsed":668709,"internal_node_id":"0.0-4.0-0.56","subject_id":"5fd6744da6778c581ec7bcef","study_id":"60edd13110225f80f9f3709b","session_id":"6196c4a6255d3a25c75b54fb","condition":"contingent","relevant_dimensions":["antennae","wings"],"bee_group":{"antennae":"A","wings":"2","pattern":"X","legs":"X"},"action":"harvest","summary":"good-harvest","bonus":1.360000000000001},{"rt":2105.0999999940395,"stimulus":"\n                    <p><b>Action: <em>harvest</em></b></p>\n                    <p>This is the bee that you just saw.</p>\n                    <img src=\"bees-with-color/bee-B1SF.svg\" width=\"200\">\n                    <p><span class=\"greenText\"><b>Successful harvest!</b></span><br>Your pay has increased by $0.02. Your bonus pay is now $0.96.</p>\n            ","response":0,"trial_type":"html-button-response","trial_index":120,"time_elapsed":670817,"internal_node_id":"0.0-4.0-1.56","subject_id":"5fd6744da6778c581ec7bcef","study_id":"60edd13110225f80f9f3709b","session_id":"6196c4a6255d3a25c75b54fb","condition":"contingent","relevant_dimensions":["antennae","wings"],"bee_group":{"antennae":"A","wings":"2","pattern":"X","legs":"X"},"bonus":1.360000000000001},{"rt":2359.9000000059605,"stimulus":"bees-with-color/bee-A1DF.svg","response":0,"trial_type":"image-button-response","trial_index":121,"time_elapsed":673180,"internal_node_id":"0.0-4.0-0.57","subject_id":"5fd6744da6778c581ec7bcef","study_id":"60edd13110225f80f9f3709b","session_id":"6196c4a6255d3a25c75b54fb","condition":"contingent","relevant_dimensions":["antennae","wings"],"bee_group":{"antennae":"A","wings":"2","pattern":"X","legs":"X"},"action":"harvest","summary":"good-harvest","bonus":1.360000000000001},{"rt":2179.5,"stimulus":"\n                    <p><b>Action: <em>harvest</em></b></p>\n                    <p>This is the bee that you just saw.</p>\n                    <img src=\"bees-with-color/bee-A1DF.svg\" width=\"200\">\n                    <p><span class=\"greenText\"><b>Successful harvest!</b></span><br>Your pay has increased by $0.02. Your bonus pay is now $0.98.</p>\n            ","response":0,"trial_type":"html-button-response","trial_index":122,"time_elapsed":675362,"internal_node_id":"0.0-4.0-1.57","subject_id":"5fd6744da6778c581ec7bcef","study_id":"60edd13110225f80f9f3709b","session_id":"6196c4a6255d3a25c75b54fb","condition":"contingent","relevant_dimensions":["antennae","wings"],"bee_group":{"antennae":"A","wings":"2","pattern":"X","legs":"X"},"bonus":1.360000000000001},{"rt":2353.6000000089407,"stimulus":"bees-with-color/bee-A1SF.svg","response":0,"trial_type":"image-button-response","trial_index":123,"time_elapsed":677719,"internal_node_id":"0.0-4.0-0.58","subject_id":"5fd6744da6778c581ec7bcef","study_id":"60edd13110225f80f9f3709b","session_id":"6196c4a6255d3a25c75b54fb","condition":"contingent","relevant_dimensions":["antennae","wings"],"bee_group":{"antennae":"A","wings":"2","pattern":"X","legs":"X"},"action":"harvest","summary":"good-harvest","bonus":1.360000000000001},{"rt":2168.7000000029802,"stimulus":"\n                    <p><b>Action: <em>harvest</em></b></p>\n                    <p>This is the bee that you just saw.</p>\n                    <img src=\"bees-with-color/bee-A1SF.svg\" width=\"200\">\n                    <p><span class=\"greenText\"><b>Successful harvest!</b></span><br>Your pay has increased by $0.02. Your bonus pay is now $1.00.</p>\n            ","response":0,"trial_type":"html-button-response","trial_index":124,"time_elapsed":679891,"internal_node_id":"0.0-4.0-1.58","subject_id":"5fd6744da6778c581ec7bcef","study_id":"60edd13110225f80f9f3709b","session_id":"6196c4a6255d3a25c75b54fb","condition":"contingent","relevant_dimensions":["antennae","wings"],"bee_group":{"antennae":"A","wings":"2","pattern":"X","legs":"X"},"bonus":1.360000000000001},{"rt":2699.5,"stimulus":"bees-with-color/bee-B2SM.svg","response":1,"trial_type":"image-button-response","trial_index":125,"time_elapsed":682593,"internal_node_id":"0.0-4.0-0.59","subject_id":"5fd6744da6778c581ec7bcef","study_id":"60edd13110225f80f9f3709b","session_id":"6196c4a6255d3a25c75b54fb","condition":"contingent","relevant_dimensions":["antennae","wings"],"bee_group":{"antennae":"A","wings":"2","pattern":"X","legs":"X"},"action":"avoid","summary":"bad-avoid","bonus":1.360000000000001},{"rt":2101.3999999910593,"stimulus":"\n                    <p><b>Action: <em>avoid</em></b></p>\n                    <p>This is the bee that you just saw.</p>\n                    <img src=\"bees-with-color/bee-B2SM.svg\" width=\"200\">\n                    <p><br>Your bonus pay is unchanged, and remains at $1.00.</p>\n            ","response":0,"trial_type":"html-button-response","trial_index":126,"time_elapsed":684697,"internal_node_id":"0.0-4.0-1.59","subject_id":"5fd6744da6778c581ec7bcef","study_id":"60edd13110225f80f9f3709b","session_id":"6196c4a6255d3a25c75b54fb","condition":"contingent","relevant_dimensions":["antennae","wings"],"bee_group":{"antennae":"A","wings":"2","pattern":"X","legs":"X"},"bonus":1.360000000000001},{"rt":2196.3999999910593,"stimulus":"bees-with-color/bee-A2DM.svg","response":1,"trial_type":"image-button-response","trial_index":127,"time_elapsed":686897,"internal_node_id":"0.0-4.0-0.60","subject_id":"5fd6744da6778c581ec7bcef","study_id":"60edd13110225f80f9f3709b","session_id":"6196c4a6255d3a25c75b54fb","condition":"contingent","relevant_dimensions":["antennae","wings"],"bee_group":{"antennae":"A","wings":"2","pattern":"X","legs":"X"},"action":"avoid","summary":"good-avoid","bonus":1.360000000000001},{"rt":2149.699999988079,"stimulus":"\n                    <p><b>Action: <em>avoid</em></b></p>\n                    <p>This is the bee that you just saw.</p>\n                    <img src=\"bees-with-color/bee-A2DM.svg\" width=\"200\">\n                    <p><br>Your bonus pay is unchanged, and remains at $1.00.</p>\n            ","response":0,"trial_type":"html-button-response","trial_index":128,"time_elapsed":689049,"internal_node_id":"0.0-4.0-1.60","subject_id":"5fd6744da6778c581ec7bcef","study_id":"60edd13110225f80f9f3709b","session_id":"6196c4a6255d3a25c75b54fb","condition":"contingent","relevant_dimensions":["antennae","wings"],"bee_group":{"antennae":"A","wings":"2","pattern":"X","legs":"X"},"bonus":1.360000000000001},{"rt":4036.2000000029802,"stimulus":"bees-with-color/bee-B1SM.svg","response":0,"trial_type":"image-button-response","trial_index":129,"time_elapsed":693088,"internal_node_id":"0.0-4.0-0.61","subject_id":"5fd6744da6778c581ec7bcef","study_id":"60edd13110225f80f9f3709b","session_id":"6196c4a6255d3a25c75b54fb","condition":"contingent","relevant_dimensions":["antennae","wings"],"bee_group":{"antennae":"A","wings":"2","pattern":"X","legs":"X"},"action":"harvest","summary":"good-harvest","bonus":1.360000000000001},{"rt":2259.2999999970198,"stimulus":"\n                    <p><b>Action: <em>harvest</em></b></p>\n                    <p>This is the bee that you just saw.</p>\n                    <img src=\"bees-with-color/bee-B1SM.svg\" width=\"200\">\n                    <p><span class=\"greenText\"><b>Successful harvest!</b></span><br>Your pay has increased by $0.02. Your bonus pay is now $1.02.</p>\n            ","response":0,"trial_type":"html-button-response","trial_index":130,"time_elapsed":695350,"internal_node_id":"0.0-4.0-1.61","subject_id":"5fd6744da6778c581ec7bcef","study_id":"60edd13110225f80f9f3709b","session_id":"6196c4a6255d3a25c75b54fb","condition":"contingent","relevant_dimensions":["antennae","wings"],"bee_group":{"antennae":"A","wings":"2","pattern":"X","legs":"X"},"bonus":1.360000000000001},{"rt":4163.70000000298,"stimulus":"bees-with-color/bee-A1DM.svg","response":0,"trial_type":"image-button-response","trial_index":131,"time_elapsed":699518,"internal_node_id":"0.0-4.0-0.62","subject_id":"5fd6744da6778c581ec7bcef","study_id":"60edd13110225f80f9f3709b","session_id":"6196c4a6255d3a25c75b54fb","condition":"contingent","relevant_dimensions":["antennae","wings"],"bee_group":{"antennae":"A","wings":"2","pattern":"X","legs":"X"},"action":"harvest","summary":"good-harvest","bonus":1.360000000000001},{"rt":2610,"stimulus":"\n                    <p><b>Action: <em>harvest</em></b></p>\n                    <p>This is the bee that you just saw.</p>\n                    <img src=\"bees-with-color/bee-A1DM.svg\" width=\"200\">\n                    <p><span class=\"greenText\"><b>Successful harvest!</b></span><br>Your pay has increased by $0.02. Your bonus pay is now $1.04.</p>\n            ","response":0,"trial_type":"html-button-response","trial_index":132,"time_elapsed":702131,"internal_node_id":"0.0-4.0-1.62","subject_id":"5fd6744da6778c581ec7bcef","study_id":"60edd13110225f80f9f3709b","session_id":"6196c4a6255d3a25c75b54fb","condition":"contingent","relevant_dimensions":["antennae","wings"],"bee_group":{"antennae":"A","wings":"2","pattern":"X","legs":"X"},"bonus":1.360000000000001},{"rt":3655.7999999970198,"stimulus":"bees-with-color/bee-A2SM.svg","response":1,"trial_type":"image-button-response","trial_index":133,"time_elapsed":705790,"internal_node_id":"0.0-4.0-0.63","subject_id":"5fd6744da6778c581ec7bcef","study_id":"60edd13110225f80f9f3709b","session_id":"6196c4a6255d3a25c75b54fb","condition":"contingent","relevant_dimensions":["antennae","wings"],"bee_group":{"antennae":"A","wings":"2","pattern":"X","legs":"X"},"action":"avoid","summary":"good-avoid","bonus":1.360000000000001},{"rt":2384.7999999970198,"stimulus":"\n                    <p><b>Action: <em>avoid</em></b></p>\n                    <p>This is the bee that you just saw.</p>\n                    <img src=\"bees-with-color/bee-A2SM.svg\" width=\"200\">\n                    <p><br>Your bonus pay is unchanged, and remains at $1.04.</p>\n            ","response":0,"trial_type":"html-button-response","trial_index":134,"time_elapsed":708177,"internal_node_id":"0.0-4.0-1.63","subject_id":"5fd6744da6778c581ec7bcef","study_id":"60edd13110225f80f9f3709b","session_id":"6196c4a6255d3a25c75b54fb","condition":"contingent","relevant_dimensions":["antennae","wings"],"bee_group":{"antennae":"A","wings":"2","pattern":"X","legs":"X"},"bonus":1.360000000000001},{"rt":4445.29999999702,"stimulus":"You have completed the first part of this experiment.<br><br>You will now begin a shorter second part, in which you will receive no feedback.<br>The same rules regarding bonus pay apply.<br><br>Press any key to begin.","response":" ","trial_type":"html-keyboard-response","trial_index":135,"time_elapsed":712626,"internal_node_id":"0.0-5.0","subject_id":"5fd6744da6778c581ec7bcef","study_id":"60edd13110225f80f9f3709b","session_id":"6196c4a6255d3a25c75b54fb","condition":"contingent","relevant_dimensions":["antennae","wings"],"bee_group":{"antennae":"A","wings":"2","pattern":"X","legs":"X"},"bonus":1.360000000000001},{"rt":2822.8999999910593,"stimulus":"bees-with-color/bee-B1SF.svg","response":0,"trial_type":"image-button-response","trial_index":136,"time_elapsed":715794,"internal_node_id":"0.0-6.0-0.0","subject_id":"5fd6744da6778c581ec7bcef","study_id":"60edd13110225f80f9f3709b","session_id":"6196c4a6255d3a25c75b54fb","condition":"contingent","relevant_dimensions":["antennae","wings"],"bee_group":{"antennae":"A","wings":"2","pattern":"X","legs":"X"},"bonus":1.360000000000001},{"rt":3548.5,"stimulus":"bees-with-color/bee-B1DM.svg","response":0,"trial_type":"image-button-response","trial_index":137,"time_elapsed":719348,"internal_node_id":"0.0-6.0-0.1","subject_id":"5fd6744da6778c581ec7bcef","study_id":"60edd13110225f80f9f3709b","session_id":"6196c4a6255d3a25c75b54fb","condition":"contingent","relevant_dimensions":["antennae","wings"],"bee_group":{"antennae":"A","wings":"2","pattern":"X","legs":"X"},"bonus":1.360000000000001},{"rt":2137,"stimulus":"bees-with-color/bee-B1DF.svg","response":0,"trial_type":"image-button-response","trial_index":138,"time_elapsed":721488,"internal_node_id":"0.0-6.0-0.2","subject_id":"5fd6744da6778c581ec7bcef","study_id":"60edd13110225f80f9f3709b","session_id":"6196c4a6255d3a25c75b54fb","condition":"contingent","relevant_dimensions":["antennae","wings"],"bee_group":{"antennae":"A","wings":"2","pattern":"X","legs":"X"},"bonus":1.360000000000001},{"rt":2617.2000000029802,"stimulus":"bees-with-color/bee-A1SM.svg","response":0,"trial_type":"image-button-response","trial_index":139,"time_elapsed":724111,"internal_node_id":"0.0-6.0-0.3","subject_id":"5fd6744da6778c581ec7bcef","study_id":"60edd13110225f80f9f3709b","session_id":"6196c4a6255d3a25c75b54fb","condition":"contingent","relevant_dimensions":["antennae","wings"],"bee_group":{"antennae":"A","wings":"2","pattern":"X","legs":"X"},"bonus":1.360000000000001},{"rt":2936,"stimulus":"bees-with-color/bee-B1SM.svg","response":0,"trial_type":"image-button-response","trial_index":140,"time_elapsed":727053,"internal_node_id":"0.0-6.0-0.4","subject_id":"5fd6744da6778c581ec7bcef","study_id":"60edd13110225f80f9f3709b","session_id":"6196c4a6255d3a25c75b54fb","condition":"contingent","relevant_dimensions":["antennae","wings"],"bee_group":{"antennae":"A","wings":"2","pattern":"X","legs":"X"},"bonus":1.360000000000001},{"rt":2234.300000011921,"stimulus":"bees-with-color/bee-A1SF.svg","response":0,"trial_type":"image-button-response","trial_index":141,"time_elapsed":729292,"internal_node_id":"0.0-6.0-0.5","subject_id":"5fd6744da6778c581ec7bcef","study_id":"60edd13110225f80f9f3709b","session_id":"6196c4a6255d3a25c75b54fb","condition":"contingent","relevant_dimensions":["antennae","wings"],"bee_group":{"antennae":"A","wings":"2","pattern":"X","legs":"X"},"bonus":1.360000000000001},{"rt":1803.3999999910593,"stimulus":"bees-with-color/bee-A2DF.svg","response":1,"trial_type":"image-button-response","trial_index":142,"time_elapsed":731100,"internal_node_id":"0.0-6.0-0.6","subject_id":"5fd6744da6778c581ec7bcef","study_id":"60edd13110225f80f9f3709b","session_id":"6196c4a6255d3a25c75b54fb","condition":"contingent","relevant_dimensions":["antennae","wings"],"bee_group":{"antennae":"A","wings":"2","pattern":"X","legs":"X"},"bonus":1.360000000000001},{"rt":1599,"stimulus":"bees-with-color/bee-A2SF.svg","response":1,"trial_type":"image-button-response","trial_index":143,"time_elapsed":732704,"internal_node_id":"0.0-6.0-0.7","subject_id":"5fd6744da6778c581ec7bcef","study_id":"60edd13110225f80f9f3709b","session_id":"6196c4a6255d3a25c75b54fb","condition":"contingent","relevant_dimensions":["antennae","wings"],"bee_group":{"antennae":"A","wings":"2","pattern":"X","legs":"X"},"bonus":1.360000000000001},{"rt":1805.5999999940395,"stimulus":"bees-with-color/bee-A1DF.svg","response":0,"trial_type":"image-button-response","trial_index":144,"time_elapsed":734514,"internal_node_id":"0.0-6.0-0.8","subject_id":"5fd6744da6778c581ec7bcef","study_id":"60edd13110225f80f9f3709b","session_id":"6196c4a6255d3a25c75b54fb","condition":"contingent","relevant_dimensions":["antennae","wings"],"bee_group":{"antennae":"A","wings":"2","pattern":"X","legs":"X"},"bonus":1.360000000000001},{"rt":1844.7999999970198,"stimulus":"bees-with-color/bee-B2SM.svg","response":1,"trial_type":"image-button-response","trial_index":145,"time_elapsed":736364,"internal_node_id":"0.0-6.0-0.9","subject_id":"5fd6744da6778c581ec7bcef","study_id":"60edd13110225f80f9f3709b","session_id":"6196c4a6255d3a25c75b54fb","condition":"contingent","relevant_dimensions":["antennae","wings"],"bee_group":{"antennae":"A","wings":"2","pattern":"X","legs":"X"},"bonus":1.360000000000001},{"rt":1502,"stimulus":"bees-with-color/bee-B2SF.svg","response":1,"trial_type":"image-button-response","trial_index":146,"time_elapsed":737871,"internal_node_id":"0.0-6.0-0.10","subject_id":"5fd6744da6778c581ec7bcef","study_id":"60edd13110225f80f9f3709b","session_id":"6196c4a6255d3a25c75b54fb","condition":"contingent","relevant_dimensions":["antennae","wings"],"bee_group":{"antennae":"A","wings":"2","pattern":"X","legs":"X"},"bonus":1.360000000000001},{"rt":1276.2000000029802,"stimulus":"bees-with-color/bee-B2DM.svg","response":1,"trial_type":"image-button-response","trial_index":147,"time_elapsed":739151,"internal_node_id":"0.0-6.0-0.11","subject_id":"5fd6744da6778c581ec7bcef","study_id":"60edd13110225f80f9f3709b","session_id":"6196c4a6255d3a25c75b54fb","condition":"contingent","relevant_dimensions":["antennae","wings"],"bee_group":{"antennae":"A","wings":"2","pattern":"X","legs":"X"},"bonus":1.360000000000001},{"rt":2176.1000000089407,"stimulus":"bees-with-color/bee-A1DM.svg","response":0,"trial_type":"image-button-response","trial_index":148,"time_elapsed":741333,"internal_node_id":"0.0-6.0-0.12","subject_id":"5fd6744da6778c581ec7bcef","study_id":"60edd13110225f80f9f3709b","session_id":"6196c4a6255d3a25c75b54fb","condition":"contingent","relevant_dimensions":["antennae","wings"],"bee_group":{"antennae":"A","wings":"2","pattern":"X","legs":"X"},"bonus":1.360000000000001},{"rt":1620.5999999940395,"stimulus":"bees-with-color/bee-A2SM.svg","response":1,"trial_type":"image-button-response","trial_index":149,"time_elapsed":742958,"internal_node_id":"0.0-6.0-0.13","subject_id":"5fd6744da6778c581ec7bcef","study_id":"60edd13110225f80f9f3709b","session_id":"6196c4a6255d3a25c75b54fb","condition":"contingent","relevant_dimensions":["antennae","wings"],"bee_group":{"antennae":"A","wings":"2","pattern":"X","legs":"X"},"bonus":1.360000000000001},{"rt":1178.7000000029802,"stimulus":"bees-with-color/bee-B2DF.svg","response":1,"trial_type":"image-button-response","trial_index":150,"time_elapsed":744141,"internal_node_id":"0.0-6.0-0.14","subject_id":"5fd6744da6778c581ec7bcef","study_id":"60edd13110225f80f9f3709b","session_id":"6196c4a6255d3a25c75b54fb","condition":"contingent","relevant_dimensions":["antennae","wings"],"bee_group":{"antennae":"A","wings":"2","pattern":"X","legs":"X"},"bonus":1.360000000000001},{"rt":1629.5999999940395,"stimulus":"bees-with-color/bee-A2DM.svg","response":1,"trial_type":"image-button-response","trial_index":151,"time_elapsed":745774,"internal_node_id":"0.0-6.0-0.15","subject_id":"5fd6744da6778c581ec7bcef","study_id":"60edd13110225f80f9f3709b","session_id":"6196c4a6255d3a25c75b54fb","condition":"contingent","relevant_dimensions":["antennae","wings"],"bee_group":{"antennae":"A","wings":"2","pattern":"X","legs":"X"},"bonus":1.360000000000001},{"rt":1494.2000000029802,"stimulus":"bees-with-color/bee-B1DF.svg","response":0,"trial_type":"image-button-response","trial_index":152,"time_elapsed":747272,"internal_node_id":"0.0-6.0-0.16","subject_id":"5fd6744da6778c581ec7bcef","study_id":"60edd13110225f80f9f3709b","session_id":"6196c4a6255d3a25c75b54fb","condition":"contingent","relevant_dimensions":["antennae","wings"],"bee_group":{"antennae":"A","wings":"2","pattern":"X","legs":"X"},"bonus":1.360000000000001},{"rt":1660.7999999970198,"stimulus":"bees-with-color/bee-A2DF.svg","response":1,"trial_type":"image-button-response","trial_index":153,"time_elapsed":748936,"internal_node_id":"0.0-6.0-0.17","subject_id":"5fd6744da6778c581ec7bcef","study_id":"60edd13110225f80f9f3709b","session_id":"6196c4a6255d3a25c75b54fb","condition":"contingent","relevant_dimensions":["antennae","wings"],"bee_group":{"antennae":"A","wings":"2","pattern":"X","legs":"X"},"bonus":1.360000000000001},{"rt":1669.3999999910593,"stimulus":"bees-with-color/bee-A1DM.svg","response":0,"trial_type":"image-button-response","trial_index":154,"time_elapsed":750609,"internal_node_id":"0.0-6.0-0.18","subject_id":"5fd6744da6778c581ec7bcef","study_id":"60edd13110225f80f9f3709b","session_id":"6196c4a6255d3a25c75b54fb","condition":"contingent","relevant_dimensions":["antennae","wings"],"bee_group":{"antennae":"A","wings":"2","pattern":"X","legs":"X"},"bonus":1.360000000000001},{"rt":1581.300000011921,"stimulus":"bees-with-color/bee-B2DF.svg","response":1,"trial_type":"image-button-response","trial_index":155,"time_elapsed":752194,"internal_node_id":"0.0-6.0-0.19","subject_id":"5fd6744da6778c581ec7bcef","study_id":"60edd13110225f80f9f3709b","session_id":"6196c4a6255d3a25c75b54fb","condition":"contingent","relevant_dimensions":["antennae","wings"],"bee_group":{"antennae":"A","wings":"2","pattern":"X","legs":"X"},"bonus":1.360000000000001},{"rt":2315.2999999970198,"stimulus":"bees-with-color/bee-B2SM.svg","response":1,"trial_type":"image-button-response","trial_index":156,"time_elapsed":754512,"internal_node_id":"0.0-6.0-0.20","subject_id":"5fd6744da6778c581ec7bcef","study_id":"60edd13110225f80f9f3709b","session_id":"6196c4a6255d3a25c75b54fb","condition":"contingent","relevant_dimensions":["antennae","wings"],"bee_group":{"antennae":"A","wings":"2","pattern":"X","legs":"X"},"bonus":1.360000000000001},{"rt":1395.7999999970198,"stimulus":"bees-with-color/bee-B2SF.svg","response":1,"trial_type":"image-button-response","trial_index":157,"time_elapsed":755911,"internal_node_id":"0.0-6.0-0.21","subject_id":"5fd6744da6778c581ec7bcef","study_id":"60edd13110225f80f9f3709b","session_id":"6196c4a6255d3a25c75b54fb","condition":"contingent","relevant_dimensions":["antennae","wings"],"bee_group":{"antennae":"A","wings":"2","pattern":"X","legs":"X"},"bonus":1.360000000000001},{"rt":1315.5,"stimulus":"bees-with-color/bee-B2DM.svg","response":1,"trial_type":"image-button-response","trial_index":158,"time_elapsed":757230,"internal_node_id":"0.0-6.0-0.22","subject_id":"5fd6744da6778c581ec7bcef","study_id":"60edd13110225f80f9f3709b","session_id":"6196c4a6255d3a25c75b54fb","condition":"contingent","relevant_dimensions":["antennae","wings"],"bee_group":{"antennae":"A","wings":"2","pattern":"X","legs":"X"},"bonus":1.360000000000001},{"rt":1345.699999988079,"stimulus":"bees-with-color/bee-A2SF.svg","response":1,"trial_type":"image-button-response","trial_index":159,"time_elapsed":758579,"internal_node_id":"0.0-6.0-0.23","subject_id":"5fd6744da6778c581ec7bcef","study_id":"60edd13110225f80f9f3709b","session_id":"6196c4a6255d3a25c75b54fb","condition":"contingent","relevant_dimensions":["antennae","wings"],"bee_group":{"antennae":"A","wings":"2","pattern":"X","legs":"X"},"bonus":1.360000000000001},{"rt":2091.5,"stimulus":"bees-with-color/bee-B1SM.svg","response":0,"trial_type":"image-button-response","trial_index":160,"time_elapsed":760676,"internal_node_id":"0.0-6.0-0.24","subject_id":"5fd6744da6778c581ec7bcef","study_id":"60edd13110225f80f9f3709b","session_id":"6196c4a6255d3a25c75b54fb","condition":"contingent","relevant_dimensions":["antennae","wings"],"bee_group":{"antennae":"A","wings":"2","pattern":"X","legs":"X"},"bonus":1.360000000000001},{"rt":1283.3999999910593,"stimulus":"bees-with-color/bee-A1SF.svg","response":0,"trial_type":"image-button-response","trial_index":161,"time_elapsed":761966,"internal_node_id":"0.0-6.0-0.25","subject_id":"5fd6744da6778c581ec7bcef","study_id":"60edd13110225f80f9f3709b","session_id":"6196c4a6255d3a25c75b54fb","condition":"contingent","relevant_dimensions":["antennae","wings"],"bee_group":{"antennae":"A","wings":"2","pattern":"X","legs":"X"},"bonus":1.360000000000001},{"rt":1609.5,"stimulus":"bees-with-color/bee-A2DM.svg","response":1,"trial_type":"image-button-response","trial_index":162,"time_elapsed":763579,"internal_node_id":"0.0-6.0-0.26","subject_id":"5fd6744da6778c581ec7bcef","study_id":"60edd13110225f80f9f3709b","session_id":"6196c4a6255d3a25c75b54fb","condition":"contingent","relevant_dimensions":["antennae","wings"],"bee_group":{"antennae":"A","wings":"2","pattern":"X","legs":"X"},"bonus":1.360000000000001},{"rt":2118.0999999940395,"stimulus":"bees-with-color/bee-A1DF.svg","response":0,"trial_type":"image-button-response","trial_index":163,"time_elapsed":765702,"internal_node_id":"0.0-6.0-0.27","subject_id":"5fd6744da6778c581ec7bcef","study_id":"60edd13110225f80f9f3709b","session_id":"6196c4a6255d3a25c75b54fb","condition":"contingent","relevant_dimensions":["antennae