[{"success":true,"trial_type":"fullscreen","trial_index":0,"time_elapsed":14722,"internal_node_id":"0.0-0.0","subject_id":"5d29412ab711e9001ab74ece","study_id":"6197b3f67c2b5cd3b6d9596a","session_id":"619be31f219a978935a12dd5","condition":"full-information","relevant_dimensions":["wings","pattern"],"bee_group":{"antennae":"X","wings":"1","pattern":"S","legs":"X"},"bonus":1.8000000000000012},{"success":true,"timeout":false,"failed_images":[],"failed_audio":[],"failed_video":[],"trial_type":"preload","trial_index":1,"time_elapsed":17122,"internal_node_id":"0.0-1.0","subject_id":"5d29412ab711e9001ab74ece","study_id":"6197b3f67c2b5cd3b6d9596a","session_id":"619be31f219a978935a12dd5","condition":"full-information","relevant_dimensions":["wings","pattern"],"bee_group":{"antennae":"X","wings":"1","pattern":"S","legs":"X"},"bonus":1.8000000000000012},{"rt":3777.60000000149,"stimulus":"Welcome! Press any key to begin.","response":" ","trial_type":"html-keyboard-response","trial_index":2,"time_elapsed":20900,"internal_node_id":"0.0-2.0","subject_id":"5d29412ab711e9001ab74ece","study_id":"6197b3f67c2b5cd3b6d9596a","session_id":"619be31f219a978935a12dd5","condition":"full-information","relevant_dimensions":["wings","pattern"],"bee_group":{"antennae":"X","wings":"1","pattern":"S","legs":"X"},"bonus":1.8000000000000012},{"view_history":[{"page_index":0,"viewing_time":3683},{"page_index":1,"viewing_time":15083.60000000149},{"page_index":2,"viewing_time":13929.699999999255},{"page_index":3,"viewing_time":12682.800000000745},{"page_index":4,"viewing_time":10429.699999999255},{"page_index":5,"viewing_time":7756.900000002235},{"page_index":6,"viewing_time":11344.699999999255},{"page_index":7,"viewing_time":9573.89999999851},{"page_index":8,"viewing_time":6846.800000000745},{"page_index":9,"viewing_time":3904.89999999851},{"page_index":10,"viewing_time":2129.900000002235},{"page_index":11,"viewing_time":7817.89999999851},{"page_index":12,"viewing_time":11304.699999999255},{"page_index":13,"viewing_time":1745.9000000022352},{"page_index":14,"viewing_time":3509.099999997765}],"rt":121743.60000000149,"trial_type":"instructions","trial_index":3,"time_elapsed":142644,"internal_node_id":"0.0-3.0-0.0","subject_id":"5d29412ab711e9001ab74ece","study_id":"6197b3f67c2b5cd3b6d9596a","session_id":"619be31f219a978935a12dd5","condition":"full-information","relevant_dimensions":["wings","pattern"],"bee_group":{"antennae":"X","wings":"1","pattern":"S","legs":"X"},"bonus":1.8000000000000012},{"rt":14959,"response":{"Q0":["Two or six legs","Stripes or spots on body","Single or double wings","Antennae or no antennae"]},"question_order":[0],"trial_type":"survey-multi-select","trial_index":4,"time_elapsed":157605,"internal_node_id":"0.0-3.0-1.0","subject_id":"5d29412ab711e9001ab74ece","study_id":"6197b3f67c2b5cd3b6d9596a","session_id":"619be31f219a978935a12dd5","condition":"full-information","relevant_dimensions":["wings","pattern"],"bee_group":{"antennae":"X","wings":"1","pattern":"S","legs":"X"},"correct":true,"bonus":1.8000000000000012},{"rt":23610.5,"response":{"Q1":"No.","Q2":"Based on the four features of the bee.","Q3":"You learn if it was friendly or dangerous, but do not alter your bonus."},"question_order":[0,1,2],"trial_type":"survey-multi-choice","trial_index":5,"time_elapsed":181217,"internal_node_id":"0.0-3.0-2.0","subject_id":"5d29412ab711e9001ab74ece","study_id":"6197b3f67c2b5cd3b6d9596a","session_id":"619be31f219a978935a12dd5","condition":"full-information","relevant_dimensions":["wings","pattern"],"bee_group":{"antennae":"X","wings":"1","pattern":"S","legs":"X"},"correct":true,"bonus":1.8000000000000012},{"rt":2927.89999999851,"stimulus":"<p>Congrats, you got everything right<br>When you're ready, click the button below to continue to the experiment.</p>","response":0,"trial_type":"html-button-response","trial_index":6,"time_elapsed":184146,"internal_node_id":"0.0-3.0-3.0","subject_id":"5d29412ab711e9001ab74ece","study_id":"6197b3f67c2b5cd3b6d9596a","session_id":"619be31f219a978935a12dd5","condition":"full-information","relevant_dimensions":["wings","pattern"],"bee_group":{"antennae":"X","wings":"1","pattern":"S","legs":"X"},"bonus":1.8000000000000012},{"rt":7473.39999999851,"stimulus":"bees-with-color/bee-B1SF.svg","response":1,"trial_type":"image-button-response","trial_index":7,"time_elapsed":191620,"internal_node_id":"0.0-4.0-0.0","subject_id":"5d29412ab711e9001ab74ece","study_id":"6197b3f67c2b5cd3b6d9596a","session_id":"619be31f219a978935a12dd5","condition":"full-information","relevant_dimensions":["wings","pattern"],"bee_group":{"antennae":"X","wings":"1","pattern":"S","legs":"X"},"action":"avoid","summary":"good-avoid","bonus":1.8000000000000012},{"rt":15233.300000000745,"stimulus":"\n                    <p><b>Action: <em>avoid</em></b></p>\n                    <p>This is the bee that you just saw.</p>\n                    <img src=\"bees-with-color/bee-B1SF.svg\" width=\"200\">\n                    <p><span class=\"greenText\">Good choice!</span>  This bee would have stung you.<br>Your bonus pay is unchanged, and remains at $0.54.</p>\n            ","response":0,"trial_type":"html-button-response","trial_index":8,"time_elapsed":206855,"internal_node_id":"0.0-4.0-1.0","subject_id":"5d29412ab711e9001ab74ece","study_id":"6197b3f67c2b5cd3b6d9596a","session_id":"619be31f219a978935a12dd5","condition":"full-information","relevant_dimensions":["wings","pattern"],"bee_group":{"antennae":"X","wings":"1","pattern":"S","legs":"X"},"bonus":1.8000000000000012},{"rt":5501.89999999851,"stimulus":"bees-with-color/bee-B2SM.svg","response":1,"trial_type":"image-button-response","trial_index":9,"time_elapsed":212358,"internal_node_id":"0.0-4.0-0.1","subject_id":"5d29412ab711e9001ab74ece","study_id":"6197b3f67c2b5cd3b6d9596a","session_id":"619be31f219a978935a12dd5","condition":"full-information","relevant_dimensions":["wings","pattern"],"bee_group":{"antennae":"X","wings":"1","pattern":"S","legs":"X"},"action":"avoid","summary":"bad-avoid","bonus":1.8000000000000012},{"rt":9059.800000000745,"stimulus":"\n                    <p><b>Action: <em>avoid</em></b></p>\n                    <p>This is the bee that you just saw.</p>\n                    <img src=\"bees-with-color/bee-B2SM.svg\" width=\"200\">\n                    <p><span class=\"redText\">Bad choice,</span> the bee was friendly.<br>Your bonus pay is unchanged, and remains at $0.54.</p>\n            ","response":0,"trial_type":"html-button-response","trial_index":10,"time_elapsed":221419,"internal_node_id":"0.0-4.0-1.1","subject_id":"5d29412ab711e9001ab74ece","study_id":"6197b3f67c2b5cd3b6d9596a","session_id":"619be31f219a978935a12dd5","condition":"full-information","relevant_dimensions":["wings","pattern"],"bee_group":{"antennae":"X","wings":"1","pattern":"S","legs":"X"},"bonus":1.8000000000000012},{"rt":5712.60000000149,"stimulus":"bees-with-color/bee-A2SF.svg","response":1,"trial_type":"image-button-response","trial_index":11,"time_elapsed":227133,"internal_node_id":"0.0-4.0-0.2","subject_id":"5d29412ab711e9001ab74ece","study_id":"6197b3f67c2b5cd3b6d9596a","session_id":"619be31f219a978935a12dd5","condition":"full-information","relevant_dimensions":["wings","pattern"],"bee_group":{"antennae":"X","wings":"1","pattern":"S","legs":"X"},"action":"avoid","summary":"bad-avoid","bonus":1.8000000000000012},{"rt":6823.10000000149,"stimulus":"\n                    <p><b>Action: <em>avoid</em></b></p>\n                    <p>This is the bee that you just saw.</p>\n                    <img src=\"bees-with-color/bee-A2SF.svg\" width=\"200\">\n                    <p><span class=\"redText\">Bad choice,</span> the bee was friendly.<br>Your bonus pay is unchanged, and remains at $0.54.</p>\n            ","response":0,"trial_type":"html-button-response","trial_index":12,"time_elapsed":233957,"internal_node_id":"0.0-4.0-1.2","subject_id":"5d29412ab711e9001ab74ece","study_id":"6197b3f67c2b5cd3b6d9596a","session_id":"619be31f219a978935a12dd5","condition":"full-information","relevant_dimensions":["wings","pattern"],"bee_group":{"antennae":"X","wings":"1","pattern":"S","legs":"X"},"bonus":1.8000000000000012},{"rt":2932.89999999851,"stimulus":"bees-with-color/bee-B1SM.svg","response":1,"trial_type":"image-button-response","trial_index":13,"time_elapsed":236891,"internal_node_id":"0.0-4.0-0.3","subject_id":"5d29412ab711e9001ab74ece","study_id":"6197b3f67c2b5cd3b6d9596a","session_id":"619be31f219a978935a12dd5","condition":"full-information","relevant_dimensions":["wings","pattern"],"bee_group":{"antennae":"X","wings":"1","pattern":"S","legs":"X"},"action":"avoid","summary":"good-avoid","bonus":1.8000000000000012},{"rt":5415,"stimulus":"\n                    <p><b>Action: <em>avoid</em></b></p>\n                    <p>This is the bee that you just saw.</p>\n                    <img src=\"bees-with-color/bee-B1SM.svg\" width=\"200\">\n                    <p><span class=\"greenText\">Good choice!</span>  This bee would have stung you.<br>Your bonus pay is unchanged, and remains at $0.54.</p>\n            ","response":0,"trial_type":"html-button-response","trial_index":14,"time_elapsed":242306,"internal_node_id":"0.0-4.0-1.3","subject_id":"5d29412ab711e9001ab74ece","study_id":"6197b3f67c2b5cd3b6d9596a","session_id":"619be31f219a978935a12dd5","condition":"full-information","relevant_dimensions":["wings","pattern"],"bee_group":{"antennae":"X","wings":"1","pattern":"S","legs":"X"},"bonus":1.8000000000000012},{"rt":3130,"stimulus":"bees-with-color/bee-A1DF.svg","response":1,"trial_type":"image-button-response","trial_index":15,"time_elapsed":245437,"internal_node_id":"0.0-4.0-0.4","subject_id":"5d29412ab711e9001ab74ece","study_id":"6197b3f67c2b5cd3b6d9596a","session_id":"619be31f219a978935a12dd5","condition":"full-information","relevant_dimensions":["wings","pattern"],"bee_group":{"antennae":"X","wings":"1","pattern":"S","legs":"X"},"action":"avoid","summary":"bad-avoid","bonus":1.8000000000000012},{"rt":4848.10000000149,"stimulus":"\n                    <p><b>Action: <em>avoid</em></b></p>\n                    <p>This is the bee that you just saw.</p>\n                    <img src=\"bees-with-color/bee-A1DF.svg\" width=\"200\">\n                    <p><span class=\"redText\">Bad choice,</span> the bee was friendly.<br>Your bonus pay is unchanged, and remains at $0.54.</p>\n            ","response":0,"trial_type":"html-button-response","trial_index":16,"time_elapsed":250286,"internal_node_id":"0.0-4.0-1.4","subject_id":"5d29412ab711e9001ab74ece","study_id":"6197b3f67c2b5cd3b6d9596a","session_id":"619be31f219a978935a12dd5","condition":"full-information","relevant_dimensions":["wings","pattern"],"bee_group":{"antennae":"X","wings":"1","pattern":"S","legs":"X"},"bonus":1.8000000000000012},{"rt":2710,"stimulus":"bees-with-color/bee-B2SF.svg","response":0,"trial_type":"image-button-response","trial_index":17,"time_elapsed":252997,"internal_node_id":"0.0-4.0-0.5","subject_id":"5d29412ab711e9001ab74ece","study_id":"6197b3f67c2b5cd3b6d9596a","session_id":"619be31f219a978935a12dd5","condition":"full-information","relevant_dimensions":["wings","pattern"],"bee_group":{"antennae":"X","wings":"1","pattern":"S","legs":"X"},"action":"harvest","summary":"good-harvest","bonus":1.8000000000000012},{"rt":4177.300000000745,"stimulus":"\n                    <p><b>Action: <em>harvest</em></b></p>\n                    <p>This is the bee that you just saw.</p>\n                    <img src=\"bees-with-color/bee-B2SF.svg\" width=\"200\">\n                    <p><span class=\"greenText\"><b>Successful harvest!</b></span><br>Your pay has increased by $0.02. Your bonus pay is now $0.56.</p>\n            ","response":0,"trial_type":"html-button-response","trial_index":18,"time_elapsed":257175,"internal_node_id":"0.0-4.0-1.5","subject_id":"5d29412ab711e9001ab74ece","study_id":"6197b3f67c2b5cd3b6d9596a","session_id":"619be31f219a978935a12dd5","condition":"full-information","relevant_dimensions":["wings","pattern"],"bee_group":{"antennae":"X","wings":"1","pattern":"S","legs":"X"},"bonus":1.8000000000000012},{"rt":2327.7999999970198,"stimulus":"bees-with-color/bee-B2DM.svg","response":1,"trial_type":"image-button-response","trial_index":19,"time_elapsed":259504,"internal_node_id":"0.0-4.0-0.6","subject_id":"5d29412ab711e9001ab74ece","study_id":"6197b3f67c2b5cd3b6d9596a","session_id":"619be31f219a978935a12dd5","condition":"full-information","relevant_dimensions":["wings","pattern"],"bee_group":{"antennae":"X","wings":"1","pattern":"S","legs":"X"},"action":"avoid","summary":"bad-avoid","bonus":1.8000000000000012},{"rt":3247.199999999255,"stimulus":"\n                    <p><b>Action: <em>avoid</em></b></p>\n                    <p>This is the bee that you just saw.</p>\n                    <img src=\"bees-with-color/bee-B2DM.svg\" width=\"200\">\n                    <p><span class=\"redText\">Bad choice,</span> the bee was friendly.<br>Your bonus pay is unchanged, and remains at $0.56.</p>\n            ","response":0,"trial_type":"html-button-response","trial_index":20,"time_elapsed":262752,"internal_node_id":"0.0-4.0-1.6","subject_id":"5d29412ab711e9001ab74ece","study_id":"6197b3f67c2b5cd3b6d9596a","session_id":"619be31f219a978935a12dd5","condition":"full-information","relevant_dimensions":["wings","pattern"],"bee_group":{"antennae":"X","wings":"1","pattern":"S","legs":"X"},"bonus":1.8000000000000012},{"rt":3447.900000002235,"stimulus":"bees-with-color/bee-B2DF.svg","response":1,"trial_type":"image-button-response","trial_index":21,"time_elapsed":266201,"internal_node_id":"0.0-4.0-0.7","subject_id":"5d29412ab711e9001ab74ece","study_id":"6197b3f67c2b5cd3b6d9596a","session_id":"619be31f219a978935a12dd5","condition":"full-information","relevant_dimensions":["wings","pattern"],"bee_group":{"antennae":"X","wings":"1","pattern":"S","legs":"X"},"action":"avoid","summary":"bad-avoid","bonus":1.8000000000000012},{"rt":2183.199999999255,"stimulus":"\n                    <p><b>Action: <em>avoid</em></b></p>\n                    <p>This is the bee that you just saw.</p>\n                    <img src=\"bees-with-color/bee-B2DF.svg\" width=\"200\">\n                    <p><span class=\"redText\">Bad choice,</span> the bee was friendly.<br>Your bonus pay is unchanged, and remains at $0.56.</p>\n            ","response":0,"trial_type":"html-button-response","trial_index":22,"time_elapsed":268385,"internal_node_id":"0.0-4.0-1.7","subject_id":"5d29412ab711e9001ab74ece","study_id":"6197b3f67c2b5cd3b6d9596a","session_id":"619be31f219a978935a12dd5","condition":"full-information","relevant_dimensions":["wings","pattern"],"bee_group":{"antennae":"X","wings":"1","pattern":"S","legs":"X"},"bonus":1.8000000000000012},{"rt":1975.800000000745,"stimulus":"bees-with-color/bee-A1SF.svg","response":1,"trial_type":"image-button-response","trial_index":23,"time_elapsed":270362,"internal_node_id":"0.0-4.0-0.8","subject_id":"5d29412ab711e9001ab74ece","study_id":"6197b3f67c2b5cd3b6d9596a","session_id":"619be31f219a978935a12dd5","condition":"full-information","relevant_dimensions":["wings","pattern"],"bee_group":{"antennae":"X","wings":"1","pattern":"S","legs":"X"},"action":"avoid","summary":"good-avoid","bonus":1.8000000000000012},{"rt":1373.199999999255,"stimulus":"\n                    <p><b>Action: <em>avoid</em></b></p>\n                    <p>This is the bee that you just saw.</p>\n                    <img src=\"bees-with-color/bee-A1SF.svg\" width=\"200\">\n                    <p><span class=\"greenText\">Good choice!</span>  This bee would have stung you.<br>Your bonus pay is unchanged, and remains at $0.56.</p>\n            ","response":0,"trial_type":"html-button-response","trial_index":24,"time_elapsed":271736,"internal_node_id":"0.0-4.0-1.8","subject_id":"5d29412ab711e9001ab74ece","study_id":"6197b3f67c2b5cd3b6d9596a","session_id":"619be31f219a978935a12dd5","condition":"full-information","relevant_dimensions":["wings","pattern"],"bee_group":{"antennae":"X","wings":"1","pattern":"S","legs":"X"},"bonus":1.8000000000000012},{"rt":3307.2000000029802,"stimulus":"bees-with-color/bee-A2SM.svg","response":0,"trial_type":"image-button-response","trial_index":25,"time_elapsed":275044,"internal_node_id":"0.0-4.0-0.9","subject_id":"5d29412ab711e9001ab74ece","study_id":"6197b3f67c2b5cd3b6d9596a","session_id":"619be31f219a978935a12dd5","condition":"full-information","relevant_dimensions":["wings","pattern"],"bee_group":{"antennae":"X","wings":"1","pattern":"S","legs":"X"},"action":"harvest","summary":"good-harvest","bonus":1.8000000000000012},{"rt":1453,"stimulus":"\n                    <p><b>Action: <em>harvest</em></b></p>\n                    <p>This is the bee that you just saw.</p>\n                    <img src=\"bees-with-color/bee-A2SM.svg\" width=\"200\">\n                    <p><span class=\"greenText\"><b>Successful harvest!</b></span><br>Your pay has increased by $0.02. Your bonus pay is now $0.58.</p>\n            ","response":0,"trial_type":"html-button-response","trial_index":26,"time_elapsed":276498,"internal_node_id":"0.0-4.0-1.9","subject_id":"5d29412ab711e9001ab74ece","study_id":"6197b3f67c2b5cd3b6d9596a","session_id":"619be31f219a978935a12dd5","condition":"full-information","relevant_dimensions":["wings","pattern"],"bee_group":{"antennae":"X","wings":"1","pattern":"S","legs":"X"},"bonus":1.8000000000000012},{"rt":4034,"stimulus":"bees-with-color/bee-A1DM.svg","response":1,"trial_type":"image-button-response","trial_index":27,"time_elapsed":280533,"internal_node_id":"0.0-4.0-0.10","subject_id":"5d29412ab711e9001ab74ece","study_id":"6197b3f67c2b5cd3b6d9596a","session_id":"619be31f219a978935a12dd5","condition":"full-information","relevant_dimensions":["wings","pattern"],"bee_group":{"antennae":"X","wings":"1","pattern":"S","legs":"X"},"action":"avoid","summary":"bad-avoid","bonus":1.8000000000000012},{"rt":1679.8999999985099,"stimulus":"\n                    <p><b>Action: <em>avoid</em></b></p>\n                    <p>This is the bee that you just saw.</p>\n                    <img src=\"bees-with-color/bee-A1DM.svg\" width=\"200\">\n                    <p><span class=\"redText\">Bad choice,</span> the bee was friendly.<br>Your bonus pay is unchanged, and remains at $0.58.</p>\n            ","response":0,"trial_type":"html-button-response","trial_index":28,"time_elapsed":282213,"internal_node_id":"0.0-4.0-1.10","subject_id":"5d29412ab711e9001ab74ece","study_id":"6197b3f67c2b5cd3b6d9596a","session_id":"619be31f219a978935a12dd5","condition":"full-information","relevant_dimensions":["wings","pattern"],"bee_group":{"antennae":"X","wings":"1","pattern":"S","legs":"X"},"bonus":1.8000000000000012},{"rt":2234.900000002235,"stimulus":"bees-with-color/bee-A1SM.svg","response":1,"trial_type":"image-button-response","trial_index":29,"time_elapsed":284449,"internal_node_id":"0.0-4.0-0.11","subject_id":"5d29412ab711e9001ab74ece","study_id":"6197b3f67c2b5cd3b6d9596a","session_id":"619be31f219a978935a12dd5","condition":"full-information","relevant_dimensions":["wings","pattern"],"bee_group":{"antennae":"X","wings":"1","pattern":"S","legs":"X"},"action":"avoid","summary":"good-avoid","bonus":1.8000000000000012},{"rt":1122.3999999985099,"stimulus":"\n                    <p><b>Action: <em>avoid</em></b></p>\n                    <p>This is the bee that you just saw.</p>\n                    <img src=\"bees-with-color/bee-A1SM.svg\" width=\"200\">\n                    <p><span class=\"greenText\">Good choice!</span>  This bee would have stung you.<br>Your bonus pay is unchanged, and remains at $0.58.</p>\n            ","response":0,"trial_type":"html-button-response","trial_index":30,"time_elapsed":285572,"internal_node_id":"0.0-4.0-1.11","subject_id":"5d29412ab711e9001ab74ece","study_id":"6197b3f67c2b5cd3b6d9596a","session_id":"619be31f219a978935a12dd5","condition":"full-information","relevant_dimensions":["wings","pattern"],"bee_group":{"antennae":"X","wings":"1","pattern":"S","legs":"X"},"bonus":1.8000000000000012},{"rt":2145.199999999255,"stimulus":"bees-with-color/bee-A2DF.svg","response":0,"trial_type":"image-button-response","trial_index":31,"time_elapsed":287718,"internal_node_id":"0.0-4.0-0.12","subject_id":"5d29412ab711e9001ab74ece","study_id":"6197b3f67c2b5cd3b6d9596a","session_id":"619be31f219a978935a12dd5","condition":"full-information","relevant_dimensions":["wings","pattern"],"bee_group":{"antennae":"X","wings":"1","pattern":"S","legs":"X"},"action":"harvest","summary":"good-harvest","bonus":1.8000000000000012},{"rt":1084.5,"stimulus":"\n                    <p><b>Action: <em>harvest</em></b></p>\n                    <p>This is the bee that you just saw.</p>\n                    <img src=\"bees-with-color/bee-A2DF.svg\" width=\"200\">\n                    <p><span class=\"greenText\"><b>Successful harvest!</b></span><br>Your pay has increased by $0.02. Your bonus pay is now $0.60.</p>\n            ","response":0,"trial_type":"html-button-response","trial_index":32,"time_elapsed":288803,"internal_node_id":"0.0-4.0-1.12","subject_id":"5d29412ab711e9001ab74ece","study_id":"6197b3f67c2b5cd3b6d9596a","session_id":"619be31f219a978935a12dd5","condition":"full-information","relevant_dimensions":["wings","pattern"],"bee_group":{"antennae":"X","wings":"1","pattern":"S","legs":"X"},"bonus":1.8000000000000012},{"rt":2074.199999999255,"stimulus":"bees-with-color/bee-A2DM.svg","response":0,"trial_type":"image-button-response","trial_index":33,"time_elapsed":290878,"internal_node_id":"0.0-4.0-0.13","subject_id":"5d29412ab711e9001ab74ece","study_id":"6197b3f67c2b5cd3b6d9596a","session_id":"619be31f219a978935a12dd5","condition":"full-information","relevant_dimensions":["wings","pattern"],"bee_group":{"antennae":"X","wings":"1","pattern":"S","legs":"X"},"action":"harvest","summary":"good-harvest","bonus":1.8000000000000012},{"rt":1186.300000000745,"stimulus":"\n                    <p><b>Action: <em>harvest</em></b></p>\n                    <p>This is the bee that you just saw.</p>\n                    <img src=\"bees-with-color/bee-A2DM.svg\" width=\"200\">\n                    <p><span class=\"greenText\"><b>Successful harvest!</b></span><br>Your pay has increased by $0.02. Your bonus pay is now $0.62.</p>\n            ","response":0,"trial_type":"html-button-response","trial_index":34,"time_elapsed":292065,"internal_node_id":"0.0-4.0-1.13","subject_id":"5d29412ab711e9001ab74ece","study_id":"6197b3f67c2b5cd3b6d9596a","session_id":"619be31f219a978935a12dd5","condition":"full-information","relevant_dimensions":["wings","pattern"],"bee_group":{"antennae":"X","wings":"1","pattern":"S","legs":"X"},"bonus":1.8000000000000012},{"rt":1494.4000000022352,"stimulus":"bees-with-color/bee-B1DF.svg","response":1,"trial_type":"image-button-response","trial_index":35,"time_elapsed":293560,"internal_node_id":"0.0-4.0-0.14","subject_id":"5d29412ab711e9001ab74ece","study_id":"6197b3f67c2b5cd3b6d9596a","session_id":"619be31f219a978935a12dd5","condition":"full-information","relevant_dimensions":["wings","pattern"],"bee_group":{"antennae":"X","wings":"1","pattern":"S","legs":"X"},"action":"avoid","summary":"bad-avoid","bonus":1.8000000000000012},{"rt":1349.199999999255,"stimulus":"\n                    <p><b>Action: <em>avoid</em></b></p>\n                    <p>This is the bee that you just saw.</p>\n                    <img src=\"bees-with-color/bee-B1DF.svg\" width=\"200\">\n                    <p><span class=\"redText\">Bad choice,</span> the bee was friendly.<br>Your bonus pay is unchanged, and remains at $0.62.</p>\n            ","response":0,"trial_type":"html-button-response","trial_index":36,"time_elapsed":294910,"internal_node_id":"0.0-4.0-1.14","subject_id":"5d29412ab711e9001ab74ece","study_id":"6197b3f67c2b5cd3b6d9596a","session_id":"619be31f219a978935a12dd5","condition":"full-information","relevant_dimensions":["wings","pattern"],"bee_group":{"antennae":"X","wings":"1","pattern":"S","legs":"X"},"bonus":1.8000000000000012},{"rt":3859.199999999255,"stimulus":"bees-with-color/bee-B1DM.svg","response":1,"trial_type":"image-button-response","trial_index":37,"time_elapsed":298770,"internal_node_id":"0.0-4.0-0.15","subject_id":"5d29412ab711e9001ab74ece","study_id":"6197b3f67c2b5cd3b6d9596a","session_id":"619be31f219a978935a12dd5","condition":"full-information","relevant_dimensions":["wings","pattern"],"bee_group":{"antennae":"X","wings":"1","pattern":"S","legs":"X"},"action":"avoid","summary":"bad-avoid","bonus":1.8000000000000012},{"rt":1031.199999999255,"stimulus":"\n                    <p><b>Action: <em>avoid</em></b></p>\n                    <p>This is the bee that you just saw.</p>\n                    <img src=\"bees-with-color/bee-B1DM.svg\" width=\"200\">\n                    <p><span class=\"redText\">Bad choice,</span> the bee was friendly.<br>Your bonus pay is unchanged, and remains at $0.62.</p>\n            ","response":0,"trial_type":"html-button-response","trial_index":38,"time_elapsed":299802,"internal_node_id":"0.0-4.0-1.15","subject_id":"5d29412ab711e9001ab74ece","study_id":"6197b3f67c2b5cd3b6d9596a","session_id":"619be31f219a978935a12dd5","condition":"full-information","relevant_dimensions":["wings","pattern"],"bee_group":{"antennae":"X","wings":"1","pattern":"S","legs":"X"},"bonus":1.8000000000000012},{"rt":1577.3999999985099,"stimulus":"bees-with-color/bee-B1SM.svg","response":1,"trial_type":"image-button-response","trial_index":39,"time_elapsed":301380,"internal_node_id":"0.0-4.0-0.16","subject_id":"5d29412ab711e9001ab74ece","study_id":"6197b3f67c2b5cd3b6d9596a","session_id":"619be31f219a978935a12dd5","condition":"full-information","relevant_dimensions":["wings","pattern"],"bee_group":{"antennae":"X","wings":"1","pattern":"S","legs":"X"},"action":"avoid","summary":"good-avoid","bonus":1.8000000000000012},{"rt":899,"stimulus":"\n                    <p><b>Action: <em>avoid</em></b></p>\n                    <p>This is the bee that you just saw.</p>\n                    <img src=\"bees-with-color/bee-B1SM.svg\" width=\"200\">\n                    <p><span class=\"greenText\">Good choice!</span>  This bee would have stung you.<br>Your bonus pay is unchanged, and remains at $0.62.</p>\n            ","response":0,"trial_type":"html-button-response","trial_index":40,"time_elapsed":302280,"internal_node_id":"0.0-4.0-1.16","subject_id":"5d29412ab711e9001ab74ece","study_id":"6197b3f67c2b5cd3b6d9596a","session_id":"619be31f219a978935a12dd5","condition":"full-information","relevant_dimensions":["wings","pattern"],"bee_group":{"antennae":"X","wings":"1","pattern":"S","legs":"X"},"bonus":1.8000000000000012},{"rt":1790,"stimulus":"bees-with-color/bee-A1DM.svg","response":0,"trial_type":"image-button-response","trial_index":41,"time_elapsed":304071,"internal_node_id":"0.0-4.0-0.17","subject_id":"5d29412ab711e9001ab74ece","study_id":"6197b3f67c2b5cd3b6d9596a","session_id":"619be31f219a978935a12dd5","condition":"full-information","relevant_dimensions":["wings","pattern"],"bee_group":{"antennae":"X","wings":"1","pattern":"S","legs":"X"},"action":"harvest","summary":"good-harvest","bonus":1.8000000000000012},{"rt":893.3000000007451,"stimulus":"\n                    <p><b>Action: <em>harvest</em></b></p>\n                    <p>This is the bee that you just saw.</p>\n                    <img src=\"bees-with-color/bee-A1DM.svg\" width=\"200\">\n                    <p><span class=\"greenText\"><b>Successful harvest!</b></span><br>Your pay has increased by $0.02. Your bonus pay is now $0.64.</p>\n            ","response":0,"trial_type":"html-button-response","trial_index":42,"time_elapsed":304965,"internal_node_id":"0.0-4.0-1.17","subject_id":"5d29412ab711e9001ab74ece","study_id":"6197b3f67c2b5cd3b6d9596a","session_id":"619be31f219a978935a12dd5","condition":"full-information","relevant_dimensions":["wings","pattern"],"bee_group":{"antennae":"X","wings":"1","pattern":"S","legs":"X"},"bonus":1.8000000000000012},{"rt":1500.300000000745,"stimulus":"bees-with-color/bee-A2DM.svg","response":0,"trial_type":"image-button-response","trial_index":43,"time_elapsed":306466,"internal_node_id":"0.0-4.0-0.18","subject_id":"5d29412ab711e9001ab74ece","study_id":"6197b3f67c2b5cd3b6d9596a","session_id":"619be31f219a978935a12dd5","condition":"full-information","relevant_dimensions":["wings","pattern"],"bee_group":{"antennae":"X","wings":"1","pattern":"S","legs":"X"},"action":"harvest","summary":"good-harvest","bonus":1.8000000000000012},{"rt":957.1000000014901,"stimulus":"\n                    <p><b>Action: <em>harvest</em></b></p>\n                    <p>This is the bee that you just saw.</p>\n                    <img src=\"bees-with-color/bee-A2DM.svg\" width=\"200\">\n                    <p><span class=\"greenText\"><b>Successful harvest!</b></span><br>Your pay has increased by $0.02. Your bonus pay is now $0.66.</p>\n            ","response":0,"trial_type":"html-button-response","trial_index":44,"time_elapsed":307424,"internal_node_id":"0.0-4.0-1.18","subject_id":"5d29412ab711e9001ab74ece","study_id":"6197b3f67c2b5cd3b6d9596a","session_id":"619be31f219a978935a12dd5","condition":"full-information","relevant_dimensions":["wings","pattern"],"bee_group":{"antennae":"X","wings":"1","pattern":"S","legs":"X"},"bonus":1.8000000000000012},{"rt":5409.199999999255,"stimulus":"bees-with-color/bee-A2SM.svg","response":0,"trial_type":"image-button-response","trial_index":45,"time_elapsed":312834,"internal_node_id":"0.0-4.0-0.19","subject_id":"5d29412ab711e9001ab74ece","study_id":"6197b3f67c2b5cd3b6d9596a","session_id":"619be31f219a978935a12dd5","condition":"full-information","relevant_dimensions":["wings","pattern"],"bee_group":{"antennae":"X","wings":"1","pattern":"S","legs":"X"},"action":"harvest","summary":"good-harvest","bonus":1.8000000000000012},{"rt":787.1000000014901,"stimulus":"\n                    <p><b>Action: <em>harvest</em></b></p>\n                    <p>This is the bee that you just saw.</p>\n                    <img src=\"bees-with-color/bee-A2SM.svg\" width=\"200\">\n                    <p><span class=\"greenText\"><b>Successful harvest!</b></span><br>Your pay has increased by $0.02. Your bonus pay is now $0.68.</p>\n            ","response":0,"trial_type":"html-button-response","trial_index":46,"time_elapsed":313621,"internal_node_id":"0.0-4.0-1.19","subject_id":"5d29412ab711e9001ab74ece","study_id":"6197b3f67c2b5cd3b6d9596a","session_id":"619be31f219a978935a12dd5","condition":"full-information","relevant_dimensions":["wings","pattern"],"bee_group":{"antennae":"X","wings":"1","pattern":"S","legs":"X"},"bonus":1.8000000000000012},{"rt":1729.0999999977648,"stimulus":"bees-with-color/bee-B2DF.svg","response":0,"trial_type":"image-button-response","trial_index":47,"time_elapsed":315351,"internal_node_id":"0.0-4.0-0.20","subject_id":"5d29412ab711e9001ab74ece","study_id":"6197b3f67c2b5cd3b6d9596a","session_id":"619be31f219a978935a12dd5","condition":"full-information","relevant_dimensions":["wings","pattern"],"bee_group":{"antennae":"X","wings":"1","pattern":"S","legs":"X"},"action":"harvest","summary":"good-harvest","bonus":1.8000000000000012},{"rt":887.3000000007451,"stimulus":"\n                    <p><b>Action: <em>harvest</em></b></p>\n                    <p>This is the bee that you just saw.</p>\n                    <img src=\"bees-with-color/bee-B2DF.svg\" width=\"200\">\n                    <p><span class=\"greenText\"><b>Successful harvest!</b></span><br>Your pay has increased by $0.02. Your bonus pay is now $0.70.</p>\n            ","response":0,"trial_type":"html-button-response","trial_index":48,"time_elapsed":316239,"internal_node_id":"0.0-4.0-1.20","subject_id":"5d29412ab711e9001ab74ece","study_id":"6197b3f67c2b5cd3b6d9596a","session_id":"619be31f219a978935a12dd5","condition":"full-information","relevant_dimensions":["wings","pattern"],"bee_group":{"antennae":"X","wings":"1","pattern":"S","legs":"X"},"bonus":1.8000000000000012},{"rt":2096.300000000745,"stimulus":"bees-with-color/bee-B2SM.svg","response":0,"trial_type":"image-button-response","trial_index":49,"time_elapsed":318336,"internal_node_id":"0.0-4.0-0.21","subject_id":"5d29412ab711e9001ab74ece","study_id":"6197b3f67c2b5cd3b6d9596a","session_id":"619be31f219a978935a12dd5","condition":"full-information","relevant_dimensions":["wings","pattern"],"bee_group":{"antennae":"X","wings":"1","pattern":"S","legs":"X"},"action":"harvest","summary":"good-harvest","bonus":1.8000000000000012},{"rt":863.3000000007451,"stimulus":"\n                    <p><b>Action: <em>harvest</em></b></p>\n                    <p>This is the bee that you just saw.</p>\n                    <img src=\"bees-with-color/bee-B2SM.svg\" width=\"200\">\n                    <p><span class=\"greenText\"><b>Successful harvest!</b></span><br>Your pay has increased by $0.02. Your bonus pay is now $0.72.</p>\n            ","response":0,"trial_type":"html-button-response","trial_index":50,"time_elapsed":319200,"internal_node_id":"0.0-4.0-1.21","subject_id":"5d29412ab711e9001ab74ece","study_id":"6197b3f67c2b5cd3b6d9596a","session_id":"619be31f219a978935a12dd5","condition":"full-information","relevant_dimensions":["wings","pattern"],"bee_group":{"antennae":"X","wings":"1","pattern":"S","legs":"X"},"bonus":1.8000000000000012},{"rt":1258.300000000745,"stimulus":"bees-with-color/bee-A1SF.svg","response":1,"trial_type":"image-button-response","trial_index":51,"time_elapsed":320459,"internal_node_id":"0.0-4.0-0.22","subject_id":"5d29412ab711e9001ab74ece","study_id":"6197b3f67c2b5cd3b6d9596a","session_id":"619be31f219a978935a12dd5","condition":"full-information","relevant_dimensions":["wings","pattern"],"bee_group":{"antennae":"X","wings":"1","pattern":"S","legs":"X"},"action":"avoid","summary":"good-avoid","bonus":1.8000000000000012},{"rt":1050.300000000745,"stimulus":"\n                    <p><b>Action: <em>avoid</em></b></p>\n                    <p>This is the bee that you just saw.</p>\n                    <img src=\"bees-with-color/bee-A1SF.svg\" width=\"200\">\n                    <p><span class=\"greenText\">Good choice!</span>  This bee would have stung you.<br>Your bonus pay is unchanged, and remains at $0.72.</p>\n            ","response":0,"trial_type":"html-button-response","trial_index":52,"time_elapsed":321510,"internal_node_id":"0.0-4.0-1.22","subject_id":"5d29412ab711e9001ab74ece","study_id":"6197b3f67c2b5cd3b6d9596a","session_id":"619be31f219a978935a12dd5","condition":"full-information","relevant_dimensions":["wings","pattern"],"bee_group":{"antennae":"X","wings":"1","pattern":"S","legs":"X"},"bonus":1.8000000000000012},{"rt":2377.400000002235,"stimulus":"bees-with-color/bee-B2SF.svg","response":0,"trial_type":"image-button-response","trial_index":53,"time_elapsed":323888,"internal_node_id":"0.0-4.0-0.23","subject_id":"5d29412ab711e9001ab74ece","study_id":"6197b3f67c2b5cd3b6d9596a","session_id":"619be31f219a978935a12dd5","condition":"full-information","relevant_dimensions":["wings","pattern"],"bee_group":{"antennae":"X","wings":"1","pattern":"S","legs":"X"},"action":"harvest","summary":"good-harvest","bonus":1.8000000000000012},{"rt":933.1999999992549,"stimulus":"\n                    <p><b>Action: <em>harvest</em></b></p>\n                    <p>This is the bee that you just saw.</p>\n                    <img src=\"bees-with-color/bee-B2SF.svg\" width=\"200\">\n                    <p><span class=\"greenText\"><b>Successful harvest!</b></span><br>Your pay has increased by $0.02. Your bonus pay is now $0.74.</p>\n            ","response":0,"trial_type":"html-button-response","trial_index":54,"time_elapsed":324822,"internal_node_id":"0.0-4.0-1.23","subject_id":"5d29412ab711e9001ab74ece","study_id":"6197b3f67c2b5cd3b6d9596a","session_id":"619be31f219a978935a12dd5","condition":"full-information","relevant_dimensions":["wings","pattern"],"bee_group":{"antennae":"X","wings":"1","pattern":"S","legs":"X"},"bonus":1.8000000000000012},{"rt":1233.8999999985099,"stimulus":"bees-with-color/bee-A1DF.svg","response":1,"trial_type":"image-button-response","trial_index":55,"time_elapsed":326057,"internal_node_id":"0.0-4.0-0.24","subject_id":"5d29412ab711e9001ab74ece","study_id":"6197b3f67c2b5cd3b6d9596a","session_id":"619be31f219a978935a12dd5","condition":"full-information","relevant_dimensions":["wings","pattern"],"bee_group":{"antennae":"X","wings":"1","pattern":"S","legs":"X"},"action":"avoid","summary":"bad-avoid","bonus":1.8000000000000012},{"rt":1101.199999999255,"stimulus":"\n                    <p><b>Action: <em>avoid</em></b></p>\n                    <p>This is the bee that you just saw.</p>\n                    <img src=\"bees-with-color/bee-A1DF.svg\" width=\"200\">\n                    <p><span class=\"redText\">Bad choice,</span> the bee was friendly.<br>Your bonus pay is unchanged, and remains at $0.74.</p>\n            ","response":0,"trial_type":"html-button-response","trial_index":56,"time_elapsed":327159,"internal_node_id":"0.0-4.0-1.24","subject_id":"5d29412ab711e9001ab74ece","study_id":"6197b3f67c2b5cd3b6d9596a","session_id":"619be31f219a978935a12dd5","condition":"full-information","relevant_dimensions":["wings","pattern"],"bee_group":{"antennae":"X","wings":"1","pattern":"S","legs":"X"},"bonus":1.8000000000000012},{"rt":1618.3999999985099,"stimulus":"bees-with-color/bee-B1DF.svg","response":0,"trial_type":"image-button-response","trial_index":57,"time_elapsed":328778,"internal_node_id":"0.0-4.0-0.25","subject_id":"5d29412ab711e9001ab74ece","study_id":"6197b3f67c2b5cd3b6d9596a","session_id":"619be31f219a978935a12dd5","condition":"full-information","relevant_dimensions":["wings","pattern"],"bee_group":{"antennae":"X","wings":"1","pattern":"S","legs":"X"},"action":"harvest","summary":"good-harvest","bonus":1.8000000000000012},{"rt":956.1999999992549,"stimulus":"\n                    <p><b>Action: <em>harvest</em></b></p>\n                    <p>This is the bee that you just saw.</p>\n                    <img src=\"bees-with-color/bee-B1DF.svg\" width=\"200\">\n                    <p><span class=\"greenText\"><b>Successful harvest!</b></span><br>Your pay has increased by $0.02. Your bonus pay is now $0.76.</p>\n            ","response":0,"trial_type":"html-button-response","trial_index":58,"time_elapsed":329735,"internal_node_id":"0.0-4.0-1.25","subject_id":"5d29412ab711e9001ab74ece","study_id":"6197b3f67c2b5cd3b6d9596a","session_id":"619be31f219a978935a12dd5","condition":"full-information","relevant_dimensions":["wings","pattern"],"bee_group":{"antennae":"X","wings":"1","pattern":"S","legs":"X"},"bonus":1.8000000000000012},{"rt":2441.300000000745,"stimulus":"bees-with-color/bee-A1SM.svg","response":1,"trial_type":"image-button-response","trial_index":59,"time_elapsed":332177,"internal_node_id":"0.0-4.0-0.26","subject_id":"5d29412ab711e9001ab74ece","study_id":"6197b3f67c2b5cd3b6d9596a","session_id":"619be31f219a978935a12dd5","condition":"full-information","relevant_dimensions":["wings","pattern"],"bee_group":{"antennae":"X","wings":"1","pattern":"S","legs":"X"},"action":"avoid","summary":"good-avoid","bonus":1.8000000000000012},{"rt":1033,"stimulus":"\n                    <p><b>Action: <em>avoid</em></b></p>\n                    <p>This is the bee that you just saw.</p>\n                    <img src=\"bees-with-color/bee-A1SM.svg\" width=\"200\">\n                    <p><span class=\"greenText\">Good choice!</span>  This bee would have stung you.<br>Your bonus pay is unchanged, and remains at $0.76.</p>\n            ","response":0,"trial_type":"html-button-response","trial_index":60,"time_elapsed":333211,"internal_node_id":"0.0-4.0-1.26","subject_id":"5d29412ab711e9001ab74ece","study_id":"6197b3f67c2b5cd3b6d9596a","session_id":"619be31f219a978935a12dd5","condition":"full-information","relevant_dimensions":["wings","pattern"],"bee_group":{"antennae":"X","wings":"1","pattern":"S","legs":"X"},"bonus":1.8000000000000012},{"rt":1476.9000000022352,"stimulus":"bees-with-color/bee-B1DM.svg","response":0,"trial_type":"image-button-response","trial_index":61,"time_elapsed":334689,"internal_node_id":"0.0-4.0-0.27","subject_id":"5d29412ab711e9001ab74ece","study_id":"6197b3f67c2b5cd3b6d9596a","session_id":"619be31f219a978935a12dd5","condition":"full-information","relevant_dimensions":["wings","pattern"],"bee_group":{"antennae":"X","wings":"1","pattern":"S","legs":"X"},"action":"harvest","summary":"good-harvest","bonus":1.8000000000000012},{"rt":1031.3999999985099,"stimulus":"\n                    <p><b>Action: <em>harvest</em></b></p>\n                    <p>This is the bee that you just saw.</p>\n                    <img src=\"bees-with-color/bee-B1DM.svg\" width=\"200\">\n                    <p><span class=\"greenText\"><b>Successful harvest!</b></span><br>Your pay has increased by $0.02. Your bonus pay is now $0.78.</p>\n            ","response":0,"trial_type":"html-button-response","trial_index":62,"time_elapsed":335721,"internal_node_id":"0.0-4.0-1.27","subject_id":"5d29412ab711e9001ab74ece","study_id":"6197b3f67c2b5cd3b6d9596a","session_id":"619be31f219a978935a12dd5","condition":"full-information","relevant_dimensions":["wings","pattern"],"bee_group":{"antennae":"X","wings":"1","pattern":"S","legs":"X"},"bonus":1.8000000000000012},{"rt":2239.199999999255,"stimulus":"bees-with-color/bee-B1SF.svg","response":1,"trial_type":"image-button-response","trial_index":63,"time_elapsed":337961,"internal_node_id":"0.0-4.0-0.28","subject_id":"5d29412ab711e9001ab74ece","study_id":"6197b3f67c2b5cd3b6d9596a","session_id":"619be31f219a978935a12dd5","condition":"full-information","relevant_dimensions":["wings","pattern"],"bee_group":{"antennae":"X","wings":"1","pattern":"S","legs":"X"},"action":"avoid","summary":"good-avoid","bonus":1.8000000000000012},{"rt":874.3000000007451,"stimulus":"\n                    <p><b>Action: <em>avoid</em></b></p>\n                    <p>This is the bee that you just saw.</p>\n                    <img src=\"bees-with-color/bee-B1SF.svg\" width=\"200\">\n                    <p><span class=\"greenText\">Good choice!</span>  This bee would have stung you.<br>Your bonus pay is unchanged, and remains at $0.78.</p>\n            ","response":0,"trial_type":"html-button-response","trial_index":64,"time_elapsed":338836,"internal_node_id":"0.0-4.0-1.28","subject_id":"5d29412ab711e9001ab74ece","study_id":"6197b3f67c2b5cd3b6d9596a","session_id":"619be31f219a978935a12dd5","condition":"full-information","relevant_dimensions":["wings","pattern"],"bee_group":{"antennae":"X","wings":"1","pattern":"S","legs":"X"},"bonus":1.8000000000000012},{"rt":1279.199999999255,"stimulus":"bees-with-color/bee-A2DF.svg","response":0,"trial_type":"image-button-response","trial_index":65,"time_elapsed":340116,"internal_node_id":"0.0-4.0-0.29","subject_id":"5d29412ab711e9001ab74ece","study_id":"6197b3f67c2b5cd3b6d9596a","session_id":"619be31f219a978935a12dd5","condition":"full-information","relevant_dimensions":["wings","pattern"],"bee_group":{"antennae":"X","wings":"1","pattern":"S","legs":"X"},"action":"harvest","summary":"good-harvest","bonus":1.8000000000000012},{"rt":906.3000000007451,"stimulus":"\n                    <p><b>Action: <em>harvest</em></b></p>\n                    <p>This is the bee that you just saw.</p>\n                    <img src=\"bees-with-color/bee-A2DF.svg\" width=\"200\">\n                    <p><span class=\"greenText\"><b>Successful harvest!</b></span><br>Your pay has increased by $0.02. Your bonus pay is now $0.80.</p>\n            ","response":0,"trial_type":"html-button-response","trial_index":66,"time_elapsed":341023,"internal_node_id":"0.0-4.0-1.29","subject_id":"5d29412ab711e9001ab74ece","study_id":"6197b3f67c2b5cd3b6d9596a","session_id":"619be31f219a978935a12dd5","condition":"full-information","relevant_dimensions":["wings","pattern"],"bee_group":{"antennae":"X","wings":"1","pattern":"S","legs":"X"},"bonus":1.8000000000000012},{"rt":2690.300000000745,"stimulus":"bees-with-color/bee-A2SF.svg","response":0,"trial_type":"image-button-response","trial_index":67,"time_elapsed":343714,"internal_node_id":"0.0-4.0-0.30","subject_id":"5d29412ab711e9001ab74ece","study_id":"6197b3f67c2b5cd3b6d9596a","session_id":"619be31f219a978935a12dd5","condition":"full-information","relevant_dimensions":["wings","pattern"],"bee_group":{"antennae":"X","wings":"1","pattern":"S","legs":"X"},"action":"harvest","summary":"good-harvest","bonus":1.8000000000000012},{"rt":978.1000000014901,"stimulus":"\n                    <p><b>Action: <em>harvest</em></b></p>\n                    <p>This is the bee that you just saw.</p>\n                    <img src=\"bees-with-color/bee-A2SF.svg\" width=\"200\">\n                    <p><span class=\"greenText\"><b>Successful harvest!</b></span><br>Your pay has increased by $0.02. Your bonus pay is now $0.82.</p>\n            ","response":0,"trial_type":"html-button-response","trial_index":68,"time_elapsed":344693,"internal_node_id":"0.0-4.0-1.30","subject_id":"5d29412ab711e9001ab74ece","study_id":"6197b3f67c2b5cd3b6d9596a","session_id":"619be31f219a978935a12dd5","condition":"full-information","relevant_dimensions":["wings","pattern"],"bee_group":{"antennae":"X","wings":"1","pattern":"S","legs":"X"},"bonus":1.8000000000000012},{"rt":1513.1000000014901,"stimulus":"bees-with-color/bee-B2DM.svg","response":0,"trial_type":"image-button-response","trial_index":69,"time_elapsed":346207,"internal_node_id":"0.0-4.0-0.31","subject_id":"5d29412ab711e9001ab74ece","study_id":"6197b3f67c2b5cd3b6d9596a","session_id":"619be31f219a978935a12dd5","condition":"full-information","relevant_dimensions":["wings","pattern"],"bee_group":{"antennae":"X","wings":"1","pattern":"S","legs":"X"},"action":"harvest","summary":"good-harvest","bonus":1.8000000000000012},{"rt":720.3000000007451,"stimulus":"\n                    <p><b>Action: <em>harvest</em></b></p>\n                    <p>This is the bee that you just saw.</p>\n                    <img src=\"bees-with-color/bee-B2DM.svg\" width=\"200\">\n                    <p><span class=\"greenText\"><b>Successful harvest!</b></span><br>Your pay has increased by $0.02. Your bonus pay is now $0.84.</p>\n            ","response":0,"trial_type":"html-button-response","trial_index":70,"time_elapsed":346928,"internal_node_id":"0.0-4.0-1.31","subject_id":"5d29412ab711e9001ab74ece","study_id":"6197b3f67c2b5cd3b6d9596a","session_id":"619be31f219a978935a12dd5","condition":"full-information","relevant_dimensions":["wings","pattern"],"bee_group":{"antennae":"X","wings":"1","pattern":"S","legs":"X"},"bonus":1.8000000000000012},{"rt":1548.300000000745,"stimulus":"bees-with-color/bee-A2SF.svg","response":0,"trial_type":"image-button-response","trial_index":71,"time_elapsed":348477,"internal_node_id":"0.0-4.0-0.32","subject_id":"5d29412ab711e9001ab74ece","study_id":"6197b3f67c2b5cd3b6d9596a","session_id":"619be31f219a978935a12dd5","condition":"full-information","relevant_dimensions":["wings","pattern"],"bee_group":{"antennae":"X","wings":"1","pattern":"S","legs":"X"},"action":"harvest","summary":"good-harvest","bonus":1.8000000000000012},{"rt":837.1000000014901,"stimulus":"\n                    <p><b>Action: <em>harvest</em></b></p>\n                    <p>This is the bee that you just saw.</p>\n                    <img src=\"bees-with-color/bee-A2SF.svg\" width=\"200\">\n                    <p><span class=\"greenText\"><b>Successful harvest!</b></span><br>Your pay has increased by $0.02. Your bonus pay is now $0.86.</p>\n            ","response":0,"trial_type":"html-button-response","trial_index":72,"time_elapsed":349315,"internal_node_id":"0.0-4.0-1.32","subject_id":"5d29412ab711e9001ab74ece","study_id":"6197b3f67c2b5cd3b6d9596a","session_id":"619be31f219a978935a12dd5","condition":"full-information","relevant_dimensions":["wings","pattern"],"bee_group":{"antennae":"X","wings":"1","pattern":"S","legs":"X"},"bonus":1.8000000000000012},{"rt":1167.0999999977648,"stimulus":"bees-with-color/bee-B1SF.svg","response":1,"trial_type":"image-button-response","trial_index":73,"time_elapsed":350483,"internal_node_id":"0.0-4.0-0.33","subject_id":"5d29412ab711e9001ab74ece","study_id":"6197b3f67c2b5cd3b6d9596a","session_id":"619be31f219a978935a12dd5","condition":"full-information","relevant_dimensions":["wings","pattern"],"bee_group":{"antennae":"X","wings":"1","pattern":"S","legs":"X"},"action":"avoid","summary":"good-avoid","bonus":1.8000000000000012},{"rt":827,"stimulus":"\n                    <p><b>Action: <em>avoid</em></b></p>\n                    <p>This is the bee that you just saw.</p>\n                    <img src=\"bees-with-color/bee-B1SF.svg\" width=\"200\">\n                    <p><span class=\"greenText\">Good choice!</span>  This bee would have stung you.<br>Your bonus pay is unchanged, and remains at $0.86.</p>\n            ","response":0,"trial_type":"html-button-response","trial_index":74,"time_elapsed":351311,"internal_node_id":"0.0-4.0-1.33","subject_id":"5d29412ab711e9001ab74ece","study_id":"6197b3f67c2b5cd3b6d9596a","session_id":"619be31f219a978935a12dd5","condition":"full-information","relevant_dimensions":["wings","pattern"],"bee_group":{"antennae":"X","wings":"1","pattern":"S","legs":"X"},"bonus":1.8000000000000012},{"rt":1874.300000000745,"stimulus":"bees-with-color/bee-B2SF.svg","response":0,"trial_type":"image-button-response","trial_index":75,"time_elapsed":353186,"internal_node_id":"0.0-4.0-0.34","subject_id":"5d29412ab711e9001ab74ece","study_id":"6197b3f67c2b5cd3b6d9596a","session_id":"619be31f219a978935a12dd5","condition":"full-information","relevant_dimensions":["wings","pattern"],"bee_group":{"antennae":"X","wings":"1","pattern":"S","legs":"X"},"action":"harvest","summary":"good-harvest","bonus":1.8000000000000012},{"rt":689.1999999992549,"stimulus":"\n                    <p><b>Action: <em>harvest</em></b></p>\n                    <p>This is the bee that you just saw.</p>\n                    <img src=\"bees-with-color/bee-B2SF.svg\" width=\"200\">\n                    <p><span class=\"greenText\"><b>Successful harvest!</b></span><br>Your pay has increased by $0.02. Your bonus pay is now $0.88.</p>\n            ","response":0,"trial_type":"html-button-response","trial_index":76,"time_elapsed":353875,"internal_node_id":"0.0-4.0-1.34","subject_id":"5d29412ab711e9001ab74ece","study_id":"6197b3f67c2b5cd3b6d9596a","session_id":"619be31f219a978935a12dd5","condition":"full-information","relevant_dimensions":["wings","pattern"],"bee_group":{"antennae":"X","wings":"1","pattern":"S","legs":"X"},"bonus":1.8000000000000012},{"rt":1179.2999999970198,"stimulus":"bees-with-color/bee-A1SF.svg","response":1,"trial_type":"image-button-response","trial_index":77,"time_elapsed":355056,"internal_node_id":"0.0-4.0-0.35","subject_id":"5d29412ab711e9001ab74ece","study_id":"6197b3f67c2b5cd3b6d9596a","session_id":"619be31f219a978935a12dd5","condition":"full-information","relevant_dimensions":["wings","pattern"],"bee_group":{"antennae":"X","wings":"1","pattern":"S","legs":"X"},"action":"avoid","summary":"good-avoid","bonus":1.8000000000000012},{"rt":774.3000000007451,"stimulus":"\n                    <p><b>Action: <em>avoid</em></b></p>\n                    <p>This is the bee that you just saw.</p>\n                    <img src=\"bees-with-color/bee-A1SF.svg\" width=\"200\">\n                    <p><span class=\"greenText\">Good choice!</span>  This bee would have stung you.<br>Your bonus pay is unchanged, and remains at $0.88.</p>\n            ","response":0,"trial_type":"html-button-response","trial_index":78,"time_elapsed":355831,"internal_node_id":"0.0-4.0-1.35","subject_id":"5d29412ab711e9001ab74ece","study_id":"6197b3f67c2b5cd3b6d9596a","session_id":"619be31f219a978935a12dd5","condition":"full-information","relevant_dimensions":["wings","pattern"],"bee_group":{"antennae":"X","wings":"1","pattern":"S","legs":"X"},"bonus":1.8000000000000012},{"rt":1119.199999999255,"stimulus":"bees-with-color/bee-A2SM.svg","response":0,"trial_type":"image-button-response","trial_index":79,"time_elapsed":356950,"internal_node_id":"0.0-4.0-0.36","subject_id":"5d29412ab711e9001ab74ece","study_id":"6197b3f67c2b5cd3b6d9596a","session_id":"619be31f219a978935a12dd5","condition":"full-information","relevant_dimensions":["wings","pattern"],"bee_group":{"antennae":"X","wings":"1","pattern":"S","legs":"X"},"action":"harvest","summary":"good-harvest","bonus":1.8000000000000012},{"rt":2583.199999999255,"stimulus":"\n                    <p><b>Action: <em>harvest</em></b></p>\n                    <p>This is the bee that you just saw.</p>\n                    <img src=\"bees-with-color/bee-A2SM.svg\" width=\"200\">\n                    <p><span class=\"greenText\"><b>Successful harvest!</b></span><br>Your pay has increased by $0.02. Your bonus pay is now $0.90.</p>\n            ","response":0,"trial_type":"html-button-response","trial_index":80,"time_elapsed":359534,"internal_node_id":"0.0-4.0-1.36","subject_id":"5d29412ab711e9001ab74ece","study_id":"6197b3f67c2b5cd3b6d9596a","session_id":"619be31f219a978935a12dd5","condition":"full-information","relevant_dimensions":["wings","pattern"],"bee_group":{"antennae":"X","wings":"1","pattern":"S","legs":"X"},"bonus":1.8000000000000012},{"rt":1875.1000000014901,"stimulus":"bees-with-color/bee-B1DM.svg","response":0,"trial_type":"image-button-response","trial_index":81,"time_elapsed":361410,"internal_node_id":"0.0-4.0-0.37","subject_id":"5d29412ab711e9001ab74ece","study_id":"6197b3f67c2b5cd3b6d9596a","session_id":"619be31f219a978935a12dd5","condition":"full-information","relevant_dimensions":["wings","pattern"],"bee_group":{"antennae":"X","wings":"1","pattern":"S","legs":"X"},"action":"harvest","summary":"good-harvest","bonus":1.8000000000000012},{"rt":608.4000000022352,"stimulus":"\n                    <p><b>Action: <em>harvest</em></b></p>\n                    <p>This is the bee that you just saw.</p>\n                    <img src=\"bees-with-color/bee-B1DM.svg\" width=\"200\">\n                    <p><span class=\"greenText\"><b>Successful harvest!</b></span><br>Your pay has increased by $0.02. Your bonus pay is now $0.92.</p>\n            ","response":0,"trial_type":"html-button-response","trial_index":82,"time_elapsed":362019,"internal_node_id":"0.0-4.0-1.37","subject_id":"5d29412ab711e9001ab74ece","study_id":"6197b3f67c2b5cd3b6d9596a","session_id":"619be31f219a978935a12dd5","condition":"full-information","relevant_dimensions":["wings","pattern"],"bee_group":{"antennae":"X","wings":"1","pattern":"S","legs":"X"},"bonus":1.8000000000000012},{"rt":1161.300000000745,"stimulus":"bees-with-color/bee-A1DM.svg","response":0,"trial_type":"image-button-response","trial_index":83,"time_elapsed":363181,"internal_node_id":"0.0-4.0-0.38","subject_id":"5d29412ab711e9001ab74ece","study_id":"6197b3f67c2b5cd3b6d9596a","session_id":"619be31f219a978935a12dd5","condition":"full-information","relevant_dimensions":["wings","pattern"],"bee_group":{"antennae":"X","wings":"1","pattern":"S","legs":"X"},"action":"harvest","summary":"good-harvest","bonus":1.8000000000000012},{"rt":643.3000000007451,"stimulus":"\n                    <p><b>Action: <em>harvest</em></b></p>\n                    <p>This is the bee that you just saw.</p>\n                    <img src=\"bees-with-color/bee-A1DM.svg\" width=\"200\">\n                    <p><span class=\"greenText\"><b>Successful harvest!</b></span><br>Your pay has increased by $0.02. Your bonus pay is now $0.94.</p>\n            ","response":0,"trial_type":"html-button-response","trial_index":84,"time_elapsed":363825,"internal_node_id":"0.0-4.0-1.38","subject_id":"5d29412ab711e9001ab74ece","study_id":"6197b3f67c2b5cd3b6d9596a","session_id":"619be31f219a978935a12dd5","condition":"full-information","relevant_dimensions":["wings","pattern"],"bee_group":{"antennae":"X","wings":"1","pattern":"S","legs":"X"},"bonus":1.8000000000000012},{"rt":1595.300000000745,"stimulus":"bees-with-color/bee-B1DF.svg","response":0,"trial_type":"image-button-response","trial_index":85,"time_elapsed":365421,"internal_node_id":"0.0-4.0-0.39","subject_id":"5d29412ab711e9001ab74ece","study_id":"6197b3f67c2b5cd3b6d9596a","session_id":"619be31f219a978935a12dd5","condition":"full-information","relevant_dimensions":["wings","pattern"],"bee_group":{"antennae":"X","wings":"1","pattern":"S","legs":"X"},"action":"harvest","summary":"good-harvest","bonus":1.8000000000000012},{"rt":604.3000000007451,"stimulus":"\n                    <p><b>Action: <em>harvest</em></b></p>\n                    <p>This is the bee that you just saw.</p>\n                    <img src=\"bees-with-color/bee-B1DF.svg\" width=\"200\">\n                    <p><span class=\"greenText\"><b>Successful harvest!</b></span><br>Your pay has increased by $0.02. Your bonus pay is now $0.96.</p>\n            ","response":0,"trial_type":"html-button-response","trial_index":86,"time_elapsed":366026,"internal_node_id":"0.0-4.0-1.39","subject_id":"5d29412ab711e9001ab74ece","study_id":"6197b3f67c2b5cd3b6d9596a","session_id":"619be31f219a978935a12dd5","condition":"full-information","relevant_dimensions":["wings","pattern"],"bee_group":{"antennae":"X","wings":"1","pattern":"S","legs":"X"},"bonus":1.8000000000000012},{"rt":1144.300000000745,"stimulus":"bees-with-color/bee-A1DF.svg","response":0,"trial_type":"image-button-response","trial_index":87,"time_elapsed":367171,"internal_node_id":"0.0-4.0-0.40","subject_id":"5d29412ab711e9001ab74ece","study_id":"6197b3f67c2b5cd3b6d9596a","session_id":"619be31f219a978935a12dd5","condition":"full-information","relevant_dimensions":["wings","pattern"],"bee_group":{"antennae":"X","wings":"1","pattern":"S","legs":"X"},"action":"harvest","summary":"good-harvest","bonus":1.8000000000000012},{"rt":740.1000000014901,"stimulus":"\n                    <p><b>Action: <em>harvest</em></b></p>\n                    <p>This is the bee that you just saw.</p>\n                    <img src=\"bees-with-color/bee-A1DF.svg\" width=\"200\">\n                    <p><span class=\"greenText\"><b>Successful harvest!</b></span><br>Your pay has increased by $0.02. Your bonus pay is now $0.98.</p>\n            ","response":0,"trial_type":"html-button-response","trial_index":88,"time_elapsed":367912,"internal_node_id":"0.0-4.0-1.40","subject_id":"5d29412ab711e9001ab74ece","study_id":"6197b3f67c2b5cd3b6d9596a","session_id":"619be31f219a978935a12dd5","condition":"full-information","relevant_dimensions":["wings","pattern"],"bee_group":{"antennae":"X","wings":"1","pattern":"S","legs":"X"},"bonus":1.8000000000000012},{"rt":1310.1000000014901,"stimulus":"bees-with-color/bee-B2DF.svg","response":0,"trial_type":"image-button-response","trial_index":89,"time_elapsed":369223,"internal_node_id":"0.0-4.0-0.41","subject_id":"5d29412ab711e9001ab74ece","study_id":"6197b3f67c2b5cd3b6d9596a","session_id":"619be31f219a978935a12dd5","condition":"full-information","relevant_dimensions":["wings","pattern"],"bee_group":{"antennae":"X","wings":"1","pattern":"S","legs":"X"},"action":"harvest","summary":"good-harvest","bonus":1.8000000000000012},{"rt":598.3000000007451,"stimulus":"\n                    <p><b>Action: <em>harvest</em></b></p>\n                    <p>This is the bee that you just saw.</p>\n                    <img src=\"bees-with-color/bee-B2DF.svg\" width=\"200\">\n                    <p><span class=\"greenText\"><b>Successful harvest!</b></span><br>Your pay has increased by $0.02. Your bonus pay is now $1.00.</p>\n            ","response":0,"trial_type":"html-button-response","trial_index":90,"time_elapsed":369822,"internal_node_id":"0.0-4.0-1.41","subject_id":"5d29412ab711e9001ab74ece","study_id":"6197b3f67c2b5cd3b6d9596a","session_id":"619be31f219a978935a12dd5","condition":"full-information","relevant_dimensions":["wings","pattern"],"bee_group":{"antennae":"X","wings":"1","pattern":"S","legs":"X"},"bonus":1.8000000000000012},{"rt":3941.199999999255,"stimulus":"bees-with-color/bee-B1SM.svg","response":1,"trial_type":"image-button-response","trial_index":91,"time_elapsed":373764,"internal_node_id":"0.0-4.0-0.42","subject_id":"5d29412ab711e9001ab74ece","study_id":"6197b3f67c2b5cd3b6d9596a","session_id":"619be31f219a978935a12dd5","condition":"full-information","relevant_dimensions":["wings","pattern"],"bee_group":{"antennae":"X","wings":"1","pattern":"S","legs":"X"},"action":"avoid","summary":"good-avoid","bonus":1.8000000000000012},{"rt":1090,"stimulus":"\n                    <p><b>Action: <em>avoid</em></b></p>\n                    <p>This is the bee that you just saw.</p>\n                    <img src=\"bees-with-color/bee-B1SM.svg\" width=\"200\">\n                    <p><span class=\"greenText\">Good choice!</span>  This bee would have stung you.<br>Your bonus pay is unchanged, and remains at $1.00.</p>\n            ","response":0,"trial_type":"html-button-response","trial_index":92,"time_elapsed":374855,"internal_node_id":"0.0-4.0-1.42","subject_id":"5d29412ab711e9001ab74ece","study_id":"6197b3f67c2b5cd3b6d9596a","session_id":"619be31f219a978935a12dd5","condition":"full-information","relevant_dimensions":["wings","pattern"],"bee_group":{"antennae":"X","wings":"1","pattern":"S","legs":"X"},"bonus":1.8000000000000012},{"rt":1365.199999999255,"stimulus":"bees-with-color/bee-B2SM.svg","response":0,"trial_type":"image-button-response","trial_index":93,"time_elapsed":376221,"internal_node_id":"0.0-4.0-0.43","subject_id":"5d29412ab711e9001ab74ece","study_id":"6197b3f67c2b5cd3b6d9596a","session_id":"619be31f219a978935a12dd5","condition":"full-information","relevant_dimensions":["wings","pattern"],"bee_group":{"antennae":"X","wings":"1","pattern":"S","legs":"X"},"action":"harvest","summary":"good-harvest","bonus":1.8000000000000012},{"rt":849.1999999992549,"stimulus":"\n                    <p><b>Action: <em>harvest</em></b></p>\n                    <p>This is the bee that you just saw.</p>\n                    <img src=\"bees-with-color/bee-B2SM.svg\" width=\"200\">\n                    <p><span class=\"greenText\"><b>Successful harvest!</b></span><br>Your pay has increased by $0.02. Your bonus pay is now $1.02.</p>\n            ","response":0,"trial_type":"html-button-response","trial_index":94,"time_elapsed":377071,"internal_node_id":"0.0-4.0-1.43","subject_id":"5d29412ab711e9001ab74ece","study_id":"6197b3f67c2b5cd3b6d9596a","session_id":"619be31f219a978935a12dd5","condition":"full-information","relevant_dimensions":["wings","pattern"],"bee_group":{"antennae":"X","wings":"1","pattern":"S","legs":"X"},"bonus":1.8000000000000012},{"rt":1279.3999999985099,"stimulus":"bees-with-color/bee-A2DF.svg","response":0,"trial_type":"image-button-response","trial_index":95,"time_elapsed":378351,"internal_node_id":"0.0-4.0-0.44","subject_id":"5d29412ab711e9001ab74ece","study_id":"6197b3f67c2b5cd3b6d9596a","session_id":"619be31f219a978935a12dd5","condition":"full-information","relevant_dimensions":["wings","pattern"],"bee_group":{"antennae":"X","wings":"1","pattern":"S","legs":"X"},"action":"harvest","summary":"good-harvest","bonus":1.8000000000000012},{"rt":638.1999999992549,"stimulus":"\n                    <p><b>Action: <em>harvest</em></b></p>\n                    <p>This is the bee that you just saw.</p>\n                    <img src=\"bees-with-color/bee-A2DF.svg\" width=\"200\">\n                    <p><span class=\"greenText\"><b>Successful harvest!</b></span><br>Your pay has increased by $0.02. Your bonus pay is now $1.04.</p>\n            ","response":0,"trial_type":"html-button-response","trial_index":96,"time_elapsed":378990,"internal_node_id":"0.0-4.0-1.44","subject_id":"5d29412ab711e9001ab74ece","study_id":"6197b3f67c2b5cd3b6d9596a","session_id":"619be31f219a978935a12dd5","condition":"full-information","relevant_dimensions":["wings","pattern"],"bee_group":{"antennae":"X","wings":"1","pattern":"S","legs":"X"},"bonus":1.8000000000000012},{"rt":2298.39999999851,"stimulus":"bees-with-color/bee-A1SM.svg","response":1,"trial_type":"image-button-response","trial_index":97,"time_elapsed":381289,"internal_node_id":"0.0-4.0-0.45","subject_id":"5d29412ab711e9001ab74ece","study_id":"6197b3f67c2b5cd3b6d9596a","session_id":"619be31f219a978935a12dd5","condition":"full-information","relevant_dimensions":["wings","pattern"],"bee_group":{"antennae":"X","wings":"1","pattern":"S","legs":"X"},"action":"avoid","summary":"good-avoid","bonus":1.8000000000000012},{"rt":767.2999999970198,"stimulus":"\n                    <p><b>Action: <em>avoid</em></b></p>\n                    <p>This is the bee that you just saw.</p>\n                    <img src=\"bees-with-color/bee-A1SM.svg\" width=\"200\">\n                    <p><span class=\"greenText\">Good choice!</span>  This bee would have stung you.<br>Your bonus pay is unchanged, and remains at $1.04.</p>\n            ","response":0,"trial_type":"html-button-response","trial_index":98,"time_elapsed":382057,"internal_node_id":"0.0-4.0-1.45","subject_id":"5d29412ab711e9001ab74ece","study_id":"6197b3f67c2b5cd3b6d9596a","session_id":"619be31f219a978935a12dd5","condition":"full-information","relevant_dimensions":["wings","pattern"],"bee_group":{"antennae":"X","wings":"1","pattern":"S","legs":"X"},"bonus":1.8000000000000012},{"rt":1203.3999999985099,"stimulus":"bees-with-color/bee-A2DM.svg","response":0,"trial_type":"image-button-response","trial_index":99,"time_elapsed":383261,"internal_node_id":"0.0-4.0-0.46","subject_id":"5d29412ab711e9001ab74ece","study_id":"6197b3f67c2b5cd3b6d9596a","session_id":"619be31f219a978935a12dd5","condition":"full-information","relevant_dimensions":["wings","pattern"],"bee_group":{"antennae":"X","wings":"1","pattern":"S","legs":"X"},"action":"harvest","summary":"good-harvest","bonus":1.8000000000000012},{"rt":654.1000000014901,"stimulus":"\n                    <p><b>Action: <em>harvest</em></b></p>\n                    <p>This is the bee that you just saw.</p>\n                    <img src=\"bees-with-color/bee-A2DM.svg\" width=\"200\">\n                    <p><span class=\"greenText\"><b>Successful harvest!</b></span><br>Your pay has increased by $0.02. Your bonus pay is now $1.06.</p>\n            ","response":0,"trial_type":"html-button-response","trial_index":100,"time_elapsed":383916,"internal_node_id":"0.0-4.0-1.46","subject_id":"5d29412ab711e9001ab74ece","study_id":"6197b3f67c2b5cd3b6d9596a","session_id":"619be31f219a978935a12dd5","condition":"full-information","relevant_dimensions":["wings","pattern"],"bee_group":{"antennae":"X","wings":"1","pattern":"S","legs":"X"},"bonus":1.8000000000000012},{"rt":1118.300000000745,"stimulus":"bees-with-color/bee-B2DM.svg","response":0,"trial_type":"image-button-response","trial_index":101,"time_elapsed":385035,"internal_node_id":"0.0-4.0-0.47","subject_id":"5d29412ab711e9001ab74ece","study_id":"6197b3f67c2b5cd3b6d9596a","session_id":"619be31f219a978935a12dd5","condition":"full-information","relevant_dimensions":["wings","pattern"],"bee_group":{"antennae":"X","wings":"1","pattern":"S","legs":"X"},"action":"harvest","summary":"good-harvest","bonus":1.8000000000000012},{"rt":573.3000000007451,"stimulus":"\n                    <p><b>Action: <em>harvest</em></b></p>\n                    <p>This is the bee that you just saw.</p>\n                    <img src=\"bees-with-color/bee-B2DM.svg\" width=\"200\">\n                    <p><span class=\"greenText\"><b>Successful harvest!</b></span><br>Your pay has increased by $0.02. Your bonus pay is now $1.08.</p>\n            ","response":0,"trial_type":"html-button-response","trial_index":102,"time_elapsed":385609,"internal_node_id":"0.0-4.0-1.47","subject_id":"5d29412ab711e9001ab74ece","study_id":"6197b3f67c2b5cd3b6d9596a","session_id":"619be31f219a978935a12dd5","condition":"full-information","relevant_dimensions":["wings","pattern"],"bee_group":{"antennae":"X","wings":"1","pattern":"S","legs":"X"},"bonus":1.8000000000000012},{"rt":1408.199999999255,"stimulus":"bees-with-color/bee-B2DF.svg","response":0,"trial_type":"image-button-response","trial_index":103,"time_elapsed":387018,"internal_node_id":"0.0-4.0-0.48","subject_id":"5d29412ab711e9001ab74ece","study_id":"6197b3f67c2b5cd3b6d9596a","session_id":"619be31f219a978935a12dd5","condition":"full-information","relevant_dimensions":["wings","pattern"],"bee_group":{"antennae":"X","wings":"1","pattern":"S","legs":"X"},"action":"harvest","summary":"good-harvest","bonus":1.8000000000000012},{"rt":629.1999999992549,"stimulus":"\n                    <p><b>Action: <em>harvest</em></b></p>\n                    <p>This is the bee that you just saw.</p>\n                    <img src=\"bees-with-color/bee-B2DF.svg\" width=\"200\">\n                    <p><span class=\"greenText\"><b>Successful harvest!</b></span><br>Your pay has increased by $0.02. Your bonus pay is now $1.10.</p>\n            ","response":0,"trial_type":"html-button-response","trial_index":104,"time_elapsed":387648,"internal_node_id":"0.0-4.0-1.48","subject_id":"5d29412ab711e9001ab74ece","study_id":"6197b3f67c2b5cd3b6d9596a","session_id":"619be31f219a978935a12dd5","condition":"full-information","relevant_dimensions":["wings","pattern"],"bee_group":{"antennae":"X","wings":"1","pattern":"S","legs":"X"},"bonus":1.8000000000000012},{"rt":1584.300000000745,"stimulus":"bees-with-color/bee-A1DF.svg","response":0,"trial_type":"image-button-response","trial_index":105,"time_elapsed":389233,"internal_node_id":"0.0-4.0-0.49","subject_id":"5d29412ab711e9001ab74ece","study_id":"6197b3f67c2b5cd3b6d9596a","session_id":"619be31f219a978935a12dd5","condition":"full-information","relevant_dimensions":["wings","pattern"],"bee_group":{"antennae":"X","wings":"1","pattern":"S","legs":"X"},"action":"harvest","summary":"good-harvest","bonus":1.8000000000000012},{"rt":518.1999999992549,"stimulus":"\n                    <p><b>Action: <em>harvest</em></b></p>\n                    <p>This is the bee that you just saw.</p>\n                    <img src=\"bees-with-color/bee-A1DF.svg\" width=\"200\">\n                    <p><span class=\"greenText\"><b>Successful harvest!</b></span><br>Your pay has increased by $0.02. Your bonus pay is now $1.12.</p>\n            ","response":0,"trial_type":"html-button-response","trial_index":106,"time_elapsed":389752,"internal_node_id":"0.0-4.0-1.49","subject_id":"5d29412ab711e9001ab74ece","study_id":"6197b3f67c2b5cd3b6d9596a","session_id":"619be31f219a978935a12dd5","condition":"full-information","relevant_dimensions":["wings","pattern"],"bee_group":{"antennae":"X","wings":"1","pattern":"S","legs":"X"},"bonus":1.8000000000000012},{"rt":1108.300000000745,"stimulus":"bees-with-color/bee-B1DM.svg","response":0,"trial_type":"image-button-response","trial_index":107,"time_elapsed":390861,"internal_node_id":"0.0-4.0-0.50","subject_id":"5d29412ab711e9001ab74ece","study_id":"6197b3f67c2b5cd3b6d9596a","session_id":"619be31f219a978935a12dd5","condition":"full-information","relevant_dimensions":["wings","pattern"],"bee_group":{"antennae":"X","wings":"1","pattern":"S","legs":"X"},"action":"harvest","summary":"good-harvest","bonus":1.8000000000000012},{"rt":538.3000000007451,"stimulus":"\n                    <p><b>Action: <em>harvest</em></b></p>\n                    <p>This is the bee that you just saw.</p>\n                    <img src=\"bees-with-color/bee-B1DM.svg\" width=\"200\">\n                    <p><span class=\"greenText\"><b>Successful harvest!</b></span><br>Your pay has increased by $0.02. Your bonus pay is now $1.14.</p>\n            ","response":0,"trial_type":"html-button-response","trial_index":108,"time_elapsed":391400,"internal_node_id":"0.0-4.0-1.50","subject_id":"5d29412ab711e9001ab74ece","study_id":"6197b3f67c2b5cd3b6d9596a","session_id":"619be31f219a978935a12dd5","condition":"full-information","relevant_dimensions":["wings","pattern"],"bee_group":{"antennae":"X","wings":"1","pattern":"S","legs":"X"},"bonus":1.8000000000000012},{"rt":2029.199999999255,"stimulus":"bees-with-color/bee-B2SM.svg","response":0,"trial_type":"image-button-response","trial_index":109,"time_elapsed":393430,"internal_node_id":"0.0-4.0-0.51","subject_id":"5d29412ab711e9001ab74ece","study_id":"6197b3f67c2b5cd3b6d9596a","session_id":"619be31f219a978935a12dd5","condition":"full-information","relevant_dimensions":["wings","pattern"],"bee_group":{"antennae":"X","wings":"1","pattern":"S","legs":"X"},"action":"harvest","summary":"good-harvest","bonus":1.8000000000000012},{"rt":508.1000000014901,"stimulus":"\n                    <p><b>Action: <em>harvest</em></b></p>\n                    <p>This is the bee that you just saw.</p>\n                    <img src=\"bees-with-color/bee-B2SM.svg\" width=\"200\">\n                    <p><span class=\"greenText\"><b>Successful harvest!</b></span><br>Your pay has increased by $0.02. Your bonus pay is now $1.16.</p>\n            ","response":0,"trial_type":"html-button-response","trial_index":110,"time_elapsed":393939,"internal_node_id":"0.0-4.0-1.51","subject_id":"5d29412ab711e9001ab74ece","study_id":"6197b3f67c2b5cd3b6d9596a","session_id":"619be31f219a978935a12dd5","condition":"full-information","relevant_dimensions":["wings","pattern"],"bee_group":{"antennae":"X","wings":"1","pattern":"S","legs":"X"},"bonus":1.8000000000000012},{"rt":1114.3999999985099,"stimulus":"bees-with-color/bee-B1SF.svg","response":1,"trial_type":"image-button-response","trial_index":111,"time_elapsed":395054,"internal_node_id":"0.0-4.0-0.52","subject_id":"5d29412ab711e9001ab74ece","study_id":"6197b3f67c2b5cd3b6d9596a","session_id":"619be31f219a978935a12dd5","condition":"full-information","relevant_dimensions":["wings","pattern"],"bee_group":{"antennae":"X","wings":"1","pattern":"S","legs":"X"},"action":"avoid","summary":"good-avoid","bonus":1.8000000000000012},{"rt":661.1999999992549,"stimulus":"\n                    <p><b>Action: <em>avoid</em></b></p>\n                    <p>This is the bee that you just saw.</p>\n                    <img src=\"bees-with-color/bee-B1SF.svg\" width=\"200\">\n                    <p><span class=\"greenText\">Good choice!</span>  This bee would have stung you.<br>Your bonus pay is unchanged, and remains at $1.16.</p>\n            ","response":0,"trial_type":"html-button-response","trial_index":112,"time_elapsed":395716,"internal_node_id":"0.0-4.0-1.52","subject_id":"5d29412ab711e9001ab74ece","study_id":"6197b3f67c2b5cd3b6d9596a","session_id":"619be31f219a978935a12dd5","condition":"full-information","relevant_dimensions":["wings","pattern"],"bee_group":{"antennae":"X","wings":"1","pattern":"S","legs":"X"},"bonus":1.8000000000000012},{"rt":3480.39999999851,"stimulus":"bees-with-color/bee-A2DM.svg","response":0,"trial_type":"image-button-response","trial_index":113,"time_elapsed":399197,"internal_node_id":"0.0-4.0-0.53","subject_id":"5d29412ab711e9001ab74ece","study_id":"6197b3f67c2b5cd3b6d9596a","session_id":"619be31f219a978935a12dd5","condition":"full-information","relevant_dimensions":["wings","pattern"],"bee_group":{"antennae":"X","wings":"1","pattern":"S","legs":"X"},"action":"harvest","summary":"good-harvest","bonus":1.8000000000000012},{"rt":632.0999999977648,"stimulus":"\n                    <p><b>Action: <em>harvest</em></b></p>\n                    <p>This is the bee that you just saw.</p>\n                    <img src=\"bees-with-color/bee-A2DM.svg\" width=\"200\">\n                    <p><span class=\"greenText\"><b>Successful harvest!</b></span><br>Your pay has increased by $0.02. Your bonus pay is now $1.18.</p>\n            ","response":0,"trial_type":"html-button-response","trial_index":114,"time_elapsed":399829,"internal_node_id":"0.0-4.0-1.53","subject_id":"5d29412ab711e9001ab74ece","study_id":"6197b3f67c2b5cd3b6d9596a","session_id":"619be31f219a978935a12dd5","condition":"full-information","relevant_dimensions":["wings","pattern"],"bee_group":{"antennae":"X","wings":"1","pattern":"S","legs":"X"},"bonus":1.8000000000000012},{"rt":1172.4000000022352,"stimulus":"bees-with-color/bee-A2SF.svg","response":0,"trial_type":"image-button-response","trial_index":115,"time_elapsed":401003,"internal_node_id":"0.0-4.0-0.54","subject_id":"5d29412ab711e9001ab74ece","study_id":"6197b3f67c2b5cd3b6d9596a","session_id":"619be31f219a978935a12dd5","condition":"full-information","relevant_dimensions":["wings","pattern"],"bee_group":{"antennae":"X","wings":"1","pattern":"S","legs":"X"},"action":"harvest","summary":"good-harvest","bonus":1.8000000000000012},{"rt":514.1000000014901,"stimulus":"\n                    <p><b>Action: <em>harvest</em></b></p>\n                    <p>This is the bee that you just saw.</p>\n                    <img src=\"bees-with-color/bee-A2SF.svg\" width=\"200\">\n                    <p><span class=\"greenText\"><b>Successful harvest!</b></span><br>Your pay has increased by $0.02. Your bonus pay is now $1.20.</p>\n            ","response":0,"trial_type":"html-button-response","trial_index":116,"time_elapsed":401517,"internal_node_id":"0.0-4.0-1.54","subject_id":"5d29412ab711e9001ab74ece","study_id":"6197b3f67c2b5cd3b6d9596a","session_id":"619be31f219a978935a12dd5","condition":"full-information","relevant_dimensions":["wings","pattern"],"bee_group":{"antennae":"X","wings":"1","pattern":"S","legs":"X"},"bonus":1.8000000000000012},{"rt":1573.199999999255,"stimulus":"bees-with-color/bee-A1SM.svg","response":1,"trial_type":"image-button-response","trial_index":117,"time_elapsed":403091,"internal_node_id":"0.0-4.0-0.55","subject_id":"5d29412ab711e9001ab74ece","study_id":"6197b3f67c2b5cd3b6d9596a","session_id":"619be31f219a978935a12dd5","condition":"full-information","relevant_dimensions":["wings","pattern"],"bee_group":{"antennae":"X","wings":"1","pattern":"S","legs":"X"},"action":"avoid","summary":"good-avoid","bonus":1.8000000000000012},{"rt":615.3000000007451,"stimulus":"\n                    <p><b>Action: <em>avoid</em></b></p>\n                    <p>This is the bee that you just saw.</p>\n                    <img src=\"bees-with-color/bee-A1SM.svg\" width=\"200\">\n                    <p><span class=\"greenText\">Good choice!</span>  This bee would have stung you.<br>Your bonus pay is unchanged, and remains at $1.20.</p>\n            ","response":0,"trial_type":"html-button-response","trial_index":118,"time_elapsed":403708,"internal_node_id":"0.0-4.0-1.55","subject_id":"5d29412ab711e9001ab74ece","study_id":"6197b3f67c2b5cd3b6d9596a","session_id":"619be31f219a978935a12dd5","condition":"full-information","relevant_dimensions":["wings","pattern"],"bee_group":{"antennae":"X","wings":"1","pattern":"S","legs":"X"},"bonus":1.8000000000000012},{"rt":1380.199999999255,"stimulus":"bees-with-color/bee-A2DF.svg","response":0,"trial_type":"image-button-response","trial_index":119,"time_elapsed":405089,"internal_node_id":"0.0-4.0-0.56","subject_id":"5d29412ab711e9001ab74ece","study_id":"6197b3f67c2b5cd3b6d9596a","session_id":"619be31f219a978935a12dd5","condition":"full-information","relevant_dimensions":["wings","pattern"],"bee_group":{"antennae":"X","wings":"1","pattern":"S","legs":"X"},"action":"harvest","summary":"good-harvest","bonus":1.8000000000000012},{"rt":526.1999999992549,"stimulus":"\n                    <p><b>Action: <em>harvest</em></b></p>\n                    <p>This is the bee that you just saw.</p>\n                    <img src=\"bees-with-color/bee-A2DF.svg\" width=\"200\">\n                    <p><span class=\"greenText\"><b>Successful harvest!</b></span><br>Your pay has increased by $0.02. Your bonus pay is now $1.22.</p>\n            ","response":0,"trial_type":"html-button-response","trial_index":120,"time_elapsed":405616,"internal_node_id":"0.0-4.0-1.56","subject_id":"5d29412ab711e9001ab74ece","study_id":"6197b3f67c2b5cd3b6d9596a","session_id":"619be31f219a978935a12dd5","condition":"full-information","relevant_dimensions":["wings","pattern"],"bee_group":{"antennae":"X","wings":"1","pattern":"S","legs":"X"},"bonus":1.8000000000000012},{"rt":1237.2999999970198,"stimulus":"bees-with-color/bee-A1SF.svg","response":1,"trial_type":"image-button-response","trial_index":121,"time_elapsed":406854,"internal_node_id":"0.0-4.0-0.57","subject_id":"5d29412ab711e9001ab74ece","study_id":"6197b3f67c2b5cd3b6d9596a","session_id":"619be31f219a978935a12dd5","condition":"full-information","relevant_dimensions":["wings","pattern"],"bee_group":{"antennae":"X","wings":"1","pattern":"S","legs":"X"},"action":"avoid","summary":"good-avoid","bonus":1.8000000000000012},{"rt":626.1999999992549,"stimulus":"\n                    <p><b>Action: <em>avoid</em></b></p>\n                    <p>This is the bee that you just saw.</p>\n                    <img src=\"bees-with-color/bee-A1SF.svg\" width=\"200\">\n                    <p><span class=\"greenText\">Good choice!</span>  This bee would have stung you.<br>Your bonus pay is unchanged, and remains at $1.22.</p>\n            ","response":0,"trial_type":"html-button-response","trial_index":122,"time_elapsed":407481,"internal_node_id":"0.0-4.0-1.57","subject_id":"5d29412ab711e9001ab74ece","study_id":"6197b3f67c2b5cd3b6d9596a","session_id":"619be31f219a978935a12dd5","condition":"full-information","relevant_dimensions":["wings","pattern"],"bee_group":{"antennae":"X","wings":"1","pattern":"S","legs":"X"},"bonus":1.8000000000000012},{"rt":1301.3999999985099,"stimulus":"bees-with-color/bee-A2SM.svg","response":0,"trial_type":"image-button-response","trial_index":123,"time_elapsed":408783,"internal_node_id":"0.0-4.0-0.58","subject_id":"5d29412ab711e9001ab74ece","study_id":"6197b3f67c2b5cd3b6d9596a","session_id":"619be31f219a978935a12dd5","condition":"full-information","relevant_dimensions":["wings","pattern"],"bee_group":{"antennae":"X","wings":"1","pattern":"S","legs":"X"},"action":"harvest","summary":"good-harvest","bonus":1.8000000000000012},{"rt":565.1999999992549,"stimulus":"\n                    <p><b>Action: <em>harvest</em></b></p>\n                    <p>This is the bee that you just saw.</p>\n                    <img src=\"bees-with-color/bee-A2SM.svg\" width=\"200\">\n                    <p><span class=\"greenText\"><b>Successful harvest!</b></span><br>Your pay has increased by $0.02. Your bonus pay is now $1.24.</p>\n            ","response":0,"trial_type":"html-button-response","trial_index":124,"time_elapsed":409349,"internal_node_id":"0.0-4.0-1.58","subject_id":"5d29412ab711e9001ab74ece","study_id":"6197b3f67c2b5cd3b6d9596a","session_id":"619be31f219a978935a12dd5","condition":"full-information","relevant_dimensions":["wings","pattern"],"bee_group":{"antennae":"X","wings":"1","pattern":"S","legs":"X"},"bonus":1.8000000000000012},{"rt":1345,"stimulus":"bees-with-color/bee-B1SM.svg","response":1,"trial_type":"image-button-response","trial_index":125,"time_elapsed":410695,"internal_node_id":"0.0-4.0-0.59","subject_id":"5d29412ab711e9001ab74ece","study_id":"6197b3f67c2b5cd3b6d9596a","session_id":"619be31f219a978935a12dd5","condition":"full-information","relevant_dimensions":["wings","pattern"],"bee_group":{"antennae":"X","wings":"1","pattern":"S","legs":"X"},"action":"avoid","summary":"good-avoid","bonus":1.8000000000000012},{"rt":574.1000000014901,"stimulus":"\n                    <p><b>Action: <em>avoid</em></b></p>\n                    <p>This is the bee that you just saw.</p>\n                    <img src=\"bees-with-color/bee-B1SM.svg\" width=\"200\">\n                    <p><span class=\"greenText\">Good choice!</span>  This bee would have stung you.<br>Your bonus pay is unchanged, and remains at $1.24.</p>\n            ","response":0,"trial_type":"html-button-response","trial_index":126,"time_elapsed":411270,"internal_node_id":"0.0-4.0-1.59","subject_id":"5d29412ab711e9001ab74ece","study_id":"6197b3f67c2b5cd3b6d9596a","session_id":"619be31f219a978935a12dd5","condition":"full-information","relevant_dimensions":["wings","pattern"],"bee_group":{"antennae":"X","wings":"1","pattern":"S","legs":"X"},"bonus":1.8000000000000012},{"rt":1128.1000000014901,"stimulus":"bees-with-color/bee-B2DM.svg","response":0,"trial_type":"image-button-response","trial_index":127,"time_elapsed":412399,"internal_node_id":"0.0-4.0-0.60","subject_id":"5d29412ab711e9001ab74ece","study_id":"6197b3f67c2b5cd3b6d9596a","session_id":"619be31f219a978935a12dd5","condition":"full-information","relevant_dimensions":["wings","pattern"],"bee_group":{"antennae":"X","wings":"1","pattern":"S","legs":"X"},"action":"harvest","summary":"good-harvest","bonus":1.8000000000000012},{"rt":582,"stimulus":"\n                    <p><b>Action: <em>harvest</em></b></p>\n                    <p>This is the bee that you just saw.</p>\n                    <img src=\"bees-with-color/bee-B2DM.svg\" width=\"200\">\n                    <p><span class=\"greenText\"><b>Successful harvest!</b></span><br>Your pay has increased by $0.02. Your bonus pay is now $1.26.</p>\n            ","response":0,"trial_type":"html-button-response","trial_index":128,"time_elapsed":412982,"internal_node_id":"0.0-4.0-1.60","subject_id":"5d29412ab711e9001ab74ece","study_id":"6197b3f67c2b5cd3b6d9596a","session_id":"619be31f219a978935a12dd5","condition":"full-information","relevant_dimensions":["wings","pattern"],"bee_group":{"antennae":"X","wings":"1","pattern":"S","legs":"X"},"bonus":1.8000000000000012},{"rt":1274.300000000745,"stimulus":"bees-with-color/bee-B2SF.svg","response":0,"trial_type":"image-button-response","trial_index":129,"time_elapsed":414257,"internal_node_id":"0.0-4.0-0.61","subject_id":"5d29412ab711e9001ab74ece","study_id":"6197b3f67c2b5cd3b6d9596a","session_id":"619be31f219a978935a12dd5","condition":"full-information","relevant_dimensions":["wings","pattern"],"bee_group":{"antennae":"X","wings":"1","pattern":"S","legs":"X"},"action":"harvest","summary":"good-harvest","bonus":1.8000000000000012},{"rt":597.4000000022352,"stimulus":"\n                    <p><b>Action: <em>harvest</em></b></p>\n                    <p>This is the bee that you just saw.</p>\n                    <img src=\"bees-with-color/bee-B2SF.svg\" width=\"200\">\n                    <p><span class=\"greenText\"><b>Successful harvest!</b></span><br>Your pay has increased by $0.02. Your bonus pay is now $1.28.</p>\n            ","response":0,"trial_type":"html-button-response","trial_index":130,"time_elapsed":414855,"internal_node_id":"0.0-4.0-1.61","subject_id":"5d29412ab711e9001ab74ece","study_id":"6197b3f67c2b5cd3b6d9596a","session_id":"619be31f219a978935a12dd5","condition":"full-information","relevant_dimensions":["wings","pattern"],"bee_group":{"antennae":"X","wings":"1","pattern":"S","legs":"X"},"bonus":1.8000000000000012},{"rt":1813.300000000745,"stimulus":"bees-with-color/bee-A1DM.svg","response":0,"trial_type":"image-button-response","trial_index":131,"time_elapsed":416669,"internal_node_id":"0.0-4.0-0.62","subject_id":"5d29412ab711e9001ab74ece","study_id":"6197b3f67c2b5cd3b6d9596a","session_id":"619be31f219a978935a12dd5","condition":"full-information","relevant_dimensions":["wings","pattern"],"bee_group":{"antennae":"X","wings":"1","pattern":"S","legs":"X"},"action":"harvest","summary":"good-harvest","bonus":1.8000000000000012},{"rt":524.2000000029802,"stimulus":"\n                    <p><b>Action: <em>harvest</em></b></p>\n                    <p>This is the bee that you just saw.</p>\n                    <img src=\"bees-with-color/bee-A1DM.svg\" width=\"200\">\n                    <p><span class=\"greenText\"><b>Successful harvest!</b></span><br>Your pay has increased by $0.02. Your bonus pay is now $1.30.</p>\n            ","response":0,"trial_type":"html-button-response","trial_index":132,"time_elapsed":417194,"internal_node_id":"0.0-4.0-1.62","subject_id":"5d29412ab711e9001ab74ece","study_id":"6197b3f67c2b5cd3b6d9596a","session_id":"619be31f219a978935a12dd5","condition":"full-information","relevant_dimensions":["wings","pattern"],"bee_group":{"antennae":"X","wings":"1","pattern":"S","legs":"X"},"bonus":1.8000000000000012},{"rt":1537.300000000745,"stimulus":"bees-with-color/bee-B1DF.svg","response":0,"trial_type":"image-button-response","trial_index":133,"time_elapsed":418732,"internal_node_id":"0.0-4.0-0.63","subject_id":"5d29412ab711e9001ab74ece","study_id":"6197b3f67c2b5cd3b6d9596a","session_id":"619be31f219a978935a12dd5","condition":"full-information","relevant_dimensions":["wings","pattern"],"bee_group":{"antennae":"X","wings":"1","pattern":"S","legs":"X"},"action":"harvest","summary":"good-harvest","bonus":1.8000000000000012},{"rt":578.3000000007451,"stimulus":"\n                    <p><b>Action: <em>harvest</em></b></p>\n                    <p>This is the bee that you just saw.</p>\n                    <img src=\"bees-with-color/bee-B1DF.svg\" width=\"200\">\n                    <p><span class=\"greenText\"><b>Successful harvest!</b></span><br>Your pay has increased by $0.02. Your bonus pay is now $1.32.</p>\n            ","response":0,"trial_type":"html-button-response","trial_index":134,"time_elapsed":419311,"internal_node_id":"0.0-4.0-1.63","subject_id":"5d29412ab711e9001ab74ece","study_id":"6197b3f67c2b5cd3b6d9596a","session_id":"619be31f219a978935a12dd5","condition":"full-information","relevant_dimensions":["wings","pattern"],"bee_group":{"antennae":"X","wings":"1","pattern":"S","legs":"X"},"bonus":1.8000000000000012},{"rt":4810.800000000745,"stimulus":"You have completed the first part of this experiment.<br><br>You will now begin a shorter second part, in which you will receive no feedback.<br>The same rules regarding bonus pay apply.<br><br>Press any key to begin.","response":"h","trial_type":"html-keyboard-response","trial_index":135,"time_elapsed":424122,"internal_node_id":"0.0-5.0","subject_id":"5d29412ab711e9001ab74ece","study_id":"6197b3f67c2b5cd3b6d9596a","session_id":"619be31f219a978935a12dd5","condition":"full-information","relevant_dimensions":["wings","pattern"],"bee_group":{"antennae":"X","wings":"1","pattern":"S","legs":"X"},"bonus":1.8000000000000012},{"rt":5245.29999999702,"stimulus":"bees-with-color/bee-B2SF.svg","response":0,"trial_type":"image-button-response","trial_index":136,"time_elapsed":429371,"internal_node_id":"0.0-6.0-0.0","subject_id":"5d29412ab711e9001ab74ece","study_id":"6197b3f67c2b5cd3b6d9596a","session_id":"619be31f219a978935a12dd5","condition":"full-information","relevant_dimensions":["wings","pattern"],"bee_group":{"antennae":"X","wings":"1","pattern":"S","legs":"X"},"bonus":1.8000000000000012},{"rt":3191.699999999255,"stimulus":"bees-with-color/bee-A1DF.svg","response":0,"trial_type":"image-button-response","trial_index":137,"time_elapsed":432564,"internal_node_id":"0.0-6.0-0.1","subject_id":"5d29412ab711e9001ab74ece","study_id":"6197b3f67c2b5cd3b6d9596a","session_id":"619be31f219a978935a12dd5","condition":"full-information","relevant_dimensions":["wings","pattern"],"bee_group":{"antennae":"X","wings":"1","pattern":"S","legs":"X"},"bonus":1.8000000000000012},{"rt":1196.699999999255,"stimulus":"bees-with-color/bee-B1SF.svg","response":1,"trial_type":"image-button-response","trial_index":138,"time_elapsed":433762,"internal_node_id":"0.0-6.0-0.2","subject_id":"5d29412ab711e9001ab74ece","study_id":"6197b3f67c2b5cd3b6d9596a","session_id":"619be31f219a978935a12dd5","condition":"full-information","relevant_dimensions":["wings","pattern"],"bee_group":{"antennae":"X","wings":"1","pattern":"S","legs":"X"},"bonus":1.8000000000000012},{"rt":1620,"stimulus":"bees-with-color/bee-A1SM.svg","response":1,"trial_type":"image-button-response","trial_index":139,"time_elapsed":435383,"internal_node_id":"0.0-6.0-0.3","subject_id":"5d29412ab711e9001ab74ece","study_id":"6197b3f67c2b5cd3b6d9596a","session_id":"619be31f219a978935a12dd5","condition":"full-information","relevant_dimensions":["wings","pattern"],"bee_group":{"antennae":"X","wings":"1","pattern":"S","legs":"X"},"bonus":1.8000000000000012},{"rt":1062.9000000022352,"stimulus":"bees-with-color/bee-A2DF.svg","response":0,"trial_type":"image-button-response","trial_index":140,"time_elapsed":436447,"internal_node_id":"0.0-6.0-0.4","subject_id":"5d29412ab711e9001ab74ece","study_id":"6197b3f67c2b5cd3b6d9596a","session_id":"619be31f219a978935a12dd5","condition":"full-information","relevant_dimensions":["wings","pattern"],"bee_group":{"antennae":"X","wings":"1","pattern":"S","legs":"X"},"bonus":1.8000000000000012},{"rt":910.1000000014901,"stimulus":"bees-with-color/bee-B2DF.svg","response":0,"trial_type":"image-button-response","trial_index":141,"time_elapsed":437358,"internal_node_id":"0.0-6.0-0.5","subject_id":"5d29412ab711e9001ab74ece","study_id":"6197b3f67c2b5cd3b6d9596a","session_id":"619be31f219a978935a12dd5","condition":"full-information","relevant_dimensions":["wings","pattern"],"bee_group":{"antennae":"X","wings":"1","pattern":"S","legs":"X"},"bonus":1.8000000000000012},{"rt":1828.800000000745,"stimulus":"bees-with-color/bee-A2DM.svg","response":0,"trial_type":"image-button-response","trial_index":142,"time_elapsed":439188,"internal_node_id":"0.0-6.0-0.6","subject_id":"5d29412ab711e9001ab74ece","study_id":"6197b3f67c2b5cd3b6d9596a","session_id":"619be31f219a978935a12dd5","condition":"full-information","relevant_dimensions":["wings","pattern"],"bee_group":{"antennae":"X","wings":"1","pattern":"S","legs":"X"},"bonus":1.8000000000000012},{"rt":1142,"stimulus":"bees-with-color/bee-B1DM.svg","response":0,"trial_type":"image-button-response","trial_index":143,"time_elapsed":440331,"internal_node_id":"0.0-6.0-0.7","subject_id":"5d29412ab711e9001ab74ece","study_id":"6197b3f67c2b5cd3b6d9596a","session_id":"619be31f219a978935a12dd5","condition":"full-information","relevant_dimensions":["wings","pattern"],"bee_group":{"antennae":"X","wings":"1","pattern":"S","legs":"X"},"bonus":1.8000000000000012},{"rt":1166,"stimulus":"bees-with-color/bee-B2DM.svg","response":0,"trial_type":"image-button-response","trial_index":144,"time_elapsed":441498,"internal_node_id":"0.0-6.0-0.8","subject_id":"5d29412ab711e9001ab74ece","study_id":"6197b3f67c2b5cd3b6d9596a","session_id":"619be31f219a978935a12dd5","condition":"full-information","relevant_dimensions":["wings","pattern"],"bee_group":{"antennae":"X","wings":"1","pattern":"S","legs":"X"},"bonus":1.8000000000000012},{"rt":1273,"stimulus":"bees-with-color/bee-B1SM.svg","response":1,"trial_type":"image-button-response","trial_index":145,"time_elapsed":442772,"internal_node_id":"0.0-6.0-0.9","subject_id":"5d29412ab711e9001ab74ece","study_id":"6197b3f67c2b5cd3b6d9596a","session_id":"619be31f219a978935a12dd5","condition":"full-information","relevant_dimensions":["wings","pattern"],"bee_group":{"antennae":"X","wings":"1","pattern":"S","legs":"X"},"bonus":1.8000000000000012},{"rt":1168,"stimulus":"bees-with-color/bee-A2SF.svg","response":0,"trial_type":"image-button-response","trial_index":146,"time_elapsed":443941,"internal_node_id":"0.0-6.0-0.10","subject_id":"5d29412ab711e9001ab74ece","study_id":"6197b3f67c2b5cd3b6d9596a","session_id":"619be31f219a978935a12dd5","condition":"full-information","relevant_dimensions":["wings","pattern"],"bee_group":{"antennae":"X","wings":"1","pattern":"S","legs":"X"},"bonus":1.8000000000000012},{"rt":1153,"stimulus":"bees-with-color/bee-A1DM.svg","response":0,"trial_type":"image-button-response","trial_index":147,"time_elapsed":445095,"internal_node_id":"0.0-6.0-0.11","subject_id":"5d29412ab711e9001ab74ece","study_id":"6197b3f67c2b5cd3b6d9596a","session_id":"619be31f219a978935a12dd5","condition":"full-information","relevant_dimensions":["wings","pattern"],"bee_group":{"antennae":"X","wings":"1","pattern":"S","legs":"X"},"bonus":1.8000000000000012},{"rt":1106.9000000022352,"stimulus":"bees-with-color/bee-A1SF.svg","response":1,"trial_type":"image-button-response","trial_index":148,"time_elapsed":446203,"internal_node_id":"0.0-6.0-0.12","subject_id":"5d29412ab711e9001ab74ece","study_id":"6197b3f67c2b5cd3b6d9596a","session_id":"619be31f219a978935a12dd5","condition":"full-information","relevant_dimensions":["wings","pattern"],"bee_group":{"antennae":"X","wings":"1","pattern":"S","legs":"X"},"bonus":1.8000000000000012},{"rt":1661.800000000745,"stimulus":"bees-with-color/bee-B1DF.svg","response":0,"trial_type":"image-button-response","trial_index":149,"time_elapsed":447866,"internal_node_id":"0.0-6.0-0.13","subject_id":"5d29412ab711e9001ab74ece","study_id":"6197b3f67c2b5cd3b6d9596a","session_id":"619be31f219a978935a12dd5","condition":"full-information","relevant_dimensions":["wings","pattern"],"bee_group":{"antennae":"X","wings":"1","pattern":"S","legs":"X"},"bonus":1.8000000000000012},{"rt":2400,"stimulus":"bees-with-color/bee-A2SM.svg","response":0,"trial_type":"image-button-response","trial_index":150,"time_elapsed":450267,"internal_node_id":"0.0-6.0-0.14","subject_id":"5d29412ab711e9001ab74ece","study_id":"6197b3f67c2b5cd3b6d9596a","session_id":"619be31f219a978935a12dd5","condition":"full-information","relevant_dimensions":["wings","pattern"],"bee_group":{"antennae":"X","wings":"1","pattern":"S","legs":"X"},"bonus":1.8000000000000012},{"rt":1288,"stimulus":"bees-with-color/bee-B2SM.svg","response":0,"trial_type":"image-button-response","trial_index":151,"time_elapsed":451556,"internal_node_id":"0.0-6.0-0.15","subject_id":"5d29412ab711e9001ab74ece","study_id":"6197b3f67c2b5cd3b6d9596a","session_id":"619be31f219a978935a12dd5","condition":"full-information","relevant_dimensions":["wings","pattern"],"bee_group":{"antennae":"X","wings":"1","pattern":"S","legs":"X"},"bonus":1.8000000000000012},{"rt":1619.0999999977648,"stimulus":"bees-with-color/bee-B2SF.svg","response":0,"trial_type":"image-button-response","trial_index":152,"time_elapsed":453176,"internal_node_id":"0.0-6.0-0.16","subject_id":"5d29412ab711e9001ab74ece","study_id":"6197b3f67c2b5cd3b6d9596a","session_id":"619be31f219a978935a12dd5","condition":"full-information","relevant_dimensions":["wings","pattern"],"bee_group":{"antennae":"X","wings":"1","pattern":"S","legs":"X"},"bonus":1.8000000000000012},{"rt":1067.1000000014901,"stimulus":"bees-with-color/bee-B2DF.svg","response":0,"trial_type":"image-button-response","trial_index":153,"time_elapsed":454244,"internal_node_id":"0.0-6.0-0.17","subject_id":"5d29412ab711e9001ab74ece","study_id":"6197b3f67c2b5cd3b6d9596a","session_id":"619be31f219a978935a12dd5","condition":"full-information","relevant_dimensions":["wings","pattern"],"bee_group":{"antennae":"X","wings":"1","pattern":"S","legs":"X"},"bonus":1.8000000000000012},{"rt":1814.2999999970198,"stimulus":"bees-with-color/bee-A1SM.svg","response":1,"trial_type":"image-button-response","trial_index":154,"time_elapsed":456059,"internal_node_id":"0.0-6.0-0.18","subject_id":"5d29412ab711e9001ab74ece","study_id":"6197b3f67c2b5cd3b6d9596a","session_id":"619be31f219a978935a12dd5","condition":"full-information","relevant_dimensions":["wings","pattern"],"bee_group":{"antennae":"X","wings":"1","pattern":"S","legs":"X"},"bonus":1.8000000000000012},{"rt":1014.1999999992549,"stimulus":"bees-with-color/bee-A2DF.svg","response":0,"trial_type":"image-button-response","trial_index":155,"time_elapsed":457074,"internal_node_id":"0.0-6.0-0.19","subject_id":"5d29412ab711e9001ab74ece","study_id":"6197b3f67c2b5cd3b6d9596a","session_id":"619be31f219a978935a12dd5","condition":"full-information","relevant_dimensions":["wings","pattern"],"bee_group":{"antennae":"X","wings":"1","pattern":"S","legs":"X"},"bonus":1.8000000000000012},{"rt":1449.1000000014901,"stimulus":"bees-with-color/bee-B1DM.svg","response":0,"trial_type":"image-button-response","trial_index":156,"time_elapsed":458524,"internal_node_id":"0.0-6.0-0.20","subject_id":"5d29412ab711e9001ab74ece","study_id":"6197b3f67c2b5cd3b6d9596a","session_id":"619be31f219a978935a12dd5","condition":"full-information","relevant_dimensions":["wings","pattern"],"bee_group":{"antennae":"X","wings":"1","pattern":"S","legs":"X"},"bonus":1.8000000000000012},{"rt":945,"stimulus":"bees-with-color/bee-B2DM.svg","response":0,"trial_type":"image-button-response","trial_index":157,"time_elapsed":459470,"internal_node_id":"0.0-6.0-0.21","subject_id":"5d29412ab711e9001ab74ece","study_id":"6197b3f67c2b5cd3b6d9596a","session_id":"619be31f219a978935a12dd5","condition":"full-information