[{"success":true,"trial_type":"fullscreen","trial_index":0,"time_elapsed":2937,"internal_node_id":"0.0-0.0","subject_id":"613a413d1ad3d704a4b77694","study_id":"6197b3f67c2b5cd3b6d9596a","session_id":"6197b88b8521cf7b15062bab","condition":"contingent","relevant_dimensions":["antennae","wings"],"bee_group":{"antennae":"A","wings":"1","pattern":"X","legs":"X"},"bonus":1.140000000000001},{"success":true,"timeout":false,"failed_images":[],"failed_audio":[],"failed_video":[],"trial_type":"preload","trial_index":1,"time_elapsed":4501,"internal_node_id":"0.0-1.0","subject_id":"613a413d1ad3d704a4b77694","study_id":"6197b3f67c2b5cd3b6d9596a","session_id":"6197b88b8521cf7b15062bab","condition":"contingent","relevant_dimensions":["antennae","wings"],"bee_group":{"antennae":"A","wings":"1","pattern":"X","legs":"X"},"bonus":1.140000000000001},{"rt":1950.999999999999,"stimulus":"Welcome! Press any key to begin.","response":" ","trial_type":"html-keyboard-response","trial_index":2,"time_elapsed":6454,"internal_node_id":"0.0-2.0","subject_id":"613a413d1ad3d704a4b77694","study_id":"6197b3f67c2b5cd3b6d9596a","session_id":"6197b88b8521cf7b15062bab","condition":"contingent","relevant_dimensions":["antennae","wings"],"bee_group":{"antennae":"A","wings":"1","pattern":"X","legs":"X"},"bonus":1.140000000000001},{"view_history":[{"page_index":0,"viewing_time":4561},{"page_index":1,"viewing_time":13902.000000000004},{"page_index":2,"viewing_time":7792.999999999996},{"page_index":3,"viewing_time":12496},{"page_index":4,"viewing_time":8849},{"page_index":5,"viewing_time":6632},{"page_index":6,"viewing_time":6031},{"page_index":7,"viewing_time":4178},{"page_index":6,"viewing_time":2058},{"page_index":7,"viewing_time":4081.0000000000146},{"page_index":8,"viewing_time":2815.9999999999854},{"page_index":9,"viewing_time":2848},{"page_index":10,"viewing_time":3307},{"page_index":11,"viewing_time":5819},{"page_index":12,"viewing_time":24459},{"page_index":13,"viewing_time":1380},{"page_index":14,"viewing_time":1961}],"rt":113171,"trial_type":"instructions","trial_index":3,"time_elapsed":119624,"internal_node_id":"0.0-3.0-0.0","subject_id":"613a413d1ad3d704a4b77694","study_id":"6197b3f67c2b5cd3b6d9596a","session_id":"6197b88b8521cf7b15062bab","condition":"contingent","relevant_dimensions":["antennae","wings"],"bee_group":{"antennae":"A","wings":"1","pattern":"X","legs":"X"},"bonus":1.140000000000001},{"rt":12088,"response":{"Q0":["Two or six legs","Stripes or spots on body","Single or double wings","Antennae or no antennae"]},"question_order":[0],"trial_type":"survey-multi-select","trial_index":4,"time_elapsed":131719,"internal_node_id":"0.0-3.0-1.0","subject_id":"613a413d1ad3d704a4b77694","study_id":"6197b3f67c2b5cd3b6d9596a","session_id":"6197b88b8521cf7b15062bab","condition":"contingent","relevant_dimensions":["antennae","wings"],"bee_group":{"antennae":"A","wings":"1","pattern":"X","legs":"X"},"correct":true,"bonus":1.140000000000001},{"rt":33731,"response":{"Q1":"No.","Q2":"Based on the four features of the bee.","Q3":"You do not learn if it was friendly or dangerous, and do not alter your bonus."},"question_order":[0,1,2],"trial_type":"survey-multi-choice","trial_index":5,"time_elapsed":165456,"internal_node_id":"0.0-3.0-2.0","subject_id":"613a413d1ad3d704a4b77694","study_id":"6197b3f67c2b5cd3b6d9596a","session_id":"6197b88b8521cf7b15062bab","condition":"contingent","relevant_dimensions":["antennae","wings"],"bee_group":{"antennae":"A","wings":"1","pattern":"X","legs":"X"},"correct":true,"bonus":1.140000000000001},{"rt":3349,"stimulus":"<p>Congrats, you got everything right<br>When you're ready, click the button below to continue to the experiment.</p>","response":0,"trial_type":"html-button-response","trial_index":6,"time_elapsed":168809,"internal_node_id":"0.0-3.0-3.0","subject_id":"613a413d1ad3d704a4b77694","study_id":"6197b3f67c2b5cd3b6d9596a","session_id":"6197b88b8521cf7b15062bab","condition":"contingent","relevant_dimensions":["antennae","wings"],"bee_group":{"antennae":"A","wings":"1","pattern":"X","legs":"X"},"bonus":1.140000000000001},{"rt":4236.000000000029,"stimulus":"bees-with-color/bee-B2DF.svg","response":0,"trial_type":"image-button-response","trial_index":7,"time_elapsed":173047,"internal_node_id":"0.0-4.0-0.0","subject_id":"613a413d1ad3d704a4b77694","study_id":"6197b3f67c2b5cd3b6d9596a","session_id":"6197b88b8521cf7b15062bab","condition":"contingent","relevant_dimensions":["antennae","wings"],"bee_group":{"antennae":"A","wings":"1","pattern":"X","legs":"X"},"action":"harvest","summary":"good-harvest","bonus":1.140000000000001},{"rt":7742.999999999971,"stimulus":"\n                    <p><b>Action: <em>harvest</em></b></p>\n                    <p>This is the bee that you just saw.</p>\n                    <img src=\"bees-with-color/bee-B2DF.svg\" width=\"200\">\n                    <p><span class=\"greenText\"><b>Successful harvest!</b></span><br>Your pay has increased by $0.02. Your bonus pay is now $0.56.</p>\n            ","response":0,"trial_type":"html-button-response","trial_index":8,"time_elapsed":180796,"internal_node_id":"0.0-4.0-1.0","subject_id":"613a413d1ad3d704a4b77694","study_id":"6197b3f67c2b5cd3b6d9596a","session_id":"6197b88b8521cf7b15062bab","condition":"contingent","relevant_dimensions":["antennae","wings"],"bee_group":{"antennae":"A","wings":"1","pattern":"X","legs":"X"},"bonus":1.140000000000001},{"rt":4140,"stimulus":"bees-with-color/bee-A1DF.svg","response":0,"trial_type":"image-button-response","trial_index":9,"time_elapsed":184938,"internal_node_id":"0.0-4.0-0.1","subject_id":"613a413d1ad3d704a4b77694","study_id":"6197b3f67c2b5cd3b6d9596a","session_id":"6197b88b8521cf7b15062bab","condition":"contingent","relevant_dimensions":["antennae","wings"],"bee_group":{"antennae":"A","wings":"1","pattern":"X","legs":"X"},"action":"harvest","summary":"bad-harvest","bonus":1.140000000000001},{"rt":17894,"stimulus":"\n                    <p><b>Action: <em>harvest</em></b></p>\n                    <p>This is the bee that you just saw.</p>\n                    <img src=\"bees-with-color/bee-A1DF.svg\" width=\"200\">\n                    <p><span class=\"redText\">Bad choice, the bee was angry.</span><br><b>You have been stung!</b><br>Your pay has been decreased by $0.10. Your bonus pay is now $0.46.</p>\n            ","response":0,"trial_type":"html-button-response","trial_index":10,"time_elapsed":202833,"internal_node_id":"0.0-4.0-1.1","subject_id":"613a413d1ad3d704a4b77694","study_id":"6197b3f67c2b5cd3b6d9596a","session_id":"6197b88b8521cf7b15062bab","condition":"contingent","relevant_dimensions":["antennae","wings"],"bee_group":{"antennae":"A","wings":"1","pattern":"X","legs":"X"},"bonus":1.140000000000001},{"rt":6344,"stimulus":"bees-with-color/bee-B1SM.svg","response":0,"trial_type":"image-button-response","trial_index":11,"time_elapsed":209179,"internal_node_id":"0.0-4.0-0.2","subject_id":"613a413d1ad3d704a4b77694","study_id":"6197b3f67c2b5cd3b6d9596a","session_id":"6197b88b8521cf7b15062bab","condition":"contingent","relevant_dimensions":["antennae","wings"],"bee_group":{"antennae":"A","wings":"1","pattern":"X","legs":"X"},"action":"harvest","summary":"good-harvest","bonus":1.140000000000001},{"rt":3568.000000000029,"stimulus":"\n                    <p><b>Action: <em>harvest</em></b></p>\n                    <p>This is the bee that you just saw.</p>\n                    <img src=\"bees-with-color/bee-B1SM.svg\" width=\"200\">\n                    <p><span class=\"greenText\"><b>Successful harvest!</b></span><br>Your pay has increased by $0.02. Your bonus pay is now $0.48.</p>\n            ","response":0,"trial_type":"html-button-response","trial_index":12,"time_elapsed":212749,"internal_node_id":"0.0-4.0-1.2","subject_id":"613a413d1ad3d704a4b77694","study_id":"6197b3f67c2b5cd3b6d9596a","session_id":"6197b88b8521cf7b15062bab","condition":"contingent","relevant_dimensions":["antennae","wings"],"bee_group":{"antennae":"A","wings":"1","pattern":"X","legs":"X"},"bonus":1.140000000000001},{"rt":6634,"stimulus":"bees-with-color/bee-A2SM.svg","response":0,"trial_type":"image-button-response","trial_index":13,"time_elapsed":219384,"internal_node_id":"0.0-4.0-0.3","subject_id":"613a413d1ad3d704a4b77694","study_id":"6197b3f67c2b5cd3b6d9596a","session_id":"6197b88b8521cf7b15062bab","condition":"contingent","relevant_dimensions":["antennae","wings"],"bee_group":{"antennae":"A","wings":"1","pattern":"X","legs":"X"},"action":"harvest","summary":"good-harvest","bonus":1.140000000000001},{"rt":1141.999999999971,"stimulus":"\n                    <p><b>Action: <em>harvest</em></b></p>\n                    <p>This is the bee that you just saw.</p>\n                    <img src=\"bees-with-color/bee-A2SM.svg\" width=\"200\">\n                    <p><span class=\"greenText\"><b>Successful harvest!</b></span><br>Your pay has increased by $0.02. Your bonus pay is now $0.50.</p>\n            ","response":0,"trial_type":"html-button-response","trial_index":14,"time_elapsed":220528,"internal_node_id":"0.0-4.0-1.3","subject_id":"613a413d1ad3d704a4b77694","study_id":"6197b3f67c2b5cd3b6d9596a","session_id":"6197b88b8521cf7b15062bab","condition":"contingent","relevant_dimensions":["antennae","wings"],"bee_group":{"antennae":"A","wings":"1","pattern":"X","legs":"X"},"bonus":1.140000000000001},{"rt":6881,"stimulus":"bees-with-color/bee-B2DM.svg","response":0,"trial_type":"image-button-response","trial_index":15,"time_elapsed":227410,"internal_node_id":"0.0-4.0-0.4","subject_id":"613a413d1ad3d704a4b77694","study_id":"6197b3f67c2b5cd3b6d9596a","session_id":"6197b88b8521cf7b15062bab","condition":"contingent","relevant_dimensions":["antennae","wings"],"bee_group":{"antennae":"A","wings":"1","pattern":"X","legs":"X"},"action":"harvest","summary":"good-harvest","bonus":1.140000000000001},{"rt":1611.000000000029,"stimulus":"\n                    <p><b>Action: <em>harvest</em></b></p>\n                    <p>This is the bee that you just saw.</p>\n                    <img src=\"bees-with-color/bee-B2DM.svg\" width=\"200\">\n                    <p><span class=\"greenText\"><b>Successful harvest!</b></span><br>Your pay has increased by $0.02. Your bonus pay is now $0.52.</p>\n            ","response":0,"trial_type":"html-button-response","trial_index":16,"time_elapsed":229023,"internal_node_id":"0.0-4.0-1.4","subject_id":"613a413d1ad3d704a4b77694","study_id":"6197b3f67c2b5cd3b6d9596a","session_id":"6197b88b8521cf7b15062bab","condition":"contingent","relevant_dimensions":["antennae","wings"],"bee_group":{"antennae":"A","wings":"1","pattern":"X","legs":"X"},"bonus":1.140000000000001},{"rt":3416,"stimulus":"bees-with-color/bee-A1DM.svg","response":0,"trial_type":"image-button-response","trial_index":17,"time_elapsed":232440,"internal_node_id":"0.0-4.0-0.5","subject_id":"613a413d1ad3d704a4b77694","study_id":"6197b3f67c2b5cd3b6d9596a","session_id":"6197b88b8521cf7b15062bab","condition":"contingent","relevant_dimensions":["antennae","wings"],"bee_group":{"antennae":"A","wings":"1","pattern":"X","legs":"X"},"action":"harvest","summary":"bad-harvest","bonus":1.140000000000001},{"rt":5598.000000000029,"stimulus":"\n                    <p><b>Action: <em>harvest</em></b></p>\n                    <p>This is the bee that you just saw.</p>\n                    <img src=\"bees-with-color/bee-A1DM.svg\" width=\"200\">\n                    <p><span class=\"redText\">Bad choice, the bee was angry.</span><br><b>You have been stung!</b><br>Your pay has been decreased by $0.10. Your bonus pay is now $0.42.</p>\n            ","response":0,"trial_type":"html-button-response","trial_index":18,"time_elapsed":238040,"internal_node_id":"0.0-4.0-1.5","subject_id":"613a413d1ad3d704a4b77694","study_id":"6197b3f67c2b5cd3b6d9596a","session_id":"6197b88b8521cf7b15062bab","condition":"contingent","relevant_dimensions":["antennae","wings"],"bee_group":{"antennae":"A","wings":"1","pattern":"X","legs":"X"},"bonus":1.140000000000001},{"rt":4008,"stimulus":"bees-with-color/bee-B1DF.svg","response":0,"trial_type":"image-button-response","trial_index":19,"time_elapsed":242050,"internal_node_id":"0.0-4.0-0.6","subject_id":"613a413d1ad3d704a4b77694","study_id":"6197b3f67c2b5cd3b6d9596a","session_id":"6197b88b8521cf7b15062bab","condition":"contingent","relevant_dimensions":["antennae","wings"],"bee_group":{"antennae":"A","wings":"1","pattern":"X","legs":"X"},"action":"harvest","summary":"good-harvest","bonus":1.140000000000001},{"rt":1013.9999999999709,"stimulus":"\n                    <p><b>Action: <em>harvest</em></b></p>\n                    <p>This is the bee that you just saw.</p>\n                    <img src=\"bees-with-color/bee-B1DF.svg\" width=\"200\">\n                    <p><span class=\"greenText\"><b>Successful harvest!</b></span><br>Your pay has increased by $0.02. Your bonus pay is now $0.44.</p>\n            ","response":0,"trial_type":"html-button-response","trial_index":20,"time_elapsed":243066,"internal_node_id":"0.0-4.0-1.6","subject_id":"613a413d1ad3d704a4b77694","study_id":"6197b3f67c2b5cd3b6d9596a","session_id":"6197b88b8521cf7b15062bab","condition":"contingent","relevant_dimensions":["antennae","wings"],"bee_group":{"antennae":"A","wings":"1","pattern":"X","legs":"X"},"bonus":1.140000000000001},{"rt":4352,"stimulus":"bees-with-color/bee-B1SF.svg","response":0,"trial_type":"image-button-response","trial_index":21,"time_elapsed":247419,"internal_node_id":"0.0-4.0-0.7","subject_id":"613a413d1ad3d704a4b77694","study_id":"6197b3f67c2b5cd3b6d9596a","session_id":"6197b88b8521cf7b15062bab","condition":"contingent","relevant_dimensions":["antennae","wings"],"bee_group":{"antennae":"A","wings":"1","pattern":"X","legs":"X"},"action":"harvest","summary":"good-harvest","bonus":1.140000000000001},{"rt":881.9999999999709,"stimulus":"\n                    <p><b>Action: <em>harvest</em></b></p>\n                    <p>This is the bee that you just saw.</p>\n                    <img src=\"bees-with-color/bee-B1SF.svg\" width=\"200\">\n                    <p><span class=\"greenText\"><b>Successful harvest!</b></span><br>Your pay has increased by $0.02. Your bonus pay is now $0.46.</p>\n            ","response":0,"trial_type":"html-button-response","trial_index":22,"time_elapsed":248303,"internal_node_id":"0.0-4.0-1.7","subject_id":"613a413d1ad3d704a4b77694","study_id":"6197b3f67c2b5cd3b6d9596a","session_id":"6197b88b8521cf7b15062bab","condition":"contingent","relevant_dimensions":["antennae","wings"],"bee_group":{"antennae":"A","wings":"1","pattern":"X","legs":"X"},"bonus":1.140000000000001},{"rt":4263,"stimulus":"bees-with-color/bee-B2SM.svg","response":0,"trial_type":"image-button-response","trial_index":23,"time_elapsed":252568,"internal_node_id":"0.0-4.0-0.8","subject_id":"613a413d1ad3d704a4b77694","study_id":"6197b3f67c2b5cd3b6d9596a","session_id":"6197b88b8521cf7b15062bab","condition":"contingent","relevant_dimensions":["antennae","wings"],"bee_group":{"antennae":"A","wings":"1","pattern":"X","legs":"X"},"action":"harvest","summary":"good-harvest","bonus":1.140000000000001},{"rt":2164.999999999971,"stimulus":"\n                    <p><b>Action: <em>harvest</em></b></p>\n                    <p>This is the bee that you just saw.</p>\n                    <img src=\"bees-with-color/bee-B2SM.svg\" width=\"200\">\n                    <p><span class=\"greenText\"><b>Successful harvest!</b></span><br>Your pay has increased by $0.02. Your bonus pay is now $0.48.</p>\n            ","response":0,"trial_type":"html-button-response","trial_index":24,"time_elapsed":254734,"internal_node_id":"0.0-4.0-1.8","subject_id":"613a413d1ad3d704a4b77694","study_id":"6197b3f67c2b5cd3b6d9596a","session_id":"6197b88b8521cf7b15062bab","condition":"contingent","relevant_dimensions":["antennae","wings"],"bee_group":{"antennae":"A","wings":"1","pattern":"X","legs":"X"},"bonus":1.140000000000001},{"rt":4799,"stimulus":"bees-with-color/bee-A2DF.svg","response":0,"trial_type":"image-button-response","trial_index":25,"time_elapsed":259535,"internal_node_id":"0.0-4.0-0.9","subject_id":"613a413d1ad3d704a4b77694","study_id":"6197b3f67c2b5cd3b6d9596a","session_id":"6197b88b8521cf7b15062bab","condition":"contingent","relevant_dimensions":["antennae","wings"],"bee_group":{"antennae":"A","wings":"1","pattern":"X","legs":"X"},"action":"harvest","summary":"good-harvest","bonus":1.140000000000001},{"rt":1282.9999999999418,"stimulus":"\n                    <p><b>Action: <em>harvest</em></b></p>\n                    <p>This is the bee that you just saw.</p>\n                    <img src=\"bees-with-color/bee-A2DF.svg\" width=\"200\">\n                    <p><span class=\"greenText\"><b>Successful harvest!</b></span><br>Your pay has increased by $0.02. Your bonus pay is now $0.50.</p>\n            ","response":0,"trial_type":"html-button-response","trial_index":26,"time_elapsed":260820,"internal_node_id":"0.0-4.0-1.9","subject_id":"613a413d1ad3d704a4b77694","study_id":"6197b3f67c2b5cd3b6d9596a","session_id":"6197b88b8521cf7b15062bab","condition":"contingent","relevant_dimensions":["antennae","wings"],"bee_group":{"antennae":"A","wings":"1","pattern":"X","legs":"X"},"bonus":1.140000000000001},{"rt":4433,"stimulus":"bees-with-color/bee-A2DM.svg","response":0,"trial_type":"image-button-response","trial_index":27,"time_elapsed":265254,"internal_node_id":"0.0-4.0-0.10","subject_id":"613a413d1ad3d704a4b77694","study_id":"6197b3f67c2b5cd3b6d9596a","session_id":"6197b88b8521cf7b15062bab","condition":"contingent","relevant_dimensions":["antennae","wings"],"bee_group":{"antennae":"A","wings":"1","pattern":"X","legs":"X"},"action":"harvest","summary":"good-harvest","bonus":1.140000000000001},{"rt":942.0000000000582,"stimulus":"\n                    <p><b>Action: <em>harvest</em></b></p>\n                    <p>This is the bee that you just saw.</p>\n                    <img src=\"bees-with-color/bee-A2DM.svg\" width=\"200\">\n                    <p><span class=\"greenText\"><b>Successful harvest!</b></span><br>Your pay has increased by $0.02. Your bonus pay is now $0.52.</p>\n            ","response":0,"trial_type":"html-button-response","trial_index":28,"time_elapsed":266198,"internal_node_id":"0.0-4.0-1.10","subject_id":"613a413d1ad3d704a4b77694","study_id":"6197b3f67c2b5cd3b6d9596a","session_id":"6197b88b8521cf7b15062bab","condition":"contingent","relevant_dimensions":["antennae","wings"],"bee_group":{"antennae":"A","wings":"1","pattern":"X","legs":"X"},"bonus":1.140000000000001},{"rt":3921,"stimulus":"bees-with-color/bee-B1DM.svg","response":1,"trial_type":"image-button-response","trial_index":29,"time_elapsed":270120,"internal_node_id":"0.0-4.0-0.11","subject_id":"613a413d1ad3d704a4b77694","study_id":"6197b3f67c2b5cd3b6d9596a","session_id":"6197b88b8521cf7b15062bab","condition":"contingent","relevant_dimensions":["antennae","wings"],"bee_group":{"antennae":"A","wings":"1","pattern":"X","legs":"X"},"action":"avoid","summary":"bad-avoid","bonus":1.140000000000001},{"rt":5696,"stimulus":"\n                    <p><b>Action: <em>avoid</em></b></p>\n                    <p>This is the bee that you just saw.</p>\n                    <img src=\"bees-with-color/bee-B1DM.svg\" width=\"200\">\n                    <p><br>Your bonus pay is unchanged, and remains at $0.52.</p>\n            ","response":0,"trial_type":"html-button-response","trial_index":30,"time_elapsed":275818,"internal_node_id":"0.0-4.0-1.11","subject_id":"613a413d1ad3d704a4b77694","study_id":"6197b3f67c2b5cd3b6d9596a","session_id":"6197b88b8521cf7b15062bab","condition":"contingent","relevant_dimensions":["antennae","wings"],"bee_group":{"antennae":"A","wings":"1","pattern":"X","legs":"X"},"bonus":1.140000000000001},{"rt":5429,"stimulus":"bees-with-color/bee-B2SF.svg","response":1,"trial_type":"image-button-response","trial_index":31,"time_elapsed":281248,"internal_node_id":"0.0-4.0-0.12","subject_id":"613a413d1ad3d704a4b77694","study_id":"6197b3f67c2b5cd3b6d9596a","session_id":"6197b88b8521cf7b15062bab","condition":"contingent","relevant_dimensions":["antennae","wings"],"bee_group":{"antennae":"A","wings":"1","pattern":"X","legs":"X"},"action":"avoid","summary":"bad-avoid","bonus":1.140000000000001},{"rt":1247,"stimulus":"\n                    <p><b>Action: <em>avoid</em></b></p>\n                    <p>This is the bee that you just saw.</p>\n                    <img src=\"bees-with-color/bee-B2SF.svg\" width=\"200\">\n                    <p><br>Your bonus pay is unchanged, and remains at $0.52.</p>\n            ","response":0,"trial_type":"html-button-response","trial_index":32,"time_elapsed":282496,"internal_node_id":"0.0-4.0-1.12","subject_id":"613a413d1ad3d704a4b77694","study_id":"6197b3f67c2b5cd3b6d9596a","session_id":"6197b88b8521cf7b15062bab","condition":"contingent","relevant_dimensions":["antennae","wings"],"bee_group":{"antennae":"A","wings":"1","pattern":"X","legs":"X"},"bonus":1.140000000000001},{"rt":2485,"stimulus":"bees-with-color/bee-A2SF.svg","response":0,"trial_type":"image-button-response","trial_index":33,"time_elapsed":284982,"internal_node_id":"0.0-4.0-0.13","subject_id":"613a413d1ad3d704a4b77694","study_id":"6197b3f67c2b5cd3b6d9596a","session_id":"6197b88b8521cf7b15062bab","condition":"contingent","relevant_dimensions":["antennae","wings"],"bee_group":{"antennae":"A","wings":"1","pattern":"X","legs":"X"},"action":"harvest","summary":"good-harvest","bonus":1.140000000000001},{"rt":855.9999999999418,"stimulus":"\n                    <p><b>Action: <em>harvest</em></b></p>\n                    <p>This is the bee that you just saw.</p>\n                    <img src=\"bees-with-color/bee-A2SF.svg\" width=\"200\">\n                    <p><span class=\"greenText\"><b>Successful harvest!</b></span><br>Your pay has increased by $0.02. Your bonus pay is now $0.54.</p>\n            ","response":0,"trial_type":"html-button-response","trial_index":34,"time_elapsed":285839,"internal_node_id":"0.0-4.0-1.13","subject_id":"613a413d1ad3d704a4b77694","study_id":"6197b3f67c2b5cd3b6d9596a","session_id":"6197b88b8521cf7b15062bab","condition":"contingent","relevant_dimensions":["antennae","wings"],"bee_group":{"antennae":"A","wings":"1","pattern":"X","legs":"X"},"bonus":1.140000000000001},{"rt":5949,"stimulus":"bees-with-color/bee-A1SF.svg","response":0,"trial_type":"image-button-response","trial_index":35,"time_elapsed":291790,"internal_node_id":"0.0-4.0-0.14","subject_id":"613a413d1ad3d704a4b77694","study_id":"6197b3f67c2b5cd3b6d9596a","session_id":"6197b88b8521cf7b15062bab","condition":"contingent","relevant_dimensions":["antennae","wings"],"bee_group":{"antennae":"A","wings":"1","pattern":"X","legs":"X"},"action":"harvest","summary":"bad-harvest","bonus":1.140000000000001},{"rt":7019.000000000058,"stimulus":"\n                    <p><b>Action: <em>harvest</em></b></p>\n                    <p>This is the bee that you just saw.</p>\n                    <img src=\"bees-with-color/bee-A1SF.svg\" width=\"200\">\n                    <p><span class=\"redText\">Bad choice, the bee was angry.</span><br><b>You have been stung!</b><br>Your pay has been decreased by $0.10. Your bonus pay is now $0.44.</p>\n            ","response":0,"trial_type":"html-button-response","trial_index":36,"time_elapsed":298810,"internal_node_id":"0.0-4.0-1.14","subject_id":"613a413d1ad3d704a4b77694","study_id":"6197b3f67c2b5cd3b6d9596a","session_id":"6197b88b8521cf7b15062bab","condition":"contingent","relevant_dimensions":["antennae","wings"],"bee_group":{"antennae":"A","wings":"1","pattern":"X","legs":"X"},"bonus":1.140000000000001},{"rt":1497,"stimulus":"bees-with-color/bee-A1SM.svg","response":1,"trial_type":"image-button-response","trial_index":37,"time_elapsed":300308,"internal_node_id":"0.0-4.0-0.15","subject_id":"613a413d1ad3d704a4b77694","study_id":"6197b3f67c2b5cd3b6d9596a","session_id":"6197b88b8521cf7b15062bab","condition":"contingent","relevant_dimensions":["antennae","wings"],"bee_group":{"antennae":"A","wings":"1","pattern":"X","legs":"X"},"action":"avoid","summary":"good-avoid","bonus":1.140000000000001},{"rt":744,"stimulus":"\n                    <p><b>Action: <em>avoid</em></b></p>\n                    <p>This is the bee that you just saw.</p>\n                    <img src=\"bees-with-color/bee-A1SM.svg\" width=\"200\">\n                    <p><br>Your bonus pay is unchanged, and remains at $0.44.</p>\n            ","response":0,"trial_type":"html-button-response","trial_index":38,"time_elapsed":301053,"internal_node_id":"0.0-4.0-1.15","subject_id":"613a413d1ad3d704a4b77694","study_id":"6197b3f67c2b5cd3b6d9596a","session_id":"6197b88b8521cf7b15062bab","condition":"contingent","relevant_dimensions":["antennae","wings"],"bee_group":{"antennae":"A","wings":"1","pattern":"X","legs":"X"},"bonus":1.140000000000001},{"rt":1174,"stimulus":"bees-with-color/bee-A2DM.svg","response":0,"trial_type":"image-button-response","trial_index":39,"time_elapsed":302229,"internal_node_id":"0.0-4.0-0.16","subject_id":"613a413d1ad3d704a4b77694","study_id":"6197b3f67c2b5cd3b6d9596a","session_id":"6197b88b8521cf7b15062bab","condition":"contingent","relevant_dimensions":["antennae","wings"],"bee_group":{"antennae":"A","wings":"1","pattern":"X","legs":"X"},"action":"harvest","summary":"good-harvest","bonus":1.140000000000001},{"rt":852,"stimulus":"\n                    <p><b>Action: <em>harvest</em></b></p>\n                    <p>This is the bee that you just saw.</p>\n                    <img src=\"bees-with-color/bee-A2DM.svg\" width=\"200\">\n                    <p><span class=\"greenText\"><b>Successful harvest!</b></span><br>Your pay has increased by $0.02. Your bonus pay is now $0.46.</p>\n            ","response":0,"trial_type":"html-button-response","trial_index":40,"time_elapsed":303083,"internal_node_id":"0.0-4.0-1.16","subject_id":"613a413d1ad3d704a4b77694","study_id":"6197b3f67c2b5cd3b6d9596a","session_id":"6197b88b8521cf7b15062bab","condition":"contingent","relevant_dimensions":["antennae","wings"],"bee_group":{"antennae":"A","wings":"1","pattern":"X","legs":"X"},"bonus":1.140000000000001},{"rt":1577,"stimulus":"bees-with-color/bee-A1SM.svg","response":1,"trial_type":"image-button-response","trial_index":41,"time_elapsed":304662,"internal_node_id":"0.0-4.0-0.17","subject_id":"613a413d1ad3d704a4b77694","study_id":"6197b3f67c2b5cd3b6d9596a","session_id":"6197b88b8521cf7b15062bab","condition":"contingent","relevant_dimensions":["antennae","wings"],"bee_group":{"antennae":"A","wings":"1","pattern":"X","legs":"X"},"action":"avoid","summary":"good-avoid","bonus":1.140000000000001},{"rt":742,"stimulus":"\n                    <p><b>Action: <em>avoid</em></b></p>\n                    <p>This is the bee that you just saw.</p>\n                    <img src=\"bees-with-color/bee-A1SM.svg\" width=\"200\">\n                    <p><br>Your bonus pay is unchanged, and remains at $0.46.</p>\n            ","response":0,"trial_type":"html-button-response","trial_index":42,"time_elapsed":305405,"internal_node_id":"0.0-4.0-1.17","subject_id":"613a413d1ad3d704a4b77694","study_id":"6197b3f67c2b5cd3b6d9596a","session_id":"6197b88b8521cf7b15062bab","condition":"contingent","relevant_dimensions":["antennae","wings"],"bee_group":{"antennae":"A","wings":"1","pattern":"X","legs":"X"},"bonus":1.140000000000001},{"rt":1951.0000000000582,"stimulus":"bees-with-color/bee-B2SM.svg","response":0,"trial_type":"image-button-response","trial_index":43,"time_elapsed":307358,"internal_node_id":"0.0-4.0-0.18","subject_id":"613a413d1ad3d704a4b77694","study_id":"6197b3f67c2b5cd3b6d9596a","session_id":"6197b88b8521cf7b15062bab","condition":"contingent","relevant_dimensions":["antennae","wings"],"bee_group":{"antennae":"A","wings":"1","pattern":"X","legs":"X"},"action":"harvest","summary":"good-harvest","bonus":1.140000000000001},{"rt":1014,"stimulus":"\n                    <p><b>Action: <em>harvest</em></b></p>\n                    <p>This is the bee that you just saw.</p>\n                    <img src=\"bees-with-color/bee-B2SM.svg\" width=\"200\">\n                    <p><span class=\"greenText\"><b>Successful harvest!</b></span><br>Your pay has increased by $0.02. Your bonus pay is now $0.48.</p>\n            ","response":0,"trial_type":"html-button-response","trial_index":44,"time_elapsed":308374,"internal_node_id":"0.0-4.0-1.18","subject_id":"613a413d1ad3d704a4b77694","study_id":"6197b3f67c2b5cd3b6d9596a","session_id":"6197b88b8521cf7b15062bab","condition":"contingent","relevant_dimensions":["antennae","wings"],"bee_group":{"antennae":"A","wings":"1","pattern":"X","legs":"X"},"bonus":1.140000000000001},{"rt":2079.999999999942,"stimulus":"bees-with-color/bee-B2DF.svg","response":0,"trial_type":"image-button-response","trial_index":45,"time_elapsed":310454,"internal_node_id":"0.0-4.0-0.19","subject_id":"613a413d1ad3d704a4b77694","study_id":"6197b3f67c2b5cd3b6d9596a","session_id":"6197b88b8521cf7b15062bab","condition":"contingent","relevant_dimensions":["antennae","wings"],"bee_group":{"antennae":"A","wings":"1","pattern":"X","legs":"X"},"action":"harvest","summary":"good-harvest","bonus":1.140000000000001},{"rt":902.0000000000582,"stimulus":"\n                    <p><b>Action: <em>harvest</em></b></p>\n                    <p>This is the bee that you just saw.</p>\n                    <img src=\"bees-with-color/bee-B2DF.svg\" width=\"200\">\n                    <p><span class=\"greenText\"><b>Successful harvest!</b></span><br>Your pay has increased by $0.02. Your bonus pay is now $0.50.</p>\n            ","response":0,"trial_type":"html-button-response","trial_index":46,"time_elapsed":311358,"internal_node_id":"0.0-4.0-1.19","subject_id":"613a413d1ad3d704a4b77694","study_id":"6197b3f67c2b5cd3b6d9596a","session_id":"6197b88b8521cf7b15062bab","condition":"contingent","relevant_dimensions":["antennae","wings"],"bee_group":{"antennae":"A","wings":"1","pattern":"X","legs":"X"},"bonus":1.140000000000001},{"rt":2064,"stimulus":"bees-with-color/bee-B1DF.svg","response":1,"trial_type":"image-button-response","trial_index":47,"time_elapsed":313423,"internal_node_id":"0.0-4.0-0.20","subject_id":"613a413d1ad3d704a4b77694","study_id":"6197b3f67c2b5cd3b6d9596a","session_id":"6197b88b8521cf7b15062bab","condition":"contingent","relevant_dimensions":["antennae","wings"],"bee_group":{"antennae":"A","wings":"1","pattern":"X","legs":"X"},"action":"avoid","summary":"bad-avoid","bonus":1.140000000000001},{"rt":597,"stimulus":"\n                    <p><b>Action: <em>avoid</em></b></p>\n                    <p>This is the bee that you just saw.</p>\n                    <img src=\"bees-with-color/bee-B1DF.svg\" width=\"200\">\n                    <p><br>Your bonus pay is unchanged, and remains at $0.50.</p>\n            ","response":0,"trial_type":"html-button-response","trial_index":48,"time_elapsed":314022,"internal_node_id":"0.0-4.0-1.20","subject_id":"613a413d1ad3d704a4b77694","study_id":"6197b3f67c2b5cd3b6d9596a","session_id":"6197b88b8521cf7b15062bab","condition":"contingent","relevant_dimensions":["antennae","wings"],"bee_group":{"antennae":"A","wings":"1","pattern":"X","legs":"X"},"bonus":1.140000000000001},{"rt":1871.9999999999418,"stimulus":"bees-with-color/bee-B2SF.svg","response":0,"trial_type":"image-button-response","trial_index":49,"time_elapsed":315896,"internal_node_id":"0.0-4.0-0.21","subject_id":"613a413d1ad3d704a4b77694","study_id":"6197b3f67c2b5cd3b6d9596a","session_id":"6197b88b8521cf7b15062bab","condition":"contingent","relevant_dimensions":["antennae","wings"],"bee_group":{"antennae":"A","wings":"1","pattern":"X","legs":"X"},"action":"harvest","summary":"good-harvest","bonus":1.140000000000001},{"rt":822,"stimulus":"\n                    <p><b>Action: <em>harvest</em></b></p>\n                    <p>This is the bee that you just saw.</p>\n                    <img src=\"bees-with-color/bee-B2SF.svg\" width=\"200\">\n                    <p><span class=\"greenText\"><b>Successful harvest!</b></span><br>Your pay has increased by $0.02. Your bonus pay is now $0.52.</p>\n            ","response":0,"trial_type":"html-button-response","trial_index":50,"time_elapsed":316719,"internal_node_id":"0.0-4.0-1.21","subject_id":"613a413d1ad3d704a4b77694","study_id":"6197b3f67c2b5cd3b6d9596a","session_id":"6197b88b8521cf7b15062bab","condition":"contingent","relevant_dimensions":["antennae","wings"],"bee_group":{"antennae":"A","wings":"1","pattern":"X","legs":"X"},"bonus":1.140000000000001},{"rt":959.9999999999418,"stimulus":"bees-with-color/bee-A1DM.svg","response":1,"trial_type":"image-button-response","trial_index":51,"time_elapsed":317681,"internal_node_id":"0.0-4.0-0.22","subject_id":"613a413d1ad3d704a4b77694","study_id":"6197b3f67c2b5cd3b6d9596a","session_id":"6197b88b8521cf7b15062bab","condition":"contingent","relevant_dimensions":["antennae","wings"],"bee_group":{"antennae":"A","wings":"1","pattern":"X","legs":"X"},"action":"avoid","summary":"good-avoid","bonus":1.140000000000001},{"rt":712,"stimulus":"\n                    <p><b>Action: <em>avoid</em></b></p>\n                    <p>This is the bee that you just saw.</p>\n                    <img src=\"bees-with-color/bee-A1DM.svg\" width=\"200\">\n                    <p><br>Your bonus pay is unchanged, and remains at $0.52.</p>\n            ","response":0,"trial_type":"html-button-response","trial_index":52,"time_elapsed":318394,"internal_node_id":"0.0-4.0-1.22","subject_id":"613a413d1ad3d704a4b77694","study_id":"6197b3f67c2b5cd3b6d9596a","session_id":"6197b88b8521cf7b15062bab","condition":"contingent","relevant_dimensions":["antennae","wings"],"bee_group":{"antennae":"A","wings":"1","pattern":"X","legs":"X"},"bonus":1.140000000000001},{"rt":872,"stimulus":"bees-with-color/bee-A2SM.svg","response":0,"trial_type":"image-button-response","trial_index":53,"time_elapsed":319268,"internal_node_id":"0.0-4.0-0.23","subject_id":"613a413d1ad3d704a4b77694","study_id":"6197b3f67c2b5cd3b6d9596a","session_id":"6197b88b8521cf7b15062bab","condition":"contingent","relevant_dimensions":["antennae","wings"],"bee_group":{"antennae":"A","wings":"1","pattern":"X","legs":"X"},"action":"harvest","summary":"good-harvest","bonus":1.140000000000001},{"rt":937,"stimulus":"\n                    <p><b>Action: <em>harvest</em></b></p>\n                    <p>This is the bee that you just saw.</p>\n                    <img src=\"bees-with-color/bee-A2SM.svg\" width=\"200\">\n                    <p><span class=\"greenText\"><b>Successful harvest!</b></span><br>Your pay has increased by $0.02. Your bonus pay is now $0.54.</p>\n            ","response":0,"trial_type":"html-button-response","trial_index":54,"time_elapsed":320205,"internal_node_id":"0.0-4.0-1.23","subject_id":"613a413d1ad3d704a4b77694","study_id":"6197b3f67c2b5cd3b6d9596a","session_id":"6197b88b8521cf7b15062bab","condition":"contingent","relevant_dimensions":["antennae","wings"],"bee_group":{"antennae":"A","wings":"1","pattern":"X","legs":"X"},"bonus":1.140000000000001},{"rt":1776.0000000000582,"stimulus":"bees-with-color/bee-A1DF.svg","response":1,"trial_type":"image-button-response","trial_index":55,"time_elapsed":321983,"internal_node_id":"0.0-4.0-0.24","subject_id":"613a413d1ad3d704a4b77694","study_id":"6197b3f67c2b5cd3b6d9596a","session_id":"6197b88b8521cf7b15062bab","condition":"contingent","relevant_dimensions":["antennae","wings"],"bee_group":{"antennae":"A","wings":"1","pattern":"X","legs":"X"},"action":"avoid","summary":"good-avoid","bonus":1.140000000000001},{"rt":729,"stimulus":"\n                    <p><b>Action: <em>avoid</em></b></p>\n                    <p>This is the bee that you just saw.</p>\n                    <img src=\"bees-with-color/bee-A1DF.svg\" width=\"200\">\n                    <p><br>Your bonus pay is unchanged, and remains at $0.54.</p>\n            ","response":0,"trial_type":"html-button-response","trial_index":56,"time_elapsed":322714,"internal_node_id":"0.0-4.0-1.24","subject_id":"613a413d1ad3d704a4b77694","study_id":"6197b3f67c2b5cd3b6d9596a","session_id":"6197b88b8521cf7b15062bab","condition":"contingent","relevant_dimensions":["antennae","wings"],"bee_group":{"antennae":"A","wings":"1","pattern":"X","legs":"X"},"bonus":1.140000000000001},{"rt":926,"stimulus":"bees-with-color/bee-A2SF.svg","response":0,"trial_type":"image-button-response","trial_index":57,"time_elapsed":323642,"internal_node_id":"0.0-4.0-0.25","subject_id":"613a413d1ad3d704a4b77694","study_id":"6197b3f67c2b5cd3b6d9596a","session_id":"6197b88b8521cf7b15062bab","condition":"contingent","relevant_dimensions":["antennae","wings"],"bee_group":{"antennae":"A","wings":"1","pattern":"X","legs":"X"},"action":"harvest","summary":"good-harvest","bonus":1.140000000000001},{"rt":897,"stimulus":"\n                    <p><b>Action: <em>harvest</em></b></p>\n                    <p>This is the bee that you just saw.</p>\n                    <img src=\"bees-with-color/bee-A2SF.svg\" width=\"200\">\n                    <p><span class=\"greenText\"><b>Successful harvest!</b></span><br>Your pay has increased by $0.02. Your bonus pay is now $0.56.</p>\n            ","response":0,"trial_type":"html-button-response","trial_index":58,"time_elapsed":324539,"internal_node_id":"0.0-4.0-1.25","subject_id":"613a413d1ad3d704a4b77694","study_id":"6197b3f67c2b5cd3b6d9596a","session_id":"6197b88b8521cf7b15062bab","condition":"contingent","relevant_dimensions":["antennae","wings"],"bee_group":{"antennae":"A","wings":"1","pattern":"X","legs":"X"},"bonus":1.140000000000001},{"rt":1243,"stimulus":"bees-with-color/bee-B1SF.svg","response":1,"trial_type":"image-button-response","trial_index":59,"time_elapsed":325783,"internal_node_id":"0.0-4.0-0.26","subject_id":"613a413d1ad3d704a4b77694","study_id":"6197b3f67c2b5cd3b6d9596a","session_id":"6197b88b8521cf7b15062bab","condition":"contingent","relevant_dimensions":["antennae","wings"],"bee_group":{"antennae":"A","wings":"1","pattern":"X","legs":"X"},"action":"avoid","summary":"bad-avoid","bonus":1.140000000000001},{"rt":2596,"stimulus":"\n                    <p><b>Action: <em>avoid</em></b></p>\n                    <p>This is the bee that you just saw.</p>\n                    <img src=\"bees-with-color/bee-B1SF.svg\" width=\"200\">\n                    <p><br>Your bonus pay is unchanged, and remains at $0.56.</p>\n            ","response":0,"trial_type":"html-button-response","trial_index":60,"time_elapsed":328381,"internal_node_id":"0.0-4.0-1.26","subject_id":"613a413d1ad3d704a4b77694","study_id":"6197b3f67c2b5cd3b6d9596a","session_id":"6197b88b8521cf7b15062bab","condition":"contingent","relevant_dimensions":["antennae","wings"],"bee_group":{"antennae":"A","wings":"1","pattern":"X","legs":"X"},"bonus":1.140000000000001},{"rt":1073,"stimulus":"bees-with-color/bee-B2DM.svg","response":0,"trial_type":"image-button-response","trial_index":61,"time_elapsed":329456,"internal_node_id":"0.0-4.0-0.27","subject_id":"613a413d1ad3d704a4b77694","study_id":"6197b3f67c2b5cd3b6d9596a","session_id":"6197b88b8521cf7b15062bab","condition":"contingent","relevant_dimensions":["antennae","wings"],"bee_group":{"antennae":"A","wings":"1","pattern":"X","legs":"X"},"action":"harvest","summary":"good-harvest","bonus":1.140000000000001},{"rt":1128,"stimulus":"\n                    <p><b>Action: <em>harvest</em></b></p>\n                    <p>This is the bee that you just saw.</p>\n                    <img src=\"bees-with-color/bee-B2DM.svg\" width=\"200\">\n                    <p><span class=\"greenText\"><b>Successful harvest!</b></span><br>Your pay has increased by $0.02. Your bonus pay is now $0.58.</p>\n            ","response":0,"trial_type":"html-button-response","trial_index":62,"time_elapsed":330585,"internal_node_id":"0.0-4.0-1.27","subject_id":"613a413d1ad3d704a4b77694","study_id":"6197b3f67c2b5cd3b6d9596a","session_id":"6197b88b8521cf7b15062bab","condition":"contingent","relevant_dimensions":["antennae","wings"],"bee_group":{"antennae":"A","wings":"1","pattern":"X","legs":"X"},"bonus":1.140000000000001},{"rt":2125,"stimulus":"bees-with-color/bee-B1DM.svg","response":0,"trial_type":"image-button-response","trial_index":63,"time_elapsed":332711,"internal_node_id":"0.0-4.0-0.28","subject_id":"613a413d1ad3d704a4b77694","study_id":"6197b3f67c2b5cd3b6d9596a","session_id":"6197b88b8521cf7b15062bab","condition":"contingent","relevant_dimensions":["antennae","wings"],"bee_group":{"antennae":"A","wings":"1","pattern":"X","legs":"X"},"action":"harvest","summary":"good-harvest","bonus":1.140000000000001},{"rt":1087,"stimulus":"\n                    <p><b>Action: <em>harvest</em></b></p>\n                    <p>This is the bee that you just saw.</p>\n                    <img src=\"bees-with-color/bee-B1DM.svg\" width=\"200\">\n                    <p><span class=\"greenText\"><b>Successful harvest!</b></span><br>Your pay has increased by $0.02. Your bonus pay is now $0.60.</p>\n            ","response":0,"trial_type":"html-button-response","trial_index":64,"time_elapsed":333801,"internal_node_id":"0.0-4.0-1.28","subject_id":"613a413d1ad3d704a4b77694","study_id":"6197b3f67c2b5cd3b6d9596a","session_id":"6197b88b8521cf7b15062bab","condition":"contingent","relevant_dimensions":["antennae","wings"],"bee_group":{"antennae":"A","wings":"1","pattern":"X","legs":"X"},"bonus":1.140000000000001},{"rt":2852,"stimulus":"bees-with-color/bee-A1SF.svg","response":0,"trial_type":"image-button-response","trial_index":65,"time_elapsed":336654,"internal_node_id":"0.0-4.0-0.29","subject_id":"613a413d1ad3d704a4b77694","study_id":"6197b3f67c2b5cd3b6d9596a","session_id":"6197b88b8521cf7b15062bab","condition":"contingent","relevant_dimensions":["antennae","wings"],"bee_group":{"antennae":"A","wings":"1","pattern":"X","legs":"X"},"action":"harvest","summary":"bad-harvest","bonus":1.140000000000001},{"rt":9502,"stimulus":"\n                    <p><b>Action: <em>harvest</em></b></p>\n                    <p>This is the bee that you just saw.</p>\n                    <img src=\"bees-with-color/bee-A1SF.svg\" width=\"200\">\n                    <p><span class=\"redText\">Bad choice, the bee was angry.</span><br><b>You have been stung!</b><br>Your pay has been decreased by $0.10. Your bonus pay is now $0.50.</p>\n            ","response":0,"trial_type":"html-button-response","trial_index":66,"time_elapsed":346157,"internal_node_id":"0.0-4.0-1.29","subject_id":"613a413d1ad3d704a4b77694","study_id":"6197b3f67c2b5cd3b6d9596a","session_id":"6197b88b8521cf7b15062bab","condition":"contingent","relevant_dimensions":["antennae","wings"],"bee_group":{"antennae":"A","wings":"1","pattern":"X","legs":"X"},"bonus":1.140000000000001},{"rt":1998,"stimulus":"bees-with-color/bee-A2DF.svg","response":0,"trial_type":"image-button-response","trial_index":67,"time_elapsed":348157,"internal_node_id":"0.0-4.0-0.30","subject_id":"613a413d1ad3d704a4b77694","study_id":"6197b3f67c2b5cd3b6d9596a","session_id":"6197b88b8521cf7b15062bab","condition":"contingent","relevant_dimensions":["antennae","wings"],"bee_group":{"antennae":"A","wings":"1","pattern":"X","legs":"X"},"action":"harvest","summary":"good-harvest","bonus":1.140000000000001},{"rt":697,"stimulus":"\n                    <p><b>Action: <em>harvest</em></b></p>\n                    <p>This is the bee that you just saw.</p>\n                    <img src=\"bees-with-color/bee-A2DF.svg\" width=\"200\">\n                    <p><span class=\"greenText\"><b>Successful harvest!</b></span><br>Your pay has increased by $0.02. Your bonus pay is now $0.52.</p>\n            ","response":0,"trial_type":"html-button-response","trial_index":68,"time_elapsed":348855,"internal_node_id":"0.0-4.0-1.30","subject_id":"613a413d1ad3d704a4b77694","study_id":"6197b3f67c2b5cd3b6d9596a","session_id":"6197b88b8521cf7b15062bab","condition":"contingent","relevant_dimensions":["antennae","wings"],"bee_group":{"antennae":"A","wings":"1","pattern":"X","legs":"X"},"bonus":1.140000000000001},{"rt":2865,"stimulus":"bees-with-color/bee-B1SM.svg","response":0,"trial_type":"image-button-response","trial_index":69,"time_elapsed":351721,"internal_node_id":"0.0-4.0-0.31","subject_id":"613a413d1ad3d704a4b77694","study_id":"6197b3f67c2b5cd3b6d9596a","session_id":"6197b88b8521cf7b15062bab","condition":"contingent","relevant_dimensions":["antennae","wings"],"bee_group":{"antennae":"A","wings":"1","pattern":"X","legs":"X"},"action":"harvest","summary":"good-harvest","bonus":1.140000000000001},{"rt":1073,"stimulus":"\n                    <p><b>Action: <em>harvest</em></b></p>\n                    <p>This is the bee that you just saw.</p>\n                    <img src=\"bees-with-color/bee-B1SM.svg\" width=\"200\">\n                    <p><span class=\"greenText\"><b>Successful harvest!</b></span><br>Your pay has increased by $0.02. Your bonus pay is now $0.54.</p>\n            ","response":0,"trial_type":"html-button-response","trial_index":70,"time_elapsed":352796,"internal_node_id":"0.0-4.0-1.31","subject_id":"613a413d1ad3d704a4b77694","study_id":"6197b3f67c2b5cd3b6d9596a","session_id":"6197b88b8521cf7b15062bab","condition":"contingent","relevant_dimensions":["antennae","wings"],"bee_group":{"antennae":"A","wings":"1","pattern":"X","legs":"X"},"bonus":1.140000000000001},{"rt":1191.9999999999418,"stimulus":"bees-with-color/bee-B1SF.svg","response":1,"trial_type":"image-button-response","trial_index":71,"time_elapsed":353989,"internal_node_id":"0.0-4.0-0.32","subject_id":"613a413d1ad3d704a4b77694","study_id":"6197b3f67c2b5cd3b6d9596a","session_id":"6197b88b8521cf7b15062bab","condition":"contingent","relevant_dimensions":["antennae","wings"],"bee_group":{"antennae":"A","wings":"1","pattern":"X","legs":"X"},"action":"avoid","summary":"bad-avoid","bonus":1.140000000000001},{"rt":897,"stimulus":"\n                    <p><b>Action: <em>avoid</em></b></p>\n                    <p>This is the bee that you just saw.</p>\n                    <img src=\"bees-with-color/bee-B1SF.svg\" width=\"200\">\n                    <p><br>Your bonus pay is unchanged, and remains at $0.54.</p>\n            ","response":0,"trial_type":"html-button-response","trial_index":72,"time_elapsed":354888,"internal_node_id":"0.0-4.0-1.32","subject_id":"613a413d1ad3d704a4b77694","study_id":"6197b3f67c2b5cd3b6d9596a","session_id":"6197b88b8521cf7b15062bab","condition":"contingent","relevant_dimensions":["antennae","wings"],"bee_group":{"antennae":"A","wings":"1","pattern":"X","legs":"X"},"bonus":1.140000000000001},{"rt":1673,"stimulus":"bees-with-color/bee-B2SF.svg","response":0,"trial_type":"image-button-response","trial_index":73,"time_elapsed":356561,"internal_node_id":"0.0-4.0-0.33","subject_id":"613a413d1ad3d704a4b77694","study_id":"6197b3f67c2b5cd3b6d9596a","session_id":"6197b88b8521cf7b15062bab","condition":"contingent","relevant_dimensions":["antennae","wings"],"bee_group":{"antennae":"A","wings":"1","pattern":"X","legs":"X"},"action":"harvest","summary":"good-harvest","bonus":1.140000000000001},{"rt":639,"stimulus":"\n                    <p><b>Action: <em>harvest</em></b></p>\n                    <p>This is the bee that you just saw.</p>\n                    <img src=\"bees-with-color/bee-B2SF.svg\" width=\"200\">\n                    <p><span class=\"greenText\"><b>Successful harvest!</b></span><br>Your pay has increased by $0.02. Your bonus pay is now $0.56.</p>\n            ","response":0,"trial_type":"html-button-response","trial_index":74,"time_elapsed":357202,"internal_node_id":"0.0-4.0-1.33","subject_id":"613a413d1ad3d704a4b77694","study_id":"6197b3f67c2b5cd3b6d9596a","session_id":"6197b88b8521cf7b15062bab","condition":"contingent","relevant_dimensions":["antennae","wings"],"bee_group":{"antennae":"A","wings":"1","pattern":"X","legs":"X"},"bonus":1.140000000000001},{"rt":1291.0000000000582,"stimulus":"bees-with-color/bee-A2DF.svg","response":0,"trial_type":"image-button-response","trial_index":75,"time_elapsed":358494,"internal_node_id":"0.0-4.0-0.34","subject_id":"613a413d1ad3d704a4b77694","study_id":"6197b3f67c2b5cd3b6d9596a","session_id":"6197b88b8521cf7b15062bab","condition":"contingent","relevant_dimensions":["antennae","wings"],"bee_group":{"antennae":"A","wings":"1","pattern":"X","legs":"X"},"action":"harvest","summary":"good-harvest","bonus":1.140000000000001},{"rt":1361,"stimulus":"\n                    <p><b>Action: <em>harvest</em></b></p>\n                    <p>This is the bee that you just saw.</p>\n                    <img src=\"bees-with-color/bee-A2DF.svg\" width=\"200\">\n                    <p><span class=\"greenText\"><b>Successful harvest!</b></span><br>Your pay has increased by $0.02. Your bonus pay is now $0.58.</p>\n            ","response":0,"trial_type":"html-button-response","trial_index":76,"time_elapsed":359856,"internal_node_id":"0.0-4.0-1.34","subject_id":"613a413d1ad3d704a4b77694","study_id":"6197b3f67c2b5cd3b6d9596a","session_id":"6197b88b8521cf7b15062bab","condition":"contingent","relevant_dimensions":["antennae","wings"],"bee_group":{"antennae":"A","wings":"1","pattern":"X","legs":"X"},"bonus":1.140000000000001},{"rt":1730.9999999999418,"stimulus":"bees-with-color/bee-A1SM.svg","response":0,"trial_type":"image-button-response","trial_index":77,"time_elapsed":361588,"internal_node_id":"0.0-4.0-0.35","subject_id":"613a413d1ad3d704a4b77694","study_id":"6197b3f67c2b5cd3b6d9596a","session_id":"6197b88b8521cf7b15062bab","condition":"contingent","relevant_dimensions":["antennae","wings"],"bee_group":{"antennae":"A","wings":"1","pattern":"X","legs":"X"},"action":"harvest","summary":"bad-harvest","bonus":1.140000000000001},{"rt":3011,"stimulus":"\n                    <p><b>Action: <em>harvest</em></b></p>\n                    <p>This is the bee that you just saw.</p>\n                    <img src=\"bees-with-color/bee-A1SM.svg\" width=\"200\">\n                    <p><span class=\"redText\">Bad choice, the bee was angry.</span><br><b>You have been stung!</b><br>Your pay has been decreased by $0.10. Your bonus pay is now $0.48.</p>\n            ","response":0,"trial_type":"html-button-response","trial_index":78,"time_elapsed":364601,"internal_node_id":"0.0-4.0-1.35","subject_id":"613a413d1ad3d704a4b77694","study_id":"6197b3f67c2b5cd3b6d9596a","session_id":"6197b88b8521cf7b15062bab","condition":"contingent","relevant_dimensions":["antennae","wings"],"bee_group":{"antennae":"A","wings":"1","pattern":"X","legs":"X"},"bonus":1.140000000000001},{"rt":2458,"stimulus":"bees-with-color/bee-B1DF.svg","response":1,"trial_type":"image-button-response","trial_index":79,"time_elapsed":367061,"internal_node_id":"0.0-4.0-0.36","subject_id":"613a413d1ad3d704a4b77694","study_id":"6197b3f67c2b5cd3b6d9596a","session_id":"6197b88b8521cf7b15062bab","condition":"contingent","relevant_dimensions":["antennae","wings"],"bee_group":{"antennae":"A","wings":"1","pattern":"X","legs":"X"},"action":"avoid","summary":"bad-avoid","bonus":1.140000000000001},{"rt":607,"stimulus":"\n                    <p><b>Action: <em>avoid</em></b></p>\n                    <p>This is the bee that you just saw.</p>\n                    <img src=\"bees-with-color/bee-B1DF.svg\" width=\"200\">\n                    <p><br>Your bonus pay is unchanged, and remains at $0.48.</p>\n            ","response":0,"trial_type":"html-button-response","trial_index":80,"time_elapsed":367670,"internal_node_id":"0.0-4.0-1.36","subject_id":"613a413d1ad3d704a4b77694","study_id":"6197b3f67c2b5cd3b6d9596a","session_id":"6197b88b8521cf7b15062bab","condition":"contingent","relevant_dimensions":["antennae","wings"],"bee_group":{"antennae":"A","wings":"1","pattern":"X","legs":"X"},"bonus":1.140000000000001},{"rt":5891,"stimulus":"bees-with-color/bee-A1DF.svg","response":1,"trial_type":"image-button-response","trial_index":81,"time_elapsed":373562,"internal_node_id":"0.0-4.0-0.37","subject_id":"613a413d1ad3d704a4b77694","study_id":"6197b3f67c2b5cd3b6d9596a","session_id":"6197b88b8521cf7b15062bab","condition":"contingent","relevant_dimensions":["antennae","wings"],"bee_group":{"antennae":"A","wings":"1","pattern":"X","legs":"X"},"action":"avoid","summary":"good-avoid","bonus":1.140000000000001},{"rt":970,"stimulus":"\n                    <p><b>Action: <em>avoid</em></b></p>\n                    <p>This is the bee that you just saw.</p>\n                    <img src=\"bees-with-color/bee-A1DF.svg\" width=\"200\">\n                    <p><br>Your bonus pay is unchanged, and remains at $0.48.</p>\n            ","response":0,"trial_type":"html-button-response","trial_index":82,"time_elapsed":374532,"internal_node_id":"0.0-4.0-1.37","subject_id":"613a413d1ad3d704a4b77694","study_id":"6197b3f67c2b5cd3b6d9596a","session_id":"6197b88b8521cf7b15062bab","condition":"contingent","relevant_dimensions":["antennae","wings"],"bee_group":{"antennae":"A","wings":"1","pattern":"X","legs":"X"},"bonus":1.140000000000001},{"rt":876.0000000000582,"stimulus":"bees-with-color/bee-B2SM.svg","response":0,"trial_type":"image-button-response","trial_index":83,"time_elapsed":375409,"internal_node_id":"0.0-4.0-0.38","subject_id":"613a413d1ad3d704a4b77694","study_id":"6197b3f67c2b5cd3b6d9596a","session_id":"6197b88b8521cf7b15062bab","condition":"contingent","relevant_dimensions":["antennae","wings"],"bee_group":{"antennae":"A","wings":"1","pattern":"X","legs":"X"},"action":"harvest","summary":"good-harvest","bonus":1.140000000000001},{"rt":626,"stimulus":"\n                    <p><b>Action: <em>harvest</em></b></p>\n                    <p>This is the bee that you just saw.</p>\n                    <img src=\"bees-with-color/bee-B2SM.svg\" width=\"200\">\n                    <p><span class=\"greenText\"><b>Successful harvest!</b></span><br>Your pay has increased by $0.02. Your bonus pay is now $0.50.</p>\n            ","response":0,"trial_type":"html-button-response","trial_index":84,"time_elapsed":376037,"internal_node_id":"0.0-4.0-1.38","subject_id":"613a413d1ad3d704a4b77694","study_id":"6197b3f67c2b5cd3b6d9596a","session_id":"6197b88b8521cf7b15062bab","condition":"contingent","relevant_dimensions":["antennae","wings"],"bee_group":{"antennae":"A","wings":"1","pattern":"X","legs":"X"},"bonus":1.140000000000001},{"rt":1009.0000000000582,"stimulus":"bees-with-color/bee-B2DF.svg","response":0,"trial_type":"image-button-response","trial_index":85,"time_elapsed":377047,"internal_node_id":"0.0-4.0-0.39","subject_id":"613a413d1ad3d704a4b77694","study_id":"6197b3f67c2b5cd3b6d9596a","session_id":"6197b88b8521cf7b15062bab","condition":"contingent","relevant_dimensions":["antennae","wings"],"bee_group":{"antennae":"A","wings":"1","pattern":"X","legs":"X"},"action":"harvest","summary":"good-harvest","bonus":1.140000000000001},{"rt":673,"stimulus":"\n                    <p><b>Action: <em>harvest</em></b></p>\n                    <p>This is the bee that you just saw.</p>\n                    <img src=\"bees-with-color/bee-B2DF.svg\" width=\"200\">\n                    <p><span class=\"greenText\"><b>Successful harvest!</b></span><br>Your pay has increased by $0.02. Your bonus pay is now $0.52.</p>\n            ","response":0,"trial_type":"html-button-response","trial_index":86,"time_elapsed":377721,"internal_node_id":"0.0-4.0-1.39","subject_id":"613a413d1ad3d704a4b77694","study_id":"6197b3f67c2b5cd3b6d9596a","session_id":"6197b88b8521cf7b15062bab","condition":"contingent","relevant_dimensions":["antennae","wings"],"bee_group":{"antennae":"A","wings":"1","pattern":"X","legs":"X"},"bonus":1.140000000000001},{"rt":3723.000000000058,"stimulus":"bees-with-color/bee-A1SF.svg","response":1,"trial_type":"image-button-response","trial_index":87,"time_elapsed":381445,"internal_node_id":"0.0-4.0-0.40","subject_id":"613a413d1ad3d704a4b77694","study_id":"6197b3f67c2b5cd3b6d9596a","session_id":"6197b88b8521cf7b15062bab","condition":"contingent","relevant_dimensions":["antennae","wings"],"bee_group":{"antennae":"A","wings":"1","pattern":"X","legs":"X"},"action":"avoid","summary":"good-avoid","bonus":1.140000000000001},{"rt":1288,"stimulus":"\n                    <p><b>Action: <em>avoid</em></b></p>\n                    <p>This is the bee that you just saw.</p>\n                    <img src=\"bees-with-color/bee-A1SF.svg\" width=\"200\">\n                    <p><br>Your bonus pay is unchanged, and remains at $0.52.</p>\n            ","response":0,"trial_type":"html-button-response","trial_index":88,"time_elapsed":382734,"internal_node_id":"0.0-4.0-1.40","subject_id":"613a413d1ad3d704a4b77694","study_id":"6197b3f67c2b5cd3b6d9596a","session_id":"6197b88b8521cf7b15062bab","condition":"contingent","relevant_dimensions":["antennae","wings"],"bee_group":{"antennae":"A","wings":"1","pattern":"X","legs":"X"},"bonus":1.140000000000001},{"rt":1305,"stimulus":"bees-with-color/bee-B1DM.svg","response":0,"trial_type":"image-button-response","trial_index":89,"time_elapsed":384040,"internal_node_id":"0.0-4.0-0.41","subject_id":"613a413d1ad3d704a4b77694","study_id":"6197b3f67c2b5cd3b6d9596a","session_id":"6197b88b8521cf7b15062bab","condition":"contingent","relevant_dimensions":["antennae","wings"],"bee_group":{"antennae":"A","wings":"1","pattern":"X","legs":"X"},"action":"harvest","summary":"good-harvest","bonus":1.140000000000001},{"rt":808.9999999999418,"stimulus":"\n                    <p><b>Action: <em>harvest</em></b></p>\n                    <p>This is the bee that you just saw.</p>\n                    <img src=\"bees-with-color/bee-B1DM.svg\" width=\"200\">\n                    <p><span class=\"greenText\"><b>Successful harvest!</b></span><br>Your pay has increased by $0.02. Your bonus pay is now $0.54.</p>\n            ","response":0,"trial_type":"html-button-response","trial_index":90,"time_elapsed":384850,"internal_node_id":"0.0-4.0-1.41","subject_id":"613a413d1ad3d704a4b77694","study_id":"6197b3f67c2b5cd3b6d9596a","session_id":"6197b88b8521cf7b15062bab","condition":"contingent","relevant_dimensions":["antennae","wings"],"bee_group":{"antennae":"A","wings":"1","pattern":"X","legs":"X"},"bonus":1.140000000000001},{"rt":825,"stimulus":"bees-with-color/bee-A2SF.svg","response":0,"trial_type":"image-button-response","trial_index":91,"time_elapsed":385676,"internal_node_id":"0.0-4.0-0.42","subject_id":"613a413d1ad3d704a4b77694","study_id":"6197b3f67c2b5cd3b6d9596a","session_id":"6197b88b8521cf7b15062bab","condition":"contingent","relevant_dimensions":["antennae","wings"],"bee_group":{"antennae":"A","wings":"1","pattern":"X","legs":"X"},"action":"harvest","summary":"good-harvest","bonus":1.140000000000001},{"rt":567,"stimulus":"\n                    <p><b>Action: <em>harvest</em></b></p>\n                    <p>This is the bee that you just saw.</p>\n                    <img src=\"bees-with-color/bee-A2SF.svg\" width=\"200\">\n                    <p><span class=\"greenText\"><b>Successful harvest!</b></span><br>Your pay has increased by $0.02. Your bonus pay is now $0.56.</p>\n            ","response":0,"trial_type":"html-button-response","trial_index":92,"time_elapsed":386244,"internal_node_id":"0.0-4.0-1.42","subject_id":"613a413d1ad3d704a4b77694","study_id":"6197b3f67c2b5cd3b6d9596a","session_id":"6197b88b8521cf7b15062bab","condition":"contingent","relevant_dimensions":["antennae","wings"],"bee_group":{"antennae":"A","wings":"1","pattern":"X","legs":"X"},"bonus":1.140000000000001},{"rt":2193,"stimulus":"bees-with-color/bee-A1DM.svg","response":1,"trial_type":"image-button-response","trial_index":93,"time_elapsed":388438,"internal_node_id":"0.0-4.0-0.43","subject_id":"613a413d1ad3d704a4b77694","study_id":"6197b3f67c2b5cd3b6d9596a","session_id":"6197b88b8521cf7b15062bab","condition":"contingent","relevant_dimensions":["antennae","wings"],"bee_group":{"antennae":"A","wings":"1","pattern":"X","legs":"X"},"action":"avoid","summary":"good-avoid","bonus":1.140000000000001},{"rt":664,"stimulus":"\n                    <p><b>Action: <em>avoid</em></b></p>\n                    <p>This is the bee that you just saw.</p>\n                    <img src=\"bees-with-color/bee-A1DM.svg\" width=\"200\">\n                    <p><br>Your bonus pay is unchanged, and remains at $0.56.</p>\n            ","response":0,"trial_type":"html-button-response","trial_index":94,"time_elapsed":389104,"internal_node_id":"0.0-4.0-1.43","subject_id":"613a413d1ad3d704a4b77694","study_id":"6197b3f67c2b5cd3b6d9596a","session_id":"6197b88b8521cf7b15062bab","condition":"contingent","relevant_dimensions":["antennae","wings"],"bee_group":{"antennae":"A","wings":"1","pattern":"X","legs":"X"},"bonus":1.140000000000001},{"rt":895,"stimulus":"bees-with-color/bee-B2DM.svg","response":0,"trial_type":"image-button-response","trial_index":95,"time_elapsed":390000,"internal_node_id":"0.0-4.0-0.44","subject_id":"613a413d1ad3d704a4b77694","study_id":"6197b3f67c2b5cd3b6d9596a","session_id":"6197b88b8521cf7b15062bab","condition":"contingent","relevant_dimensions":["antennae","wings"],"bee_group":{"antennae":"A","wings":"1","pattern":"X","legs":"X"},"action":"harvest","summary":"good-harvest","bonus":1.140000000000001},{"rt":1112,"stimulus":"\n                    <p><b>Action: <em>harvest</em></b></p>\n                    <p>This is the bee that you just saw.</p>\n                    <img src=\"bees-with-color/bee-B2DM.svg\" width=\"200\">\n                    <p><span class=\"greenText\"><b>Successful harvest!</b></span><br>Your pay has increased by $0.02. Your bonus pay is now $0.58.</p>\n            ","response":0,"trial_type":"html-button-response","trial_index":96,"time_elapsed":391114,"internal_node_id":"0.0-4.0-1.44","subject_id":"613a413d1ad3d704a4b77694","study_id":"6197b3f67c2b5cd3b6d9596a","session_id":"6197b88b8521cf7b15062bab","condition":"contingent","relevant_dimensions":["antennae","wings"],"bee_group":{"antennae":"A","wings":"1","pattern":"X","legs":"X"},"bonus":1.140000000000001},{"rt":3011,"stimulus":"bees-with-color/bee-B1SM.svg","response":1,"trial_type":"image-button-response","trial_index":97,"time_elapsed":394126,"internal_node_id":"0.0-4.0-0.45","subject_id":"613a413d1ad3d704a4b77694","study_id":"6197b3f67c2b5cd3b6d9596a","session_id":"6197b88b8521cf7b15062bab","condition":"contingent","relevant_dimensions":["antennae","wings"],"bee_group":{"antennae":"A","wings":"1","pattern":"X","legs":"X"},"action":"avoid","summary":"bad-avoid","bonus":1.140000000000001},{"rt":558,"stimulus":"\n                    <p><b>Action: <em>avoid</em></b></p>\n                    <p>This is the bee that you just saw.</p>\n                    <img src=\"bees-with-color/bee-B1SM.svg\" width=\"200\">\n                    <p><br>Your bonus pay is unchanged, and remains at $0.58.</p>\n            ","response":0,"trial_type":"html-button-response","trial_index":98,"time_elapsed":394685,"internal_node_id":"0.0-4.0-1.45","subject_id":"613a413d1ad3d704a4b77694","study_id":"6197b3f67c2b5cd3b6d9596a","session_id":"6197b88b8521cf7b15062bab","condition":"contingent","relevant_dimensions":["antennae","wings"],"bee_group":{"antennae":"A","wings":"1","pattern":"X","legs":"X"},"bonus":1.140000000000001},{"rt":774,"stimulus":"bees-with-color/bee-A2SM.svg","response":0,"trial_type":"image-button-response","trial_index":99,"time_elapsed":395461,"internal_node_id":"0.0-4.0-0.46","subject_id":"613a413d1ad3d704a4b77694","study_id":"6197b3f67c2b5cd3b6d9596a","session_id":"6197b88b8521cf7b15062bab","condition":"contingent","relevant_dimensions":["antennae","wings"],"bee_group":{"antennae":"A","wings":"1","pattern":"X","legs":"X"},"action":"harvest","summary":"good-harvest","bonus":1.140000000000001},{"rt":1473,"stimulus":"\n                    <p><b>Action: <em>harvest</em></b></p>\n                    <p>This is the bee that you just saw.</p>\n                    <img src=\"bees-with-color/bee-A2SM.svg\" width=\"200\">\n                    <p><span class=\"greenText\"><b>Successful harvest!</b></span><br>Your pay has increased by $0.02. Your bonus pay is now $0.60.</p>\n            ","response":0,"trial_type":"html-button-response","trial_index":100,"time_elapsed":396935,"internal_node_id":"0.0-4.0-1.46","subject_id":"613a413d1ad3d704a4b77694","study_id":"6197b3f67c2b5cd3b6d9596a","session_id":"6197b88b8521cf7b15062bab","condition":"contingent","relevant_dimensions":["antennae","wings"],"bee_group":{"antennae":"A","wings":"1","pattern":"X","legs":"X"},"bonus":1.140000000000001},{"rt":2957,"stimulus":"bees-with-color/bee-A2DM.svg","response":0,"trial_type":"image-button-response","trial_index":101,"time_elapsed":399893,"internal_node_id":"0.0-4.0-0.47","subject_id":"613a413d1ad3d704a4b77694","study_id":"6197b3f67c2b5cd3b6d9596a","session_id":"6197b88b8521cf7b15062bab","condition":"contingent","relevant_dimensions":["antennae","wings"],"bee_group":{"antennae":"A","wings":"1","pattern":"X","legs":"X"},"action":"harvest","summary":"good-harvest","bonus":1.140000000000001},{"rt":819,"stimulus":"\n                    <p><b>Action: <em>harvest</em></b></p>\n                    <p>This is the bee that you just saw.</p>\n                    <img src=\"bees-with-color/bee-A2DM.svg\" width=\"200\">\n                    <p><span class=\"greenText\"><b>Successful harvest!</b></span><br>Your pay has increased by $0.02. Your bonus pay is now $0.62.</p>\n            ","response":0,"trial_type":"html-button-response","trial_index":102,"time_elapsed":400713,"internal_node_id":"0.0-4.0-1.47","subject_id":"613a413d1ad3d704a4b77694","study_id":"6197b3f67c2b5cd3b6d9596a","session_id":"6197b88b8521cf7b15062bab","condition":"contingent","relevant_dimensions":["antennae","wings"],"bee_group":{"antennae":"A","wings":"1","pattern":"X","legs":"X"},"bonus":1.140000000000001},{"rt":977,"stimulus":"bees-with-color/bee-A2DM.svg","response":0,"trial_type":"image-button-response","trial_index":103,"time_elapsed":401691,"internal_node_id":"0.0-4.0-0.48","subject_id":"613a413d1ad3d704a4b77694","study_id":"6197b3f67c2b5cd3b6d9596a","session_id":"6197b88b8521cf7b15062bab","condition":"contingent","relevant_dimensions":["antennae","wings"],"bee_group":{"antennae":"A","wings":"1","pattern":"X","legs":"X"},"action":"harvest","summary":"good-harvest","bonus":1.140000000000001},{"rt":655,"stimulus":"\n                    <p><b>Action: <em>harvest</em></b></p>\n                    <p>This is the bee that you just saw.</p>\n                    <img src=\"bees-with-color/bee-A2DM.svg\" width=\"200\">\n                    <p><span class=\"greenText\"><b>Successful harvest!</b></span><br>Your pay has increased by $0.02. Your bonus pay is now $0.64.</p>\n            ","response":0,"trial_type":"html-button-response","trial_index":104,"time_elapsed":402347,"internal_node_id":"0.0-4.0-1.48","subject_id":"613a413d1ad3d704a4b77694","study_id":"6197b3f67c2b5cd3b6d9596a","session_id":"6197b88b8521cf7b15062bab","condition":"contingent","relevant_dimensions":["antennae","wings"],"bee_group":{"antennae":"A","wings":"1","pattern":"X","legs":"X"},"bonus":1.140000000000001},{"rt":3018,"stimulus":"bees-with-color/bee-B2DM.svg","response":0,"trial_type":"image-button-response","trial_index":105,"time_elapsed":405366,"internal_node_id":"0.0-4.0-0.49","subject_id":"613a413d1ad3d704a4b77694","study_id":"6197b3f67c2b5cd3b6d9596a","session_id":"6197b88b8521cf7b15062bab","condition":"contingent","relevant_dimensions":["antennae","wings"],"bee_group":{"antennae":"A","wings":"1","pattern":"X","legs":"X"},"action":"harvest","summary":"good-harvest","bonus":1.140000000000001},{"rt":617,"stimulus":"\n                    <p><b>Action: <em>harvest</em></b></p>\n                    <p>This is the bee that you just saw.</p>\n                    <img src=\"bees-with-color/bee-B2DM.svg\" width=\"200\">\n                    <p><span class=\"greenText\"><b>Successful harvest!</b></span><br>Your pay has increased by $0.02. Your bonus pay is now $0.66.</p>\n            ","response":0,"trial_type":"html-button-response","trial_index":106,"time_elapsed":405984,"internal_node_id":"0.0-4.0-1.49","subject_id":"613a413d1ad3d704a4b77694","study_id":"6197b3f67c2b5cd3b6d9596a","session_id":"6197b88b8521cf7b15062bab","condition":"contingent","relevant_dimensions":["antennae","wings"],"bee_group":{"antennae":"A","wings":"1","pattern":"X","legs":"X"},"bonus":1.140000000000001},{"rt":911,"stimulus":"bees-with-color/bee-B2SM.svg","response":0,"trial_type":"image-button-response","trial_index":107,"time_elapsed":406896,"internal_node_id":"0.0-4.0-0.50","subject_id":"613a413d1ad3d704a4b77694","study_id":"6197b3f67c2b5cd3b6d9596a","session_id":"6197b88b8521cf7b15062bab","condition":"contingent","relevant_dimensions":["antennae","wings"],"bee_group":{"antennae":"A","wings":"1","pattern":"X","legs":"X"},"action":"harvest","summary":"good-harvest","bonus":1.140000000000001},{"rt":703.9999999999418,"stimulus":"\n                    <p><b>Action: <em>harvest</em></b></p>\n                    <p>This is the bee that you just saw.</p>\n                    <img src=\"bees-with-color/bee-B2SM.svg\" width=\"200\">\n                    <p><span class=\"greenText\"><b>Successful harvest!</b></span><br>Your pay has increased by $0.02. Your bonus pay is now $0.68.</p>\n            ","response":0,"trial_type":"html-button-response","trial_index":108,"time_elapsed":407601,"internal_node_id":"0.0-4.0-1.50","subject_id":"613a413d1ad3d704a4b77694","study_id":"6197b3f67c2b5cd3b6d9596a","session_id":"6197b88b8521cf7b15062bab","condition":"contingent","relevant_dimensions":["antennae","wings"],"bee_group":{"antennae":"A","wings":"1","pattern":"X","legs":"X"},"bonus":1.140000000000001},{"rt":953,"stimulus":"bees-with-color/bee-A1SF.svg","response":1,"trial_type":"image-button-response","trial_index":109,"time_elapsed":408555,"internal_node_id":"0.0-4.0-0.51","subject_id":"613a413d1ad3d704a4b77694","study_id":"6197b3f67c2b5cd3b6d9596a","session_id":"6197b88b8521cf7b15062bab","condition":"contingent","relevant_dimensions":["antennae","wings"],"bee_group":{"antennae":"A","wings":"1","pattern":"X","legs":"X"},"action":"avoid","summary":"good-avoid","bonus":1.140000000000001},{"rt":577,"stimulus":"\n                    <p><b>Action: <em>avoid</em></b></p>\n                    <p>This is the bee that you just saw.</p>\n                    <img src=\"bees-with-color/bee-A1SF.svg\" width=\"200\">\n                    <p><br>Your bonus pay is unchanged, and remains at $0.68.</p>\n            ","response":0,"trial_type":"html-button-response","trial_index":110,"time_elapsed":409133,"internal_node_id":"0.0-4.0-1.51","subject_id":"613a413d1ad3d704a4b77694","study_id":"6197b3f67c2b5cd3b6d9596a","session_id":"6197b88b8521cf7b15062bab","condition":"contingent","relevant_dimensions":["antennae","wings"],"bee_group":{"antennae":"A","wings":"1","pattern":"X","legs":"X"},"bonus":1.140000000000001},{"rt":1566,"stimulus":"bees-with-color/bee-B1DM.svg","response":0,"trial_type":"image-button-response","trial_index":111,"time_elapsed":410700,"internal_node_id":"0.0-4.0-0.52","subject_id":"613a413d1ad3d704a4b77694","study_id":"6197b3f67c2b5cd3b6d9596a","session_id":"6197b88b8521cf7b15062bab","condition":"contingent","relevant_dimensions":["antennae","wings"],"bee_group":{"antennae":"A","wings":"1","pattern":"X","legs":"X"},"action":"harvest","summary":"good-harvest","bonus":1.140000000000001},{"rt":663,"stimulus":"\n                    <p><b>Action: <em>harvest</em></b></p>\n                    <p>This is the bee that you just saw.</p>\n                    <img src=\"bees-with-color/bee-B1DM.svg\" width=\"200\">\n                    <p><span class=\"greenText\"><b>Successful harvest!</b></span><br>Your pay has increased by $0.02. Your bonus pay is now $0.70.</p>\n            ","response":0,"trial_type":"html-button-response","trial_index":112,"time_elapsed":411364,"internal_node_id":"0.0-4.0-1.52","subject_id":"613a413d1ad3d704a4b77694","study_id":"6197b3f67c2b5cd3b6d9596a","session_id":"6197b88b8521cf7b15062bab","condition":"contingent","relevant_dimensions":["antennae","wings"],"bee_group":{"antennae":"A","wings":"1","pattern":"X","legs":"X"},"bonus":1.140000000000001},{"rt":1685,"stimulus":"bees-with-color/bee-A2DF.svg","response":0,"trial_type":"image-button-response","trial_index":113,"time_elapsed":413050,"internal_node_id":"0.0-4.0-0.53","subject_id":"613a413d1ad3d704a4b77694","study_id":"6197b3f67c2b5cd3b6d9596a","session_id":"6197b88b8521cf7b15062bab","condition":"contingent","relevant_dimensions":["antennae","wings"],"bee_group":{"antennae":"A","wings":"1","pattern":"X","legs":"X"},"action":"harvest","summary":"good-harvest","bonus":1.140000000000001},{"rt":575,"stimulus":"\n                    <p><b>Action: <em>harvest</em></b></p>\n                    <p>This is the bee that you just saw.</p>\n                    <img src=\"bees-with-color/bee-A2DF.svg\" width=\"200\">\n                    <p><span class=\"greenText\"><b>Successful harvest!</b></span><br>Your pay has increased by $0.02. Your bonus pay is now $0.72.</p>\n            ","response":0,"trial_type":"html-button-response","trial_index":114,"time_elapsed":413626,"internal_node_id":"0.0-4.0-1.53","subject_id":"613a413d1ad3d704a4b77694","study_id":"6197b3f67c2b5cd3b6d9596a","session_id":"6197b88b8521cf7b15062bab","condition":"contingent","relevant_dimensions":["antennae","wings"],"bee_group":{"antennae":"A","wings":"1","pattern":"X","legs":"X"},"bonus":1.140000000000001},{"rt":935,"stimulus":"bees-with-color/bee-A1DM.svg","response":1,"trial_type":"image-button-response","trial_index":115,"time_elapsed":414563,"internal_node_id":"0.0-4.0-0.54","subject_id":"613a413d1ad3d704a4b77694","study_id":"6197b3f67c2b5cd3b6d9596a","session_id":"6197b88b8521cf7b15062bab","condition":"contingent","relevant_dimensions":["antennae","wings"],"bee_group":{"antennae":"A","wings":"1","pattern":"X","legs":"X"},"action":"avoid","summary":"good-avoid","bonus":1.140000000000001},{"rt":577,"stimulus":"\n                    <p><b>Action: <em>avoid</em></b></p>\n                    <p>This is the bee that you just saw.</p>\n                    <img src=\"bees-with-color/bee-A1DM.svg\" width=\"200\">\n                    <p><br>Your bonus pay is unchanged, and remains at $0.72.</p>\n            ","response":0,"trial_type":"html-button-response","trial_index":116,"time_elapsed":415141,"internal_node_id":"0.0-4.0-1.54","subject_id":"613a413d1ad3d704a4b77694","study_id":"6197b3f67c2b5cd3b6d9596a","session_id":"6197b88b8521cf7b15062bab","condition":"contingent","relevant_dimensions":["antennae","wings"],"bee_group":{"antennae":"A","wings":"1","pattern":"X","legs":"X"},"bonus":1.140000000000001},{"rt":5346.999999999942,"stimulus":"bees-with-color/bee-B2SF.svg","response":0,"trial_type":"image-button-response","trial_index":117,"time_elapsed":420489,"internal_node_id":"0.0-4.0-0.55","subject_id":"613a413d1ad3d704a4b77694","study_id":"6197b3f67c2b5cd3b6d9596a","session_id":"6197b88b8521cf7b15062bab","condition":"contingent","relevant_dimensions":["antennae","wings"],"bee_group":{"antennae":"A","wings":"1","pattern":"X","legs":"X"},"action":"harvest","summary":"good-harvest","bonus":1.140000000000001},{"rt":698,"stimulus":"\n                    <p><b>Action: <em>harvest</em></b></p>\n                    <p>This is the bee that you just saw.</p>\n                    <img src=\"bees-with-color/bee-B2SF.svg\" width=\"200\">\n                    <p><span class=\"greenText\"><b>Successful harvest!</b></span><br>Your pay has increased by $0.02. Your bonus pay is now $0.74.</p>\n            ","response":0,"trial_type":"html-button-response","trial_index":118,"time_elapsed":421189,"internal_node_id":"0.0-4.0-1.55","subject_id":"613a413d1ad3d704a4b77694","study_id":"6197b3f67c2b5cd3b6d9596a","session_id":"6197b88b8521cf7b15062bab","condition":"contingent","relevant_dimensions":["antennae","wings"],"bee_group":{"antennae":"A","wings":"1","pattern":"X","legs":"X"},"bonus":1.140000000000001},{"rt":994,"stimulus":"bees-with-color/bee-B1DF.svg","response":1,"trial_type":"image-button-response","trial_index":119,"time_elapsed":422184,"internal_node_id":"0.0-4.0-0.56","subject_id":"613a413d1ad3d704a4b77694","study_id":"6197b3f67c2b5cd3b6d9596a","session_id":"6197b88b8521cf7b15062bab","condition":"contingent","relevant_dimensions":["antennae","wings"],"bee_group":{"antennae":"A","wings":"1","pattern":"X","legs":"X"},"action":"avoid","summary":"bad-avoid","bonus":1.140000000000001},{"rt":674,"stimulus":"\n                    <p><b>Action: <em>avoid</em></b></p>\n                    <p>This is the bee that you just saw.</p>\n                    <img src=\"bees-with-color/bee-B1DF.svg\" width=\"200\">\n                    <p><br>Your bonus pay is unchanged, and remains at $0.74.</p>\n            ","response":0,"trial_type":"html-button-response","trial_index":120,"time_elapsed":422860,"internal_node_id":"0.0-4.0-1.56","subject_id":"613a413d1ad3d704a4b77694","study_id":"6197b3f67c2b5cd3b6d9596a","session_id":"6197b88b8521cf7b15062bab","condition":"contingent","relevant_dimensions":["antennae","wings"],"bee_group":{"antennae":"A","wings":"1","pattern":"X","legs":"X"},"bonus":1.140000000000001},{"rt":1216.9999999999418,"stimulus":"bees-with-color/bee-A1DF.svg","response":1,"trial_type":"image-button-response","trial_index":121,"time_elapsed":424078,"internal_node_id":"0.0-4.0-0.57","subject_id":"613a413d1ad3d704a4b77694","study_id":"6197b3f67c2b5cd3b6d9596a","session_id":"6197b88b8521cf7b15062bab","condition":"contingent","relevant_dimensions":["antennae","wings"],"bee_group":{"antennae":"A","wings":"1","pattern":"X","legs":"X"},"action":"avoid","summary":"good-avoid","bonus":1.140000000000001},{"rt":607,"stimulus":"\n                    <p><b>Action: <em>avoid</em></b></p>\n                    <p>This is the bee that you just saw.</p>\n                    <img src=\"bees-with-color/bee-A1DF.svg\" width=\"200\">\n                    <p><br>Your bonus pay is unchanged, and remains at $0.74.</p>\n            ","response":0,"trial_type":"html-button-response","trial_index":122,"time_elapsed":424686,"internal_node_id":"0.0-4.0-1.57","subject_id":"613a413d1ad3d704a4b77694","study_id":"6197b3f67c2b5cd3b6d9596a","session_id":"6197b88b8521cf7b15062bab","condition":"contingent","relevant_dimensions":["antennae","wings"],"bee_group":{"antennae":"A","wings":"1","pattern":"X","legs":"X"},"bonus":1.140000000000001},{"rt":1968,"stimulus":"bees-with-color/bee-B1SM.svg","response":1,"trial_type":"image-button-response","trial_index":123,"time_elapsed":426656,"internal_node_id":"0.0-4.0-0.58","subject_id":"613a413d1ad3d704a4b77694","study_id":"6197b3f67c2b5cd3b6d9596a","session_id":"6197b88b8521cf7b15062bab","condition":"contingent","relevant_dimensions":["antennae","wings"],"bee_group":{"antennae":"A","wings":"1","pattern":"X","legs":"X"},"action":"avoid","summary":"bad-avoid","bonus":1.140000000000001},{"rt":685,"stimulus":"\n                    <p><b>Action: <em>avoid</em></b></p>\n                    <p>This is the bee that you just saw.</p>\n                    <img src=\"bees-with-color/bee-B1SM.svg\" width=\"200\">\n                    <p><br>Your bonus pay is unchanged, and remains at $0.74.</p>\n            ","response":0,"trial_type":"html-button-response","trial_index":124,"time_elapsed":427343,"internal_node_id":"0.0-4.0-1.58","subject_id":"613a413d1ad3d704a4b77694","study_id":"6197b3f67c2b5cd3b6d9596a","session_id":"6197b88b8521cf7b15062bab","condition":"contingent","relevant_dimensions":["antennae","wings"],"bee_group":{"antennae":"A","wings":"1","pattern":"X","legs":"X"},"bonus":1.140000000000001},{"rt":1555,"stimulus":"bees-with-color/bee-A1SM.svg","response":1,"trial_type":"image-button-response","trial_index":125,"time_elapsed":428900,"internal_node_id":"0.0-4.0-0.59","subject_id":"613a413d1ad3d704a4b77694","study_id":"6197b3f67c2b5cd3b6d9596a","session_id":"6197b88b8521cf7b15062bab","condition":"contingent","relevant_dimensions":["antennae","wings"],"bee_group":{"antennae":"A","wings":"1","pattern":"X","legs":"X"},"action":"avoid","summary":"good-avoid","bonus":1.140000000000001},{"rt":567,"stimulus":"\n                    <p><b>Action: <em>avoid</em></b></p>\n                    <p>This is the bee that you just saw.</p>\n                    <img src=\"bees-with-color/bee-A1SM.svg\" width=\"200\">\n                    <p><br>Your bonus pay is unchanged, and remains at $0.74.</p>\n            ","response":0,"trial_type":"html-button-response","trial_index":126,"time_elapsed":429468,"internal_node_id":"0.0-4.0-1.59","subject_id":"613a413d1ad3d704a4b77694","study_id":"6197b3f67c2b5cd3b6d9596a","session_id":"6197b88b8521cf7b15062bab","condition":"contingent","relevant_dimensions":["antennae","wings"],"bee_group":{"antennae":"A","wings":"1","pattern":"X","legs":"X"},"bonus":1.140000000000001},{"rt":8298,"stimulus":"bees-with-color/bee-B1SF.svg","response":1,"trial_type":"image-button-response","trial_index":127,"time_elapsed":437766,"internal_node_id":"0.0-4.0-0.60","subject_id":"613a413d1ad3d704a4b77694","study_id":"6197b3f67c2b5cd3b6d9596a","session_id":"6197b88b8521cf7b15062bab","condition":"contingent","relevant_dimensions":["antennae","wings"],"bee_group":{"antennae":"A","wings":"1","pattern":"X","legs":"X"},"action":"avoid","summary":"bad-avoid","bonus":1.140000000000001},{"rt":1869,"stimulus":"\n                    <p><b>Action: <em>avoid</em></b></p>\n                    <p>This is the bee that you just saw.</p>\n                    <img src=\"bees-with-color/bee-B1SF.svg\" width=\"200\">\n                    <p><br>Your bonus pay is unchanged, and remains at $0.74.</p>\n            ","response":0,"trial_type":"html-button-response","trial_index":128,"time_elapsed":439637,"internal_node_id":"0.0-4.0-1.60","subject_id":"613a413d1ad3d704a4b77694","study_id":"6197b3f67c2b5cd3b6d9596a","session_id":"6197b88b8521cf7b15062bab","condition":"contingent","relevant_dimensions":["antennae","wings"],"bee_group":{"antennae":"A","wings":"1","pattern":"X","legs":"X"},"bonus":1.140000000000001},{"rt":1199,"stimulus":"bees-with-color/bee-B2DF.svg","response":0,"trial_type":"image-button-response","trial_index":129,"time_elapsed":440837,"internal_node_id":"0.0-4.0-0.61","subject_id":"613a413d1ad3d704a4b77694","study_id":"6197b3f67c2b5cd3b6d9596a","session_id":"6197b88b8521cf7b15062bab","condition":"contingent","relevant_dimensions":["antennae","wings"],"bee_group":{"antennae":"A","wings":"1","pattern":"X","legs":"X"},"action":"harvest","summary":"good-harvest","bonus":1.140000000000001},{"rt":645,"stimulus":"\n                    <p><b>Action: <em>harvest</em></b></p>\n                    <p>This is the bee that you just saw.</p>\n                    <img src=\"bees-with-color/bee-B2DF.svg\" width=\"200\">\n                    <p><span class=\"greenText\"><b>Successful harvest!</b></span><br>Your pay has increased by $0.02. Your bonus pay is now $0.76.</p>\n            ","response":0,"trial_type":"html-button-response","trial_index":130,"time_elapsed":441484,"internal_node_id":"0.0-4.0-1.61","subject_id":"613a413d1ad3d704a4b77694","study_id":"6197b3f67c2b5cd3b6d9596a","session_id":"6197b88b8521cf7b15062bab","condition":"contingent","relevant_dimensions":["antennae","wings"],"bee_group":{"antennae":"A","wings":"1","pattern":"X","legs":"X"},"bonus":1.140000000000001},{"rt":2894,"stimulus":"bees-with-color/bee-A2SF.svg","response":0,"trial_type":"image-button-response","trial_index":131,"time_elapsed":444379,"internal_node_id":"0.0-4.0-0.62","subject_id":"613a413d1ad3d704a4b77694","study_id":"6197b3f67c2b5cd3b6d9596a","session_id":"6197b88b8521cf7b15062bab","condition":"contingent","relevant_dimensions":["antennae","wings"],"bee_group":{"antennae":"A","wings":"1","pattern":"X","legs":"X"},"action":"harvest","summary":"good-harvest","bonus":1.140000000000001},{"rt":1222,"stimulus":"\n                    <p><b>Action: <em>harvest</em></b></p>\n                    <p>This is the bee that you just saw.</p>\n                    <img src=\"bees-with-color/bee-A2SF.svg\" width=\"200\">\n                    <p><span class=\"greenText\"><b>Successful harvest!</b></span><br>Your pay has increased by $0.02. Your bonus pay is now $0.78.</p>\n            ","response":0,"trial_type":"html-button-response","trial_index":132,"time_elapsed":445602,"internal_node_id":"0.0-4.0-1.62","subject_id":"613a413d1ad3d704a4b77694","study_id":"6197b3f67c2b5cd3b6d9596a","session_id":"6197b88b8521cf7b15062bab","condition":"contingent","relevant_dimensions":["antennae","wings"],"bee_group":{"antennae":"A","wings":"1","pattern":"X","legs":"X"},"bonus":1.140000000000001},{"rt":885,"stimulus":"bees-with-color/bee-A2SM.svg","response":0,"trial_type":"image-button-response","trial_index":133,"time_elapsed":446489,"internal_node_id":"0.0-4.0-0.63","subject_id":"613a413d1ad3d704a4b77694","study_id":"6197b3f67c2b5cd3b6d9596a","session_id":"6197b88b8521cf7b15062bab","condition":"contingent","relevant_dimensions":["antennae","wings"],"bee_group":{"antennae":"A","wings":"1","pattern":"X","legs":"X"},"action":"harvest","summary":"good-harvest","bonus":1.140000000000001},{"rt":630,"stimulus":"\n                    <p><b>Action: <em>harvest</em></b></p>\n                    <p>This is the bee that you just saw.</p>\n                    <img src=\"bees-with-color/bee-A2SM.svg\" width=\"200\">\n                    <p><span class=\"greenText\"><b>Successful harvest!</b></span><br>Your pay has increased by $0.02. Your bonus pay is now $0.80.</p>\n            ","response":0,"trial_type":"html-button-response","trial_index":134,"time_elapsed":447120,"internal_node_id":"0.0-4.0-1.63","subject_id":"613a413d1ad3d704a4b77694","study_id":"6197b3f67c2b5cd3b6d9596a","session_id":"6197b88b8521cf7b15062bab","condition":"contingent","relevant_dimensions":["antennae","wings"],"bee_group":{"antennae":"A","wings":"1","pattern":"X","legs":"X"},"bonus":1.140000000000001},{"rt":6185,"stimulus":"You have completed the first part of this experiment.<br><br>You will now begin a shorter second part, in which you will receive no feedback.<br>The same rules regarding bonus pay apply.<br><br>Press any key to begin.","response":" ","trial_type":"html-keyboard-response","trial_index":135,"time_elapsed":453307,"internal_node_id":"0.0-5.0","subject_id":"613a413d1ad3d704a4b77694","study_id":"6197b3f67c2b5cd3b6d9596a","session_id":"6197b88b8521cf7b15062bab","condition":"contingent","relevant_dimensions":["antennae","wings"],"bee_group":{"antennae":"A","wings":"1","pattern":"X","legs":"X"},"bonus":1.140000000000001},{"rt":2098,"stimulus":"bees-with-color/bee-A2DF.svg","response":0,"trial_type":"image-button-response","trial_index":136,"time_elapsed":455437,"internal_node_id":"0.0-6.0-0.0","subject_id":"613a413d1ad3d704a4b77694","study_id":"6197b3f67c2b5cd3b6d9596a","session_id":"6197b88b8521cf7b15062bab","condition":"contingent","relevant_dimensions":["antennae","wings"],"bee_group":{"antennae":"A","wings":"1","pattern":"X","legs":"X"},"bonus":1.140000000000001},{"rt":3153.000000000058,"stimulus":"bees-with-color/bee-A1DM.svg","response":1,"trial_type":"image-button-response","trial_index":137,"time_elapsed":458593,"internal_node_id":"0.0-6.0-0.1","subject_id":"613a413d1ad3d704a4b77694","study_id":"6197b3f67c2b5cd3b6d9596a","session_id":"6197b88b8521cf7b15062bab","condition":"contingent","relevant_dimensions":["antennae","wings"],"bee_group":{"antennae":"A","wings":"1","pattern":"X","legs":"X"},"bonus":1.140000000000001},{"rt":832.0000000000582,"stimulus":"bees-with-color/bee-B1SM.svg","response":1,"trial_type":"image-button-response","trial_index":138,"time_elapsed":459427,"internal_node_id":"0.0-6.0-0.2","subject_id":"613a413d1ad3d704a4b77694","study_id":"6197b3f67c2b5cd3b6d9596a","session_id":"6197b88b8521cf7b15062bab","condition":"contingent","relevant_dimensions":["antennae","wings"],"bee_group":{"antennae":"A","wings":"1","pattern":"X","legs":"X"},"bonus":1.140000000000001},{"rt":1156,"stimulus":"bees-with-color/bee-B2SF.svg","response":0,"trial_type":"image-button-response","trial_index":139,"time_elapsed":460586,"internal_node_id":"0.0-6.0-0.3","subject_id":"613a413d1ad3d704a4b77694","study_id":"6197b3f67c2b5cd3b6d9596a","session_id":"6197b88b8521cf7b15062bab","condition":"contingent","relevant_dimensions":["antennae","wings"],"bee_group":{"antennae":"A","wings":"1","pattern":"X","legs":"X"},"bonus":1.140000000000001},{"rt":789,"stimulus":"bees-with-color/bee-A2DM.svg","response":0,"trial_type":"image-button-response","trial_index":140,"time_elapsed":461379,"internal_node_id":"0.0-6.0-0.4","subject_id":"613a413d1ad3d704a4b77694","study_id":"6197b3f67c2b5cd3b6d9596a","session_id":"6197b88b8521cf7b15062bab","condition":"contingent","relevant_dimensions":["antennae","wings"],"bee_group":{"antennae":"A","wings":"1","pattern":"X","legs":"X"},"bonus":1.140000000000001},{"rt":1061,"stimulus":"bees-with-color/bee-A1SF.svg","response":1,"trial_type":"image-button-response","trial_index":141,"time_elapsed":462442,"internal_node_id":"0.0-6.0-0.5","subject_id":"613a413d1ad3d704a4b77694","study_id":"6197b3f67c2b5cd3b6d9596a","session_id":"6197b88b8521cf7b15062bab","condition":"contingent","relevant_dimensions":["antennae","wings"],"bee_group":{"antennae":"A","wings":"1","pattern":"X","legs":"X"},"bonus":1.140000000000001},{"rt":843.9999999999418,"stimulus":"bees-with-color/bee-B2SM.svg","response":0,"trial_type":"image-button-response","trial_index":142,"time_elapsed":463288,"internal_node_id":"0.0-6.0-0.6","subject_id":"613a413d1ad3d704a4b77694","study_id":"6197b3f67c2b5cd3b6d9596a","session_id":"6197b88b8521cf7b15062bab","condition":"contingent","relevant_dimensions":["antennae","wings"],"bee_group":{"antennae":"A","wings":"1","pattern":"X","legs":"X"},"bonus":1.140000000000001},{"rt":4440.999999999942,"stimulus":"bees-with-color/bee-B1DM.svg","response":0,"trial_type":"image-button-response","trial_index":143,"time_elapsed":467731,"internal_node_id":"0.0-6.0-0.7","subject_id":"613a413d1ad3d704a4b77694","study_id":"6197b3f67c2b5cd3b6d9596a","session_id":"6197b88b8521cf7b15062bab","condition":"contingent","relevant_dimensions":["antennae","wings"],"bee_group":{"antennae":"A","wings":"1","pattern":"X","legs":"X"},"bonus":1.140000000000001},{"rt":1623,"stimulus":"bees-with-color/bee-B1DF.svg","response":1,"trial_type":"image-button-response","trial_index":144,"time_elapsed":469532,"internal_node_id":"0.0-6.0-0.8","subject_id":"613a413d1ad3d704a4b77694","study_id":"6197b3f67c2b5cd3b6d9596a","session_id":"6197b88b8521cf7b15062bab","condition":"contingent","relevant_dimensions":["antennae","wings"],"bee_group":{"antennae":"A","wings":"1","pattern":"X","legs":"X"},"bonus":1.140000000000001},{"rt":1016,"stimulus":"bees-with-color/bee-A1SM.svg","response":1,"trial_type":"image-button-response","trial_index":145,"time_elapsed":470550,"internal_node_id":"0.0-6.0-0.9","subject_id":"613a413d1ad3d704a4b77694","study_id":"6197b3f67c2b5cd3b6d9596a","session_id":"6197b88b8521cf7b15062bab","condition":"contingent","relevant_dimensions":["antennae","wings"],"bee_group":{"antennae":"A","wings":"1","pattern":"X","legs":"X"},"bonus":1.140000000000001},{"rt":958,"stimulus":"bees-with-color/bee-B2DF.svg","response":0,"trial_type":"image-button-response","trial_index":146,"time_elapsed":471511,"internal_node_id":"0.0-6.0-0.10","subject_id":"613a413d1ad3d704a4b77694","study_id":"6197b3f67c2b5cd3b6d9596a","session_id":"6197b88b8521cf7b15062bab","condition":"contingent","relevant_dimensions":["antennae","wings"],"bee_group":{"antennae":"A","wings":"1","pattern":"X","legs":"X"},"bonus":1.140000000000001},{"rt":1536,"stimulus":"bees-with-color/bee-B1SF.svg","response":1,"trial_type":"image-button-response","trial_index":147,"time_elapsed":473049,"internal_node_id":"0.0-6.0-0.11","subject_id":"613a413d1ad3d704a4b77694","study_id":"6197b3f67c2b5cd3b6d9596a","session_id":"6197b88b8521cf7b15062bab","condition":"contingent","relevant_dimensions":["antennae","wings"],"bee_group":{"antennae":"A","wings":"1","pattern":"X","legs":"X"},"bonus":1.140000000000001},{"rt":839.9999999999418,"stimulus":"bees-with-color/bee-A1DF.svg","response":1,"trial_type":"image-button-response","trial_index":148,"time_elapsed":473892,"internal_node_id":"0.0-6.0-0.12","subject_id":"613a413d1ad3d704a4b77694","study_id":"6197b3f67c2b5cd3b6d9596a","session_id":"6197b88b8521cf7b15062bab","condition":"contingent","relevant_dimensions":["antennae","wings"],"bee_group":{"antennae":"A","wings":"1","pattern":"X","legs":"X"},"bonus":1.140000000000001},{"rt":734.0000000000582,"stimulus":"bees-with-color/bee-A2SM.svg","response":0,"trial_type":"image-button-response","trial_index":149,"time_elapsed":474629,"internal_node_id":"0.0-6.0-0.13","subject_id":"613a413d1ad3d704a4b77694","study_id":"6197b3f67c2b5cd3b6d9596a","session_id":"6197b88b8521cf7b15062bab","condition":"contingent","relevant_dimensions":["antennae","wings"],"bee_group":{"antennae":"A","wings":"1","pattern":"X","legs":"X"},"bonus":1.140000000000001},{"rt":522,"stimulus":"bees-with-color/bee-A2SF.svg","response":0,"trial_type":"image-button-response","trial_index":150,"time_elapsed":475154,"internal_node_id":"0.0-6.0-0.14","subject_id":"613a413d1ad3d704a4b77694","study_id":"6197b3f67c2b5cd3b6d9596a","session_id":"6197b88b8521cf7b15062bab","condition":"contingent","relevant_dimensions":["antennae","wings"],"bee_group":{"antennae":"A","wings":"1","pattern":"X","legs":"X"},"bonus":1.140000000000001},{"rt":638,"stimulus":"bees-with-color/bee-B2DM.svg","response":0,"trial_type":"image-button-response","trial_index":151,"time_elapsed":475794,"internal_node_id":"0.0-6.0-0.15","subject_id":"613a413d1ad3d704a4b77694","study_id":"6197b3f67c2b5cd3b6d9596a","session_id":"6197b88b8521cf7b15062bab","condition":"contingent","relevant_dimensions":["antennae","wings"],"bee_group":{"antennae":"A","wings":"1","pattern":"X","legs":"X"},"bonus":1.140000000000001},{"rt":504,"stimulus":"bees-with-color/bee-A2SM.svg","response":0,"trial_type":"image-button-response","trial_index":152,"time_elapsed":476301,"internal_node_id":"0.0-6.0-0.16","subject_id":"613a413d1ad3d704a4b77694","study_id":"6197b3f67c2b5cd3b6d9596a","session_id":"6197b88b8521cf7b15062bab","condition":"contingent","relevant_dimensions":["antennae","wings"],"bee_group":{"antennae":"A","wings":"1","pattern":"X","legs":"X"},"bonus":1.140000000000001},{"rt":446,"stimulus":"bees-with-color/bee-A2DM.svg","response":0,"trial_type":"image-button-response","trial_index":153,"time_elapsed":476749,"internal_node_id":"0.0-6.0-0.17","subject_id":"613a413d1ad3d704a4b77694","study_id":"6197b3f67c2b5cd3b6d9596a","session_id":"6197b88b8521cf7b15062bab","condition":"contingent","relevant_dimensions":["antennae","wings"],"bee_group":{"antennae":"A","wings":"1","pattern":"X","legs":"X"},"bonus":1.140000000000001},{"rt":1788,"stimulus":"bees-with-color/bee-A2SF.svg","response":0,"trial_type":"image-button-response","trial_index":154,"time_elapsed":478539,"internal_node_id":"0.0-6.0-0.18","subject_id":"613a413d1ad3d704a4b77694","study_id":"6197b3f67c2b5cd3b6d9596a","session_id":"6197b88b8521cf7b15062bab","condition":"contingent","relevant_dimensions":["antennae","wings"],"bee_group":{"antennae":"A","wings":"1","pattern":"X","legs":"X"},"bonus":1.140000000000001},{"rt":488,"stimulus":"bees-with-color/bee-B2DM.svg","response":0,"trial_type":"image-button-response","trial_index":155,"time_elapsed":479029,"internal_node_id":"0.0-6.0-0.19","subject_id":"613a413d1ad3d704a4b77694","study_id":"6197b3f67c2b5cd3b6d9596a","session_id":"6197b88b8521cf7b15062bab","condition":"contingent","relevant_dimensions":["antennae","wings"],"bee_group":{"antennae":"A","wings":"1","pattern":"X","legs":"X"},"bonus":1.140000000000001},{"rt":996,"stimulus":"bees-with-color/bee-A1DF.svg","response":1,"trial_type":"image-button-response","trial_index":156,"time_elapsed":480027,"internal_node_id":"0.0-6.0-0.20","subject_id":"613a413d1ad3d704a4b77694","study_id":"6197b3f67c2b5cd3b6d9596a","session_id":"6197b88b8521cf7b15062bab","condition":"contingent","relevant_dimensions":["antennae","wings"],"bee_group":{"antennae":"A","wings":"1","pattern":"X","legs":"X"},"bonus":1.140000000000001},{"rt":910,"stimulus":"bees-with-color/bee-B2DF.svg","response":0,"trial_type":"image-button-response","trial_index":157,"time_elapsed":480939,"internal_node_id":"0.0-6.0-0.21","subject_id":"613a413d1ad3d704a4b77694","study_id":"6197b3f67c2b5cd3b6d9596a","session_id":"6197b88b8521cf7b15062bab","condition":"contingent","relevant_dimensions":["antennae","wings"],"bee_group":{"antennae":"A","wings":"1","pattern":"X","legs":"X"},"bonus":1.140000000000001},{"rt":986,"stimulus":"bees-with-color/bee-B1DF.svg","response":1,"trial_type":"image-button-response","trial_index":158,"time_elapsed":481928,"internal_node_id":"0.0-6.0-0.22","subject_id":"613a413d1ad3d704a4b77694","study_id":"6197b3f67c2b5cd3b6d9596a","session_id":"6197b88b8521cf7b15062bab","condition":"contingent","relevant_dimensions":["antennae","wings"],"bee_group":{"antennae":"A","wings":"1","pattern":"X","legs":"X"},"bonus":1.140000000000001},{"rt":5059,"stimulus":"bees-with-color/bee-A1SM.svg","response":1,"trial_type":"image-button-response","trial_index":159,"time_elapsed":486989,"internal_node_id":"0.0-6.0-0.23","subject_id":"613a413d1ad3d704a4b77694","study_id":"6197b3f67c2b5cd3b6d9596a","session_id":"6197b88b8521cf7b15062bab","condition":"contingent","relevant_dimensions":["antennae","wings"],"bee_group":{"antennae":"A","wings":"1","pattern":"X","legs":"X"},"bonus":1.140000000000001},{"rt":1105,"stimulus":"bees-with-color/bee-B2SM.svg","response":0,"trial_type":"image-button-response","trial_index":160,"time_elapsed":488096,"internal_node_id":"0.0-6.0-0.24","subject_id":"613a413d1ad3d704a4b77694","study_id":"6197b3f67c2b5cd3b6d9596a","session_id":"6197b88b8521cf7b15062bab","condition":"contingent","relevant_dimensions":["antennae","wings"],"bee_group":{"antennae":"A","wings":"1","pattern":"X","legs":"X"},"bonus":1.140000000000001},{"rt":1883,"stimulus":"bees-with-color/bee-B1SF.svg","response":1,"trial_type":"image-button-response","trial_index":161,"time_elapsed":489980,"internal_node_id":"0.0-6.0-0.25","subject_id":"613a413d1ad3d704a4b77694","study_id":"6197b3f67c2b5cd3b6d9596a","session_id":"6197b88b8521cf7b15062bab","condition":"contingent","relevant_dimensions":["antennae","wings"],"bee_group":{"antennae":"A","wings":"1","pattern":"X","legs":"X"},"bonus":1.140000000000001},{"rt":765,"stimulus":"bees-with-color/bee-A2DF.svg","response":0,"trial_type":"image-button-response","trial_index":162,"time_elapsed":490748,"internal_node_id":"0.0-6.0-0.26","subject_id":"613a413d1ad3d704a4b77694","study_id":"6197b3f67c2b5cd3b6d9596a","session_id":"6197b88b8521cf7b15062bab","condition":"contingent","relevant_dimensions":["antennae","wings"],"bee_group":{"antennae":"A","wings":"1","pattern":"X","legs":"X"},"bonus":1.140000000000001},{"rt":606,"stimulus":"bees-with-color/bee-B2SF.svg","response":0,"trial_type":"image-button-response","trial_index":163,"time_elapsed":491355,"internal_node_id":"0.0-6.0-0.27","subject_id":"613a413d1ad3d704a4b77694","study_id":"6197b3f67c2b5cd3b6d9596a","session_id":"6197b88b8521cf7b15062bab","condition":"contingent","relevant_dimensions":["antennae","wings"],"bee_group":{"antennae":"A","wings":"1","pattern":"X","legs":"X"},"bonus":1.140000000000001},{"rt":1900.0000000000582,"stimulus":"bees-with-color/bee-A1DM.svg","response":1,"trial_type":"image-button-response","trial_index":164,"time_elapsed":493258,"internal_node_id":"0.0-6.0-0.28","subject_id":"613a413d1ad3d704a4b77694","study_id":"6197b3f67c2b5cd3b6d9596a","session_id":"6197b88b8521cf7b15062bab","condition":"contingent","relevant_dimensions":["antennae","wings"],"bee_group":{"antennae":"A","wings":"1","pattern":"X","legs":"X"},"bonus":1.140000000000001},{"rt":901,"stimulus":"bees-with-color/bee-A1SF.svg","response":1,"trial_type":"image-button-response","trial_index":165,"time_elapsed":494162,"internal_node_id":"0.0-6.0-0.29","subject_id":"613a413d1ad3d704a4b77694","study_id":"6197b3f67c2b5cd3b6d9596a","session_id":"6197b88b8521cf7b15