[{"success":true,"trial_type":"fullscreen","trial_index":0,"time_elapsed":9475,"internal_node_id":"0.0-0.0","subject_id":"6162fc52fa68079d28dc5be9","study_id":"6197b3f67c2b5cd3b6d9596a","session_id":"6197b9effb1ed88d7f60c21a","condition":"contingent","relevant_dimensions":["antennae","wings"],"bee_group":{"antennae":"A","wings":"2","pattern":"X","legs":"X"},"bonus":0.760000000000001},{"success":true,"timeout":false,"failed_images":[],"failed_audio":[],"failed_video":[],"trial_type":"preload","trial_index":1,"time_elapsed":19421,"internal_node_id":"0.0-1.0","subject_id":"6162fc52fa68079d28dc5be9","study_id":"6197b3f67c2b5cd3b6d9596a","session_id":"6197b9effb1ed88d7f60c21a","condition":"contingent","relevant_dimensions":["antennae","wings"],"bee_group":{"antennae":"A","wings":"2","pattern":"X","legs":"X"},"bonus":0.760000000000001},{"rt":4270.29999999702,"stimulus":"Welcome! Press any key to begin.","response":"j","trial_type":"html-keyboard-response","trial_index":2,"time_elapsed":23694,"internal_node_id":"0.0-2.0","subject_id":"6162fc52fa68079d28dc5be9","study_id":"6197b3f67c2b5cd3b6d9596a","session_id":"6197b9effb1ed88d7f60c21a","condition":"contingent","relevant_dimensions":["antennae","wings"],"bee_group":{"antennae":"A","wings":"2","pattern":"X","legs":"X"},"bonus":0.760000000000001},{"view_history":[{"page_index":0,"viewing_time":16020.79999999702},{"page_index":1,"viewing_time":20015.60000000149},{"page_index":2,"viewing_time":46527.29999999702},{"page_index":3,"viewing_time":27005.5},{"page_index":4,"viewing_time":13065.89999999851},{"page_index":5,"viewing_time":14965.20000000298},{"page_index":6,"viewing_time":19514.20000000298},{"page_index":7,"viewing_time":19275.59999999404},{"page_index":8,"viewing_time":19199.30000000447},{"page_index":9,"viewing_time":9896.39999999851},{"page_index":10,"viewing_time":6693.89999999851},{"page_index":11,"viewing_time":12014.89999999851},{"page_index":12,"viewing_time":21495.70000000298},{"page_index":13,"viewing_time":2555.2999999970198},{"page_index":14,"viewing_time":4989.80000000447}],"rt":253236.69999999553,"trial_type":"instructions","trial_index":3,"time_elapsed":276933,"internal_node_id":"0.0-3.0-0.0","subject_id":"6162fc52fa68079d28dc5be9","study_id":"6197b3f67c2b5cd3b6d9596a","session_id":"6197b9effb1ed88d7f60c21a","condition":"contingent","relevant_dimensions":["antennae","wings"],"bee_group":{"antennae":"A","wings":"2","pattern":"X","legs":"X"},"bonus":0.760000000000001},{"rt":30182,"response":{"Q0":["Two or six legs","Stripes or spots on body","Stinger or no stinger","Single or double wings","Antennae or no antennae"]},"question_order":[0],"trial_type":"survey-multi-select","trial_index":4,"time_elapsed":307128,"internal_node_id":"0.0-3.0-1.0","subject_id":"6162fc52fa68079d28dc5be9","study_id":"6197b3f67c2b5cd3b6d9596a","session_id":"6197b9effb1ed88d7f60c21a","condition":"contingent","relevant_dimensions":["antennae","wings"],"bee_group":{"antennae":"A","wings":"2","pattern":"X","legs":"X"},"correct":false,"bonus":0.760000000000001},{"rt":38372.29999999702,"response":{"Q1":"No.","Q2":"Based on the four features of the bee.","Q3":"You do not learn if it was friendly or dangerous, and do not alter your bonus."},"question_order":[0,1,2],"trial_type":"survey-multi-choice","trial_index":5,"time_elapsed":345508,"internal_node_id":"0.0-3.0-2.0","subject_id":"6162fc52fa68079d28dc5be9","study_id":"6197b3f67c2b5cd3b6d9596a","session_id":"6197b9effb1ed88d7f60c21a","condition":"contingent","relevant_dimensions":["antennae","wings"],"bee_group":{"antennae":"A","wings":"2","pattern":"X","legs":"X"},"correct":true,"bonus":0.760000000000001},{"rt":5541.89999999851,"stimulus":"<p>You did not answer all comprehension questions correctly.<br>Press <b>continue</b> to review the instructions again.</p>","response":0,"trial_type":"html-button-response","trial_index":6,"time_elapsed":351062,"internal_node_id":"0.0-3.0-3.0","subject_id":"6162fc52fa68079d28dc5be9","study_id":"6197b3f67c2b5cd3b6d9596a","session_id":"6197b9effb1ed88d7f60c21a","condition":"contingent","relevant_dimensions":["antennae","wings"],"bee_group":{"antennae":"A","wings":"2","pattern":"X","legs":"X"},"bonus":0.760000000000001},{"view_history":[{"page_index":0,"viewing_time":25040.79999999702},{"page_index":1,"viewing_time":108928.20000000298},{"page_index":2,"viewing_time":39410.39999999851},{"page_index":3,"viewing_time":91047.70000000298},{"page_index":4,"viewing_time":50695.19999999553},{"page_index":5,"viewing_time":53486.89999999851},{"page_index":6,"viewing_time":38079.10000000149},{"page_index":7,"viewing_time":26986.10000000149},{"page_index":8,"viewing_time":14691.20000000298},{"page_index":9,"viewing_time":11363.09999999404},{"page_index":10,"viewing_time":14451.90000000596},{"page_index":11,"viewing_time":13731.29999999702},{"page_index":12,"viewing_time":11811.5},{"page_index":13,"viewing_time":1566.1000000014901},{"page_index":14,"viewing_time":3300.7999999970198}],"rt":504591.5,"trial_type":"instructions","trial_index":7,"time_elapsed":855659,"internal_node_id":"0.0-3.0-4.0-0.0","subject_id":"6162fc52fa68079d28dc5be9","study_id":"6197b3f67c2b5cd3b6d9596a","session_id":"6197b9effb1ed88d7f60c21a","condition":"contingent","relevant_dimensions":["antennae","wings"],"bee_group":{"antennae":"A","wings":"2","pattern":"X","legs":"X"},"bonus":0.760000000000001},{"rt":42921.5,"response":{"Q0":["Two or six legs","Stripes or spots on body","Single or double wings","Antennae or no antennae"]},"question_order":[0],"trial_type":"survey-multi-select","trial_index":8,"time_elapsed":898596,"internal_node_id":"0.0-3.0-4.0-1.0","subject_id":"6162fc52fa68079d28dc5be9","study_id":"6197b3f67c2b5cd3b6d9596a","session_id":"6197b9effb1ed88d7f60c21a","condition":"contingent","relevant_dimensions":["antennae","wings"],"bee_group":{"antennae":"A","wings":"2","pattern":"X","legs":"X"},"correct":true,"bonus":0.760000000000001},{"rt":81893.59999999404,"response":{"Q1":"No.","Q2":"Based on the four features of the bee.","Q3":"You do not learn if it was friendly or dangerous, and do not alter your bonus."},"question_order":[0,1,2],"trial_type":"survey-multi-choice","trial_index":9,"time_elapsed":980496,"internal_node_id":"0.0-3.0-4.0-2.0","subject_id":"6162fc52fa68079d28dc5be9","study_id":"6197b3f67c2b5cd3b6d9596a","session_id":"6197b9effb1ed88d7f60c21a","condition":"contingent","relevant_dimensions":["antennae","wings"],"bee_group":{"antennae":"A","wings":"2","pattern":"X","legs":"X"},"correct":true,"bonus":0.760000000000001},{"rt":4623.5,"stimulus":"<p>Congrats, you got everything right<br>When you're ready, click the button below to continue to the experiment.</p>","response":0,"trial_type":"html-button-response","trial_index":10,"time_elapsed":985126,"internal_node_id":"0.0-3.0-4.0-3.0","subject_id":"6162fc52fa68079d28dc5be9","study_id":"6197b3f67c2b5cd3b6d9596a","session_id":"6197b9effb1ed88d7f60c21a","condition":"contingent","relevant_dimensions":["antennae","wings"],"bee_group":{"antennae":"A","wings":"2","pattern":"X","legs":"X"},"bonus":0.760000000000001},{"rt":7528,"stimulus":"bees-with-color/bee-B1DM.svg","response":1,"trial_type":"image-button-response","trial_index":11,"time_elapsed":992662,"internal_node_id":"0.0-4.0-0.0","subject_id":"6162fc52fa68079d28dc5be9","study_id":"6197b3f67c2b5cd3b6d9596a","session_id":"6197b9effb1ed88d7f60c21a","condition":"contingent","relevant_dimensions":["antennae","wings"],"bee_group":{"antennae":"A","wings":"2","pattern":"X","legs":"X"},"action":"avoid","summary":"bad-avoid","bonus":0.760000000000001},{"rt":9603.10000000149,"stimulus":"\n                    <p><b>Action: <em>avoid</em></b></p>\n                    <p>This is the bee that you just saw.</p>\n                    <img src=\"bees-with-color/bee-B1DM.svg\" width=\"200\">\n                    <p><br>Your bonus pay is unchanged, and remains at $0.54.</p>\n            ","response":0,"trial_type":"html-button-response","trial_index":12,"time_elapsed":1002277,"internal_node_id":"0.0-4.0-1.0","subject_id":"6162fc52fa68079d28dc5be9","study_id":"6197b3f67c2b5cd3b6d9596a","session_id":"6197b9effb1ed88d7f60c21a","condition":"contingent","relevant_dimensions":["antennae","wings"],"bee_group":{"antennae":"A","wings":"2","pattern":"X","legs":"X"},"bonus":0.760000000000001},{"rt":4241.60000000149,"stimulus":"bees-with-color/bee-B2SM.svg","response":0,"trial_type":"image-button-response","trial_index":13,"time_elapsed":1006525,"internal_node_id":"0.0-4.0-0.1","subject_id":"6162fc52fa68079d28dc5be9","study_id":"6197b3f67c2b5cd3b6d9596a","session_id":"6197b9effb1ed88d7f60c21a","condition":"contingent","relevant_dimensions":["antennae","wings"],"bee_group":{"antennae":"A","wings":"2","pattern":"X","legs":"X"},"action":"harvest","summary":"good-harvest","bonus":0.760000000000001},{"rt":11861.60000000149,"stimulus":"\n                    <p><b>Action: <em>harvest</em></b></p>\n                    <p>This is the bee that you just saw.</p>\n                    <img src=\"bees-with-color/bee-B2SM.svg\" width=\"200\">\n                    <p><span class=\"greenText\"><b>Successful harvest!</b></span><br>Your pay has increased by $0.02. Your bonus pay is now $0.56.</p>\n            ","response":0,"trial_type":"html-button-response","trial_index":14,"time_elapsed":1018394,"internal_node_id":"0.0-4.0-1.1","subject_id":"6162fc52fa68079d28dc5be9","study_id":"6197b3f67c2b5cd3b6d9596a","session_id":"6197b9effb1ed88d7f60c21a","condition":"contingent","relevant_dimensions":["antennae","wings"],"bee_group":{"antennae":"A","wings":"2","pattern":"X","legs":"X"},"bonus":0.760000000000001},{"rt":3965.9000000059605,"stimulus":"bees-with-color/bee-B1DF.svg","response":1,"trial_type":"image-button-response","trial_index":15,"time_elapsed":1022367,"internal_node_id":"0.0-4.0-0.2","subject_id":"6162fc52fa68079d28dc5be9","study_id":"6197b3f67c2b5cd3b6d9596a","session_id":"6197b9effb1ed88d7f60c21a","condition":"contingent","relevant_dimensions":["antennae","wings"],"bee_group":{"antennae":"A","wings":"2","pattern":"X","legs":"X"},"action":"avoid","summary":"bad-avoid","bonus":0.760000000000001},{"rt":5126.10000000149,"stimulus":"\n                    <p><b>Action: <em>avoid</em></b></p>\n                    <p>This is the bee that you just saw.</p>\n                    <img src=\"bees-with-color/bee-B1DF.svg\" width=\"200\">\n                    <p><br>Your bonus pay is unchanged, and remains at $0.56.</p>\n            ","response":0,"trial_type":"html-button-response","trial_index":16,"time_elapsed":1027498,"internal_node_id":"0.0-4.0-1.2","subject_id":"6162fc52fa68079d28dc5be9","study_id":"6197b3f67c2b5cd3b6d9596a","session_id":"6197b9effb1ed88d7f60c21a","condition":"contingent","relevant_dimensions":["antennae","wings"],"bee_group":{"antennae":"A","wings":"2","pattern":"X","legs":"X"},"bonus":0.760000000000001},{"rt":5821.60000000149,"stimulus":"bees-with-color/bee-A2DF.svg","response":1,"trial_type":"image-button-response","trial_index":17,"time_elapsed":1033324,"internal_node_id":"0.0-4.0-0.3","subject_id":"6162fc52fa68079d28dc5be9","study_id":"6197b3f67c2b5cd3b6d9596a","session_id":"6197b9effb1ed88d7f60c21a","condition":"contingent","relevant_dimensions":["antennae","wings"],"bee_group":{"antennae":"A","wings":"2","pattern":"X","legs":"X"},"action":"avoid","summary":"good-avoid","bonus":0.760000000000001},{"rt":2059.6999999955297,"stimulus":"\n                    <p><b>Action: <em>avoid</em></b></p>\n                    <p>This is the bee that you just saw.</p>\n                    <img src=\"bees-with-color/bee-A2DF.svg\" width=\"200\">\n                    <p><br>Your bonus pay is unchanged, and remains at $0.56.</p>\n            ","response":0,"trial_type":"html-button-response","trial_index":18,"time_elapsed":1035392,"internal_node_id":"0.0-4.0-1.3","subject_id":"6162fc52fa68079d28dc5be9","study_id":"6197b3f67c2b5cd3b6d9596a","session_id":"6197b9effb1ed88d7f60c21a","condition":"contingent","relevant_dimensions":["antennae","wings"],"bee_group":{"antennae":"A","wings":"2","pattern":"X","legs":"X"},"bonus":0.760000000000001},{"rt":3221.89999999851,"stimulus":"bees-with-color/bee-B2SF.svg","response":0,"trial_type":"image-button-response","trial_index":19,"time_elapsed":1038624,"internal_node_id":"0.0-4.0-0.4","subject_id":"6162fc52fa68079d28dc5be9","study_id":"6197b3f67c2b5cd3b6d9596a","session_id":"6197b9effb1ed88d7f60c21a","condition":"contingent","relevant_dimensions":["antennae","wings"],"bee_group":{"antennae":"A","wings":"2","pattern":"X","legs":"X"},"action":"harvest","summary":"good-harvest","bonus":0.760000000000001},{"rt":2768.7999999970198,"stimulus":"\n                    <p><b>Action: <em>harvest</em></b></p>\n                    <p>This is the bee that you just saw.</p>\n                    <img src=\"bees-with-color/bee-B2SF.svg\" width=\"200\">\n                    <p><span class=\"greenText\"><b>Successful harvest!</b></span><br>Your pay has increased by $0.02. Your bonus pay is now $0.58.</p>\n            ","response":0,"trial_type":"html-button-response","trial_index":20,"time_elapsed":1041402,"internal_node_id":"0.0-4.0-1.4","subject_id":"6162fc52fa68079d28dc5be9","study_id":"6197b3f67c2b5cd3b6d9596a","session_id":"6197b9effb1ed88d7f60c21a","condition":"contingent","relevant_dimensions":["antennae","wings"],"bee_group":{"antennae":"A","wings":"2","pattern":"X","legs":"X"},"bonus":0.760000000000001},{"rt":3083.89999999851,"stimulus":"bees-with-color/bee-A2DM.svg","response":1,"trial_type":"image-button-response","trial_index":21,"time_elapsed":1044493,"internal_node_id":"0.0-4.0-0.5","subject_id":"6162fc52fa68079d28dc5be9","study_id":"6197b3f67c2b5cd3b6d9596a","session_id":"6197b9effb1ed88d7f60c21a","condition":"contingent","relevant_dimensions":["antennae","wings"],"bee_group":{"antennae":"A","wings":"2","pattern":"X","legs":"X"},"action":"avoid","summary":"good-avoid","bonus":0.760000000000001},{"rt":2993.6999999955297,"stimulus":"\n                    <p><b>Action: <em>avoid</em></b></p>\n                    <p>This is the bee that you just saw.</p>\n                    <img src=\"bees-with-color/bee-A2DM.svg\" width=\"200\">\n                    <p><br>Your bonus pay is unchanged, and remains at $0.58.</p>\n            ","response":0,"trial_type":"html-button-response","trial_index":22,"time_elapsed":1047496,"internal_node_id":"0.0-4.0-1.5","subject_id":"6162fc52fa68079d28dc5be9","study_id":"6197b3f67c2b5cd3b6d9596a","session_id":"6197b9effb1ed88d7f60c21a","condition":"contingent","relevant_dimensions":["antennae","wings"],"bee_group":{"antennae":"A","wings":"2","pattern":"X","legs":"X"},"bonus":0.760000000000001},{"rt":3097.8000000044703,"stimulus":"bees-with-color/bee-A1DM.svg","response":1,"trial_type":"image-button-response","trial_index":23,"time_elapsed":1050603,"internal_node_id":"0.0-4.0-0.6","subject_id":"6162fc52fa68079d28dc5be9","study_id":"6197b3f67c2b5cd3b6d9596a","session_id":"6197b9effb1ed88d7f60c21a","condition":"contingent","relevant_dimensions":["antennae","wings"],"bee_group":{"antennae":"A","wings":"2","pattern":"X","legs":"X"},"action":"avoid","summary":"bad-avoid","bonus":0.760000000000001},{"rt":3147.10000000149,"stimulus":"\n                    <p><b>Action: <em>avoid</em></b></p>\n                    <p>This is the bee that you just saw.</p>\n                    <img src=\"bees-with-color/bee-A1DM.svg\" width=\"200\">\n                    <p><br>Your bonus pay is unchanged, and remains at $0.58.</p>\n            ","response":0,"trial_type":"html-button-response","trial_index":24,"time_elapsed":1053755,"internal_node_id":"0.0-4.0-1.6","subject_id":"6162fc52fa68079d28dc5be9","study_id":"6197b3f67c2b5cd3b6d9596a","session_id":"6197b9effb1ed88d7f60c21a","condition":"contingent","relevant_dimensions":["antennae","wings"],"bee_group":{"antennae":"A","wings":"2","pattern":"X","legs":"X"},"bonus":0.760000000000001},{"rt":6553.79999999702,"stimulus":"bees-with-color/bee-B2DM.svg","response":1,"trial_type":"image-button-response","trial_index":25,"time_elapsed":1060313,"internal_node_id":"0.0-4.0-0.7","subject_id":"6162fc52fa68079d28dc5be9","study_id":"6197b3f67c2b5cd3b6d9596a","session_id":"6197b9effb1ed88d7f60c21a","condition":"contingent","relevant_dimensions":["antennae","wings"],"bee_group":{"antennae":"A","wings":"2","pattern":"X","legs":"X"},"action":"avoid","summary":"bad-avoid","bonus":0.760000000000001},{"rt":2448.6999999955297,"stimulus":"\n                    <p><b>Action: <em>avoid</em></b></p>\n                    <p>This is the bee that you just saw.</p>\n                    <img src=\"bees-with-color/bee-B2DM.svg\" width=\"200\">\n                    <p><br>Your bonus pay is unchanged, and remains at $0.58.</p>\n            ","response":0,"trial_type":"html-button-response","trial_index":26,"time_elapsed":1062768,"internal_node_id":"0.0-4.0-1.7","subject_id":"6162fc52fa68079d28dc5be9","study_id":"6197b3f67c2b5cd3b6d9596a","session_id":"6197b9effb1ed88d7f60c21a","condition":"contingent","relevant_dimensions":["antennae","wings"],"bee_group":{"antennae":"A","wings":"2","pattern":"X","legs":"X"},"bonus":0.760000000000001},{"rt":1507.7999999970198,"stimulus":"bees-with-color/bee-A2SF.svg","response":0,"trial_type":"image-button-response","trial_index":27,"time_elapsed":1064282,"internal_node_id":"0.0-4.0-0.8","subject_id":"6162fc52fa68079d28dc5be9","study_id":"6197b3f67c2b5cd3b6d9596a","session_id":"6197b9effb1ed88d7f60c21a","condition":"contingent","relevant_dimensions":["antennae","wings"],"bee_group":{"antennae":"A","wings":"2","pattern":"X","legs":"X"},"action":"harvest","summary":"bad-harvest","bonus":0.760000000000001},{"rt":6293.60000000149,"stimulus":"\n                    <p><b>Action: <em>harvest</em></b></p>\n                    <p>This is the bee that you just saw.</p>\n                    <img src=\"bees-with-color/bee-A2SF.svg\" width=\"200\">\n                    <p><span class=\"redText\">Bad choice, the bee was angry.</span><br><b>You have been stung!</b><br>Your pay has been decreased by $0.10. Your bonus pay is now $0.48.</p>\n            ","response":0,"trial_type":"html-button-response","trial_index":28,"time_elapsed":1070580,"internal_node_id":"0.0-4.0-1.8","subject_id":"6162fc52fa68079d28dc5be9","study_id":"6197b3f67c2b5cd3b6d9596a","session_id":"6197b9effb1ed88d7f60c21a","condition":"contingent","relevant_dimensions":["antennae","wings"],"bee_group":{"antennae":"A","wings":"2","pattern":"X","legs":"X"},"bonus":0.760000000000001},{"rt":5801.79999999702,"stimulus":"bees-with-color/bee-B2DF.svg","response":1,"trial_type":"image-button-response","trial_index":29,"time_elapsed":1076388,"internal_node_id":"0.0-4.0-0.9","subject_id":"6162fc52fa68079d28dc5be9","study_id":"6197b3f67c2b5cd3b6d9596a","session_id":"6197b9effb1ed88d7f60c21a","condition":"contingent","relevant_dimensions":["antennae","wings"],"bee_group":{"antennae":"A","wings":"2","pattern":"X","legs":"X"},"action":"avoid","summary":"bad-avoid","bonus":0.760000000000001},{"rt":1873.8000000044703,"stimulus":"\n                    <p><b>Action: <em>avoid</em></b></p>\n                    <p>This is the bee that you just saw.</p>\n                    <img src=\"bees-with-color/bee-B2DF.svg\" width=\"200\">\n                    <p><br>Your bonus pay is unchanged, and remains at $0.48.</p>\n            ","response":0,"trial_type":"html-button-response","trial_index":30,"time_elapsed":1078270,"internal_node_id":"0.0-4.0-1.9","subject_id":"6162fc52fa68079d28dc5be9","study_id":"6197b3f67c2b5cd3b6d9596a","session_id":"6197b9effb1ed88d7f60c21a","condition":"contingent","relevant_dimensions":["antennae","wings"],"bee_group":{"antennae":"A","wings":"2","pattern":"X","legs":"X"},"bonus":0.760000000000001},{"rt":1844.0999999940395,"stimulus":"bees-with-color/bee-A1SF.svg","response":0,"trial_type":"image-button-response","trial_index":31,"time_elapsed":1080121,"internal_node_id":"0.0-4.0-0.10","subject_id":"6162fc52fa68079d28dc5be9","study_id":"6197b3f67c2b5cd3b6d9596a","session_id":"6197b9effb1ed88d7f60c21a","condition":"contingent","relevant_dimensions":["antennae","wings"],"bee_group":{"antennae":"A","wings":"2","pattern":"X","legs":"X"},"action":"harvest","summary":"good-harvest","bonus":0.760000000000001},{"rt":1359,"stimulus":"\n                    <p><b>Action: <em>harvest</em></b></p>\n                    <p>This is the bee that you just saw.</p>\n                    <img src=\"bees-with-color/bee-A1SF.svg\" width=\"200\">\n                    <p><span class=\"greenText\"><b>Successful harvest!</b></span><br>Your pay has increased by $0.02. Your bonus pay is now $0.50.</p>\n            ","response":0,"trial_type":"html-button-response","trial_index":32,"time_elapsed":1081488,"internal_node_id":"0.0-4.0-1.10","subject_id":"6162fc52fa68079d28dc5be9","study_id":"6197b3f67c2b5cd3b6d9596a","session_id":"6197b9effb1ed88d7f60c21a","condition":"contingent","relevant_dimensions":["antennae","wings"],"bee_group":{"antennae":"A","wings":"2","pattern":"X","legs":"X"},"bonus":0.760000000000001},{"rt":4106.5,"stimulus":"bees-with-color/bee-B1SM.svg","response":0,"trial_type":"image-button-response","trial_index":33,"time_elapsed":1085604,"internal_node_id":"0.0-4.0-0.11","subject_id":"6162fc52fa68079d28dc5be9","study_id":"6197b3f67c2b5cd3b6d9596a","session_id":"6197b9effb1ed88d7f60c21a","condition":"contingent","relevant_dimensions":["antennae","wings"],"bee_group":{"antennae":"A","wings":"2","pattern":"X","legs":"X"},"action":"harvest","summary":"good-harvest","bonus":0.760000000000001},{"rt":1298.5,"stimulus":"\n                    <p><b>Action: <em>harvest</em></b></p>\n                    <p>This is the bee that you just saw.</p>\n                    <img src=\"bees-with-color/bee-B1SM.svg\" width=\"200\">\n                    <p><span class=\"greenText\"><b>Successful harvest!</b></span><br>Your pay has increased by $0.02. Your bonus pay is now $0.52.</p>\n            ","response":0,"trial_type":"html-button-response","trial_index":34,"time_elapsed":1086907,"internal_node_id":"0.0-4.0-1.11","subject_id":"6162fc52fa68079d28dc5be9","study_id":"6197b3f67c2b5cd3b6d9596a","session_id":"6197b9effb1ed88d7f60c21a","condition":"contingent","relevant_dimensions":["antennae","wings"],"bee_group":{"antennae":"A","wings":"2","pattern":"X","legs":"X"},"bonus":0.760000000000001},{"rt":3394.2000000029802,"stimulus":"bees-with-color/bee-B1SF.svg","response":0,"trial_type":"image-button-response","trial_index":35,"time_elapsed":1090307,"internal_node_id":"0.0-4.0-0.12","subject_id":"6162fc52fa68079d28dc5be9","study_id":"6197b3f67c2b5cd3b6d9596a","session_id":"6197b9effb1ed88d7f60c21a","condition":"contingent","relevant_dimensions":["antennae","wings"],"bee_group":{"antennae":"A","wings":"2","pattern":"X","legs":"X"},"action":"harvest","summary":"good-harvest","bonus":0.760000000000001},{"rt":1377.5,"stimulus":"\n                    <p><b>Action: <em>harvest</em></b></p>\n                    <p>This is the bee that you just saw.</p>\n                    <img src=\"bees-with-color/bee-B1SF.svg\" width=\"200\">\n                    <p><span class=\"greenText\"><b>Successful harvest!</b></span><br>Your pay has increased by $0.02. Your bonus pay is now $0.54.</p>\n            ","response":0,"trial_type":"html-button-response","trial_index":36,"time_elapsed":1091695,"internal_node_id":"0.0-4.0-1.12","subject_id":"6162fc52fa68079d28dc5be9","study_id":"6197b3f67c2b5cd3b6d9596a","session_id":"6197b9effb1ed88d7f60c21a","condition":"contingent","relevant_dimensions":["antennae","wings"],"bee_group":{"antennae":"A","wings":"2","pattern":"X","legs":"X"},"bonus":0.760000000000001},{"rt":1517.8999999985099,"stimulus":"bees-with-color/bee-A2SM.svg","response":0,"trial_type":"image-button-response","trial_index":37,"time_elapsed":1093220,"internal_node_id":"0.0-4.0-0.13","subject_id":"6162fc52fa68079d28dc5be9","study_id":"6197b3f67c2b5cd3b6d9596a","session_id":"6197b9effb1ed88d7f60c21a","condition":"contingent","relevant_dimensions":["antennae","wings"],"bee_group":{"antennae":"A","wings":"2","pattern":"X","legs":"X"},"action":"harvest","summary":"bad-harvest","bonus":0.760000000000001},{"rt":2361.1999999955297,"stimulus":"\n                    <p><b>Action: <em>harvest</em></b></p>\n                    <p>This is the bee that you just saw.</p>\n                    <img src=\"bees-with-color/bee-A2SM.svg\" width=\"200\">\n                    <p><span class=\"redText\">Bad choice, the bee was angry.</span><br><b>You have been stung!</b><br>Your pay has been decreased by $0.10. Your bonus pay is now $0.44.</p>\n            ","response":0,"trial_type":"html-button-response","trial_index":38,"time_elapsed":1095587,"internal_node_id":"0.0-4.0-1.13","subject_id":"6162fc52fa68079d28dc5be9","study_id":"6197b3f67c2b5cd3b6d9596a","session_id":"6197b9effb1ed88d7f60c21a","condition":"contingent","relevant_dimensions":["antennae","wings"],"bee_group":{"antennae":"A","wings":"2","pattern":"X","legs":"X"},"bonus":0.760000000000001},{"rt":6504.89999999851,"stimulus":"bees-with-color/bee-A1SM.svg","response":0,"trial_type":"image-button-response","trial_index":39,"time_elapsed":1102102,"internal_node_id":"0.0-4.0-0.14","subject_id":"6162fc52fa68079d28dc5be9","study_id":"6197b3f67c2b5cd3b6d9596a","session_id":"6197b9effb1ed88d7f60c21a","condition":"contingent","relevant_dimensions":["antennae","wings"],"bee_group":{"antennae":"A","wings":"2","pattern":"X","legs":"X"},"action":"harvest","summary":"good-harvest","bonus":0.760000000000001},{"rt":1360.2999999970198,"stimulus":"\n                    <p><b>Action: <em>harvest</em></b></p>\n                    <p>This is the bee that you just saw.</p>\n                    <img src=\"bees-with-color/bee-A1SM.svg\" width=\"200\">\n                    <p><span class=\"greenText\"><b>Successful harvest!</b></span><br>Your pay has increased by $0.02. Your bonus pay is now $0.46.</p>\n            ","response":0,"trial_type":"html-button-response","trial_index":40,"time_elapsed":1103471,"internal_node_id":"0.0-4.0-1.14","subject_id":"6162fc52fa68079d28dc5be9","study_id":"6197b3f67c2b5cd3b6d9596a","session_id":"6197b9effb1ed88d7f60c21a","condition":"contingent","relevant_dimensions":["antennae","wings"],"bee_group":{"antennae":"A","wings":"2","pattern":"X","legs":"X"},"bonus":0.760000000000001},{"rt":5688.10000000149,"stimulus":"bees-with-color/bee-A1DF.svg","response":0,"trial_type":"image-button-response","trial_index":41,"time_elapsed":1109166,"internal_node_id":"0.0-4.0-0.15","subject_id":"6162fc52fa68079d28dc5be9","study_id":"6197b3f67c2b5cd3b6d9596a","session_id":"6197b9effb1ed88d7f60c21a","condition":"contingent","relevant_dimensions":["antennae","wings"],"bee_group":{"antennae":"A","wings":"2","pattern":"X","legs":"X"},"action":"harvest","summary":"good-harvest","bonus":0.760000000000001},{"rt":1960.3000000044703,"stimulus":"\n                    <p><b>Action: <em>harvest</em></b></p>\n                    <p>This is the bee that you just saw.</p>\n                    <img src=\"bees-with-color/bee-A1DF.svg\" width=\"200\">\n                    <p><span class=\"greenText\"><b>Successful harvest!</b></span><br>Your pay has increased by $0.02. Your bonus pay is now $0.48.</p>\n            ","response":0,"trial_type":"html-button-response","trial_index":42,"time_elapsed":1111134,"internal_node_id":"0.0-4.0-1.15","subject_id":"6162fc52fa68079d28dc5be9","study_id":"6197b3f67c2b5cd3b6d9596a","session_id":"6197b9effb1ed88d7f60c21a","condition":"contingent","relevant_dimensions":["antennae","wings"],"bee_group":{"antennae":"A","wings":"2","pattern":"X","legs":"X"},"bonus":0.760000000000001},{"rt":4477.30000000447,"stimulus":"bees-with-color/bee-A2DM.svg","response":0,"trial_type":"image-button-response","trial_index":43,"time_elapsed":1115617,"internal_node_id":"0.0-4.0-0.16","subject_id":"6162fc52fa68079d28dc5be9","study_id":"6197b3f67c2b5cd3b6d9596a","session_id":"6197b9effb1ed88d7f60c21a","condition":"contingent","relevant_dimensions":["antennae","wings"],"bee_group":{"antennae":"A","wings":"2","pattern":"X","legs":"X"},"action":"harvest","summary":"bad-harvest","bonus":0.760000000000001},{"rt":2859.5999999940395,"stimulus":"\n                    <p><b>Action: <em>harvest</em></b></p>\n                    <p>This is the bee that you just saw.</p>\n                    <img src=\"bees-with-color/bee-A2DM.svg\" width=\"200\">\n                    <p><span class=\"redText\">Bad choice, the bee was angry.</span><br><b>You have been stung!</b><br>Your pay has been decreased by $0.10. Your bonus pay is now $0.38.</p>\n            ","response":0,"trial_type":"html-button-response","trial_index":44,"time_elapsed":1118482,"internal_node_id":"0.0-4.0-1.16","subject_id":"6162fc52fa68079d28dc5be9","study_id":"6197b3f67c2b5cd3b6d9596a","session_id":"6197b9effb1ed88d7f60c21a","condition":"contingent","relevant_dimensions":["antennae","wings"],"bee_group":{"antennae":"A","wings":"2","pattern":"X","legs":"X"},"bonus":0.760000000000001},{"rt":3832.5,"stimulus":"bees-with-color/bee-A2SM.svg","response":1,"trial_type":"image-button-response","trial_index":45,"time_elapsed":1122319,"internal_node_id":"0.0-4.0-0.17","subject_id":"6162fc52fa68079d28dc5be9","study_id":"6197b3f67c2b5cd3b6d9596a","session_id":"6197b9effb1ed88d7f60c21a","condition":"contingent","relevant_dimensions":["antennae","wings"],"bee_group":{"antennae":"A","wings":"2","pattern":"X","legs":"X"},"action":"avoid","summary":"good-avoid","bonus":0.760000000000001},{"rt":6162.19999999553,"stimulus":"\n                    <p><b>Action: <em>avoid</em></b></p>\n                    <p>This is the bee that you just saw.</p>\n                    <img src=\"bees-with-color/bee-A2SM.svg\" width=\"200\">\n                    <p><br>Your bonus pay is unchanged, and remains at $0.38.</p>\n            ","response":0,"trial_type":"html-button-response","trial_index":46,"time_elapsed":1128489,"internal_node_id":"0.0-4.0-1.17","subject_id":"6162fc52fa68079d28dc5be9","study_id":"6197b3f67c2b5cd3b6d9596a","session_id":"6197b9effb1ed88d7f60c21a","condition":"contingent","relevant_dimensions":["antennae","wings"],"bee_group":{"antennae":"A","wings":"2","pattern":"X","legs":"X"},"bonus":0.760000000000001},{"rt":5566.0999999940395,"stimulus":"bees-with-color/bee-B2SM.svg","response":0,"trial_type":"image-button-response","trial_index":47,"time_elapsed":1134065,"internal_node_id":"0.0-4.0-0.18","subject_id":"6162fc52fa68079d28dc5be9","study_id":"6197b3f67c2b5cd3b6d9596a","session_id":"6197b9effb1ed88d7f60c21a","condition":"contingent","relevant_dimensions":["antennae","wings"],"bee_group":{"antennae":"A","wings":"2","pattern":"X","legs":"X"},"action":"harvest","summary":"good-harvest","bonus":0.760000000000001},{"rt":1446.7000000029802,"stimulus":"\n                    <p><b>Action: <em>harvest</em></b></p>\n                    <p>This is the bee that you just saw.</p>\n                    <img src=\"bees-with-color/bee-B2SM.svg\" width=\"200\">\n                    <p><span class=\"greenText\"><b>Successful harvest!</b></span><br>Your pay has increased by $0.02. Your bonus pay is now $0.40.</p>\n            ","response":0,"trial_type":"html-button-response","trial_index":48,"time_elapsed":1135519,"internal_node_id":"0.0-4.0-1.18","subject_id":"6162fc52fa68079d28dc5be9","study_id":"6197b3f67c2b5cd3b6d9596a","session_id":"6197b9effb1ed88d7f60c21a","condition":"contingent","relevant_dimensions":["antennae","wings"],"bee_group":{"antennae":"A","wings":"2","pattern":"X","legs":"X"},"bonus":0.760000000000001},{"rt":2573.10000000149,"stimulus":"bees-with-color/bee-A1SM.svg","response":0,"trial_type":"image-button-response","trial_index":49,"time_elapsed":1138101,"internal_node_id":"0.0-4.0-0.19","subject_id":"6162fc52fa68079d28dc5be9","study_id":"6197b3f67c2b5cd3b6d9596a","session_id":"6197b9effb1ed88d7f60c21a","condition":"contingent","relevant_dimensions":["antennae","wings"],"bee_group":{"antennae":"A","wings":"2","pattern":"X","legs":"X"},"action":"harvest","summary":"good-harvest","bonus":0.760000000000001},{"rt":1047.7000000029802,"stimulus":"\n                    <p><b>Action: <em>harvest</em></b></p>\n                    <p>This is the bee that you just saw.</p>\n                    <img src=\"bees-with-color/bee-A1SM.svg\" width=\"200\">\n                    <p><span class=\"greenText\"><b>Successful harvest!</b></span><br>Your pay has increased by $0.02. Your bonus pay is now $0.42.</p>\n            ","response":0,"trial_type":"html-button-response","trial_index":50,"time_elapsed":1139157,"internal_node_id":"0.0-4.0-1.19","subject_id":"6162fc52fa68079d28dc5be9","study_id":"6197b3f67c2b5cd3b6d9596a","session_id":"6197b9effb1ed88d7f60c21a","condition":"contingent","relevant_dimensions":["antennae","wings"],"bee_group":{"antennae":"A","wings":"2","pattern":"X","legs":"X"},"bonus":0.760000000000001},{"rt":7327.0999999940395,"stimulus":"bees-with-color/bee-B2SF.svg","response":1,"trial_type":"image-button-response","trial_index":51,"time_elapsed":1146488,"internal_node_id":"0.0-4.0-0.20","subject_id":"6162fc52fa68079d28dc5be9","study_id":"6197b3f67c2b5cd3b6d9596a","session_id":"6197b9effb1ed88d7f60c21a","condition":"contingent","relevant_dimensions":["antennae","wings"],"bee_group":{"antennae":"A","wings":"2","pattern":"X","legs":"X"},"action":"avoid","summary":"bad-avoid","bonus":0.760000000000001},{"rt":2975.10000000149,"stimulus":"\n                    <p><b>Action: <em>avoid</em></b></p>\n                    <p>This is the bee that you just saw.</p>\n                    <img src=\"bees-with-color/bee-B2SF.svg\" width=\"200\">\n                    <p><br>Your bonus pay is unchanged, and remains at $0.42.</p>\n            ","response":0,"trial_type":"html-button-response","trial_index":52,"time_elapsed":1149468,"internal_node_id":"0.0-4.0-1.20","subject_id":"6162fc52fa68079d28dc5be9","study_id":"6197b3f67c2b5cd3b6d9596a","session_id":"6197b9effb1ed88d7f60c21a","condition":"contingent","relevant_dimensions":["antennae","wings"],"bee_group":{"antennae":"A","wings":"2","pattern":"X","legs":"X"},"bonus":0.760000000000001},{"rt":4858.80000000447,"stimulus":"bees-with-color/bee-B1DF.svg","response":0,"trial_type":"image-button-response","trial_index":53,"time_elapsed":1154335,"internal_node_id":"0.0-4.0-0.21","subject_id":"6162fc52fa68079d28dc5be9","study_id":"6197b3f67c2b5cd3b6d9596a","session_id":"6197b9effb1ed88d7f60c21a","condition":"contingent","relevant_dimensions":["antennae","wings"],"bee_group":{"antennae":"A","wings":"2","pattern":"X","legs":"X"},"action":"harvest","summary":"good-harvest","bonus":0.760000000000001},{"rt":1441.0999999940395,"stimulus":"\n                    <p><b>Action: <em>harvest</em></b></p>\n                    <p>This is the bee that you just saw.</p>\n                    <img src=\"bees-with-color/bee-B1DF.svg\" width=\"200\">\n                    <p><span class=\"greenText\"><b>Successful harvest!</b></span><br>Your pay has increased by $0.02. Your bonus pay is now $0.44.</p>\n            ","response":0,"trial_type":"html-button-response","trial_index":54,"time_elapsed":1155783,"internal_node_id":"0.0-4.0-1.21","subject_id":"6162fc52fa68079d28dc5be9","study_id":"6197b3f67c2b5cd3b6d9596a","session_id":"6197b9effb1ed88d7f60c21a","condition":"contingent","relevant_dimensions":["antennae","wings"],"bee_group":{"antennae":"A","wings":"2","pattern":"X","legs":"X"},"bonus":0.760000000000001},{"rt":4097,"stimulus":"bees-with-color/bee-A1DM.svg","response":1,"trial_type":"image-button-response","trial_index":55,"time_elapsed":1159885,"internal_node_id":"0.0-4.0-0.22","subject_id":"6162fc52fa68079d28dc5be9","study_id":"6197b3f67c2b5cd3b6d9596a","session_id":"6197b9effb1ed88d7f60c21a","condition":"contingent","relevant_dimensions":["antennae","wings"],"bee_group":{"antennae":"A","wings":"2","pattern":"X","legs":"X"},"action":"avoid","summary":"bad-avoid","bonus":0.760000000000001},{"rt":1661.5,"stimulus":"\n                    <p><b>Action: <em>avoid</em></b></p>\n                    <p>This is the bee that you just saw.</p>\n                    <img src=\"bees-with-color/bee-A1DM.svg\" width=\"200\">\n                    <p><br>Your bonus pay is unchanged, and remains at $0.44.</p>\n            ","response":0,"trial_type":"html-button-response","trial_index":56,"time_elapsed":1161552,"internal_node_id":"0.0-4.0-1.22","subject_id":"6162fc52fa68079d28dc5be9","study_id":"6197b3f67c2b5cd3b6d9596a","session_id":"6197b9effb1ed88d7f60c21a","condition":"contingent","relevant_dimensions":["antennae","wings"],"bee_group":{"antennae":"A","wings":"2","pattern":"X","legs":"X"},"bonus":0.760000000000001},{"rt":1983.3000000044703,"stimulus":"bees-with-color/bee-A1DF.svg","response":0,"trial_type":"image-button-response","trial_index":57,"time_elapsed":1163544,"internal_node_id":"0.0-4.0-0.23","subject_id":"6162fc52fa68079d28dc5be9","study_id":"6197b3f67c2b5cd3b6d9596a","session_id":"6197b9effb1ed88d7f60c21a","condition":"contingent","relevant_dimensions":["antennae","wings"],"bee_group":{"antennae":"A","wings":"2","pattern":"X","legs":"X"},"action":"harvest","summary":"good-harvest","bonus":0.760000000000001},{"rt":1126.5,"stimulus":"\n                    <p><b>Action: <em>harvest</em></b></p>\n                    <p>This is the bee that you just saw.</p>\n                    <img src=\"bees-with-color/bee-A1DF.svg\" width=\"200\">\n                    <p><span class=\"greenText\"><b>Successful harvest!</b></span><br>Your pay has increased by $0.02. Your bonus pay is now $0.46.</p>\n            ","response":0,"trial_type":"html-button-response","trial_index":58,"time_elapsed":1164675,"internal_node_id":"0.0-4.0-1.23","subject_id":"6162fc52fa68079d28dc5be9","study_id":"6197b3f67c2b5cd3b6d9596a","session_id":"6197b9effb1ed88d7f60c21a","condition":"contingent","relevant_dimensions":["antennae","wings"],"bee_group":{"antennae":"A","wings":"2","pattern":"X","legs":"X"},"bonus":0.760000000000001},{"rt":4887.20000000298,"stimulus":"bees-with-color/bee-B2DM.svg","response":1,"trial_type":"image-button-response","trial_index":59,"time_elapsed":1169568,"internal_node_id":"0.0-4.0-0.24","subject_id":"6162fc52fa68079d28dc5be9","study_id":"6197b3f67c2b5cd3b6d9596a","session_id":"6197b9effb1ed88d7f60c21a","condition":"contingent","relevant_dimensions":["antennae","wings"],"bee_group":{"antennae":"A","wings":"2","pattern":"X","legs":"X"},"action":"avoid","summary":"bad-avoid","bonus":0.760000000000001},{"rt":1926.1999999955297,"stimulus":"\n                    <p><b>Action: <em>avoid</em></b></p>\n                    <p>This is the bee that you just saw.</p>\n                    <img src=\"bees-with-color/bee-B2DM.svg\" width=\"200\">\n                    <p><br>Your bonus pay is unchanged, and remains at $0.46.</p>\n            ","response":0,"trial_type":"html-button-response","trial_index":60,"time_elapsed":1171501,"internal_node_id":"0.0-4.0-1.24","subject_id":"6162fc52fa68079d28dc5be9","study_id":"6197b3f67c2b5cd3b6d9596a","session_id":"6197b9effb1ed88d7f60c21a","condition":"contingent","relevant_dimensions":["antennae","wings"],"bee_group":{"antennae":"A","wings":"2","pattern":"X","legs":"X"},"bonus":0.760000000000001},{"rt":3993.7000000029802,"stimulus":"bees-with-color/bee-A1SF.svg","response":0,"trial_type":"image-button-response","trial_index":61,"time_elapsed":1175503,"internal_node_id":"0.0-4.0-0.25","subject_id":"6162fc52fa68079d28dc5be9","study_id":"6197b3f67c2b5cd3b6d9596a","session_id":"6197b9effb1ed88d7f60c21a","condition":"contingent","relevant_dimensions":["antennae","wings"],"bee_group":{"antennae":"A","wings":"2","pattern":"X","legs":"X"},"action":"harvest","summary":"good-harvest","bonus":0.760000000000001},{"rt":1156.7000000029802,"stimulus":"\n                    <p><b>Action: <em>harvest</em></b></p>\n                    <p>This is the bee that you just saw.</p>\n                    <img src=\"bees-with-color/bee-A1SF.svg\" width=\"200\">\n                    <p><span class=\"greenText\"><b>Successful harvest!</b></span><br>Your pay has increased by $0.02. Your bonus pay is now $0.48.</p>\n            ","response":0,"trial_type":"html-button-response","trial_index":62,"time_elapsed":1176667,"internal_node_id":"0.0-4.0-1.25","subject_id":"6162fc52fa68079d28dc5be9","study_id":"6197b3f67c2b5cd3b6d9596a","session_id":"6197b9effb1ed88d7f60c21a","condition":"contingent","relevant_dimensions":["antennae","wings"],"bee_group":{"antennae":"A","wings":"2","pattern":"X","legs":"X"},"bonus":0.760000000000001},{"rt":1910.1000000014901,"stimulus":"bees-with-color/bee-B2DF.svg","response":1,"trial_type":"image-button-response","trial_index":63,"time_elapsed":1178582,"internal_node_id":"0.0-4.0-0.26","subject_id":"6162fc52fa68079d28dc5be9","study_id":"6197b3f67c2b5cd3b6d9596a","session_id":"6197b9effb1ed88d7f60c21a","condition":"contingent","relevant_dimensions":["antennae","wings"],"bee_group":{"antennae":"A","wings":"2","pattern":"X","legs":"X"},"action":"avoid","summary":"bad-avoid","bonus":0.760000000000001},{"rt":1830,"stimulus":"\n                    <p><b>Action: <em>avoid</em></b></p>\n                    <p>This is the bee that you just saw.</p>\n                    <img src=\"bees-with-color/bee-B2DF.svg\" width=\"200\">\n                    <p><br>Your bonus pay is unchanged, and remains at $0.48.</p>\n            ","response":0,"trial_type":"html-button-response","trial_index":64,"time_elapsed":1180416,"internal_node_id":"0.0-4.0-1.26","subject_id":"6162fc52fa68079d28dc5be9","study_id":"6197b3f67c2b5cd3b6d9596a","session_id":"6197b9effb1ed88d7f60c21a","condition":"contingent","relevant_dimensions":["antennae","wings"],"bee_group":{"antennae":"A","wings":"2","pattern":"X","legs":"X"},"bonus":0.760000000000001},{"rt":4074.5,"stimulus":"bees-with-color/bee-B1SM.svg","response":1,"trial_type":"image-button-response","trial_index":65,"time_elapsed":1184497,"internal_node_id":"0.0-4.0-0.27","subject_id":"6162fc52fa68079d28dc5be9","study_id":"6197b3f67c2b5cd3b6d9596a","session_id":"6197b9effb1ed88d7f60c21a","condition":"contingent","relevant_dimensions":["antennae","wings"],"bee_group":{"antennae":"A","wings":"2","pattern":"X","legs":"X"},"action":"avoid","summary":"bad-avoid","bonus":0.760000000000001},{"rt":1573.6999999955297,"stimulus":"\n                    <p><b>Action: <em>avoid</em></b></p>\n                    <p>This is the bee that you just saw.</p>\n                    <img src=\"bees-with-color/bee-B1SM.svg\" width=\"200\">\n                    <p><br>Your bonus pay is unchanged, and remains at $0.48.</p>\n            ","response":0,"trial_type":"html-button-response","trial_index":66,"time_elapsed":1186076,"internal_node_id":"0.0-4.0-1.27","subject_id":"6162fc52fa68079d28dc5be9","study_id":"6197b3f67c2b5cd3b6d9596a","session_id":"6197b9effb1ed88d7f60c21a","condition":"contingent","relevant_dimensions":["antennae","wings"],"bee_group":{"antennae":"A","wings":"2","pattern":"X","legs":"X"},"bonus":0.760000000000001},{"rt":2420.6999999955297,"stimulus":"bees-with-color/bee-B1DM.svg","response":0,"trial_type":"image-button-response","trial_index":67,"time_elapsed":1188501,"internal_node_id":"0.0-4.0-0.28","subject_id":"6162fc52fa68079d28dc5be9","study_id":"6197b3f67c2b5cd3b6d9596a","session_id":"6197b9effb1ed88d7f60c21a","condition":"contingent","relevant_dimensions":["antennae","wings"],"bee_group":{"antennae":"A","wings":"2","pattern":"X","legs":"X"},"action":"harvest","summary":"good-harvest","bonus":0.760000000000001},{"rt":948.7999999970198,"stimulus":"\n                    <p><b>Action: <em>harvest</em></b></p>\n                    <p>This is the bee that you just saw.</p>\n                    <img src=\"bees-with-color/bee-B1DM.svg\" width=\"200\">\n                    <p><span class=\"greenText\"><b>Successful harvest!</b></span><br>Your pay has increased by $0.02. Your bonus pay is now $0.50.</p>\n            ","response":0,"trial_type":"html-button-response","trial_index":68,"time_elapsed":1189453,"internal_node_id":"0.0-4.0-1.28","subject_id":"6162fc52fa68079d28dc5be9","study_id":"6197b3f67c2b5cd3b6d9596a","session_id":"6197b9effb1ed88d7f60c21a","condition":"contingent","relevant_dimensions":["antennae","wings"],"bee_group":{"antennae":"A","wings":"2","pattern":"X","legs":"X"},"bonus":0.760000000000001},{"rt":2823.4000000059605,"stimulus":"bees-with-color/bee-A2DF.svg","response":1,"trial_type":"image-button-response","trial_index":69,"time_elapsed":1192282,"internal_node_id":"0.0-4.0-0.29","subject_id":"6162fc52fa68079d28dc5be9","study_id":"6197b3f67c2b5cd3b6d9596a","session_id":"6197b9effb1ed88d7f60c21a","condition":"contingent","relevant_dimensions":["antennae","wings"],"bee_group":{"antennae":"A","wings":"2","pattern":"X","legs":"X"},"action":"avoid","summary":"good-avoid","bonus":0.760000000000001},{"rt":1215.8999999985099,"stimulus":"\n                    <p><b>Action: <em>avoid</em></b></p>\n                    <p>This is the bee that you just saw.</p>\n                    <img src=\"bees-with-color/bee-A2DF.svg\" width=\"200\">\n                    <p><br>Your bonus pay is unchanged, and remains at $0.50.</p>\n            ","response":0,"trial_type":"html-button-response","trial_index":70,"time_elapsed":1193503,"internal_node_id":"0.0-4.0-1.29","subject_id":"6162fc52fa68079d28dc5be9","study_id":"6197b3f67c2b5cd3b6d9596a","session_id":"6197b9effb1ed88d7f60c21a","condition":"contingent","relevant_dimensions":["antennae","wings"],"bee_group":{"antennae":"A","wings":"2","pattern":"X","legs":"X"},"bonus":0.760000000000001},{"rt":7040.89999999851,"stimulus":"bees-with-color/bee-A2SF.svg","response":0,"trial_type":"image-button-response","trial_index":71,"time_elapsed":1200550,"internal_node_id":"0.0-4.0-0.30","subject_id":"6162fc52fa68079d28dc5be9","study_id":"6197b3f67c2b5cd3b6d9596a","session_id":"6197b9effb1ed88d7f60c21a","condition":"contingent","relevant_dimensions":["antennae","wings"],"bee_group":{"antennae":"A","wings":"2","pattern":"X","legs":"X"},"action":"harvest","summary":"bad-harvest","bonus":0.760000000000001},{"rt":1394.8000000044703,"stimulus":"\n                    <p><b>Action: <em>harvest</em></b></p>\n                    <p>This is the bee that you just saw.</p>\n                    <img src=\"bees-with-color/bee-A2SF.svg\" width=\"200\">\n                    <p><span class=\"redText\">Bad choice, the bee was angry.</span><br><b>You have been stung!</b><br>Your pay has been decreased by $0.10. Your bonus pay is now $0.40.</p>\n            ","response":0,"trial_type":"html-button-response","trial_index":72,"time_elapsed":1201949,"internal_node_id":"0.0-4.0-1.30","subject_id":"6162fc52fa68079d28dc5be9","study_id":"6197b3f67c2b5cd3b6d9596a","session_id":"6197b9effb1ed88d7f60c21a","condition":"contingent","relevant_dimensions":["antennae","wings"],"bee_group":{"antennae":"A","wings":"2","pattern":"X","legs":"X"},"bonus":0.760000000000001},{"rt":2353.60000000149,"stimulus":"bees-with-color/bee-B1SF.svg","response":1,"trial_type":"image-button-response","trial_index":73,"time_elapsed":1204307,"internal_node_id":"0.0-4.0-0.31","subject_id":"6162fc52fa68079d28dc5be9","study_id":"6197b3f67c2b5cd3b6d9596a","session_id":"6197b9effb1ed88d7f60c21a","condition":"contingent","relevant_dimensions":["antennae","wings"],"bee_group":{"antennae":"A","wings":"2","pattern":"X","legs":"X"},"action":"avoid","summary":"bad-avoid","bonus":0.760000000000001},{"rt":1545.7999999970198,"stimulus":"\n                    <p><b>Action: <em>avoid</em></b></p>\n                    <p>This is the bee that you just saw.</p>\n                    <img src=\"bees-with-color/bee-B1SF.svg\" width=\"200\">\n                    <p><br>Your bonus pay is unchanged, and remains at $0.40.</p>\n            ","response":0,"trial_type":"html-button-response","trial_index":74,"time_elapsed":1205857,"internal_node_id":"0.0-4.0-1.31","subject_id":"6162fc52fa68079d28dc5be9","study_id":"6197b3f67c2b5cd3b6d9596a","session_id":"6197b9effb1ed88d7f60c21a","condition":"contingent","relevant_dimensions":["antennae","wings"],"bee_group":{"antennae":"A","wings":"2","pattern":"X","legs":"X"},"bonus":0.760000000000001},{"rt":1937.6999999955297,"stimulus":"bees-with-color/bee-A1DM.svg","response":0,"trial_type":"image-button-response","trial_index":75,"time_elapsed":1207799,"internal_node_id":"0.0-4.0-0.32","subject_id":"6162fc52fa68079d28dc5be9","study_id":"6197b3f67c2b5cd3b6d9596a","session_id":"6197b9effb1ed88d7f60c21a","condition":"contingent","relevant_dimensions":["antennae","wings"],"bee_group":{"antennae":"A","wings":"2","pattern":"X","legs":"X"},"action":"harvest","summary":"good-harvest","bonus":0.760000000000001},{"rt":1128.6999999955297,"stimulus":"\n                    <p><b>Action: <em>harvest</em></b></p>\n                    <p>This is the bee that you just saw.</p>\n                    <img src=\"bees-with-color/bee-A1DM.svg\" width=\"200\">\n                    <p><span class=\"greenText\"><b>Successful harvest!</b></span><br>Your pay has increased by $0.02. Your bonus pay is now $0.42.</p>\n            ","response":0,"trial_type":"html-button-response","trial_index":76,"time_elapsed":1208931,"internal_node_id":"0.0-4.0-1.32","subject_id":"6162fc52fa68079d28dc5be9","study_id":"6197b3f67c2b5cd3b6d9596a","session_id":"6197b9effb1ed88d7f60c21a","condition":"contingent","relevant_dimensions":["antennae","wings"],"bee_group":{"antennae":"A","wings":"2","pattern":"X","legs":"X"},"bonus":0.760000000000001},{"rt":4295.70000000298,"stimulus":"bees-with-color/bee-A2SF.svg","response":0,"trial_type":"image-button-response","trial_index":77,"time_elapsed":1213232,"internal_node_id":"0.0-4.0-0.33","subject_id":"6162fc52fa68079d28dc5be9","study_id":"6197b3f67c2b5cd3b6d9596a","session_id":"6197b9effb1ed88d7f60c21a","condition":"contingent","relevant_dimensions":["antennae","wings"],"bee_group":{"antennae":"A","wings":"2","pattern":"X","legs":"X"},"action":"harvest","summary":"bad-harvest","bonus":0.760000000000001},{"rt":1841.8000000044703,"stimulus":"\n                    <p><b>Action: <em>harvest</em></b></p>\n                    <p>This is the bee that you just saw.</p>\n                    <img src=\"bees-with-color/bee-A2SF.svg\" width=\"200\">\n                    <p><span class=\"redText\">Bad choice, the bee was angry.</span><br><b>You have been stung!</b><br>Your pay has been decreased by $0.10. Your bonus pay is now $0.32.</p>\n            ","response":0,"trial_type":"html-button-response","trial_index":78,"time_elapsed":1215082,"internal_node_id":"0.0-4.0-1.33","subject_id":"6162fc52fa68079d28dc5be9","study_id":"6197b3f67c2b5cd3b6d9596a","session_id":"6197b9effb1ed88d7f60c21a","condition":"contingent","relevant_dimensions":["antennae","wings"],"bee_group":{"antennae":"A","wings":"2","pattern":"X","legs":"X"},"bonus":0.760000000000001},{"rt":1808.3000000044703,"stimulus":"bees-with-color/bee-B2DM.svg","response":1,"trial_type":"image-button-response","trial_index":79,"time_elapsed":1216895,"internal_node_id":"0.0-4.0-0.34","subject_id":"6162fc52fa68079d28dc5be9","study_id":"6197b3f67c2b5cd3b6d9596a","session_id":"6197b9effb1ed88d7f60c21a","condition":"contingent","relevant_dimensions":["antennae","wings"],"bee_group":{"antennae":"A","wings":"2","pattern":"X","legs":"X"},"action":"avoid","summary":"bad-avoid","bonus":0.760000000000001},{"rt":1050.5999999940395,"stimulus":"\n                    <p><b>Action: <em>avoid</em></b></p>\n                    <p>This is the bee that you just saw.</p>\n                    <img src=\"bees-with-color/bee-B2DM.svg\" width=\"200\">\n                    <p><br>Your bonus pay is unchanged, and remains at $0.32.</p>\n            ","response":0,"trial_type":"html-button-response","trial_index":80,"time_elapsed":1217950,"internal_node_id":"0.0-4.0-1.34","subject_id":"6162fc52fa68079d28dc5be9","study_id":"6197b3f67c2b5cd3b6d9596a","session_id":"6197b9effb1ed88d7f60c21a","condition":"contingent","relevant_dimensions":["antennae","wings"],"bee_group":{"antennae":"A","wings":"2","pattern":"X","legs":"X"},"bonus":0.760000000000001},{"rt":6308.10000000149,"stimulus":"bees-with-color/bee-B1DF.svg","response":0,"trial_type":"image-button-response","trial_index":81,"time_elapsed":1224267,"internal_node_id":"0.0-4.0-0.35","subject_id":"6162fc52fa68079d28dc5be9","study_id":"6197b3f67c2b5cd3b6d9596a","session_id":"6197b9effb1ed88d7f60c21a","condition":"contingent","relevant_dimensions":["antennae","wings"],"bee_group":{"antennae":"A","wings":"2","pattern":"X","legs":"X"},"action":"harvest","summary":"good-harvest","bonus":0.760000000000001},{"rt":1360.2999999970198,"stimulus":"\n                    <p><b>Action: <em>harvest</em></b></p>\n                    <p>This is the bee that you just saw.</p>\n                    <img src=\"bees-with-color/bee-B1DF.svg\" width=\"200\">\n                    <p><span class=\"greenText\"><b>Successful harvest!</b></span><br>Your pay has increased by $0.02. Your bonus pay is now $0.34.</p>\n            ","response":0,"trial_type":"html-button-response","trial_index":82,"time_elapsed":1225633,"internal_node_id":"0.0-4.0-1.35","subject_id":"6162fc52fa68079d28dc5be9","study_id":"6197b3f67c2b5cd3b6d9596a","session_id":"6197b9effb1ed88d7f60c21a","condition":"contingent","relevant_dimensions":["antennae","wings"],"bee_group":{"antennae":"A","wings":"2","pattern":"X","legs":"X"},"bonus":0.760000000000001},{"rt":1375.5,"stimulus":"bees-with-color/bee-A1DF.svg","response":0,"trial_type":"image-button-response","trial_index":83,"time_elapsed":1227015,"internal_node_id":"0.0-4.0-0.36","subject_id":"6162fc52fa68079d28dc5be9","study_id":"6197b3f67c2b5cd3b6d9596a","session_id":"6197b9effb1ed88d7f60c21a","condition":"contingent","relevant_dimensions":["antennae","wings"],"bee_group":{"antennae":"A","wings":"2","pattern":"X","legs":"X"},"action":"harvest","summary":"good-harvest","bonus":0.760000000000001},{"rt":1330.2000000029802,"stimulus":"\n                    <p><b>Action: <em>harvest</em></b></p>\n                    <p>This is the bee that you just saw.</p>\n                    <img src=\"bees-with-color/bee-A1DF.svg\" width=\"200\">\n                    <p><span class=\"greenText\"><b>Successful harvest!</b></span><br>Your pay has increased by $0.02. Your bonus pay is now $0.36.</p>\n            ","response":0,"trial_type":"html-button-response","trial_index":84,"time_elapsed":1228356,"internal_node_id":"0.0-4.0-1.36","subject_id":"6162fc52fa68079d28dc5be9","study_id":"6197b3f67c2b5cd3b6d9596a","session_id":"6197b9effb1ed88d7f60c21a","condition":"contingent","relevant_dimensions":["antennae","wings"],"bee_group":{"antennae":"A","wings":"2","pattern":"X","legs":"X"},"bonus":0.760000000000001},{"rt":2152.39999999851,"stimulus":"bees-with-color/bee-B2SF.svg","response":0,"trial_type":"image-button-response","trial_index":85,"time_elapsed":1230517,"internal_node_id":"0.0-4.0-0.37","subject_id":"6162fc52fa68079d28dc5be9","study_id":"6197b3f67c2b5cd3b6d9596a","session_id":"6197b9effb1ed88d7f60c21a","condition":"contingent","relevant_dimensions":["antennae","wings"],"bee_group":{"antennae":"A","wings":"2","pattern":"X","legs":"X"},"action":"harvest","summary":"good-harvest","bonus":0.760000000000001},{"rt":1266.2000000029802,"stimulus":"\n                    <p><b>Action: <em>harvest</em></b></p>\n                    <p>This is the bee that you just saw.</p>\n                    <img src=\"bees-with-color/bee-B2SF.svg\" width=\"200\">\n                    <p><span class=\"greenText\"><b>Successful harvest!</b></span><br>Your pay has increased by $0.02. Your bonus pay is now $0.38.</p>\n            ","response":0,"trial_type":"html-button-response","trial_index":86,"time_elapsed":1231791,"internal_node_id":"0.0-4.0-1.37","subject_id":"6162fc52fa68079d28dc5be9","study_id":"6197b3f67c2b5cd3b6d9596a","session_id":"6197b9effb1ed88d7f60c21a","condition":"contingent","relevant_dimensions":["antennae","wings"],"bee_group":{"antennae":"A","wings":"2","pattern":"X","legs":"X"},"bonus":0.760000000000001},{"rt":2491.7000000029802,"stimulus":"bees-with-color/bee-A2DF.svg","response":0,"trial_type":"image-button-response","trial_index":87,"time_elapsed":1234289,"internal_node_id":"0.0-4.0-0.38","subject_id":"6162fc52fa68079d28dc5be9","study_id":"6197b3f67c2b5cd3b6d9596a","session_id":"6197b9effb1ed88d7f60c21a","condition":"contingent","relevant_dimensions":["antennae","wings"],"bee_group":{"antennae":"A","wings":"2","pattern":"X","legs":"X"},"action":"harvest","summary":"bad-harvest","bonus":0.760000000000001},{"rt":1588.8999999985099,"stimulus":"\n                    <p><b>Action: <em>harvest</em></b></p>\n                    <p>This is the bee that you just saw.</p>\n                    <img src=\"bees-with-color/bee-A2DF.svg\" width=\"200\">\n                    <p><span class=\"redText\">Bad choice, the bee was angry.</span><br><b>You have been stung!</b><br>Your pay has been decreased by $0.10. Your bonus pay is now $0.28.</p>\n            ","response":0,"trial_type":"html-button-response","trial_index":88,"time_elapsed":1235887,"internal_node_id":"0.0-4.0-1.38","subject_id":"6162fc52fa68079d28dc5be9","study_id":"6197b3f67c2b5cd3b6d9596a","session_id":"6197b9effb1ed88d7f60c21a","condition":"contingent","relevant_dimensions":["antennae","wings"],"bee_group":{"antennae":"A","wings":"2","pattern":"X","legs":"X"},"bonus":0.760000000000001},{"rt":1628.1000000014901,"stimulus":"bees-with-color/bee-B1DM.svg","response":1,"trial_type":"image-button-response","trial_index":89,"time_elapsed":1237524,"internal_node_id":"0.0-4.0-0.39","subject_id":"6162fc52fa68079d28dc5be9","study_id":"6197b3f67c2b5cd3b6d9596a","session_id":"6197b9effb1ed88d7f60c21a","condition":"contingent","relevant_dimensions":["antennae","wings"],"bee_group":{"antennae":"A","wings":"2","pattern":"X","legs":"X"},"action":"avoid","summary":"bad-avoid","bonus":0.760000000000001},{"rt":1600.2999999970198,"stimulus":"\n                    <p><b>Action: <em>avoid</em></b></p>\n                    <p>This is the bee that you just saw.</p>\n                    <img src=\"bees-with-color/bee-B1DM.svg\" width=\"200\">\n                    <p><br>Your bonus pay is unchanged, and remains at $0.28.</p>\n            ","response":0,"trial_type":"html-button-response","trial_index":90,"time_elapsed":1239131,"internal_node_id":"0.0-4.0-1.39","subject_id":"6162fc52fa68079d28dc5be9","study_id":"6197b3f67c2b5cd3b6d9596a","session_id":"6197b9effb1ed88d7f60c21a","condition":"contingent","relevant_dimensions":["antennae","wings"],"bee_group":{"antennae":"A","wings":"2","pattern":"X","legs":"X"},"bonus":0.760000000000001},{"rt":2358.6999999955297,"stimulus":"bees-with-color/bee-A2SM.svg","response":1,"trial_type":"image-button-response","trial_index":91,"time_elapsed":1241498,"internal_node_id":"0.0-4.0-0.40","subject_id":"6162fc52fa68079d28dc5be9","study_id":"6197b3f67c2b5cd3b6d9596a","session_id":"6197b9effb1ed88d7f60c21a","condition":"contingent","relevant_dimensions":["antennae","wings"],"bee_group":{"antennae":"A","wings":"2","pattern":"X","legs":"X"},"action":"avoid","summary":"good-avoid","bonus":0.760000000000001},{"rt":2657.4000000059605,"stimulus":"\n                    <p><b>Action: <em>avoid</em></b></p>\n                    <p>This is the bee that you just saw.</p>\n                    <img src=\"bees-with-color/bee-A2SM.svg\" width=\"200\">\n                    <p><br>Your bonus pay is unchanged, and remains at $0.28.</p>\n            ","response":0,"trial_type":"html-button-response","trial_index":92,"time_elapsed":1244165,"internal_node_id":"0.0-4.0-1.40","subject_id":"6162fc52fa68079d28dc5be9","study_id":"6197b3f67c2b5cd3b6d9596a","session_id":"6197b9effb1ed88d7f60c21a","condition":"contingent","relevant_dimensions":["antennae","wings"],"bee_group":{"antennae":"A","wings":"2","pattern":"X","legs":"X"},"bonus":0.760000000000001},{"rt":2911.10000000149,"stimulus":"bees-with-color/bee-B1SF.svg","response":0,"trial_type":"image-button-response","trial_index":93,"time_elapsed":1247080,"internal_node_id":"0.0-4.0-0.41","subject_id":"6162fc52fa68079d28dc5be9","study_id":"6197b3f67c2b5cd3b6d9596a","session_id":"6197b9effb1ed88d7f60c21a","condition":"contingent","relevant_dimensions":["antennae","wings"],"bee_group":{"antennae":"A","wings":"2","pattern":"X","legs":"X"},"action":"harvest","summary":"good-harvest","bonus":0.760000000000001},{"rt":1617.6000000014901,"stimulus":"\n                    <p><b>Action: <em>harvest</em></b></p>\n                    <p>This is the bee that you just saw.</p>\n                    <img src=\"bees-with-color/bee-B1SF.svg\" width=\"200\">\n                    <p><span class=\"greenText\"><b>Successful harvest!</b></span><br>Your pay has increased by $0.02. Your bonus pay is now $0.30.</p>\n            ","response":0,"trial_type":"html-button-response","trial_index":94,"time_elapsed":1248701,"internal_node_id":"0.0-4.0-1.41","subject_id":"6162fc52fa68079d28dc5be9","study_id":"6197b3f67c2b5cd3b6d9596a","session_id":"6197b9effb1ed88d7f60c21a","condition":"contingent","relevant_dimensions":["antennae","wings"],"bee_group":{"antennae":"A","wings":"2","pattern":"X","legs":"X"},"bonus":0.760000000000001},{"rt":6151.60000000149,"stimulus":"bees-with-color/bee-A1SF.svg","response":0,"trial_type":"image-button-response","trial_index":95,"time_elapsed":1254857,"internal_node_id":"0.0-4.0-0.42","subject_id":"6162fc52fa68079d28dc5be9","study_id":"6197b3f67c2b5cd3b6d9596a","session_id":"6197b9effb1ed88d7f60c21a","condition":"contingent","relevant_dimensions":["antennae","wings"],"bee_group":{"antennae":"A","wings":"2","pattern":"X","legs":"X"},"action":"harvest","summary":"good-harvest","bonus":0.760000000000001},{"rt":1206.1999999955297,"stimulus":"\n                    <p><b>Action: <em>harvest</em></b></p>\n                    <p>This is the bee that you just saw.</p>\n                    <img src=\"bees-with-color/bee-A1SF.svg\" width=\"200\">\n                    <p><span class=\"greenText\"><b>Successful harvest!</b></span><br>Your pay has increased by $0.02. Your bonus pay is now $0.32.</p>\n            ","response":0,"trial_type":"html-button-response","trial_index":96,"time_elapsed":1256067,"internal_node_id":"0.0-4.0-1.42","subject_id":"6162fc52fa68079d28dc5be9","study_id":"6197b3f67c2b5cd3b6d9596a","session_id":"6197b9effb1ed88d7f60c21a","condition":"contingent","relevant_dimensions":["antennae","wings"],"bee_group":{"antennae":"A","wings":"2","pattern":"X","legs":"X"},"bonus":0.760000000000001},{"rt":2643.7000000029802,"stimulus":"bees-with-color/bee-A1SM.svg","response":1,"trial_type":"image-button-response","trial_index":97,"time_elapsed":1258719,"internal_node_id":"0.0-4.0-0.43","subject_id":"6162fc52fa68079d28dc5be9","study_id":"6197b3f67c2b5cd3b6d9596a","session_id":"6197b9effb1ed88d7f60c21a","condition":"contingent","relevant_dimensions":["antennae","wings"],"bee_group":{"antennae":"A","wings":"2","pattern":"X","legs":"X"},"action":"avoid","summary":"bad-avoid","bonus":0.760000000000001},{"rt":1398.3000000044703,"stimulus":"\n                    <p><b>Action: <em>avoid</em></b></p>\n                    <p>This is the bee that you just saw.</p>\n                    <img src=\"bees-with-color/bee-A1SM.svg\" width=\"200\">\n                    <p><br>Your bonus pay is unchanged, and remains at $0.32.</p>\n            ","response":0,"trial_type":"html-button-response","trial_index":98,"time_elapsed":1260121,"internal_node_id":"0.0-4.0-1.43","subject_id":"6162fc52fa68079d28dc5be9","study_id":"6197b3f67c2b5cd3b6d9596a","session_id":"6197b9effb1ed88d7f60c21a","condition":"contingent","relevant_dimensions":["antennae","wings"],"bee_group":{"antennae":"A","wings":"2","pattern":"X","legs":"X"},"bonus":0.760000000000001},{"rt":2418.10000000149,"stimulus":"bees-with-color/bee-B1SM.svg","response":0,"trial_type":"image-button-response","trial_index":99,"time_elapsed":1262543,"internal_node_id":"0.0-4.0-0.44","subject_id":"6162fc52fa68079d28dc5be9","study_id":"6197b3f67c2b5cd3b6d9596a","session_id":"6197b9effb1ed88d7f60c21a","condition":"contingent","relevant_dimensions":["antennae","wings"],"bee_group":{"antennae":"A","wings":"2","pattern":"X","legs":"X"},"action":"harvest","summary":"good-harvest","bonus":0.760000000000001},{"rt":1079.2999999970198,"stimulus":"\n                    <p><b>Action: <em>harvest</em></b></p>\n                    <p>This is the bee that you just saw.</p>\n                    <img src=\"bees-with-color/bee-B1SM.svg\" width=\"200\">\n                    <p><span class=\"greenText\"><b>Successful harvest!</b></span><br>Your pay has increased by $0.02. Your bonus pay is now $0.34.</p>\n            ","response":0,"trial_type":"html-button-response","trial_index":100,"time_elapsed":1263628,"internal_node_id":"0.0-4.0-1.44","subject_id":"6162fc52fa68079d28dc5be9","study_id":"6197b3f67c2b5cd3b6d9596a","session_id":"6197b9effb1ed88d7f60c21a","condition":"contingent","relevant_dimensions":["antennae","wings"],"bee_group":{"antennae":"A","wings":"2","pattern":"X","legs":"X"},"bonus":0.760000000000001},{"rt":2251.8000000044703,"stimulus":"bees-with-color/bee-A2DM.svg","response":1,"trial_type":"image-button-response","trial_index":101,"time_elapsed":1265883,"internal_node_id":"0.0-4.0-0.45","subject_id":"6162fc52fa68079d28dc5be9","study_id":"6197b3f67c2b5cd3b6d9596a","session_id":"6197b9effb1ed88d7f60c21a","condition":"contingent","relevant_dimensions":["antennae","wings"],"bee_group":{"antennae":"A","wings":"2","pattern":"X","legs":"X"},"action":"avoid","summary":"good-avoid","bonus":0.760000000000001},{"rt":1357.8999999985099,"stimulus":"\n                    <p><b>Action: <em>avoid</em></b></p>\n                    <p>This is the bee that you just saw.</p>\n                    <img src=\"bees-with-color/bee-A2DM.svg\" width=\"200\">\n                    <p><br>Your bonus pay is unchanged, and remains at $0.34.</p>\n            ","response":0,"trial_type":"html-button-response","trial_index":102,"time_elapsed":1267246,"internal_node_id":"0.0-4.0-1.45","subject_id":"6162fc52fa68079d28dc5be9","study_id":"6197b3f67c2b5cd3b6d9596a","session_id":"6197b9effb1ed88d7f60c21a","condition":"contingent","relevant_dimensions":["antennae","wings"],"bee_group":{"antennae":"A","wings":"2","pattern":"X","legs":"X"},"bonus":0.760000000000001},{"rt":2346.39999999851,"stimulus":"bees-with-color/bee-B2DF.svg","response":0,"trial_type":"image-button-response","trial_index":103,"time_elapsed":1269600,"internal_node_id":"0.0-4.0-0.46","subject_id":"6162fc52fa68079d28dc5be9","study_id":"6197b3f67c2b5cd3b6d9596a","session_id":"6197b9effb1ed88d7f60c21a","condition":"contingent","relevant_dimensions":["antennae","wings"],"bee_group":{"antennae":"A","wings":"2","pattern":"X","legs":"X"},"action":"harvest","summary":"good-harvest","bonus":0.760000000000001},{"rt":1040.2999999970198,"stimulus":"\n                    <p><b>Action: <em>harvest</em></b></p>\n                    <p>This is the bee that you just saw.</p>\n                    <img src=\"bees-with-color/bee-B2DF.svg\" width=\"200\">\n                    <p><span class=\"greenText\"><b>Successful harvest!</b></span><br>Your pay has increased by $0.02. Your bonus pay is now $0.36.</p>\n            ","response":0,"trial_type":"html-button-response","trial_index":104,"time_elapsed":1270646,"internal_node_id":"0.0-4.0-1.46","subject_id":"6162fc52fa68079d28dc5be9","study_id":"6197b3f67c2b5cd3b6d9596a","session_id":"6197b9effb1ed88d7f60c21a","condition":"contingent","relevant_dimensions":["antennae","wings"],"bee_group":{"antennae":"A","wings":"2","pattern":"X","legs":"X"},"bonus":0.760000000000001},{"rt":1977,"stimulus":"bees-with-color/bee-B2SM.svg","response":0,"trial_type":"image-button-response","trial_index":105,"time_elapsed":1272630,"internal_node_id":"0.0-4.0-0.47","subject_id":"6162fc52fa68079d28dc5be9","study_id":"6197b3f67c2b5cd3b6d9596a","session_id":"6197b9effb1ed88d7f60c21a","condition":"contingent","relevant_dimensions":["antennae","wings"],"bee_group":{"antennae":"A","wings":"2","pattern":"X","legs":"X"},"action":"harvest","summary":"good-harvest","bonus":0.760000000000001},{"rt":1292.8999999985099,"stimulus":"\n                    <p><b>Action: <em>harvest</em></b></p>\n                    <p>This is the bee that you just saw.</p>\n                    <img src=\"bees-with-color/bee-B2SM.svg\" width=\"200\">\n                    <p><span class=\"greenText\"><b>Successful harvest!</b></span><br>Your pay has increased by $0.02. Your bonus pay is now $0.38.</p>\n            ","response":0,"trial_type":"html-button-response","trial_index":106,"time_elapsed":1273931,"internal_node_id":"0.0-4.0-1.47","subject_id":"6162fc52fa68079d28dc5be9","study_id":"6197b3f67c2b5cd3b6d9596a","session_id":"6197b9effb1ed88d7f60c21a","condition":"contingent","relevant_dimensions":["antennae","wings"],"bee_group":{"antennae":"A","wings":"2","pattern":"X","legs":"X"},"bonus":0.760000000000001},{"rt":3699.10000000149,"stimulus":"bees-with-color/bee-A2DF.svg","response":1,"trial_type":"image-button-response","trial_index":107,"time_elapsed":1277637,"internal_node_id":"0.0-4.0-0.48","subject_id":"6162fc52fa68079d28dc5be9","study_id":"6197b3f67c2b5cd3b6d9596a","session_id":"6197b9effb1ed88d7f60c21a","condition":"contingent","relevant_dimensions":["antennae","wings"],"bee_group":{"antennae":"A","wings":"2","pattern":"X","legs":"X"},"action":"avoid","summary":"good-avoid","bonus":0.760000000000001},{"rt":1303.3000000044703,"stimulus":"\n                    <p><b>Action: <em>avoid</em></b></p>\n                    <p>This is the bee that you just saw.</p>\n                    <img src=\"bees-with-color/bee-A2DF.svg\" width=\"200\">\n                    <p><br>Your bonus pay is unchanged, and remains at $0.38.</p>\n            ","response":0,"trial_type":"html-button-response","trial_index":108,"time_elapsed":1278947,"internal_node_id":"0.0-4.0-1.48","subject_id":"6162fc52fa68079d28dc5be9","study_id":"6197b3f67c2b5cd3b6d9596a","session_id":"6197b9effb1ed88d7f60c21a","condition":"contingent","relevant_dimensions":["antennae","wings"],"bee_group":{"antennae":"A","wings":"2","pattern":"X","legs":"X"},"bonus":0.760000000000001},{"rt":2778.2000000029802,"stimulus":"bees-with-color/bee-B2SF.svg","response":0,"trial_type":"image-button-response","trial_index":109,"time_elapsed":1281729,"internal_node_id":"0.0-4.0-0.49","subject_id":"6162fc52fa68079d28dc5be9","study_id":"6197b3f67c2b5cd3b6d9596a","session_id":"6197b9effb1ed88d7f60c21a","condition":"contingent","relevant_dimensions":["antennae","wings"],"bee_group":{"antennae":"A","wings":"2","pattern":"X","legs":"X"},"action":"harvest","summary":"good-harvest","bonus":0.760000000000001},{"rt":1067.5,"stimulus":"\n                    <p><b>Action: <em>harvest</em></b></p>\n                    <p>This is the bee that you just saw.</p>\n                    <img src=\"bees-with-color/bee-B2SF.svg\" width=\"200\">\n                    <p><span class=\"greenText\"><b>Successful harvest!</b></span><br>Your pay has increased by $0.02. Your bonus pay is now $0.40.</p>\n            ","response":0,"trial_type":"html-button-response","trial_index":110,"time_elapsed":1282803,"internal_node_id":"0.0-4.0-1.49","subject_id":"6162fc52fa68079d28dc5be9","study_id":"6197b3f67c2b5cd3b6d9596a","session_id":"6197b9effb1ed88d7f60c21a","condition":"contingent","relevant_dimensions":["antennae","wings"],"bee_group":{"antennae":"A","wings":"2","pattern":"X","legs":"X"},"bonus":0.760000000000001},{"rt":1773.1999999955297,"stimulus":"bees-with-color/bee-B1SM.svg","response":0,"trial_type":"image-button-response","trial_index":111,"time_elapsed":1284581,"internal_node_id":"0.0-4.0-0.50","subject_id":"6162fc52fa68079d28dc5be9","study_id":"6197b3f67c2b5cd3b6d9596a","session_id":"6197b9effb1ed88d7f60c21a","condition":"contingent","relevant_dimensions":["antennae","wings"],"bee_group":{"antennae":"A","wings":"2","pattern":"X","legs":"X"},"action":"harvest","summary":"good-harvest","bonus":0.760000000000001},{"rt":1655.1000000014901,"stimulus":"\n                    <p><b>Action: <em>harvest</em></b></p>\n                    <p>This is the bee that you just saw.</p>\n                    <img src=\"bees-with-color/bee-B1SM.svg\" width=\"200\">\n                    <p><span class=\"greenText\"><b>Successful harvest!</b></span><br>Your pay has increased by $0.02. Your bonus pay is now $0.42.</p>\n            ","response":0,"trial_type":"html-button-response","trial_index":112,"time_elapsed":1286242,"internal_node_id":"0.0-4.0-1.50","subject_id":"6162fc52fa68079d28dc5be9","study_id":"6197b3f67c2b5cd3b6d9596a","session_id":"6197b9effb1ed88d7f60c21a","condition":"contingent","relevant_dimensions":["antennae","wings"],"bee_group":{"antennae":"A","wings":"2","pattern":"X","legs":"X"},"bonus":0.760000000000001},{"rt":2819.10000000149,"stimulus":"bees-with-color/bee-A2DM.svg","response":1,"trial_type":"image-button-response","trial_index":113,"time_elapsed":1289065,"internal_node_id":"0.0-4.0-0.51","subject_id":"6162fc52fa68079d28dc5be9","study_id":"6197b3f67c2b5cd3b6d9596a","session_id":"6197b9effb1ed88d7f60c21a","condition":"contingent","relevant_dimensions":["antennae","wings"],"bee_group":{"antennae":"A","wings":"2","pattern":"X","legs":"X"},"action":"avoid","summary":"good-avoid","bonus":0.760000000000001},{"rt":808.3999999985099,"stimulus":"\n                    <p><b>Action: <em>avoid</em></b></p>\n                    <p>This is the bee that you just saw.</p>\n                    <img src=\"bees-with-color/bee-A2DM.svg\" width=\"200\">\n                    <p><br>Your bonus pay is unchanged, and remains at $0.42.</p>\n            ","response":0,"trial_type":"html-button-response","trial_index":114,"time_elapsed":1289878,"internal_node_id":"0.0-4.0-1.51","subject_id":"6162fc52fa68079d28dc5be9","study_id":"6197b3f67c2b5cd3b6d9596a","session_id":"6197b9effb1ed88d7f60c21a","condition":"contingent","relevant_dimensions":["antennae","wings"],"bee_group":{"antennae":"A","wings":"2","pattern":"X","legs":"X"},"bonus":0.760000000000001},{"rt":2178.10000000149,"stimulus":"bees-with-color/bee-B2DF.svg","response":0,"trial_type":"image-button-response","trial_index":115,"time_elapsed":1292061,"internal_node_id":"0.0-4.0-0.52","subject_id":"6162fc52fa68079d28dc5be9","study_id":"6197b3f67c2b5cd3b6d9596a","session_id":"6197b9effb1ed88d7f60c21a","condition":"contingent","relevant_dimensions":["antennae","wings"],"bee_group":{"antennae":"A","wings":"2","pattern":"X","legs":"X"},"action":"harvest","summary":"good-harvest","bonus":0.760000000000001},{"rt":1180.3999999985099,"stimulus":"\n                    <p><b>Action: <em>harvest</em></b></p>\n                    <p>This is the bee that you just saw.</p>\n                    <img src=\"bees-with-color/bee-B2DF.svg\" width=\"200\">\n                    <p><span class=\"greenText\"><b>Successful harvest!</b></span><br>Your pay has increased by $0.02. Your bonus pay is now $0.44.</p>\n            ","response":0,"trial_type":"html-button-response","trial_index":116,"time_elapsed":1293248,"internal_node_id":"0.0-4.0-1.52","subject_id":"6162fc52fa68079d28dc5be9","study_id":"6197b3f67c2b5cd3b6d9596a","session_id":"6197b9effb1ed88d7f60c21a","condition":"contingent","relevant_dimensions":["antennae","wings"],"bee_group":{"antennae":"A","wings":"2","pattern":"X","legs":"X"},"bonus":0.760000000000001},{"rt":1300.7999999970198,"stimulus":"bees-with-color/bee-A1SF.svg","response":0,"trial_type":"image-button-response","trial_index":117,"time_elapsed":1294557,"internal_node_id":"0.0-4.0-0.53","subject_id":"6162fc52fa68079d28dc5be9","study_id":"6197b3f67c2b5cd3b6d9596a","session_id":"6197b9effb1ed88d7f60c21a","condition":"contingent","relevant_dimensions":["antennae","wings"],"bee_group":{"antennae":"A","wings":"2","pattern":"X","legs":"X"},"action":"harvest","summary":"good-harvest","bonus":0.760000000000001},{"rt":1201.4000000059605,"stimulus":"\n                    <p><b>Action: <em>harvest</em></b></p>\n                    <p>This is the bee that you just saw.</p>\n                    <img src=\"bees-with-color/bee-A1SF.svg\" width=\"200\">\n                    <p><span class=\"greenText\"><b>Successful harvest!</b></span><br>Your pay has increased by $0.02. Your bonus pay is now $0.46.</p>\n            ","response":0,"trial_type":"html-button-response","trial_index":118,"time_elapsed":1295763,"internal_node_id":"0.0-4.0-1.53","subject_id":"6162fc52fa68079d28dc5be9","study_id":"6197b3f67c2b5cd3b6d9596a","session_id":"6197b9effb1ed88d7f60c21a","condition":"contingent","relevant_dimensions":["antennae","wings"],"bee_group":{"antennae":"A","wings":"2","pattern":"X","legs":"X"},"bonus":0.760000000000001},{"rt":3726.6999999955297,"stimulus":"bees-with-color/bee-B1DM.svg","response":0,"trial_type":"image-button-response","trial_index":119,"time_elapsed":1299493,"internal_node_id":"0.0-4.0-0.54","subject_id":"6162fc52fa68079d28dc5be9","study_id":"6197b3f67c2b5cd3b6d9596a","session_id":"6197b9effb1ed88d7f60c21a","condition":"contingent","relevant_dimensions":["antennae","wings"],"bee_group":{"antennae":"A","wings":"2","pattern":"X","legs":"X"},"action":"harvest","summary":"good-harvest","bonus":0.760000000000001},{"rt":1214.7999999970198,"stimulus":"\n                    <p><b>Action: <em>harvest</em></b></p>\n                    <p>This is the bee that you just saw.</p>\n                    <img src=\"bees-with-color/bee-B1DM.svg\" width=\"200\">\n                    <p><span class=\"greenText\"><b>Successful harvest!</b></span><br>Your pay has increased by $0.02. Your bonus pay is now $0.48.</p>\n            ","response":0,"trial_type":"html-button-response","trial_index":120,"time_elapsed":1300712,"internal_node_id":"0.0-4.0-1.54","subject_id":"6162fc52fa68079d28dc5be9","study_id":"6197b3f67c2b5cd3b6d9596a","session_id":"6197b9effb1ed88d7f60c21a","condition":"contingent","relevant_dimensions":["antennae","wings"],"bee_group":{"antennae":"A","wings":"2","pattern":"X","legs":"X"},"bonus":0.760000000000001},{"rt":5407.39999999851,"stimulus":"bees-with-color/bee-B2SM.svg","response":1,"trial_type":"image-button-response","trial_index":121,"time_elapsed":1306128,"internal_node_id":"0.0-4.0-0.55","subject_id":"6162fc52fa68079d28dc5be9","study_id":"6197b3f67c2b5cd3b6d9596a","session_id":"6197b9effb1ed88d7f60c21a","condition":"contingent","relevant_dimensions":["antennae","wings"],"bee_group":{"antennae":"A","wings":"2","pattern":"X","legs":"X"},"action":"avoid","summary":"bad-avoid","bonus":0.760000000000001},{"rt":1158.0999999940395,"stimulus":"\n                    <p><b>Action: <em>avoid</em></b></p>\n                    <p>This is the bee that you just saw.</p>\n                    <img src=\"bees-with-color/bee-B2SM.svg\" width=\"200\">\n                    <p><br>Your bonus pay is unchanged, and remains at $0.48.</p>\n            ","response":0,"trial_type":"html-button-response","trial_index":122,"time_elapsed":1307294,"internal_node_id":"0.0-4.0-1.55","subject_id":"6162fc52fa68079d28dc5be9","study_id":"6197b3f67c2b5cd3b6d9596a","session_id":"6197b9effb1ed88d7f60c21a","condition":"contingent","relevant_dimensions":["antennae","wings"],"bee_group":{"antennae":"A","wings":"2","pattern":"X","legs":"X"},"bonus":0.760000000000001},{"rt":2179.7000000029802,"stimulus":"bees-with-color/bee-B2DM.svg","response":1,"trial_type":"image-button-response","trial_index":123,"time_elapsed":1309479,"internal_node_id":"0.0-4.0-0.56","subject_id":"6162fc52fa68079d28dc5be9","study_id":"6197b3f67c2b5cd3b6d9596a","session_id":"6197b9effb1ed88d7f60c21a","condition":"contingent","relevant_dimensions":["antennae","wings"],"bee_group":{"antennae":"A","wings":"2","pattern":"X","legs":"X"},"action":"avoid","summary":"bad-avoid","bonus":0.760000000000001},{"rt":1040.7000000029802,"stimulus":"\n                    <p><b>Action: <em>avoid</em></b></p>\n                    <p>This is the bee that you just saw.</p>\n                    <img src=\"bees-with-color/bee-B2DM.svg\" width=\"200\">\n                    <p><br>Your bonus pay is unchanged, and remains at $0.48.</p>\n            ","response":0,"trial_type":"html-button-response","trial_index":124,"time_elapsed":1310528,"internal_node_id":"0.0-4.0-1.56","subject_id":"6162fc52fa68079d28dc5be9","study_id":"6197b3f67c2b5cd3b6d9596a","session_id":"6197b9effb1ed88d7f60c21a","condition":"contingent","relevant_dimensions":["antennae","wings"],"bee_group":{"antennae":"A","wings":"2","pattern":"X","legs":"X"},"bonus":0.760000000000001},{"rt":1524.2999999970198,"stimulus":"bees-with-color/bee-B1SF.svg","response":0,"trial_type":"image-button-response","trial_index":125,"time_elapsed":1312060,"internal_node_id":"0.0-4.0-0.57","subject_id":"6162fc52fa68079d28dc5be9","study_id":"6197b3f67c2b5cd3b6d9596a","session_id":"6197b9effb1ed88d7f60c21a","condition":"contingent","relevant_dimensions":["antennae","wings"],"bee_group":{"antennae":"A","wings":"2","pattern":"X","legs":"X"},"action":"harvest","summary":"good-harvest","bonus":0.760000000000001},{"rt":1113.6999999955297,"stimulus":"\n                    <p><b>Action: <em>harvest</em></b></p>\n                    <p>This is the bee that you just saw.</p>\n                    <img src=\"bees-with-color/bee-B1SF.svg\" width=\"200\">\n                    <p><span class=\"greenText\"><b>Successful harvest!</b></span><br>Your pay has increased by $0.02. Your bonus pay is now $0.50.</p>\n            ","response":0,"trial_type":"html-button-response","trial_index":126,"time_elapsed":1313178,"internal_node_id":"0.0-4.0-1.57","subject_id":"6162fc52fa68079d28dc5be9","study_id":"6197b3f67c2b5cd3b6d9596a","session_id":"6197b9effb1ed88d7f60c21a","condition":"contingent","relevant_dimensions":["antennae","wings"],"bee_group":{"antennae":"A","wings":"2","pattern":"X","legs":"X"},"bonus":0.760000000000001},{"rt":1428.3999999985099,"stimulus":"bees-with-color/bee-A2SF.svg","response":1,"trial_type":"image-button-response","trial_index":127,"time_elapsed":1314614,"internal_node_id":"0.0-4.0-0.58","subject_id":"6162fc52fa68079d28dc5be9","study_id":"6197b3f67c2b5cd3b6d9596a","session_id":"6197b9effb1ed88d7f60c21a","condition":"contingent","relevant_dimensions":["antennae","wings"],"bee_group":{"antennae":"A","wings":"2","pattern":"X","legs":"X"},"action":"avoid","summary":"good-avoid","bonus":0.760000000000001},{"rt":1373.6999999955297,"stimulus":"\n                    <p><b>Action: <em>avoid</em></b></p>\n                    <p>This is the bee that you just saw.</p>\n                    <img src=\"bees-with-color/bee-A2SF.svg\" width=\"200\">\n                    <p><br>Your bonus pay is unchanged, and remains at $0.50.</p>\n            ","response":0,"trial_type":"html-button-response","trial_index":128,"time_elapsed":1315995,"internal_node_id":"0.0-4.0-1.58","subject_id":"6162fc52fa68079d28dc5be9","study_id":"6197b3f67c2b5cd3b6d9596a","session_id":"6197b9effb1ed88d7f60c21a","condition":"contingent","relevant_dimensions":["antennae","wings"],"bee_group":{"antennae":"A","wings":"2","pattern":"X","legs":"X"},"bonus":0.760000000000001},{"rt":2277.3000000044703,"stimulus":"bees-with-color/bee-B1DF.svg","response":0,"trial_type":"image-button-response","trial_index":129,"time_elapsed":1318277,"internal_node_id":"0.0-4.0-0.59","subject_id":"6162fc52fa68079d28dc5be9","study_id":"6197b3f67c2b5cd3b6d9596a","session_id":"6197b9effb1ed88d7f60c21a","condition":"contingent","relevant_dimensions":["antennae","wings"],"bee_group":{"antennae":"A","wings":"2","pattern":"X","legs":"X"},"action":"harvest","summary":"good-harvest","bonus":0.760000000000001},{"rt":1095.7999999970198,"stimulus":"\n                    <p><b>Action: <em>harvest</em></b></p>\n                    <p>This is the bee that you just saw.</p>\n                    <img src=\"bees-with-color/bee-B1DF.svg\" width=\"200\">\n                    <p><span class=\"greenText\"><b>Successful harvest!</b></span><br>Your pay has increased by $0.02. Your bonus pay is now $0.52.</p>\n            ","response":0,"trial_type":"html-button-response","trial_index":130,"time_elapsed":1319379,"internal_node_id":"0.0-4.0-1.59","subject_id":"6162fc52fa68079d28dc5be9","study_id":"6197b3f67c2b5cd3b6d9596a","session_id":"6197b9effb1ed88d7f60c21a","condition":"contingent","relevant_dimensions":["antennae","wings"],"bee_group":{"antennae":"A","wings":"2","pattern":"X","legs":"X"},"bonus":0.760000000000001},{"rt":2215.0999999940395,"stimulus":"bees-with-color/bee-A1DF.svg","response":0,"trial_type":"image-button-response","trial_index":131,"time_elapsed":1321601,"internal_node_id":"0.0-4.0-0.60","subject_id":"6162fc52fa68079d28dc5be9","study_id":"6197b3f67c2b5cd3b6d9596a","session_id":"6197b9effb1ed88d7f60c21a","condition":"contingent","relevant_dimensions":["antennae","wings"],"bee_group":{"antennae":"A","wings":"2","pattern":"X","legs":"X"},"action":"harvest","summary":"good-harvest","bonus":0.760000000000001},{"rt":974.2999999970198,"stimulus":"\n                    <p><b>Action: <em>harvest</em></b></p>\n                    <p>This is the bee that you just saw.</p>\n                    <img src=\"bees-with-color/bee-A1DF.svg\" width=\"200\">\n                    <p><span class=\"greenText\"><b>Successful harvest!</b></span><br>Your pay has increased by $0.02. Your bonus pay is now $0.54.</p>\n            ","response":0,"trial_type":"html-button-response","trial_index":132,"time_elapsed":1322583,"internal_node_id":"0.0-4.0-1.60","subject_id":"6162fc52fa68079d28dc5be9","study_id":"6197b3f67c2b5cd3b6d9596a","session_id":"6197b9effb1ed88d7f60c21a","condition":"contingent","relevant_dimensions":["antennae","wings"],"bee_group":{"antennae":"A","wings":"2","pattern":"X","legs":"X"},"bonus":0.760000000000001},{"rt":2989.60000000149,"stimulus":"bees-with-color/bee-A1DM.svg","response":1,"trial_type":"image-button-response","trial_index":133,"time_elapsed":1325577,"internal_node_id":"0.0-4.0-0.61","subject_id":"6162fc52fa68079d28dc5be9","study_id":"6197b3f67c2b5cd3b6d9596a","session_id":"6197b9effb1ed88d7f60c21a","condition":"contingent","relevant_dimensions":["antennae","wings"],"bee_group":{"antennae":"A","wings":"2","pattern":"X","legs":"X"},"action":"avoid","summary":"bad-avoid","bonus":0.760000000000001},{"rt":1246.5,"stimulus":"\n                    <p><b>Action: <em>avoid</em></b></p>\n                    <p>This is the bee that you just saw.</p>\n                    <img src=\"bees-with-color/bee-A1DM.svg\" width=\"200\">\n                    <p><br>Your bonus pay is unchanged, and remains at $0.54.</p>\n            ","response":0,"trial_type":"html-button-response","trial_index":134,"time_elapsed":1326828,"internal_node_id":"0.0-4.0-1.61","subject_id":"6162fc52fa68079d28dc5be9","study_id":"6197b3f67c2b5cd3b6d9596a","session_id":"6197b9effb1ed88d7f60c21a","condition":"contingent","relevant_dimensions":["antennae","wings"],"bee_group":{"antennae":"A","wings":"2","pattern":"X","legs":"X"},"bonus":0.760000000000001},{"rt":1456.6999999955297,"stimulus":"bees-with-color/bee-A2SM.svg","response":1,"trial_type":"image-button-response","trial_index":135,"time_elapsed":1328294,"internal_node_id":"0.0-4.0-0.62","subject_id":"6162fc52fa68079d28dc5be9","study_id":"6197b3f67c2b5cd3b6d9596a","session_id":"6197b9effb1ed88d7f60c21a","condition":"contingent","relevant_dimensions":["antennae","wings"],"bee_group":{"antennae":"A","wings":"2","pattern":"X","legs":"X"},"action":"avoid","summary":"good-avoid","bonus":0.760000000000001},{"rt":1461.3999999985099,"stimulus":"\n                    <p><b>Action: <em>avoid</em></b></p>\n                    <p>This is the bee that you just saw.</p>\n                    <img src=\"bees-with-color/bee-A2SM.svg\" width=\"200\">\n                    <p><br>Your bonus pay is unchanged, and remains at $0.54.</p>\n            ","response":0,"trial_type":"html-button-response","trial_index":136,"time_elapsed":1329759,"internal_node_id":"0.0-4.0-1.62","subject_id":"6162fc52fa68079d28dc5be9","study_id":"6197b3f67c2b5cd3b6d9596a","session_id":"6197b9effb1ed88d7f60c21a","condition":"contingent","relevant_dimensions":["antennae","wings"],"bee_group":{"antennae":"A","wings":"2","pattern":"X","legs":"X"},"bonus":0.760000000000001},{"rt":2667.5,"stimulus":"bees-with-color/bee-A1SM.svg","response":1,"trial_type":"image-button-response","trial_index":137,"time_elapsed":1332432,"internal_node_id":"0.0-4.0-0.63","subject_id":"6162fc52fa68079d28dc5be9","study_id":"6197b3f67c2b5cd3b6d9596a","session_id":"6197b9effb1ed88d7f60c21a","condition":"contingent","relevant_dimensions":["antennae","wings"],"bee_group":{"antennae":"A","wings":"2","pattern":"X","legs":"X"},"action":"avoid","summary":"bad-avoid","bonus":0.760000000000001},{"rt":1244,"stimulus":"\n                    <p><b>Action: <em>avoid</em></b></p>\n                    <p>This is the bee that you just saw.</p>\n                    <img src=\"bees-with-color/bee-A1SM.svg\" width=\"200\">\n                    <p><br>Your bonus pay is unchanged, and remains at $0.54.</p>\n            ","response":0,"trial_type":"html-button-response","trial_index":138,"time_elapsed":1333680,"internal_node_id":"0.0-4.0-1.63","subject_id":"6162fc52fa68079d28dc5be9","study_id":"6197b3f67c2b5cd3b6d9596a","session_id":"6197b9effb1ed88d7f60c21a","condition":"contingent","relevant_dimensions":["antennae","wings"],"bee_group":{"antennae":"A","wings":"2","pattern":"X","legs":"X"},"bonus":0.760000000000001},{"rt":18948.79999999702,"stimulus":"You have completed the first part of this experiment.<br><br>You will now begin a shorter second part, in which you will receive no feedback.<br>The same rules regarding bonus pay apply.<br><br>Press any key to begin.","response":"n","trial_type":"html-keyboard-response","trial_index":139,"time_elapsed":1352636,"internal_node_id":"0.0-5.0","subject_id":"6162fc52fa68079d28dc5be9","study_id":"6197b3f67c2b5cd3b6d9596a","session_id":"6197b9effb1ed88d7f60c21a","condition":"contingent","relevant_dimensions":["antennae","wings"],"bee_group":{"antennae":"A","wings":"2","pattern":"X","legs":"X"},"bonus":0.760000000000001},{"rt":3644.89999999851,"stimulus":"bees-with-color/bee-A2SF.svg","response":0,"trial_type":"image-button-response","trial_index":140,"time_elapsed":1356309,"internal_node_id":"0.0-6.0-0.0","subject_id":"6162fc52fa68079d28dc5be9","study_id":"6197b3f67c2b5cd3b6d9596a","session_id":"6197b9effb1ed88d7f60c21a","condition":"contingent","relevant_dimensions":["antennae","wings"],"bee_group":{"antennae":"A","wings":"2","pattern":"X","legs":"X"},"bonus":0.760000000000001},{"rt":5925.79999999702,"stimulus":"bees-with-color/bee-B2SF.svg","response":1,"trial_type":"image-button-response","trial_index":141,"time_elapsed":1362244,"internal_node_id":"0.0-6.0-0.1","subject_id":"6162fc52fa68079d28dc5be9","study_id":"6197b3f67c2b5cd3b6d9596a","session_id":"6197b9effb1ed88d7f60c21a","condition":"contingent","relevant_dimensions":["antennae","wings"],"bee_group":{"antennae":"A","wings":"2","pattern":"X","legs":"X"},"bonus":0.760000000000001},{"rt":1551,"stimulus":"bees-with-color/bee-A2DF.svg","response":1,"trial_type":"image-button-response","trial_index":142,"time_elapsed":1363806,"internal_node_id":"0.0-6.0-0.2","subject_id":"6162fc52fa68079d28dc5be9","study_id":"6197b3f67c2b5cd3b6d9596a","session_id":"6197b9effb1ed88d7f60c21a","condition":"contingent","relevant_dimensions":["antennae","wings"],"bee_group":{"antennae":"A","wings":"2","pattern":"X","legs":"X"},"bonus":0.760000000000001},{"rt":1194.1999999955297,"stimulus":"bees-with-color/bee-A1DM.svg","response":0,"trial_type":"image-button-response","trial_index":143,"time_elapsed":1365008,"internal_node_id":"0.0-6.0-0.3","subject_id":"6162fc52fa68079d28dc5be9","study_id":"6197b3f67c2b5cd3b6d9596a","session_id":"6197b9effb1ed88d7f60c21a","condition":"contingent","relevant_dimensions":["antennae","wings"],"bee_group":{"antennae":"A","wings":"2","pattern":"X","legs":"X"},"bonus":0.760000000000001},{"rt":988.3000000044703,"stimulus":"bees-with-color/bee-B1DF.svg","response":0,"trial_type":"image-button-response","trial_index":144,"time_elapsed":1366001,"internal_node_id":"0.0-6.0-0.4","subject_id":"6162fc52fa68079d28dc5be9","study_id":"6197b3f67c2b5cd3b6d9596a","session_id":"6197b9effb1ed88d7f60c21a","condition":"contingent","relevant_dimensions":["antennae","wings"],"bee_group":{"antennae":"A","wings":"2","pattern":"X","legs":"X"},"bonus":0.760000000000001},{"rt":984.8000000044703,"stimulus":"bees-with-color/bee-B1SF.svg","response":0,"trial_type":"image-button-response","trial_index":145,"time_elapsed":1366991,"internal_node_id":"0.0-6.0-0.5","subject_id":"6162fc52fa68079d28dc5be9","study_id":"6197b3f67c2b5cd3b6d9596a","session_id":"6197b9effb1ed88d7f60c21a","condition":"contingent","relevant_dimensions":["antennae","wings"],"bee_group":{"antennae":"A","wings":"2","pattern":"X","legs":"X"},"bonus":0.760000000000001},{"rt":1209.3999999985099,"stimulus":"bees-with-color/bee-B2DF.svg","response":1,"trial_type":"image-button-response","trial_index":146,"time_elapsed":1368206,"internal_node_id":"0.0-6.0-0.6","subject_id":"6162fc52fa68079d28dc5be9","study_id":"6197b3f67c2b5cd3b6d9596a","session_id":"6197b9effb1ed88d7f60c21a","condition":"contingent","relevant_dimensions":["antennae","wings"],"bee_group":{"antennae":"A","wings":"2","pattern":"X","legs":"X"},"bonus":0.760000000000001},{"rt":1290.6000000014901,"stimulus":"bees-with-color/bee-A1SM.svg","response":0,"trial_type":"image-button-response","trial_index":147,"time_elapsed":1369507,"internal_node_id":"0.0-6.0-0.7","subject_id":"6162fc52fa68079d28dc5be9","study_id":"6197b3f67c2b5cd3b6d9596a","session_id":"6197b9effb1ed88d7f60c21a","condition":"contingent","relevant_dimensions":["antennae","wings"],"bee_group":{"antennae":"A","wings":"2","pattern":"X","legs":"X"},"bonus":0.760000000000001},{"rt":1222.8999999985099,"stimulus":"bees-with-color/bee-A1SF.svg","response":0,"trial_type":"image-button-response","trial_index":148,"time_elapsed":1370741,"internal_node_id":"0.0-6.0-0.8","subject_id":"6162fc52fa68079d28dc5be9","study_id":"6197b3f67c2b5cd3b6d9596a","session_id":"6197b9effb1ed88d7f60c21a","condition":"contingent","relevant_dimensions":["antennae","wings"],"bee_group":{"antennae":"A","wings":"2","pattern":"X","legs":"X"},"bonus":0.760000000000001},{"rt":1085.5,"stimulus":"bees-with-color/bee-A2DM.svg","response":1,"trial_type":"image-button-response","trial_index":149,"time_elapsed":1371832,"internal_node_id":"0.0-6.0-0.9","subject_id":"6162fc52fa68079d28dc5be9","study_id":"6197b3f67c2b5cd3b6d9596a","session_id":"6197b9effb1ed88d7f60c21a","condition":"contingent","relevant_dimensions":["antennae","wings"],"bee_group":{"antennae":"A","wings":"2","pattern":"X","legs":"X"},"bonus":0.760000000000001},{"rt":1223.8999999985099,"stimulus":"bees-with-color/bee-B2DM.svg","response":1,"trial_type":"image-button-response","trial_index":150,"time_elapsed":1373065,"internal_node_id":"0.0-6.0-0.10","subject_id":"6162fc52fa68079d28dc5be9","study_id":"6197b3f67c2b5cd3b6d9596a","session_id":"6197b9effb1ed88d7f60c21a","condition":"contingent","relevant_dimensions":["antennae","wings"],"bee_group":{"antennae":"A","wings":"2","pattern":"X","legs":"X"},"bonus":0.760000000000001},{"rt":1391.6000000014901,"stimulus":"bees-with-color/bee-B1SM.svg","response":0,"trial_type":"image-button-response","trial_index":151,"time_elapsed":1374465,"internal_node_id":"0.0-6.0-0.11","subject_id":"6162fc52fa68079d28dc5be9","study_id":"6197b3f67c2b5cd3b6d9596a","session_id":"6197b9effb1ed88d7f60c21a","condition":"contingent","relevant_dimensions":["antennae","wings"],"bee_group":{"antennae":"A","wings":"2","pattern":"X","legs":"X"},"bonus":0.760000000000001},{"rt":1919.7000000029802,"stimulus":"bees-with-color/bee-B2SM.svg","response":1,"trial_type":"image-button-response","trial_index":152,"time_elapsed":1376390,"internal_node_id":"0.0-6.0-0.12","subject_id":"6162fc52fa68079d28dc5be9","study_id":"6197b3f67c2b5cd3b6d9596a","session_id":"6197b9effb1ed88d7f60c21a","condition":"contingent","relevant_dimensions":["antennae","wings"],"bee_group":{"antennae":"A","wings":"2","pattern":"X","legs":"X"},"bonus":0.760000000000001},{"rt":2043.2999999970198,"stimulus":"bees-with-color/bee-A2SM.svg","response":1,"trial_type":"image-button-response","trial_index":153,"time_elapsed":1378440,"internal_node_id":"0.0-6.0-0.13","subject_id":"6162fc52fa68079d28dc5be9","study_id":"6197b3f67c2b5cd3b6d9596a","session_id":"6197b9effb1ed88d7f60c21a","condition":"contingent","relevant_dimensions":["antennae","wings"],"bee_group":{"antennae":"A","wings":"2","pattern":"X","legs":"X"},"bonus":0.760000000000001},{"rt":2127.60000000149,"stimulus":"bees-with-color/bee-B1DM.svg","response":0,"trial_type":"image-button-response","trial_index":154,"time_elapsed":1380574,"internal_node_id":"0.0-6.0-0.14","subject_id":"6162fc52fa68079d28dc5be9","study_id":"6197b3f67c2b5cd3b6d9596a","session_id":"6197b9effb1ed88d7f60c21a","condition":"contingent","relevant_dimensions":["antennae","wings"],"bee_group":{"antennae":"A","wings":"2","pattern":"X","legs":"X"},"bonus":0.760000000000001},{"rt":1437.5,"stimulus":"bees-with-color/bee-A1DF.svg","response":0,"trial_type":"image-button-response","trial_index":155,"time_elapsed":1382019,"internal_node_id":"0.0-6.0-0.15","subject_id":"6162fc52fa68079d28dc5be9","study_id":"6197b3f67c2b5cd3b6d9596a","session_id":"6197b9effb1ed88d7f60c21a","condition":"contingent","relevant_dimensions":["antennae","wings"],"bee_group":{"antennae":"A","wings":"2","pattern":"X","legs":"X"},"bonus":0.760000000000001},{"rt":2149.4000000059605,"stimulus":"bees-with-color/bee-A2DM.svg","response":1,"trial_type":"image-button-response","trial_index":156,"time_elapsed":1384173,"internal_node_id":"0.0-6.0-0.16","subject_id":"6162fc52fa68079d28dc5be9","study_id":"6197b3f67c2b5cd3b6d9596a","session_id":"6197b9effb1ed88d7f60c21a","condition":"contingent","relevant_dimensions":["antennae","wings"],"bee_group":{"antennae":"A","wings":"2","pattern":"X","legs":"X"},"bonus":0.760000000000001},{"rt":1079.1000000014901,"stimulus":"bees-with-color/bee-B1DF.svg","response":0,"trial_type":"image-button-response","trial_index":157,"time_elapsed":1385257,"internal_node_id":"0.0-6.0-0.17","subject_id":"6162fc52fa68079d28dc5be9","study_id":"6197b3f67c2b5cd3b6d9596a","session_id":"6197b9effb1ed88d7f60c21a","condition":"contingent","relevant_dimensions":["antennae","wings"],"bee_group":{"antennae":"A","wings":"2","pattern":"X","legs":"X"},"bonus":0.760000000000001},{"rt":1161.6999999955297,"stimulus":"bees-with-color/bee-A1DF.svg","response":0,"trial_type":"image-button-response","trial_index":158,"time_elapsed":1386426,"internal_node_id":"0.0-6.0-0.18","subject_id":"6162fc52fa68079d28dc5be9","study_id":"6197b3f67c2b5cd3b6d9596a","session_id":"6197b9effb1ed88d7f60c21a","condition":"contingent","relevant_dimensions":["antennae","wings"],"bee_group":{"antennae":"A","wings":"2","pattern":"X","legs":"X"},"bonus":0.760000000000001},{"rt":1003.5,"stimulus":"bees-with-color/bee-A1SM.svg","response":0,"trial_type":"image-button-response","trial_index":159,"time_elapsed":1387440,"internal_node_id":"0.0-6.0-0.19","subject_id":"6162fc52fa68079d28dc5be9","study_id":"6197b3f67c2b5cd3b6d9596a","session_id":"6197b9effb1ed88d7f60c21a","condition":"contingent","relevant_dimensions":["antennae","wings"],"bee_group":{"antennae":"A","wings":"2","pattern":"X","legs":"X"},"bonus":0.760000000000001},{"rt":1247.8999999985099,"stimulus":"bees-with-color/bee-A2SM.svg","response":1,"trial_type":"image-button-response","trial_index":160,"time_elapsed":1388693,"internal_node_id":"0.0-6.0-0.20","subject_id":"6162fc52fa68079d28dc5be9","study_id":"6197b3f67c2b5cd3b6d9596a","session_id":"6197b9effb1ed88d7f60c21a","condition":"contingent","relevant_dimensions":["antennae","wings"],"bee_group":{"antennae":"A","wings":"2","patter