[{"success":true,"trial_type":"fullscreen","trial_index":0,"time_elapsed":6313,"internal_node_id":"0.0-0.0","subject_id":"613bd3a683a2ac56a4119aa6","study_id":"6197b3f67c2b5cd3b6d9596a","session_id":"619be783818506d0da91adcc","condition":"full-information","relevant_dimensions":["wings","legs"],"bee_group":{"antennae":"X","wings":"1","pattern":"X","legs":"F"},"bonus":1.5200000000000014},{"success":true,"timeout":false,"failed_images":[],"failed_audio":[],"failed_video":[],"trial_type":"preload","trial_index":1,"time_elapsed":7832,"internal_node_id":"0.0-1.0","subject_id":"613bd3a683a2ac56a4119aa6","study_id":"6197b3f67c2b5cd3b6d9596a","session_id":"619be783818506d0da91adcc","condition":"full-information","relevant_dimensions":["wings","legs"],"bee_group":{"antennae":"X","wings":"1","pattern":"X","legs":"F"},"bonus":1.5200000000000014},{"rt":2036.199999988079,"stimulus":"Welcome! Press any key to begin.","response":" ","trial_type":"html-keyboard-response","trial_index":2,"time_elapsed":9870,"internal_node_id":"0.0-2.0","subject_id":"613bd3a683a2ac56a4119aa6","study_id":"6197b3f67c2b5cd3b6d9596a","session_id":"619be783818506d0da91adcc","condition":"full-information","relevant_dimensions":["wings","legs"],"bee_group":{"antennae":"X","wings":"1","pattern":"X","legs":"F"},"bonus":1.5200000000000014},{"view_history":[{"page_index":0,"viewing_time":7001.5},{"page_index":1,"viewing_time":35588.69999998808},{"page_index":2,"viewing_time":14428.600000023842},{"page_index":3,"viewing_time":19788.299999952316},{"page_index":4,"viewing_time":8266.5},{"page_index":5,"viewing_time":8810.300000011921},{"page_index":6,"viewing_time":13437.600000023842},{"page_index":7,"viewing_time":9811.199999988079},{"page_index":8,"viewing_time":4604},{"page_index":9,"viewing_time":6613.699999988079},{"page_index":10,"viewing_time":4572.800000011921},{"page_index":9,"viewing_time":1369.5},{"page_index":10,"viewing_time":1303.699999988079},{"page_index":11,"viewing_time":13104.400000035763},{"page_index":12,"viewing_time":20451.899999976158},{"page_index":13,"viewing_time":1354},{"page_index":14,"viewing_time":4296.100000023842}],"rt":174804.09999996424,"trial_type":"instructions","trial_index":3,"time_elapsed":184677,"internal_node_id":"0.0-3.0-0.0","subject_id":"613bd3a683a2ac56a4119aa6","study_id":"6197b3f67c2b5cd3b6d9596a","session_id":"619be783818506d0da91adcc","condition":"full-information","relevant_dimensions":["wings","legs"],"bee_group":{"antennae":"X","wings":"1","pattern":"X","legs":"F"},"bonus":1.5200000000000014},{"rt":14458.699999988079,"response":{"Q0":["Two or six legs","Stripes or spots on body","Single or double wings","Antennae or no antennae"]},"question_order":[0],"trial_type":"survey-multi-select","trial_index":4,"time_elapsed":199144,"internal_node_id":"0.0-3.0-1.0","subject_id":"613bd3a683a2ac56a4119aa6","study_id":"6197b3f67c2b5cd3b6d9596a","session_id":"619be783818506d0da91adcc","condition":"full-information","relevant_dimensions":["wings","legs"],"bee_group":{"antennae":"X","wings":"1","pattern":"X","legs":"F"},"correct":true,"bonus":1.5200000000000014},{"rt":28502.69999998808,"response":{"Q1":"No.","Q2":"Based on the four features of the bee.","Q3":"You learn if it was friendly or dangerous, but do not alter your bonus."},"question_order":[0,1,2],"trial_type":"survey-multi-choice","trial_index":5,"time_elapsed":227657,"internal_node_id":"0.0-3.0-2.0","subject_id":"613bd3a683a2ac56a4119aa6","study_id":"6197b3f67c2b5cd3b6d9596a","session_id":"619be783818506d0da91adcc","condition":"full-information","relevant_dimensions":["wings","legs"],"bee_group":{"antennae":"X","wings":"1","pattern":"X","legs":"F"},"correct":true,"bonus":1.5200000000000014},{"rt":4011.100000023842,"stimulus":"<p>Congrats, you got everything right<br>When you're ready, click the button below to continue to the experiment.</p>","response":0,"trial_type":"html-button-response","trial_index":6,"time_elapsed":231682,"internal_node_id":"0.0-3.0-3.0","subject_id":"613bd3a683a2ac56a4119aa6","study_id":"6197b3f67c2b5cd3b6d9596a","session_id":"619be783818506d0da91adcc","condition":"full-information","relevant_dimensions":["wings","legs"],"bee_group":{"antennae":"X","wings":"1","pattern":"X","legs":"F"},"bonus":1.5200000000000014},{"rt":1943.199999988079,"stimulus":"bees-with-color/bee-A1DF.svg","response":0,"trial_type":"image-button-response","trial_index":7,"time_elapsed":233631,"internal_node_id":"0.0-4.0-0.0","subject_id":"613bd3a683a2ac56a4119aa6","study_id":"6197b3f67c2b5cd3b6d9596a","session_id":"619be783818506d0da91adcc","condition":"full-information","relevant_dimensions":["wings","legs"],"bee_group":{"antennae":"X","wings":"1","pattern":"X","legs":"F"},"action":"harvest","summary":"bad-harvest","bonus":1.5200000000000014},{"rt":11929.199999988079,"stimulus":"\n                    <p><b>Action: <em>harvest</em></b></p>\n                    <p>This is the bee that you just saw.</p>\n                    <img src=\"bees-with-color/bee-A1DF.svg\" width=\"200\">\n                    <p><span class=\"redText\">Bad choice, the bee was angry.</span><br><b>You have been stung!</b><br>Your pay has been decreased by $0.10. Your bonus pay is now $0.44.</p>\n            ","response":0,"trial_type":"html-button-response","trial_index":8,"time_elapsed":245822,"internal_node_id":"0.0-4.0-1.0","subject_id":"613bd3a683a2ac56a4119aa6","study_id":"6197b3f67c2b5cd3b6d9596a","session_id":"619be783818506d0da91adcc","condition":"full-information","relevant_dimensions":["wings","legs"],"bee_group":{"antennae":"X","wings":"1","pattern":"X","legs":"F"},"bonus":1.5200000000000014},{"rt":4349.5,"stimulus":"bees-with-color/bee-B2DF.svg","response":0,"trial_type":"image-button-response","trial_index":9,"time_elapsed":250176,"internal_node_id":"0.0-4.0-0.1","subject_id":"613bd3a683a2ac56a4119aa6","study_id":"6197b3f67c2b5cd3b6d9596a","session_id":"619be783818506d0da91adcc","condition":"full-information","relevant_dimensions":["wings","legs"],"bee_group":{"antennae":"X","wings":"1","pattern":"X","legs":"F"},"action":"harvest","summary":"good-harvest","bonus":1.5200000000000014},{"rt":9013.699999988079,"stimulus":"\n                    <p><b>Action: <em>harvest</em></b></p>\n                    <p>This is the bee that you just saw.</p>\n                    <img src=\"bees-with-color/bee-B2DF.svg\" width=\"200\">\n                    <p><span class=\"greenText\"><b>Successful harvest!</b></span><br>Your pay has increased by $0.02. Your bonus pay is now $0.46.</p>\n            ","response":0,"trial_type":"html-button-response","trial_index":10,"time_elapsed":259193,"internal_node_id":"0.0-4.0-1.1","subject_id":"613bd3a683a2ac56a4119aa6","study_id":"6197b3f67c2b5cd3b6d9596a","session_id":"619be783818506d0da91adcc","condition":"full-information","relevant_dimensions":["wings","legs"],"bee_group":{"antennae":"X","wings":"1","pattern":"X","legs":"F"},"bonus":1.5200000000000014},{"rt":3818.400000035763,"stimulus":"bees-with-color/bee-A2SF.svg","response":0,"trial_type":"image-button-response","trial_index":11,"time_elapsed":263016,"internal_node_id":"0.0-4.0-0.2","subject_id":"613bd3a683a2ac56a4119aa6","study_id":"6197b3f67c2b5cd3b6d9596a","session_id":"619be783818506d0da91adcc","condition":"full-information","relevant_dimensions":["wings","legs"],"bee_group":{"antennae":"X","wings":"1","pattern":"X","legs":"F"},"action":"harvest","summary":"good-harvest","bonus":1.5200000000000014},{"rt":8916.099999964237,"stimulus":"\n                    <p><b>Action: <em>harvest</em></b></p>\n                    <p>This is the bee that you just saw.</p>\n                    <img src=\"bees-with-color/bee-A2SF.svg\" width=\"200\">\n                    <p><span class=\"greenText\"><b>Successful harvest!</b></span><br>Your pay has increased by $0.02. Your bonus pay is now $0.48.</p>\n            ","response":0,"trial_type":"html-button-response","trial_index":12,"time_elapsed":271937,"internal_node_id":"0.0-4.0-1.2","subject_id":"613bd3a683a2ac56a4119aa6","study_id":"6197b3f67c2b5cd3b6d9596a","session_id":"619be783818506d0da91adcc","condition":"full-information","relevant_dimensions":["wings","legs"],"bee_group":{"antennae":"X","wings":"1","pattern":"X","legs":"F"},"bonus":1.5200000000000014},{"rt":3772.800000011921,"stimulus":"bees-with-color/bee-B2SF.svg","response":0,"trial_type":"image-button-response","trial_index":13,"time_elapsed":275714,"internal_node_id":"0.0-4.0-0.3","subject_id":"613bd3a683a2ac56a4119aa6","study_id":"6197b3f67c2b5cd3b6d9596a","session_id":"619be783818506d0da91adcc","condition":"full-information","relevant_dimensions":["wings","legs"],"bee_group":{"antennae":"X","wings":"1","pattern":"X","legs":"F"},"action":"harvest","summary":"good-harvest","bonus":1.5200000000000014},{"rt":10246.099999964237,"stimulus":"\n                    <p><b>Action: <em>harvest</em></b></p>\n                    <p>This is the bee that you just saw.</p>\n                    <img src=\"bees-with-color/bee-B2SF.svg\" width=\"200\">\n                    <p><span class=\"greenText\"><b>Successful harvest!</b></span><br>Your pay has increased by $0.02. Your bonus pay is now $0.50.</p>\n            ","response":0,"trial_type":"html-button-response","trial_index":14,"time_elapsed":285963,"internal_node_id":"0.0-4.0-1.3","subject_id":"613bd3a683a2ac56a4119aa6","study_id":"6197b3f67c2b5cd3b6d9596a","session_id":"619be783818506d0da91adcc","condition":"full-information","relevant_dimensions":["wings","legs"],"bee_group":{"antennae":"X","wings":"1","pattern":"X","legs":"F"},"bonus":1.5200000000000014},{"rt":3700.800000011921,"stimulus":"bees-with-color/bee-B1DF.svg","response":0,"trial_type":"image-button-response","trial_index":15,"time_elapsed":289667,"internal_node_id":"0.0-4.0-0.4","subject_id":"613bd3a683a2ac56a4119aa6","study_id":"6197b3f67c2b5cd3b6d9596a","session_id":"619be783818506d0da91adcc","condition":"full-information","relevant_dimensions":["wings","legs"],"bee_group":{"antennae":"X","wings":"1","pattern":"X","legs":"F"},"action":"harvest","summary":"bad-harvest","bonus":1.5200000000000014},{"rt":9567.799999952316,"stimulus":"\n                    <p><b>Action: <em>harvest</em></b></p>\n                    <p>This is the bee that you just saw.</p>\n                    <img src=\"bees-with-color/bee-B1DF.svg\" width=\"200\">\n                    <p><span class=\"redText\">Bad choice, the bee was angry.</span><br><b>You have been stung!</b><br>Your pay has been decreased by $0.10. Your bonus pay is now $0.40.</p>\n            ","response":0,"trial_type":"html-button-response","trial_index":16,"time_elapsed":299238,"internal_node_id":"0.0-4.0-1.4","subject_id":"613bd3a683a2ac56a4119aa6","study_id":"6197b3f67c2b5cd3b6d9596a","session_id":"619be783818506d0da91adcc","condition":"full-information","relevant_dimensions":["wings","legs"],"bee_group":{"antennae":"X","wings":"1","pattern":"X","legs":"F"},"bonus":1.5200000000000014},{"rt":3563.300000011921,"stimulus":"bees-with-color/bee-A2SM.svg","response":0,"trial_type":"image-button-response","trial_index":17,"time_elapsed":302806,"internal_node_id":"0.0-4.0-0.5","subject_id":"613bd3a683a2ac56a4119aa6","study_id":"6197b3f67c2b5cd3b6d9596a","session_id":"619be783818506d0da91adcc","condition":"full-information","relevant_dimensions":["wings","legs"],"bee_group":{"antennae":"X","wings":"1","pattern":"X","legs":"F"},"action":"harvest","summary":"good-harvest","bonus":1.5200000000000014},{"rt":10285.600000023842,"stimulus":"\n                    <p><b>Action: <em>harvest</em></b></p>\n                    <p>This is the bee that you just saw.</p>\n                    <img src=\"bees-with-color/bee-A2SM.svg\" width=\"200\">\n                    <p><span class=\"greenText\"><b>Successful harvest!</b></span><br>Your pay has increased by $0.02. Your bonus pay is now $0.42.</p>\n            ","response":0,"trial_type":"html-button-response","trial_index":18,"time_elapsed":313094,"internal_node_id":"0.0-4.0-1.5","subject_id":"613bd3a683a2ac56a4119aa6","study_id":"6197b3f67c2b5cd3b6d9596a","session_id":"619be783818506d0da91adcc","condition":"full-information","relevant_dimensions":["wings","legs"],"bee_group":{"antennae":"X","wings":"1","pattern":"X","legs":"F"},"bonus":1.5200000000000014},{"rt":4763.800000011921,"stimulus":"bees-with-color/bee-B1SM.svg","response":0,"trial_type":"image-button-response","trial_index":19,"time_elapsed":317862,"internal_node_id":"0.0-4.0-0.6","subject_id":"613bd3a683a2ac56a4119aa6","study_id":"6197b3f67c2b5cd3b6d9596a","session_id":"619be783818506d0da91adcc","condition":"full-information","relevant_dimensions":["wings","legs"],"bee_group":{"antennae":"X","wings":"1","pattern":"X","legs":"F"},"action":"harvest","summary":"good-harvest","bonus":1.5200000000000014},{"rt":10759.199999988079,"stimulus":"\n                    <p><b>Action: <em>harvest</em></b></p>\n                    <p>This is the bee that you just saw.</p>\n                    <img src=\"bees-with-color/bee-B1SM.svg\" width=\"200\">\n                    <p><span class=\"greenText\"><b>Successful harvest!</b></span><br>Your pay has increased by $0.02. Your bonus pay is now $0.44.</p>\n            ","response":0,"trial_type":"html-button-response","trial_index":20,"time_elapsed":328624,"internal_node_id":"0.0-4.0-1.6","subject_id":"613bd3a683a2ac56a4119aa6","study_id":"6197b3f67c2b5cd3b6d9596a","session_id":"619be783818506d0da91adcc","condition":"full-information","relevant_dimensions":["wings","legs"],"bee_group":{"antennae":"X","wings":"1","pattern":"X","legs":"F"},"bonus":1.5200000000000014},{"rt":5614,"stimulus":"bees-with-color/bee-A2DM.svg","response":0,"trial_type":"image-button-response","trial_index":21,"time_elapsed":334242,"internal_node_id":"0.0-4.0-0.7","subject_id":"613bd3a683a2ac56a4119aa6","study_id":"6197b3f67c2b5cd3b6d9596a","session_id":"619be783818506d0da91adcc","condition":"full-information","relevant_dimensions":["wings","legs"],"bee_group":{"antennae":"X","wings":"1","pattern":"X","legs":"F"},"action":"harvest","summary":"good-harvest","bonus":1.5200000000000014},{"rt":11296,"stimulus":"\n                    <p><b>Action: <em>harvest</em></b></p>\n                    <p>This is the bee that you just saw.</p>\n                    <img src=\"bees-with-color/bee-A2DM.svg\" width=\"200\">\n                    <p><span class=\"greenText\"><b>Successful harvest!</b></span><br>Your pay has increased by $0.02. Your bonus pay is now $0.46.</p>\n            ","response":0,"trial_type":"html-button-response","trial_index":22,"time_elapsed":345541,"internal_node_id":"0.0-4.0-1.7","subject_id":"613bd3a683a2ac56a4119aa6","study_id":"6197b3f67c2b5cd3b6d9596a","session_id":"619be783818506d0da91adcc","condition":"full-information","relevant_dimensions":["wings","legs"],"bee_group":{"antennae":"X","wings":"1","pattern":"X","legs":"F"},"bonus":1.5200000000000014},{"rt":4980.600000023842,"stimulus":"bees-with-color/bee-B1SF.svg","response":0,"trial_type":"image-button-response","trial_index":23,"time_elapsed":350527,"internal_node_id":"0.0-4.0-0.8","subject_id":"613bd3a683a2ac56a4119aa6","study_id":"6197b3f67c2b5cd3b6d9596a","session_id":"619be783818506d0da91adcc","condition":"full-information","relevant_dimensions":["wings","legs"],"bee_group":{"antennae":"X","wings":"1","pattern":"X","legs":"F"},"action":"harvest","summary":"bad-harvest","bonus":1.5200000000000014},{"rt":14050.100000023842,"stimulus":"\n                    <p><b>Action: <em>harvest</em></b></p>\n                    <p>This is the bee that you just saw.</p>\n                    <img src=\"bees-with-color/bee-B1SF.svg\" width=\"200\">\n                    <p><span class=\"redText\">Bad choice, the bee was angry.</span><br><b>You have been stung!</b><br>Your pay has been decreased by $0.10. Your bonus pay is now $0.36.</p>\n            ","response":0,"trial_type":"html-button-response","trial_index":24,"time_elapsed":364580,"internal_node_id":"0.0-4.0-1.8","subject_id":"613bd3a683a2ac56a4119aa6","study_id":"6197b3f67c2b5cd3b6d9596a","session_id":"619be783818506d0da91adcc","condition":"full-information","relevant_dimensions":["wings","legs"],"bee_group":{"antennae":"X","wings":"1","pattern":"X","legs":"F"},"bonus":1.5200000000000014},{"rt":3943.399999976158,"stimulus":"bees-with-color/bee-A2DF.svg","response":1,"trial_type":"image-button-response","trial_index":25,"time_elapsed":368527,"internal_node_id":"0.0-4.0-0.9","subject_id":"613bd3a683a2ac56a4119aa6","study_id":"6197b3f67c2b5cd3b6d9596a","session_id":"619be783818506d0da91adcc","condition":"full-information","relevant_dimensions":["wings","legs"],"bee_group":{"antennae":"X","wings":"1","pattern":"X","legs":"F"},"action":"avoid","summary":"bad-avoid","bonus":1.5200000000000014},{"rt":12391.800000011921,"stimulus":"\n                    <p><b>Action: <em>avoid</em></b></p>\n                    <p>This is the bee that you just saw.</p>\n                    <img src=\"bees-with-color/bee-A2DF.svg\" width=\"200\">\n                    <p><span class=\"redText\">Bad choice,</span> the bee was friendly.<br>Your bonus pay is unchanged, and remains at $0.36.</p>\n            ","response":0,"trial_type":"html-button-response","trial_index":26,"time_elapsed":380922,"internal_node_id":"0.0-4.0-1.9","subject_id":"613bd3a683a2ac56a4119aa6","study_id":"6197b3f67c2b5cd3b6d9596a","session_id":"619be783818506d0da91adcc","condition":"full-information","relevant_dimensions":["wings","legs"],"bee_group":{"antennae":"X","wings":"1","pattern":"X","legs":"F"},"bonus":1.5200000000000014},{"rt":6058.300000011921,"stimulus":"bees-with-color/bee-A1DM.svg","response":0,"trial_type":"image-button-response","trial_index":27,"time_elapsed":386984,"internal_node_id":"0.0-4.0-0.10","subject_id":"613bd3a683a2ac56a4119aa6","study_id":"6197b3f67c2b5cd3b6d9596a","session_id":"619be783818506d0da91adcc","condition":"full-information","relevant_dimensions":["wings","legs"],"bee_group":{"antennae":"X","wings":"1","pattern":"X","legs":"F"},"action":"harvest","summary":"good-harvest","bonus":1.5200000000000014},{"rt":10587.099999964237,"stimulus":"\n                    <p><b>Action: <em>harvest</em></b></p>\n                    <p>This is the bee that you just saw.</p>\n                    <img src=\"bees-with-color/bee-A1DM.svg\" width=\"200\">\n                    <p><span class=\"greenText\"><b>Successful harvest!</b></span><br>Your pay has increased by $0.02. Your bonus pay is now $0.38.</p>\n            ","response":0,"trial_type":"html-button-response","trial_index":28,"time_elapsed":397575,"internal_node_id":"0.0-4.0-1.10","subject_id":"613bd3a683a2ac56a4119aa6","study_id":"6197b3f67c2b5cd3b6d9596a","session_id":"619be783818506d0da91adcc","condition":"full-information","relevant_dimensions":["wings","legs"],"bee_group":{"antennae":"X","wings":"1","pattern":"X","legs":"F"},"bonus":1.5200000000000014},{"rt":11123,"stimulus":"bees-with-color/bee-B2DM.svg","response":0,"trial_type":"image-button-response","trial_index":29,"time_elapsed":408701,"internal_node_id":"0.0-4.0-0.11","subject_id":"613bd3a683a2ac56a4119aa6","study_id":"6197b3f67c2b5cd3b6d9596a","session_id":"619be783818506d0da91adcc","condition":"full-information","relevant_dimensions":["wings","legs"],"bee_group":{"antennae":"X","wings":"1","pattern":"X","legs":"F"},"action":"harvest","summary":"good-harvest","bonus":1.5200000000000014},{"rt":12182.400000035763,"stimulus":"\n                    <p><b>Action: <em>harvest</em></b></p>\n                    <p>This is the bee that you just saw.</p>\n                    <img src=\"bees-with-color/bee-B2DM.svg\" width=\"200\">\n                    <p><span class=\"greenText\"><b>Successful harvest!</b></span><br>Your pay has increased by $0.02. Your bonus pay is now $0.40.</p>\n            ","response":0,"trial_type":"html-button-response","trial_index":30,"time_elapsed":420887,"internal_node_id":"0.0-4.0-1.11","subject_id":"613bd3a683a2ac56a4119aa6","study_id":"6197b3f67c2b5cd3b6d9596a","session_id":"619be783818506d0da91adcc","condition":"full-information","relevant_dimensions":["wings","legs"],"bee_group":{"antennae":"X","wings":"1","pattern":"X","legs":"F"},"bonus":1.5200000000000014},{"rt":8170.900000035763,"stimulus":"bees-with-color/bee-B1DM.svg","response":1,"trial_type":"image-button-response","trial_index":31,"time_elapsed":429061,"internal_node_id":"0.0-4.0-0.12","subject_id":"613bd3a683a2ac56a4119aa6","study_id":"6197b3f67c2b5cd3b6d9596a","session_id":"619be783818506d0da91adcc","condition":"full-information","relevant_dimensions":["wings","legs"],"bee_group":{"antennae":"X","wings":"1","pattern":"X","legs":"F"},"action":"avoid","summary":"bad-avoid","bonus":1.5200000000000014},{"rt":8456.5,"stimulus":"\n                    <p><b>Action: <em>avoid</em></b></p>\n                    <p>This is the bee that you just saw.</p>\n                    <img src=\"bees-with-color/bee-B1DM.svg\" width=\"200\">\n                    <p><span class=\"redText\">Bad choice,</span> the bee was friendly.<br>Your bonus pay is unchanged, and remains at $0.40.</p>\n            ","response":0,"trial_type":"html-button-response","trial_index":32,"time_elapsed":437521,"internal_node_id":"0.0-4.0-1.12","subject_id":"613bd3a683a2ac56a4119aa6","study_id":"6197b3f67c2b5cd3b6d9596a","session_id":"619be783818506d0da91adcc","condition":"full-information","relevant_dimensions":["wings","legs"],"bee_group":{"antennae":"X","wings":"1","pattern":"X","legs":"F"},"bonus":1.5200000000000014},{"rt":13266.5,"stimulus":"bees-with-color/bee-A1SM.svg","response":0,"trial_type":"image-button-response","trial_index":33,"time_elapsed":450790,"internal_node_id":"0.0-4.0-0.13","subject_id":"613bd3a683a2ac56a4119aa6","study_id":"6197b3f67c2b5cd3b6d9596a","session_id":"619be783818506d0da91adcc","condition":"full-information","relevant_dimensions":["wings","legs"],"bee_group":{"antennae":"X","wings":"1","pattern":"X","legs":"F"},"action":"harvest","summary":"good-harvest","bonus":1.5200000000000014},{"rt":2098,"stimulus":"\n                    <p><b>Action: <em>harvest</em></b></p>\n                    <p>This is the bee that you just saw.</p>\n                    <img src=\"bees-with-color/bee-A1SM.svg\" width=\"200\">\n                    <p><span class=\"greenText\"><b>Successful harvest!</b></span><br>Your pay has increased by $0.02. Your bonus pay is now $0.42.</p>\n            ","response":0,"trial_type":"html-button-response","trial_index":34,"time_elapsed":452891,"internal_node_id":"0.0-4.0-1.13","subject_id":"613bd3a683a2ac56a4119aa6","study_id":"6197b3f67c2b5cd3b6d9596a","session_id":"619be783818506d0da91adcc","condition":"full-information","relevant_dimensions":["wings","legs"],"bee_group":{"antennae":"X","wings":"1","pattern":"X","legs":"F"},"bonus":1.5200000000000014},{"rt":8638.899999976158,"stimulus":"bees-with-color/bee-A1SF.svg","response":1,"trial_type":"image-button-response","trial_index":35,"time_elapsed":461534,"internal_node_id":"0.0-4.0-0.14","subject_id":"613bd3a683a2ac56a4119aa6","study_id":"6197b3f67c2b5cd3b6d9596a","session_id":"619be783818506d0da91adcc","condition":"full-information","relevant_dimensions":["wings","legs"],"bee_group":{"antennae":"X","wings":"1","pattern":"X","legs":"F"},"action":"avoid","summary":"good-avoid","bonus":1.5200000000000014},{"rt":3388.300000011921,"stimulus":"\n                    <p><b>Action: <em>avoid</em></b></p>\n                    <p>This is the bee that you just saw.</p>\n                    <img src=\"bees-with-color/bee-A1SF.svg\" width=\"200\">\n                    <p><span class=\"greenText\">Good choice!</span>  This bee would have stung you.<br>Your bonus pay is unchanged, and remains at $0.42.</p>\n            ","response":0,"trial_type":"html-button-response","trial_index":36,"time_elapsed":464925,"internal_node_id":"0.0-4.0-1.14","subject_id":"613bd3a683a2ac56a4119aa6","study_id":"6197b3f67c2b5cd3b6d9596a","session_id":"619be783818506d0da91adcc","condition":"full-information","relevant_dimensions":["wings","legs"],"bee_group":{"antennae":"X","wings":"1","pattern":"X","legs":"F"},"bonus":1.5200000000000014},{"rt":5250.199999988079,"stimulus":"bees-with-color/bee-B2SM.svg","response":0,"trial_type":"image-button-response","trial_index":37,"time_elapsed":470179,"internal_node_id":"0.0-4.0-0.15","subject_id":"613bd3a683a2ac56a4119aa6","study_id":"6197b3f67c2b5cd3b6d9596a","session_id":"619be783818506d0da91adcc","condition":"full-information","relevant_dimensions":["wings","legs"],"bee_group":{"antennae":"X","wings":"1","pattern":"X","legs":"F"},"action":"harvest","summary":"good-harvest","bonus":1.5200000000000014},{"rt":1458.5,"stimulus":"\n                    <p><b>Action: <em>harvest</em></b></p>\n                    <p>This is the bee that you just saw.</p>\n                    <img src=\"bees-with-color/bee-B2SM.svg\" width=\"200\">\n                    <p><span class=\"greenText\"><b>Successful harvest!</b></span><br>Your pay has increased by $0.02. Your bonus pay is now $0.44.</p>\n            ","response":0,"trial_type":"html-button-response","trial_index":38,"time_elapsed":471640,"internal_node_id":"0.0-4.0-1.15","subject_id":"613bd3a683a2ac56a4119aa6","study_id":"6197b3f67c2b5cd3b6d9596a","session_id":"619be783818506d0da91adcc","condition":"full-information","relevant_dimensions":["wings","legs"],"bee_group":{"antennae":"X","wings":"1","pattern":"X","legs":"F"},"bonus":1.5200000000000014},{"rt":11781.900000035763,"stimulus":"bees-with-color/bee-B1DM.svg","response":0,"trial_type":"image-button-response","trial_index":39,"time_elapsed":483426,"internal_node_id":"0.0-4.0-0.16","subject_id":"613bd3a683a2ac56a4119aa6","study_id":"6197b3f67c2b5cd3b6d9596a","session_id":"619be783818506d0da91adcc","condition":"full-information","relevant_dimensions":["wings","legs"],"bee_group":{"antennae":"X","wings":"1","pattern":"X","legs":"F"},"action":"harvest","summary":"good-harvest","bonus":1.5200000000000014},{"rt":1240.4000000357628,"stimulus":"\n                    <p><b>Action: <em>harvest</em></b></p>\n                    <p>This is the bee that you just saw.</p>\n                    <img src=\"bees-with-color/bee-B1DM.svg\" width=\"200\">\n                    <p><span class=\"greenText\"><b>Successful harvest!</b></span><br>Your pay has increased by $0.02. Your bonus pay is now $0.46.</p>\n            ","response":0,"trial_type":"html-button-response","trial_index":40,"time_elapsed":484670,"internal_node_id":"0.0-4.0-1.16","subject_id":"613bd3a683a2ac56a4119aa6","study_id":"6197b3f67c2b5cd3b6d9596a","session_id":"619be783818506d0da91adcc","condition":"full-information","relevant_dimensions":["wings","legs"],"bee_group":{"antennae":"X","wings":"1","pattern":"X","legs":"F"},"bonus":1.5200000000000014},{"rt":4701,"stimulus":"bees-with-color/bee-B1SF.svg","response":1,"trial_type":"image-button-response","trial_index":41,"time_elapsed":489375,"internal_node_id":"0.0-4.0-0.17","subject_id":"613bd3a683a2ac56a4119aa6","study_id":"6197b3f67c2b5cd3b6d9596a","session_id":"619be783818506d0da91adcc","condition":"full-information","relevant_dimensions":["wings","legs"],"bee_group":{"antennae":"X","wings":"1","pattern":"X","legs":"F"},"action":"avoid","summary":"good-avoid","bonus":1.5200000000000014},{"rt":1685.199999988079,"stimulus":"\n                    <p><b>Action: <em>avoid</em></b></p>\n                    <p>This is the bee that you just saw.</p>\n                    <img src=\"bees-with-color/bee-B1SF.svg\" width=\"200\">\n                    <p><span class=\"greenText\">Good choice!</span>  This bee would have stung you.<br>Your bonus pay is unchanged, and remains at $0.46.</p>\n            ","response":0,"trial_type":"html-button-response","trial_index":42,"time_elapsed":491063,"internal_node_id":"0.0-4.0-1.17","subject_id":"613bd3a683a2ac56a4119aa6","study_id":"6197b3f67c2b5cd3b6d9596a","session_id":"619be783818506d0da91adcc","condition":"full-information","relevant_dimensions":["wings","legs"],"bee_group":{"antennae":"X","wings":"1","pattern":"X","legs":"F"},"bonus":1.5200000000000014},{"rt":7031.300000011921,"stimulus":"bees-with-color/bee-A2DM.svg","response":0,"trial_type":"image-button-response","trial_index":43,"time_elapsed":498097,"internal_node_id":"0.0-4.0-0.18","subject_id":"613bd3a683a2ac56a4119aa6","study_id":"6197b3f67c2b5cd3b6d9596a","session_id":"619be783818506d0da91adcc","condition":"full-information","relevant_dimensions":["wings","legs"],"bee_group":{"antennae":"X","wings":"1","pattern":"X","legs":"F"},"action":"harvest","summary":"good-harvest","bonus":1.5200000000000014},{"rt":1302.9000000357628,"stimulus":"\n                    <p><b>Action: <em>harvest</em></b></p>\n                    <p>This is the bee that you just saw.</p>\n                    <img src=\"bees-with-color/bee-A2DM.svg\" width=\"200\">\n                    <p><span class=\"greenText\"><b>Successful harvest!</b></span><br>Your pay has increased by $0.02. Your bonus pay is now $0.48.</p>\n            ","response":0,"trial_type":"html-button-response","trial_index":44,"time_elapsed":499403,"internal_node_id":"0.0-4.0-1.18","subject_id":"613bd3a683a2ac56a4119aa6","study_id":"6197b3f67c2b5cd3b6d9596a","session_id":"619be783818506d0da91adcc","condition":"full-information","relevant_dimensions":["wings","legs"],"bee_group":{"antennae":"X","wings":"1","pattern":"X","legs":"F"},"bonus":1.5200000000000014},{"rt":6110.199999988079,"stimulus":"bees-with-color/bee-B2SF.svg","response":0,"trial_type":"image-button-response","trial_index":45,"time_elapsed":505516,"internal_node_id":"0.0-4.0-0.19","subject_id":"613bd3a683a2ac56a4119aa6","study_id":"6197b3f67c2b5cd3b6d9596a","session_id":"619be783818506d0da91adcc","condition":"full-information","relevant_dimensions":["wings","legs"],"bee_group":{"antennae":"X","wings":"1","pattern":"X","legs":"F"},"action":"harvest","summary":"good-harvest","bonus":1.5200000000000014},{"rt":1336.800000011921,"stimulus":"\n                    <p><b>Action: <em>harvest</em></b></p>\n                    <p>This is the bee that you just saw.</p>\n                    <img src=\"bees-with-color/bee-B2SF.svg\" width=\"200\">\n                    <p><span class=\"greenText\"><b>Successful harvest!</b></span><br>Your pay has increased by $0.02. Your bonus pay is now $0.50.</p>\n            ","response":0,"trial_type":"html-button-response","trial_index":46,"time_elapsed":506856,"internal_node_id":"0.0-4.0-1.19","subject_id":"613bd3a683a2ac56a4119aa6","study_id":"6197b3f67c2b5cd3b6d9596a","session_id":"619be783818506d0da91adcc","condition":"full-information","relevant_dimensions":["wings","legs"],"bee_group":{"antennae":"X","wings":"1","pattern":"X","legs":"F"},"bonus":1.5200000000000014},{"rt":7189.899999976158,"stimulus":"bees-with-color/bee-A1SM.svg","response":0,"trial_type":"image-button-response","trial_index":47,"time_elapsed":514050,"internal_node_id":"0.0-4.0-0.20","subject_id":"613bd3a683a2ac56a4119aa6","study_id":"6197b3f67c2b5cd3b6d9596a","session_id":"619be783818506d0da91adcc","condition":"full-information","relevant_dimensions":["wings","legs"],"bee_group":{"antennae":"X","wings":"1","pattern":"X","legs":"F"},"action":"harvest","summary":"good-harvest","bonus":1.5200000000000014},{"rt":4801.800000011921,"stimulus":"\n                    <p><b>Action: <em>harvest</em></b></p>\n                    <p>This is the bee that you just saw.</p>\n                    <img src=\"bees-with-color/bee-A1SM.svg\" width=\"200\">\n                    <p><span class=\"greenText\"><b>Successful harvest!</b></span><br>Your pay has increased by $0.02. Your bonus pay is now $0.52.</p>\n            ","response":0,"trial_type":"html-button-response","trial_index":48,"time_elapsed":518855,"internal_node_id":"0.0-4.0-1.20","subject_id":"613bd3a683a2ac56a4119aa6","study_id":"6197b3f67c2b5cd3b6d9596a","session_id":"619be783818506d0da91adcc","condition":"full-information","relevant_dimensions":["wings","legs"],"bee_group":{"antennae":"X","wings":"1","pattern":"X","legs":"F"},"bonus":1.5200000000000014},{"rt":3262.899999976158,"stimulus":"bees-with-color/bee-A1DF.svg","response":1,"trial_type":"image-button-response","trial_index":49,"time_elapsed":522121,"internal_node_id":"0.0-4.0-0.21","subject_id":"613bd3a683a2ac56a4119aa6","study_id":"6197b3f67c2b5cd3b6d9596a","session_id":"619be783818506d0da91adcc","condition":"full-information","relevant_dimensions":["wings","legs"],"bee_group":{"antennae":"X","wings":"1","pattern":"X","legs":"F"},"action":"avoid","summary":"good-avoid","bonus":1.5200000000000014},{"rt":2778.300000011921,"stimulus":"\n                    <p><b>Action: <em>avoid</em></b></p>\n                    <p>This is the bee that you just saw.</p>\n                    <img src=\"bees-with-color/bee-A1DF.svg\" width=\"200\">\n                    <p><span class=\"greenText\">Good choice!</span>  This bee would have stung you.<br>Your bonus pay is unchanged, and remains at $0.52.</p>\n            ","response":0,"trial_type":"html-button-response","trial_index":50,"time_elapsed":524903,"internal_node_id":"0.0-4.0-1.21","subject_id":"613bd3a683a2ac56a4119aa6","study_id":"6197b3f67c2b5cd3b6d9596a","session_id":"619be783818506d0da91adcc","condition":"full-information","relevant_dimensions":["wings","legs"],"bee_group":{"antennae":"X","wings":"1","pattern":"X","legs":"F"},"bonus":1.5200000000000014},{"rt":6824.799999952316,"stimulus":"bees-with-color/bee-A1DM.svg","response":0,"trial_type":"image-button-response","trial_index":51,"time_elapsed":531731,"internal_node_id":"0.0-4.0-0.22","subject_id":"613bd3a683a2ac56a4119aa6","study_id":"6197b3f67c2b5cd3b6d9596a","session_id":"619be783818506d0da91adcc","condition":"full-information","relevant_dimensions":["wings","legs"],"bee_group":{"antennae":"X","wings":"1","pattern":"X","legs":"F"},"action":"harvest","summary":"good-harvest","bonus":1.5200000000000014},{"rt":1156.300000011921,"stimulus":"\n                    <p><b>Action: <em>harvest</em></b></p>\n                    <p>This is the bee that you just saw.</p>\n                    <img src=\"bees-with-color/bee-A1DM.svg\" width=\"200\">\n                    <p><span class=\"greenText\"><b>Successful harvest!</b></span><br>Your pay has increased by $0.02. Your bonus pay is now $0.54.</p>\n            ","response":0,"trial_type":"html-button-response","trial_index":52,"time_elapsed":532891,"internal_node_id":"0.0-4.0-1.22","subject_id":"613bd3a683a2ac56a4119aa6","study_id":"6197b3f67c2b5cd3b6d9596a","session_id":"619be783818506d0da91adcc","condition":"full-information","relevant_dimensions":["wings","legs"],"bee_group":{"antennae":"X","wings":"1","pattern":"X","legs":"F"},"bonus":1.5200000000000014},{"rt":6771.800000011921,"stimulus":"bees-with-color/bee-B1SM.svg","response":0,"trial_type":"image-button-response","trial_index":53,"time_elapsed":539666,"internal_node_id":"0.0-4.0-0.23","subject_id":"613bd3a683a2ac56a4119aa6","study_id":"6197b3f67c2b5cd3b6d9596a","session_id":"619be783818506d0da91adcc","condition":"full-information","relevant_dimensions":["wings","legs"],"bee_group":{"antennae":"X","wings":"1","pattern":"X","legs":"F"},"action":"harvest","summary":"good-harvest","bonus":1.5200000000000014},{"rt":1034.9000000357628,"stimulus":"\n                    <p><b>Action: <em>harvest</em></b></p>\n                    <p>This is the bee that you just saw.</p>\n                    <img src=\"bees-with-color/bee-B1SM.svg\" width=\"200\">\n                    <p><span class=\"greenText\"><b>Successful harvest!</b></span><br>Your pay has increased by $0.02. Your bonus pay is now $0.56.</p>\n            ","response":0,"trial_type":"html-button-response","trial_index":54,"time_elapsed":540704,"internal_node_id":"0.0-4.0-1.23","subject_id":"613bd3a683a2ac56a4119aa6","study_id":"6197b3f67c2b5cd3b6d9596a","session_id":"619be783818506d0da91adcc","condition":"full-information","relevant_dimensions":["wings","legs"],"bee_group":{"antennae":"X","wings":"1","pattern":"X","legs":"F"},"bonus":1.5200000000000014},{"rt":5386.300000011921,"stimulus":"bees-with-color/bee-B2SM.svg","response":0,"trial_type":"image-button-response","trial_index":55,"time_elapsed":546094,"internal_node_id":"0.0-4.0-0.24","subject_id":"613bd3a683a2ac56a4119aa6","study_id":"6197b3f67c2b5cd3b6d9596a","session_id":"619be783818506d0da91adcc","condition":"full-information","relevant_dimensions":["wings","legs"],"bee_group":{"antennae":"X","wings":"1","pattern":"X","legs":"F"},"action":"harvest","summary":"good-harvest","bonus":1.5200000000000014},{"rt":963,"stimulus":"\n                    <p><b>Action: <em>harvest</em></b></p>\n                    <p>This is the bee that you just saw.</p>\n                    <img src=\"bees-with-color/bee-B2SM.svg\" width=\"200\">\n                    <p><span class=\"greenText\"><b>Successful harvest!</b></span><br>Your pay has increased by $0.02. Your bonus pay is now $0.58.</p>\n            ","response":0,"trial_type":"html-button-response","trial_index":56,"time_elapsed":547059,"internal_node_id":"0.0-4.0-1.24","subject_id":"613bd3a683a2ac56a4119aa6","study_id":"6197b3f67c2b5cd3b6d9596a","session_id":"619be783818506d0da91adcc","condition":"full-information","relevant_dimensions":["wings","legs"],"bee_group":{"antennae":"X","wings":"1","pattern":"X","legs":"F"},"bonus":1.5200000000000014},{"rt":9237.699999988079,"stimulus":"bees-with-color/bee-A2SM.svg","response":0,"trial_type":"image-button-response","trial_index":57,"time_elapsed":556300,"internal_node_id":"0.0-4.0-0.25","subject_id":"613bd3a683a2ac56a4119aa6","study_id":"6197b3f67c2b5cd3b6d9596a","session_id":"619be783818506d0da91adcc","condition":"full-information","relevant_dimensions":["wings","legs"],"bee_group":{"antennae":"X","wings":"1","pattern":"X","legs":"F"},"action":"harvest","summary":"good-harvest","bonus":1.5200000000000014},{"rt":901.5,"stimulus":"\n                    <p><b>Action: <em>harvest</em></b></p>\n                    <p>This is the bee that you just saw.</p>\n                    <img src=\"bees-with-color/bee-A2SM.svg\" width=\"200\">\n                    <p><span class=\"greenText\"><b>Successful harvest!</b></span><br>Your pay has increased by $0.02. Your bonus pay is now $0.60.</p>\n            ","response":0,"trial_type":"html-button-response","trial_index":58,"time_elapsed":557205,"internal_node_id":"0.0-4.0-1.25","subject_id":"613bd3a683a2ac56a4119aa6","study_id":"6197b3f67c2b5cd3b6d9596a","session_id":"619be783818506d0da91adcc","condition":"full-information","relevant_dimensions":["wings","legs"],"bee_group":{"antennae":"X","wings":"1","pattern":"X","legs":"F"},"bonus":1.5200000000000014},{"rt":6987.199999988079,"stimulus":"bees-with-color/bee-B2DF.svg","response":0,"trial_type":"image-button-response","trial_index":59,"time_elapsed":564196,"internal_node_id":"0.0-4.0-0.26","subject_id":"613bd3a683a2ac56a4119aa6","study_id":"6197b3f67c2b5cd3b6d9596a","session_id":"619be783818506d0da91adcc","condition":"full-information","relevant_dimensions":["wings","legs"],"bee_group":{"antennae":"X","wings":"1","pattern":"X","legs":"F"},"action":"harvest","summary":"good-harvest","bonus":1.5200000000000014},{"rt":1050.300000011921,"stimulus":"\n                    <p><b>Action: <em>harvest</em></b></p>\n                    <p>This is the bee that you just saw.</p>\n                    <img src=\"bees-with-color/bee-B2DF.svg\" width=\"200\">\n                    <p><span class=\"greenText\"><b>Successful harvest!</b></span><br>Your pay has increased by $0.02. Your bonus pay is now $0.62.</p>\n            ","response":0,"trial_type":"html-button-response","trial_index":60,"time_elapsed":565249,"internal_node_id":"0.0-4.0-1.26","subject_id":"613bd3a683a2ac56a4119aa6","study_id":"6197b3f67c2b5cd3b6d9596a","session_id":"619be783818506d0da91adcc","condition":"full-information","relevant_dimensions":["wings","legs"],"bee_group":{"antennae":"X","wings":"1","pattern":"X","legs":"F"},"bonus":1.5200000000000014},{"rt":6622.600000023842,"stimulus":"bees-with-color/bee-B1DF.svg","response":1,"trial_type":"image-button-response","trial_index":61,"time_elapsed":571875,"internal_node_id":"0.0-4.0-0.27","subject_id":"613bd3a683a2ac56a4119aa6","study_id":"6197b3f67c2b5cd3b6d9596a","session_id":"619be783818506d0da91adcc","condition":"full-information","relevant_dimensions":["wings","legs"],"bee_group":{"antennae":"X","wings":"1","pattern":"X","legs":"F"},"action":"avoid","summary":"good-avoid","bonus":1.5200000000000014},{"rt":1645.199999988079,"stimulus":"\n                    <p><b>Action: <em>avoid</em></b></p>\n                    <p>This is the bee that you just saw.</p>\n                    <img src=\"bees-with-color/bee-B1DF.svg\" width=\"200\">\n                    <p><span class=\"greenText\">Good choice!</span>  This bee would have stung you.<br>Your bonus pay is unchanged, and remains at $0.62.</p>\n            ","response":0,"trial_type":"html-button-response","trial_index":62,"time_elapsed":573523,"internal_node_id":"0.0-4.0-1.27","subject_id":"613bd3a683a2ac56a4119aa6","study_id":"6197b3f67c2b5cd3b6d9596a","session_id":"619be783818506d0da91adcc","condition":"full-information","relevant_dimensions":["wings","legs"],"bee_group":{"antennae":"X","wings":"1","pattern":"X","legs":"F"},"bonus":1.5200000000000014},{"rt":3326.600000023842,"stimulus":"bees-with-color/bee-A1SF.svg","response":0,"trial_type":"image-button-response","trial_index":63,"time_elapsed":576853,"internal_node_id":"0.0-4.0-0.28","subject_id":"613bd3a683a2ac56a4119aa6","study_id":"6197b3f67c2b5cd3b6d9596a","session_id":"619be783818506d0da91adcc","condition":"full-information","relevant_dimensions":["wings","legs"],"bee_group":{"antennae":"X","wings":"1","pattern":"X","legs":"F"},"action":"harvest","summary":"bad-harvest","bonus":1.5200000000000014},{"rt":13691,"stimulus":"\n                    <p><b>Action: <em>harvest</em></b></p>\n                    <p>This is the bee that you just saw.</p>\n                    <img src=\"bees-with-color/bee-A1SF.svg\" width=\"200\">\n                    <p><span class=\"redText\">Bad choice, the bee was angry.</span><br><b>You have been stung!</b><br>Your pay has been decreased by $0.10. Your bonus pay is now $0.52.</p>\n            ","response":0,"trial_type":"html-button-response","trial_index":64,"time_elapsed":590548,"internal_node_id":"0.0-4.0-1.28","subject_id":"613bd3a683a2ac56a4119aa6","study_id":"6197b3f67c2b5cd3b6d9596a","session_id":"619be783818506d0da91adcc","condition":"full-information","relevant_dimensions":["wings","legs"],"bee_group":{"antennae":"X","wings":"1","pattern":"X","legs":"F"},"bonus":1.5200000000000014},{"rt":6803.599999964237,"stimulus":"bees-with-color/bee-B2DM.svg","response":0,"trial_type":"image-button-response","trial_index":65,"time_elapsed":597355,"internal_node_id":"0.0-4.0-0.29","subject_id":"613bd3a683a2ac56a4119aa6","study_id":"6197b3f67c2b5cd3b6d9596a","session_id":"619be783818506d0da91adcc","condition":"full-information","relevant_dimensions":["wings","legs"],"bee_group":{"antennae":"X","wings":"1","pattern":"X","legs":"F"},"action":"harvest","summary":"good-harvest","bonus":1.5200000000000014},{"rt":1441.699999988079,"stimulus":"\n                    <p><b>Action: <em>harvest</em></b></p>\n                    <p>This is the bee that you just saw.</p>\n                    <img src=\"bees-with-color/bee-B2DM.svg\" width=\"200\">\n                    <p><span class=\"greenText\"><b>Successful harvest!</b></span><br>Your pay has increased by $0.02. Your bonus pay is now $0.54.</p>\n            ","response":0,"trial_type":"html-button-response","trial_index":66,"time_elapsed":598800,"internal_node_id":"0.0-4.0-1.29","subject_id":"613bd3a683a2ac56a4119aa6","study_id":"6197b3f67c2b5cd3b6d9596a","session_id":"619be783818506d0da91adcc","condition":"full-information","relevant_dimensions":["wings","legs"],"bee_group":{"antennae":"X","wings":"1","pattern":"X","legs":"F"},"bonus":1.5200000000000014},{"rt":6204.900000035763,"stimulus":"bees-with-color/bee-A2DF.svg","response":1,"trial_type":"image-button-response","trial_index":67,"time_elapsed":605009,"internal_node_id":"0.0-4.0-0.30","subject_id":"613bd3a683a2ac56a4119aa6","study_id":"6197b3f67c2b5cd3b6d9596a","session_id":"619be783818506d0da91adcc","condition":"full-information","relevant_dimensions":["wings","legs"],"bee_group":{"antennae":"X","wings":"1","pattern":"X","legs":"F"},"action":"avoid","summary":"bad-avoid","bonus":1.5200000000000014},{"rt":13997.699999988079,"stimulus":"\n                    <p><b>Action: <em>avoid</em></b></p>\n                    <p>This is the bee that you just saw.</p>\n                    <img src=\"bees-with-color/bee-A2DF.svg\" width=\"200\">\n                    <p><span class=\"redText\">Bad choice,</span> the bee was friendly.<br>Your bonus pay is unchanged, and remains at $0.54.</p>\n            ","response":0,"trial_type":"html-button-response","trial_index":68,"time_elapsed":619009,"internal_node_id":"0.0-4.0-1.30","subject_id":"613bd3a683a2ac56a4119aa6","study_id":"6197b3f67c2b5cd3b6d9596a","session_id":"619be783818506d0da91adcc","condition":"full-information","relevant_dimensions":["wings","legs"],"bee_group":{"antennae":"X","wings":"1","pattern":"X","legs":"F"},"bonus":1.5200000000000014},{"rt":8228.100000023842,"stimulus":"bees-with-color/bee-A2SF.svg","response":0,"trial_type":"image-button-response","trial_index":69,"time_elapsed":627241,"internal_node_id":"0.0-4.0-0.31","subject_id":"613bd3a683a2ac56a4119aa6","study_id":"6197b3f67c2b5cd3b6d9596a","session_id":"619be783818506d0da91adcc","condition":"full-information","relevant_dimensions":["wings","legs"],"bee_group":{"antennae":"X","wings":"1","pattern":"X","legs":"F"},"action":"harvest","summary":"good-harvest","bonus":1.5200000000000014},{"rt":989.2999999523163,"stimulus":"\n                    <p><b>Action: <em>harvest</em></b></p>\n                    <p>This is the bee that you just saw.</p>\n                    <img src=\"bees-with-color/bee-A2SF.svg\" width=\"200\">\n                    <p><span class=\"greenText\"><b>Successful harvest!</b></span><br>Your pay has increased by $0.02. Your bonus pay is now $0.56.</p>\n            ","response":0,"trial_type":"html-button-response","trial_index":70,"time_elapsed":628233,"internal_node_id":"0.0-4.0-1.31","subject_id":"613bd3a683a2ac56a4119aa6","study_id":"6197b3f67c2b5cd3b6d9596a","session_id":"619be783818506d0da91adcc","condition":"full-information","relevant_dimensions":["wings","legs"],"bee_group":{"antennae":"X","wings":"1","pattern":"X","legs":"F"},"bonus":1.5200000000000014},{"rt":7100.700000047684,"stimulus":"bees-with-color/bee-B1SM.svg","response":0,"trial_type":"image-button-response","trial_index":71,"time_elapsed":635337,"internal_node_id":"0.0-4.0-0.32","subject_id":"613bd3a683a2ac56a4119aa6","study_id":"6197b3f67c2b5cd3b6d9596a","session_id":"619be783818506d0da91adcc","condition":"full-information","relevant_dimensions":["wings","legs"],"bee_group":{"antennae":"X","wings":"1","pattern":"X","legs":"F"},"action":"harvest","summary":"good-harvest","bonus":1.5200000000000014},{"rt":896.6999999880791,"stimulus":"\n                    <p><b>Action: <em>harvest</em></b></p>\n                    <p>This is the bee that you just saw.</p>\n                    <img src=\"bees-with-color/bee-B1SM.svg\" width=\"200\">\n                    <p><span class=\"greenText\"><b>Successful harvest!</b></span><br>Your pay has increased by $0.02. Your bonus pay is now $0.58.</p>\n            ","response":0,"trial_type":"html-button-response","trial_index":72,"time_elapsed":636237,"internal_node_id":"0.0-4.0-1.32","subject_id":"613bd3a683a2ac56a4119aa6","study_id":"6197b3f67c2b5cd3b6d9596a","session_id":"619be783818506d0da91adcc","condition":"full-information","relevant_dimensions":["wings","legs"],"bee_group":{"antennae":"X","wings":"1","pattern":"X","legs":"F"},"bonus":1.5200000000000014},{"rt":6692.600000023842,"stimulus":"bees-with-color/bee-A1SM.svg","response":0,"trial_type":"image-button-response","trial_index":73,"time_elapsed":642933,"internal_node_id":"0.0-4.0-0.33","subject_id":"613bd3a683a2ac56a4119aa6","study_id":"6197b3f67c2b5cd3b6d9596a","session_id":"619be783818506d0da91adcc","condition":"full-information","relevant_dimensions":["wings","legs"],"bee_group":{"antennae":"X","wings":"1","pattern":"X","legs":"F"},"action":"harvest","summary":"good-harvest","bonus":1.5200000000000014},{"rt":1209.3999999761581,"stimulus":"\n                    <p><b>Action: <em>harvest</em></b></p>\n                    <p>This is the bee that you just saw.</p>\n                    <img src=\"bees-with-color/bee-A1SM.svg\" width=\"200\">\n                    <p><span class=\"greenText\"><b>Successful harvest!</b></span><br>Your pay has increased by $0.02. Your bonus pay is now $0.60.</p>\n            ","response":0,"trial_type":"html-button-response","trial_index":74,"time_elapsed":644145,"internal_node_id":"0.0-4.0-1.33","subject_id":"613bd3a683a2ac56a4119aa6","study_id":"6197b3f67c2b5cd3b6d9596a","session_id":"619be783818506d0da91adcc","condition":"full-information","relevant_dimensions":["wings","legs"],"bee_group":{"antennae":"X","wings":"1","pattern":"X","legs":"F"},"bonus":1.5200000000000014},{"rt":5091,"stimulus":"bees-with-color/bee-B1SF.svg","response":1,"trial_type":"image-button-response","trial_index":75,"time_elapsed":649240,"internal_node_id":"0.0-4.0-0.34","subject_id":"613bd3a683a2ac56a4119aa6","study_id":"6197b3f67c2b5cd3b6d9596a","session_id":"619be783818506d0da91adcc","condition":"full-information","relevant_dimensions":["wings","legs"],"bee_group":{"antennae":"X","wings":"1","pattern":"X","legs":"F"},"action":"avoid","summary":"good-avoid","bonus":1.5200000000000014},{"rt":1404.3999999761581,"stimulus":"\n                    <p><b>Action: <em>avoid</em></b></p>\n                    <p>This is the bee that you just saw.</p>\n                    <img src=\"bees-with-color/bee-B1SF.svg\" width=\"200\">\n                    <p><span class=\"greenText\">Good choice!</span>  This bee would have stung you.<br>Your bonus pay is unchanged, and remains at $0.60.</p>\n            ","response":0,"trial_type":"html-button-response","trial_index":76,"time_elapsed":650647,"internal_node_id":"0.0-4.0-1.34","subject_id":"613bd3a683a2ac56a4119aa6","study_id":"6197b3f67c2b5cd3b6d9596a","session_id":"619be783818506d0da91adcc","condition":"full-information","relevant_dimensions":["wings","legs"],"bee_group":{"antennae":"X","wings":"1","pattern":"X","legs":"F"},"bonus":1.5200000000000014},{"rt":10837.199999988079,"stimulus":"bees-with-color/bee-A2DM.svg","response":0,"trial_type":"image-button-response","trial_index":77,"time_elapsed":661488,"internal_node_id":"0.0-4.0-0.35","subject_id":"613bd3a683a2ac56a4119aa6","study_id":"6197b3f67c2b5cd3b6d9596a","session_id":"619be783818506d0da91adcc","condition":"full-information","relevant_dimensions":["wings","legs"],"bee_group":{"antennae":"X","wings":"1","pattern":"X","legs":"F"},"action":"harvest","summary":"good-harvest","bonus":1.5200000000000014},{"rt":1140.2999999523163,"stimulus":"\n                    <p><b>Action: <em>harvest</em></b></p>\n                    <p>This is the bee that you just saw.</p>\n                    <img src=\"bees-with-color/bee-A2DM.svg\" width=\"200\">\n                    <p><span class=\"greenText\"><b>Successful harvest!</b></span><br>Your pay has increased by $0.02. Your bonus pay is now $0.62.</p>\n            ","response":0,"trial_type":"html-button-response","trial_index":78,"time_elapsed":662631,"internal_node_id":"0.0-4.0-1.35","subject_id":"613bd3a683a2ac56a4119aa6","study_id":"6197b3f67c2b5cd3b6d9596a","session_id":"619be783818506d0da91adcc","condition":"full-information","relevant_dimensions":["wings","legs"],"bee_group":{"antennae":"X","wings":"1","pattern":"X","legs":"F"},"bonus":1.5200000000000014},{"rt":4578.800000011921,"stimulus":"bees-with-color/bee-A2SF.svg","response":0,"trial_type":"image-button-response","trial_index":79,"time_elapsed":667213,"internal_node_id":"0.0-4.0-0.36","subject_id":"613bd3a683a2ac56a4119aa6","study_id":"6197b3f67c2b5cd3b6d9596a","session_id":"619be783818506d0da91adcc","condition":"full-information","relevant_dimensions":["wings","legs"],"bee_group":{"antennae":"X","wings":"1","pattern":"X","legs":"F"},"action":"harvest","summary":"good-harvest","bonus":1.5200000000000014},{"rt":912.4000000357628,"stimulus":"\n                    <p><b>Action: <em>harvest</em></b></p>\n                    <p>This is the bee that you just saw.</p>\n                    <img src=\"bees-with-color/bee-A2SF.svg\" width=\"200\">\n                    <p><span class=\"greenText\"><b>Successful harvest!</b></span><br>Your pay has increased by $0.02. Your bonus pay is now $0.64.</p>\n            ","response":0,"trial_type":"html-button-response","trial_index":80,"time_elapsed":668129,"internal_node_id":"0.0-4.0-1.36","subject_id":"613bd3a683a2ac56a4119aa6","study_id":"6197b3f67c2b5cd3b6d9596a","session_id":"619be783818506d0da91adcc","condition":"full-information","relevant_dimensions":["wings","legs"],"bee_group":{"antennae":"X","wings":"1","pattern":"X","legs":"F"},"bonus":1.5200000000000014},{"rt":4808.800000011921,"stimulus":"bees-with-color/bee-B2SF.svg","response":0,"trial_type":"image-button-response","trial_index":81,"time_elapsed":672941,"internal_node_id":"0.0-4.0-0.37","subject_id":"613bd3a683a2ac56a4119aa6","study_id":"6197b3f67c2b5cd3b6d9596a","session_id":"619be783818506d0da91adcc","condition":"full-information","relevant_dimensions":["wings","legs"],"bee_group":{"antennae":"X","wings":"1","pattern":"X","legs":"F"},"action":"harvest","summary":"good-harvest","bonus":1.5200000000000014},{"rt":819.8000000119209,"stimulus":"\n                    <p><b>Action: <em>harvest</em></b></p>\n                    <p>This is the bee that you just saw.</p>\n                    <img src=\"bees-with-color/bee-B2SF.svg\" width=\"200\">\n                    <p><span class=\"greenText\"><b>Successful harvest!</b></span><br>Your pay has increased by $0.02. Your bonus pay is now $0.66.</p>\n            ","response":0,"trial_type":"html-button-response","trial_index":82,"time_elapsed":673764,"internal_node_id":"0.0-4.0-1.37","subject_id":"613bd3a683a2ac56a4119aa6","study_id":"6197b3f67c2b5cd3b6d9596a","session_id":"619be783818506d0da91adcc","condition":"full-information","relevant_dimensions":["wings","legs"],"bee_group":{"antennae":"X","wings":"1","pattern":"X","legs":"F"},"bonus":1.5200000000000014},{"rt":6425,"stimulus":"bees-with-color/bee-A1SF.svg","response":1,"trial_type":"image-button-response","trial_index":83,"time_elapsed":680193,"internal_node_id":"0.0-4.0-0.38","subject_id":"613bd3a683a2ac56a4119aa6","study_id":"6197b3f67c2b5cd3b6d9596a","session_id":"619be783818506d0da91adcc","condition":"full-information","relevant_dimensions":["wings","legs"],"bee_group":{"antennae":"X","wings":"1","pattern":"X","legs":"F"},"action":"avoid","summary":"good-avoid","bonus":1.5200000000000014},{"rt":1854.5,"stimulus":"\n                    <p><b>Action: <em>avoid</em></b></p>\n                    <p>This is the bee that you just saw.</p>\n                    <img src=\"bees-with-color/bee-A1SF.svg\" width=\"200\">\n                    <p><span class=\"greenText\">Good choice!</span>  This bee would have stung you.<br>Your bonus pay is unchanged, and remains at $0.66.</p>\n            ","response":0,"trial_type":"html-button-response","trial_index":84,"time_elapsed":682050,"internal_node_id":"0.0-4.0-1.38","subject_id":"613bd3a683a2ac56a4119aa6","study_id":"6197b3f67c2b5cd3b6d9596a","session_id":"619be783818506d0da91adcc","condition":"full-information","relevant_dimensions":["wings","legs"],"bee_group":{"antennae":"X","wings":"1","pattern":"X","legs":"F"},"bonus":1.5200000000000014},{"rt":11717.699999988079,"stimulus":"bees-with-color/bee-B1DM.svg","response":0,"trial_type":"image-button-response","trial_index":85,"time_elapsed":693772,"internal_node_id":"0.0-4.0-0.39","subject_id":"613bd3a683a2ac56a4119aa6","study_id":"6197b3f67c2b5cd3b6d9596a","session_id":"619be783818506d0da91adcc","condition":"full-information","relevant_dimensions":["wings","legs"],"bee_group":{"antennae":"X","wings":"1","pattern":"X","legs":"F"},"action":"harvest","summary":"good-harvest","bonus":1.5200000000000014},{"rt":1084.300000011921,"stimulus":"\n                    <p><b>Action: <em>harvest</em></b></p>\n                    <p>This is the bee that you just saw.</p>\n                    <img src=\"bees-with-color/bee-B1DM.svg\" width=\"200\">\n                    <p><span class=\"greenText\"><b>Successful harvest!</b></span><br>Your pay has increased by $0.02. Your bonus pay is now $0.68.</p>\n            ","response":0,"trial_type":"html-button-response","trial_index":86,"time_elapsed":694859,"internal_node_id":"0.0-4.0-1.39","subject_id":"613bd3a683a2ac56a4119aa6","study_id":"6197b3f67c2b5cd3b6d9596a","session_id":"619be783818506d0da91adcc","condition":"full-information","relevant_dimensions":["wings","legs"],"bee_group":{"antennae":"X","wings":"1","pattern":"X","legs":"F"},"bonus":1.5200000000000014},{"rt":8338.399999976158,"stimulus":"bees-with-color/bee-A1DM.svg","response":0,"trial_type":"image-button-response","trial_index":87,"time_elapsed":703200,"internal_node_id":"0.0-4.0-0.40","subject_id":"613bd3a683a2ac56a4119aa6","study_id":"6197b3f67c2b5cd3b6d9596a","session_id":"619be783818506d0da91adcc","condition":"full-information","relevant_dimensions":["wings","legs"],"bee_group":{"antennae":"X","wings":"1","pattern":"X","legs":"F"},"action":"harvest","summary":"good-harvest","bonus":1.5200000000000014},{"rt":994.9000000357628,"stimulus":"\n                    <p><b>Action: <em>harvest</em></b></p>\n                    <p>This is the bee that you just saw.</p>\n                    <img src=\"bees-with-color/bee-A1DM.svg\" width=\"200\">\n                    <p><span class=\"greenText\"><b>Successful harvest!</b></span><br>Your pay has increased by $0.02. Your bonus pay is now $0.70.</p>\n            ","response":0,"trial_type":"html-button-response","trial_index":88,"time_elapsed":704199,"internal_node_id":"0.0-4.0-1.40","subject_id":"613bd3a683a2ac56a4119aa6","study_id":"6197b3f67c2b5cd3b6d9596a","session_id":"619be783818506d0da91adcc","condition":"full-information","relevant_dimensions":["wings","legs"],"bee_group":{"antennae":"X","wings":"1","pattern":"X","legs":"F"},"bonus":1.5200000000000014},{"rt":4247.599999964237,"stimulus":"bees-with-color/bee-B2DM.svg","response":0,"trial_type":"image-button-response","trial_index":89,"time_elapsed":708450,"internal_node_id":"0.0-4.0-0.41","subject_id":"613bd3a683a2ac56a4119aa6","study_id":"6197b3f67c2b5cd3b6d9596a","session_id":"619be783818506d0da91adcc","condition":"full-information","relevant_dimensions":["wings","legs"],"bee_group":{"antennae":"X","wings":"1","pattern":"X","legs":"F"},"action":"harvest","summary":"good-harvest","bonus":1.5200000000000014},{"rt":965.1999999880791,"stimulus":"\n                    <p><b>Action: <em>harvest</em></b></p>\n                    <p>This is the bee that you just saw.</p>\n                    <img src=\"bees-with-color/bee-B2DM.svg\" width=\"200\">\n                    <p><span class=\"greenText\"><b>Successful harvest!</b></span><br>Your pay has increased by $0.02. Your bonus pay is now $0.72.</p>\n            ","response":0,"trial_type":"html-button-response","trial_index":90,"time_elapsed":709420,"internal_node_id":"0.0-4.0-1.41","subject_id":"613bd3a683a2ac56a4119aa6","study_id":"6197b3f67c2b5cd3b6d9596a","session_id":"619be783818506d0da91adcc","condition":"full-information","relevant_dimensions":["wings","legs"],"bee_group":{"antennae":"X","wings":"1","pattern":"X","legs":"F"},"bonus":1.5200000000000014},{"rt":5483.5,"stimulus":"bees-with-color/bee-A1DF.svg","response":1,"trial_type":"image-button-response","trial_index":91,"time_elapsed":714907,"internal_node_id":"0.0-4.0-0.42","subject_id":"613bd3a683a2ac56a4119aa6","study_id":"6197b3f67c2b5cd3b6d9596a","session_id":"619be783818506d0da91adcc","condition":"full-information","relevant_dimensions":["wings","legs"],"bee_group":{"antennae":"X","wings":"1","pattern":"X","legs":"F"},"action":"avoid","summary":"good-avoid","bonus":1.5200000000000014},{"rt":1164.9000000357628,"stimulus":"\n                    <p><b>Action: <em>avoid</em></b></p>\n                    <p>This is the bee that you just saw.</p>\n                    <img src=\"bees-with-color/bee-A1DF.svg\" width=\"200\">\n                    <p><span class=\"greenText\">Good choice!</span>  This bee would have stung you.<br>Your bonus pay is unchanged, and remains at $0.72.</p>\n            ","response":0,"trial_type":"html-button-response","trial_index":92,"time_elapsed":716075,"internal_node_id":"0.0-4.0-1.42","subject_id":"613bd3a683a2ac56a4119aa6","study_id":"6197b3f67c2b5cd3b6d9596a","session_id":"619be783818506d0da91adcc","condition":"full-information","relevant_dimensions":["wings","legs"],"bee_group":{"antennae":"X","wings":"1","pattern":"X","legs":"F"},"bonus":1.5200000000000014},{"rt":4164.600000023842,"stimulus":"bees-with-color/bee-B2DF.svg","response":0,"trial_type":"image-button-response","trial_index":93,"time_elapsed":720242,"internal_node_id":"0.0-4.0-0.43","subject_id":"613bd3a683a2ac56a4119aa6","study_id":"6197b3f67c2b5cd3b6d9596a","session_id":"619be783818506d0da91adcc","condition":"full-information","relevant_dimensions":["wings","legs"],"bee_group":{"antennae":"X","wings":"1","pattern":"X","legs":"F"},"action":"harvest","summary":"good-harvest","bonus":1.5200000000000014},{"rt":918.1000000238419,"stimulus":"\n                    <p><b>Action: <em>harvest</em></b></p>\n                    <p>This is the bee that you just saw.</p>\n                    <img src=\"bees-with-color/bee-B2DF.svg\" width=\"200\">\n                    <p><span class=\"greenText\"><b>Successful harvest!</b></span><br>Your pay has increased by $0.02. Your bonus pay is now $0.74.</p>\n            ","response":0,"trial_type":"html-button-response","trial_index":94,"time_elapsed":721163,"internal_node_id":"0.0-4.0-1.43","subject_id":"613bd3a683a2ac56a4119aa6","study_id":"6197b3f67c2b5cd3b6d9596a","session_id":"619be783818506d0da91adcc","condition":"full-information","relevant_dimensions":["wings","legs"],"bee_group":{"antennae":"X","wings":"1","pattern":"X","legs":"F"},"bonus":1.5200000000000014},{"rt":4980.800000011921,"stimulus":"bees-with-color/bee-B1DF.svg","response":1,"trial_type":"image-button-response","trial_index":95,"time_elapsed":726148,"internal_node_id":"0.0-4.0-0.44","subject_id":"613bd3a683a2ac56a4119aa6","study_id":"6197b3f67c2b5cd3b6d9596a","session_id":"619be783818506d0da91adcc","condition":"full-information","relevant_dimensions":["wings","legs"],"bee_group":{"antennae":"X","wings":"1","pattern":"X","legs":"F"},"action":"avoid","summary":"good-avoid","bonus":1.5200000000000014},{"rt":1222.800000011921,"stimulus":"\n                    <p><b>Action: <em>avoid</em></b></p>\n                    <p>This is the bee that you just saw.</p>\n                    <img src=\"bees-with-color/bee-B1DF.svg\" width=\"200\">\n                    <p><span class=\"greenText\">Good choice!</span>  This bee would have stung you.<br>Your bonus pay is unchanged, and remains at $0.74.</p>\n            ","response":0,"trial_type":"html-button-response","trial_index":96,"time_elapsed":727374,"internal_node_id":"0.0-4.0-1.44","subject_id":"613bd3a683a2ac56a4119aa6","study_id":"6197b3f67c2b5cd3b6d9596a","session_id":"619be783818506d0da91adcc","condition":"full-information","relevant_dimensions":["wings","legs"],"bee_group":{"antennae":"X","wings":"1","pattern":"X","legs":"F"},"bonus":1.5200000000000014},{"rt":2461.300000011921,"stimulus":"bees-with-color/bee-A2SM.svg","response":0,"trial_type":"image-button-response","trial_index":97,"time_elapsed":729838,"internal_node_id":"0.0-4.0-0.45","subject_id":"613bd3a683a2ac56a4119aa6","study_id":"6197b3f67c2b5cd3b6d9596a","session_id":"619be783818506d0da91adcc","condition":"full-information","relevant_dimensions":["wings","legs"],"bee_group":{"antennae":"X","wings":"1","pattern":"X","legs":"F"},"action":"harvest","summary":"good-harvest","bonus":1.5200000000000014},{"rt":1079.4000000357628,"stimulus":"\n                    <p><b>Action: <em>harvest</em></b></p>\n                    <p>This is the bee that you just saw.</p>\n                    <img src=\"bees-with-color/bee-A2SM.svg\" width=\"200\">\n                    <p><span class=\"greenText\"><b>Successful harvest!</b></span><br>Your pay has increased by $0.02. Your bonus pay is now $0.76.</p>\n            ","response":0,"trial_type":"html-button-response","trial_index":98,"time_elapsed":730920,"internal_node_id":"0.0-4.0-1.45","subject_id":"613bd3a683a2ac56a4119aa6","study_id":"6197b3f67c2b5cd3b6d9596a","session_id":"619be783818506d0da91adcc","condition":"full-information","relevant_dimensions":["wings","legs"],"bee_group":{"antennae":"X","wings":"1","pattern":"X","legs":"F"},"bonus":1.5200000000000014},{"rt":3099.699999988079,"stimulus":"bees-with-color/bee-B2SM.svg","response":0,"trial_type":"image-button-response","trial_index":99,"time_elapsed":734022,"internal_node_id":"0.0-4.0-0.46","subject_id":"613bd3a683a2ac56a4119aa6","study_id":"6197b3f67c2b5cd3b6d9596a","session_id":"619be783818506d0da91adcc","condition":"full-information","relevant_dimensions":["wings","legs"],"bee_group":{"antennae":"X","wings":"1","pattern":"X","legs":"F"},"action":"harvest","summary":"good-harvest","bonus":1.5200000000000014},{"rt":813.6999999880791,"stimulus":"\n                    <p><b>Action: <em>harvest</em></b></p>\n                    <p>This is the bee that you just saw.</p>\n                    <img src=\"bees-with-color/bee-B2SM.svg\" width=\"200\">\n                    <p><span class=\"greenText\"><b>Successful harvest!</b></span><br>Your pay has increased by $0.02. Your bonus pay is now $0.78.</p>\n            ","response":0,"trial_type":"html-button-response","trial_index":100,"time_elapsed":734839,"internal_node_id":"0.0-4.0-1.46","subject_id":"613bd3a683a2ac56a4119aa6","study_id":"6197b3f67c2b5cd3b6d9596a","session_id":"619be783818506d0da91adcc","condition":"full-information","relevant_dimensions":["wings","legs"],"bee_group":{"antennae":"X","wings":"1","pattern":"X","legs":"F"},"bonus":1.5200000000000014},{"rt":1854.8999999761581,"stimulus":"bees-with-color/bee-A2DF.svg","response":0,"trial_type":"image-button-response","trial_index":101,"time_elapsed":736697,"internal_node_id":"0.0-4.0-0.47","subject_id":"613bd3a683a2ac56a4119aa6","study_id":"6197b3f67c2b5cd3b6d9596a","session_id":"619be783818506d0da91adcc","condition":"full-information","relevant_dimensions":["wings","legs"],"bee_group":{"antennae":"X","wings":"1","pattern":"X","legs":"F"},"action":"harvest","summary":"good-harvest","bonus":1.5200000000000014},{"rt":897.8999999761581,"stimulus":"\n                    <p><b>Action: <em>harvest</em></b></p>\n                    <p>This is the bee that you just saw.</p>\n                    <img src=\"bees-with-color/bee-A2DF.svg\" width=\"200\">\n                    <p><span class=\"greenText\"><b>Successful harvest!</b></span><br>Your pay has increased by $0.02. Your bonus pay is now $0.80.</p>\n            ","response":0,"trial_type":"html-button-response","trial_index":102,"time_elapsed":737598,"internal_node_id":"0.0-4.0-1.47","subject_id":"613bd3a683a2ac56a4119aa6","study_id":"6197b3f67c2b5cd3b6d9596a","session_id":"619be783818506d0da91adcc","condition":"full-information","relevant_dimensions":["wings","legs"],"bee_group":{"antennae":"X","wings":"1","pattern":"X","legs":"F"},"bonus":1.5200000000000014},{"rt":1952.3999999761581,"stimulus":"bees-with-color/bee-B2DF.svg","response":0,"trial_type":"image-button-response","trial_index":103,"time_elapsed":739553,"internal_node_id":"0.0-4.0-0.48","subject_id":"613bd3a683a2ac56a4119aa6","study_id":"6197b3f67c2b5cd3b6d9596a","session_id":"619be783818506d0da91adcc","condition":"full-information","relevant_dimensions":["wings","legs"],"bee_group":{"antennae":"X","wings":"1","pattern":"X","legs":"F"},"action":"harvest","summary":"good-harvest","bonus":1.5200000000000014},{"rt":857.9000000357628,"stimulus":"\n                    <p><b>Action: <em>harvest</em></b></p>\n                    <p>This is the bee that you just saw.</p>\n                    <img src=\"bees-with-color/bee-B2DF.svg\" width=\"200\">\n                    <p><span class=\"greenText\"><b>Successful harvest!</b></span><br>Your pay has increased by $0.02. Your bonus pay is now $0.82.</p>\n            ","response":0,"trial_type":"html-button-response","trial_index":104,"time_elapsed":740414,"internal_node_id":"0.0-4.0-1.48","subject_id":"613bd3a683a2ac56a4119aa6","study_id":"6197b3f67c2b5cd3b6d9596a","session_id":"619be783818506d0da91adcc","condition":"full-information","relevant_dimensions":["wings","legs"],"bee_group":{"antennae":"X","wings":"1","pattern":"X","legs":"F"},"bonus":1.5200000000000014},{"rt":7113.699999988079,"stimulus":"bees-with-color/bee-A1DF.svg","response":1,"trial_type":"image-button-response","trial_index":105,"time_elapsed":747531,"internal_node_id":"0.0-4.0-0.49","subject_id":"613bd3a683a2ac56a4119aa6","study_id":"6197b3f67c2b5cd3b6d9596a","session_id":"619be783818506d0da91adcc","condition":"full-information","relevant_dimensions":["wings","legs"],"bee_group":{"antennae":"X","wings":"1","pattern":"X","legs":"F"},"action":"avoid","summary":"good-avoid","bonus":1.5200000000000014},{"rt":882.1999999880791,"stimulus":"\n                    <p><b>Action: <em>avoid</em></b></p>\n                    <p>This is the bee that you just saw.</p>\n                    <img src=\"bees-with-color/bee-A1DF.svg\" width=\"200\">\n                    <p><span class=\"greenText\">Good choice!</span>  This bee would have stung you.<br>Your bonus pay is unchanged, and remains at $0.82.</p>\n            ","response":0,"trial_type":"html-button-response","trial_index":106,"time_elapsed":748416,"internal_node_id":"0.0-4.0-1.49","subject_id":"613bd3a683a2ac56a4119aa6","study_id":"6197b3f67c2b5cd3b6d9596a","session_id":"619be783818506d0da91adcc","condition":"full-information","relevant_dimensions":["wings","legs"],"bee_group":{"antennae":"X","wings":"1","pattern":"X","legs":"F"},"bonus":1.5200000000000014},{"rt":3911.399999976158,"stimulus":"bees-with-color/bee-B1DF.svg","response":1,"trial_type":"image-button-response","trial_index":107,"time_elapsed":752332,"internal_node_id":"0.0-4.0-0.50","subject_id":"613bd3a683a2ac56a4119aa6","study_id":"6197b3f67c2b5cd3b6d9596a","session_id":"619be783818506d0da91adcc","condition":"full-information","relevant_dimensions":["wings","legs"],"bee_group":{"antennae":"X","wings":"1","pattern":"X","legs":"F"},"action":"avoid","summary":"good-avoid","bonus":1.5200000000000014},{"rt":4991,"stimulus":"\n                    <p><b>Action: <em>avoid</em></b></p>\n                    <p>This is the bee that you just saw.</p>\n                    <img src=\"bees-with-color/bee-B1DF.svg\" width=\"200\">\n                    <p><span class=\"greenText\">Good choice!</span>  This bee would have stung you.<br>Your bonus pay is unchanged, and remains at $0.82.</p>\n            ","response":0,"trial_type":"html-button-response","trial_index":108,"time_elapsed":757326,"internal_node_id":"0.0-4.0-1.50","subject_id":"613bd3a683a2ac56a4119aa6","study_id":"6197b3f67c2b5cd3b6d9596a","session_id":"619be783818506d0da91adcc","condition":"full-information","relevant_dimensions":["wings","legs"],"bee_group":{"antennae":"X","wings":"1","pattern":"X","legs":"F"},"bonus":1.5200000000000014},{"rt":7505.300000011921,"stimulus":"bees-with-color/bee-A1DM.svg","response":0,"trial_type":"image-button-response","trial_index":109,"time_elapsed":764835,"internal_node_id":"0.0-4.0-0.51","subject_id":"613bd3a683a2ac56a4119aa6","study_id":"6197b3f67c2b5cd3b6d9596a","session_id":"619be783818506d0da91adcc","condition":"full-information","relevant_dimensions":["wings","legs"],"bee_group":{"antennae":"X","wings":"1","pattern":"X","legs":"F"},"action":"harvest","summary":"good-harvest","bonus":1.5200000000000014},{"rt":941,"stimulus":"\n                    <p><b>Action: <em>harvest</em></b></p>\n                    <p>This is the bee that you just saw.</p>\n                    <img src=\"bees-with-color/bee-A1DM.svg\" width=\"200\">\n                    <p><span class=\"greenText\"><b>Successful harvest!</b></span><br>Your pay has increased by $0.02. Your bonus pay is now $0.84.</p>\n            ","response":0,"trial_type":"html-button-response","trial_index":110,"time_elapsed":765780,"internal_node_id":"0.0-4.0-1.51","subject_id":"613bd3a683a2ac56a4119aa6","study_id":"6197b3f67c2b5cd3b6d9596a","session_id":"619be783818506d0da91adcc","condition":"full-information","relevant_dimensions":["wings","legs"],"bee_group":{"antennae":"X","wings":"1","pattern":"X","legs":"F"},"bonus":1.5200000000000014},{"rt":1747,"stimulus":"bees-with-color/bee-A2SM.svg","response":0,"trial_type":"image-button-response","trial_index":111,"time_elapsed":767532,"internal_node_id":"0.0-4.0-0.52","subject_id":"613bd3a683a2ac56a4119aa6","study_id":"6197b3f67c2b5cd3b6d9596a","session_id":"619be783818506d0da91adcc","condition":"full-information","relevant_dimensions":["wings","legs"],"bee_group":{"antennae":"X","wings":"1","pattern":"X","legs":"F"},"action":"harvest","summary":"good-harvest","bonus":1.5200000000000014},{"rt":753.3000000119209,"stimulus":"\n                    <p><b>Action: <em>harvest</em></b></p>\n                    <p>This is the bee that you just saw.</p>\n                    <img src=\"bees-with-color/bee-A2SM.svg\" width=\"200\">\n                    <p><span class=\"greenText\"><b>Successful harvest!</b></span><br>Your pay has increased by $0.02. Your bonus pay is now $0.86.</p>\n            ","response":0,"trial_type":"html-button-response","trial_index":112,"time_elapsed":768289,"internal_node_id":"0.0-4.0-1.52","subject_id":"613bd3a683a2ac56a4119aa6","study_id":"6197b3f67c2b5cd3b6d9596a","session_id":"619be783818506d0da91adcc","condition":"full-information","relevant_dimensions":["wings","legs"],"bee_group":{"antennae":"X","wings":"1","pattern":"X","legs":"F"},"bonus":1.5200000000000014},{"rt":8034.199999988079,"stimulus":"bees-with-color/bee-B1SM.svg","response":0,"trial_type":"image-button-response","trial_index":113,"time_elapsed":776326,"internal_node_id":"0.0-4.0-0.53","subject_id":"613bd3a683a2ac56a4119aa6","study_id":"6197b3f67c2b5cd3b6d9596a","session_id":"619be783818506d0da91adcc","condition":"full-information","relevant_dimensions":["wings","legs"],"bee_group":{"antennae":"X","wings":"1","pattern":"X","legs":"F"},"action":"harvest","summary":"good-harvest","bonus":1.5200000000000014},{"rt":767.6999999880791,"stimulus":"\n                    <p><b>Action: <em>harvest</em></b></p>\n                    <p>This is the bee that you just saw.</p>\n                    <img src=\"bees-with-color/bee-B1SM.svg\" width=\"200\">\n                    <p><span class=\"greenText\"><b>Successful harvest!</b></span><br>Your pay has increased by $0.02. Your bonus pay is now $0.88.</p>\n            ","response":0,"trial_type":"html-button-response","trial_index":114,"time_elapsed":777098,"internal_node_id":"0.0-4.0-1.53","subject_id":"613bd3a683a2ac56a4119aa6","study_id":"6197b3f67c2b5cd3b6d9596a","session_id":"619be783818506d0da91adcc","condition":"full-information","relevant_dimensions":["wings","legs"],"bee_group":{"antennae":"X","wings":"1","pattern":"X","legs":"F"},"bonus":1.5200000000000014},{"rt":3732.800000011921,"stimulus":"bees-with-color/bee-A2DF.svg","response":0,"trial_type":"image-button-response","trial_index":115,"time_elapsed":780835,"internal_node_id":"0.0-4.0-0.54","subject_id":"613bd3a683a2ac56a4119aa6","study_id":"6197b3f67c2b5cd3b6d9596a","session_id":"619be783818506d0da91adcc","condition":"full-information","relevant_dimensions":["wings","legs"],"bee_group":{"antennae":"X","wings":"1","pattern":"X","legs":"F"},"action":"harvest","summary":"good-harvest","bonus":1.5200000000000014},{"rt":697.8999999761581,"stimulus":"\n                    <p><b>Action: <em>harvest</em></b></p>\n                    <p>This is the bee that you just saw.</p>\n                    <img src=\"bees-with-color/bee-A2DF.svg\" width=\"200\">\n                    <p><span class=\"greenText\"><b>Successful harvest!</b></span><br>Your pay has increased by $0.02. Your bonus pay is now $0.90.</p>\n            ","response":0,"trial_type":"html-button-response","trial_index":116,"time_elapsed":781536,"internal_node_id":"0.0-4.0-1.54","subject_id":"613bd3a683a2ac56a4119aa6","study_id":"6197b3f67c2b5cd3b6d9596a","session_id":"619be783818506d0da91adcc","condition":"full-information","relevant_dimensions":["wings","legs"],"bee_group":{"antennae":"X","wings":"1","pattern":"X","legs":"F"},"bonus":1.5200000000000014},{"rt":4890.400000035763,"stimulus":"bees-with-color/bee-B1DM.svg","response":0,"trial_type":"image-button-response","trial_index":117,"time_elapsed":786430,"internal_node_id":"0.0-4.0-0.55","subject_id":"613bd3a683a2ac56a4119aa6","study_id":"6197b3f67c2b5cd3b6d9596a","session_id":"619be783818506d0da91adcc","condition":"full-information","relevant_dimensions":["wings","legs"],"bee_group":{"antennae":"X","wings":"1","pattern":"X","legs":"F"},"action":"harvest","summary":"good-harvest","bonus":1.5200000000000014},{"rt":904.6000000238419,"stimulus":"\n                    <p><b>Action: <em>harvest</em></b></p>\n                    <p>This is the bee that you just saw.</p>\n                    <img src=\"bees-with-color/bee-B1DM.svg\" width=\"200\">\n                    <p><span class=\"greenText\"><b>Successful harvest!</b></span><br>Your pay has increased by $0.02. Your bonus pay is now $0.92.</p>\n            ","response":0,"trial_type":"html-button-response","trial_index":118,"time_elapsed":787337,"internal_node_id":"0.0-4.0-1.55","subject_id":"613bd3a683a2ac56a4119aa6","study_id":"6197b3f67c2b5cd3b6d9596a","session_id":"619be783818506d0da91adcc","condition":"full-information","relevant_dimensions":["wings","legs"],"bee_group":{"antennae":"X","wings":"1","pattern":"X","legs":"F"},"bonus":1.5200000000000014},{"rt":7959.699999988079,"stimulus":"bees-with-color/bee-A1SM.svg","response":0,"trial_type":"image-button-response","trial_index":119,"time_elapsed":795299,"internal_node_id":"0.0-4.0-0.56","subject_id":"613bd3a683a2ac56a4119aa6","study_id":"6197b3f67c2b5cd3b6d9596a","session_id":"619be783818506d0da91adcc","condition":"full-information","relevant_dimensions":["wings","legs"],"bee_group":{"antennae":"X","wings":"1","pattern":"X","legs":"F"},"action":"harvest","summary":"good-harvest","bonus":1.5200000000000014},{"rt":705.4000000357628,"stimulus":"\n                    <p><b>Action: <em>harvest</em></b></p>\n                    <p>This is the bee that you just saw.</p>\n                    <img src=\"bees-with-color/bee-A1SM.svg\" width=\"200\">\n                    <p><span class=\"greenText\"><b>Successful harvest!</b></span><br>Your pay has increased by $0.02. Your bonus pay is now $0.94.</p>\n            ","response":0,"trial_type":"html-button-response","trial_index":120,"time_elapsed":796008,"internal_node_id":"0.0-4.0-1.56","subject_id":"613bd3a683a2ac56a4119aa6","study_id":"6197b3f67c2b5cd3b6d9596a","session_id":"619be783818506d0da91adcc","condition":"full-information","relevant_dimensions":["wings","legs"],"bee_group":{"antennae":"X","wings":"1","pattern":"X","legs":"F"},"bonus":1.5200000000000014},{"rt":8067.800000011921,"stimulus":"bees-with-color/bee-B2SF.svg","response":0,"trial_type":"image-button-response","trial_index":121,"time_elapsed":804079,"internal_node_id":"0.0-4.0-0.57","subject_id":"613bd3a683a2ac56a4119aa6","study_id":"6197b3f67c2b5cd3b6d9596a","session_id":"619be783818506d0da91adcc","condition":"full-information","relevant_dimensions":["wings","legs"],"bee_group":{"antennae":"X","wings":"1","pattern":"X","legs":"F"},"action":"harvest","summary":"good-harvest","bonus":1.5200000000000014},{"rt":853.3999999761581,"stimulus":"\n                    <p><b>Action: <em>harvest</em></b></p>\n                    <p>This is the bee that you just saw.</p>\n                    <img src=\"bees-with-color/bee-B2SF.svg\" width=\"200\">\n                    <p><span class=\"greenText\"><b>Successful harvest!</b></span><br>Your pay has increased by $0.02. Your bonus pay is now $0.96.</p>\n            ","response":0,"trial_type":"html-button-response","trial_index":122,"time_elapsed":804936,"internal_node_id":"0.0-4.0-1.57","subject_id":"613bd3a683a2ac56a4119aa6","study_id":"6197b3f67c2b5cd3b6d9596a","session_id":"619be783818506d0da91adcc","condition":"full-information","relevant_dimensions":["wings","legs"],"bee_group":{"antennae":"X","wings":"1","pattern":"X","legs":"F"},"bonus":1.5200000000000014},{"rt":1187.5,"stimulus":"bees-with-color/bee-A2SF.svg","response":0,"trial_type":"image-button-response","trial_index":123,"time_elapsed":806127,"internal_node_id":"0.0-4.0-0.58","subject_id":"613bd3a683a2ac56a4119aa6","study_id":"6197b3f67c2b5cd3b6d9596a","session_id":"619be783818506d0da91adcc","condition":"full-information","relevant_dimensions":["wings","legs"],"bee_group":{"antennae":"X","wings":"1","pattern":"X","legs":"F"},"action":"harvest","summary":"good-harvest","bonus":1.5200000000000014},{"rt":741.6000000238419,"stimulus":"\n                    <p><b>Action: <em>harvest</em></b></p>\n                    <p>This is the bee that you just saw.</p>\n                    <img src=\"bees-with-color/bee-A2SF.svg\" width=\"200\">\n                    <p><span class=\"greenText\"><b>Successful harvest!</b></span><br>Your pay has increased by $0.02. Your bonus pay is now $0.98.</p>\n            ","response":0,"trial_type":"html-button-response","trial_index":124,"time_elapsed":806871,"internal_node_id":"0.0-4.0-1.58","subject_id":"613bd3a683a2ac56a4119aa6","study_id":"6197b3f67c2b5cd3b6d9596a","session_id":"619be783818506d0da91adcc","condition":"full-information","relevant_dimensions":["wings","legs"],"bee_group":{"antennae":"X","wings":"1","pattern":"X","legs":"F"},"bonus":1.5200000000000014},{"rt":5690.299999952316,"stimulus":"bees-with-color/bee-A1SF.svg","response":1,"trial_type":"image-button-response","trial_index":125,"time_elapsed":812565,"internal_node_id":"0.0-4.0-0.59","subject_id":"613bd3a683a2ac56a4119aa6","study_id":"6197b3f67c2b5cd3b6d9596a","session_id":"619be783818506d0da91adcc","condition":"full-information","relevant_dimensions":["wings","legs"],"bee_group":{"antennae":"X","wings":"1","pattern":"X","legs":"F"},"action":"avoid","summary":"good-avoid","bonus":1.5200000000000014},{"rt":1119.4000000357628,"stimulus":"\n                    <p><b>Action: <em>avoid</em></b></p>\n                    <p>This is the bee that you just saw.</p>\n                    <img src=\"bees-with-color/bee-A1SF.svg\" width=\"200\">\n                    <p><span class=\"greenText\">Good choice!</span>  This bee would have stung you.<br>Your bonus pay is unchanged, and remains at $0.98.</p>\n            ","response":0,"trial_type":"html-button-response","trial_index":126,"time_elapsed":813687,"internal_node_id":"0.0-4.0-1.59","subject_id":"613bd3a683a2ac56a4119aa6","study_id":"6197b3f67c2b5cd3b6d9596a","session_id":"619be783818506d0da91adcc","condition":"full-information","relevant_dimensions":["wings","legs"],"bee_group":{"antennae":"X","wings":"1","pattern":"X","legs":"F"},"bonus":1.5200000000000014},{"rt":1335,"stimulus":"bees-with-color/bee-A2DM.svg","response":0,"trial_type":"image-button-response","trial_index":127,"time_elapsed":815025,"internal_node_id":"0.0-4.0-0.60","subject_id":"613bd3a683a2ac56a4119aa6","study_id":"6197b3f67c2b5cd3b6d9596a","session_id":"619be783818506d0da91adcc","condition":"full-information","relevant_dimensions":["wings","legs"],"bee_group":{"antennae":"X","wings":"1","pattern":"X","legs":"F"},"action":"harvest","summary":"good-harvest","bonus":1.5200000000000014},{"rt":678.3000000119209,"stimulus":"\n                    <p><b>Action: <em>harvest</em></b></p>\n                    <p>This is the bee that you just saw.</p>\n                    <img src=\"bees-with-color/bee-A2DM.svg\" width=\"200\">\n                    <p><span class=\"greenText\"><b>Successful harvest!</b></span><br>Your pay has increased by $0.02. Your bonus pay is now $1.00.</p>\n            ","response":0,"trial_type":"html-button-response","trial_index":128,"time_elapsed":815706,"internal_node_id":"0.0-4.0-1.60","subject_id":"613bd3a683a2ac56a4119aa6","study_id":"6197b3f67c2b5cd3b6d9596a","session_id":"619be783818506d0da91adcc","condition":"full-information","relevant_dimensions":["wings","legs"],"bee_group":{"antennae":"X","wings":"1","pattern":"X","legs":"F"},"bonus":1.5200000000000014},{"rt":1181.9000000357628,"stimulus":"bees-with-color/bee-B2DM.svg","response":0,"trial_type":"image-button-response","trial_index":129,"time_elapsed":816891,"internal_node_id":"0.0-4.0-0.61","subject_id":"613bd3a683a2ac56a4119aa6","study_id":"6197b3f67c2b5cd3b6d9596a","session_id":"619be783818506d0da91adcc","condition":"full-information","relevant_dimensions":["wings","legs"],"bee_group":{"antennae":"X","wings":"1","pattern":"X","legs":"F"},"action":"harvest","summary":"good-harvest","bonus":1.5200000000000014},{"rt":769.5,"stimulus":"\n                    <p><b>Action: <em>harvest</em></b></p>\n                    <p>This is the bee that you just saw.</p>\n                    <img src=\"bees-with-color/bee-B2DM.svg\" width=\"200\">\n                    <p><span class=\"greenText\"><b>Successful harvest!</b></span><br>Your pay has increased by $0.02. Your bonus pay is now $1.02.</p>\n            ","response":0,"trial_type":"html-button-response","trial_index":130,"time_elapsed":817664,"internal_node_id":"0.0-4.0-1.61","subject_id":"613bd3a683a2ac56a4119aa6","study_id":"6197b3f67c2b5cd3b6d9596a","session_id":"619be783818506d0da91adcc","condition":"full-information","relevant_dimensions":["wings","legs"],"bee_group":{"antennae":"X","wings":"1","pattern":"X","legs":"F"},"bonus":1.5200000000000014},{"rt":5188.300000011921,"stimulus":"bees-with-color/bee-B1SF.svg","response":1,"trial_type":"image-button-response","trial_index":131,"time_elapsed":822855,"internal_node_id":"0.0-4.0-0.62","subject_id":"613bd3a683a2ac56a4119aa6","study_id":"6197b3f67c2b5cd3b6d9596a","session_id":"619be783818506d0da91adcc","condition":"full-information","relevant_dimensions":["wings","legs"],"bee_group":{"antennae":"X","wings":"1","pattern":"X","legs":"F"},"action":"avoid","summary":"good-avoid","bonus":1.5200000000000014},{"rt":670.3000000119209,"stimulus":"\n                    <p><b>Action: <em>avoid</em></b></p>\n                    <p>This is the bee that you just saw.</p>\n                    <img src=\"bees-with-color/bee-B1SF.svg\" width=\"200\">\n                    <p><span class=\"greenText\">Good choice!</span>  This bee would have stung you.<br>Your bonus pay is unchanged, and remains at $1.02.</p>\n            ","response":0,"trial_type":"html-button-response","trial_index":132,"time_elapsed":823528,"internal_node_id":"0.0-4.0-1.62","subject_id":"613bd3a683a2ac56a4119aa6","study_id":"6197b3f67c2b5cd3b6d9596a","session_id":"619be783818506d0da91adcc","condition":"full-information","relevant_dimensions":["wings","legs"],"bee_group":{"antennae":"X","wings":"1","pattern":"X","legs":"F"},"bonus":1.5200000000000014},{"rt":1716.5,"stimulus":"bees-with-color/bee-B2SM.svg","response":0,"trial_type":"image-button-response","trial_index":133,"time_elapsed":825248,"internal_node_id":"0.0-4.0-0.63","subject_id":"613bd3a683a2ac56a4119aa6","study_id":"6197b3f67c2b5cd3b6d9596a","session_id":"619be783818506d0da91adcc","condition":"full-information","relevant_dimensions":["wings","legs"],"bee_group":{"antennae":"X","wings":"1","pattern":"X","legs":"F"},"action":"harvest","summary":"good-harvest","bonus":1.5200000000000014},{"rt":663.1000000238419,"stimulus":"\n                    <p><b>Action: <em>harvest</em></b></p>\n                    <p>This is the bee that you just saw.</p>\n                    <img src=\"bees-with-color/bee-B2SM.svg\" width=\"200\">\n                    <p><span class=\"greenText\"><b>Successful harvest!</b></span><br>Your pay has increased by $0.02. Your bonus pay is now $1.04.</p>\n            ","response":0,"trial_type":"html-button-response","trial_index":134,"time_elapsed":825914,"internal_node_id":"0.0-4.0-1.63","subject_id":"613bd3a683a2ac56a4119aa6","study_id":"6197b3f67c2b5cd3b6d9596a","session_id":"619be783818506d0da91adcc","condition":"full-information","relevant_dimensions":["wings","legs"],"bee_group":{"antennae":"X","wings":"1","pattern":"X","legs":"F"},"bonus":1.5200000000000014},{"rt":15259.599999964237,"stimulus":"You have completed the first part of this experiment.<br><br>You will now begin a shorter second part, in which you will receive no feedback.<br>The same rules regarding bonus pay apply.<br><br>Press any key to begin.","response":" ","trial_type":"html-keyboard-response","trial_index":135,"time_elapsed":841267,"internal_node_id":"0.0-5.0","subject_id":"613bd3a683a2ac56a4119aa6","study_id":"6197b3f67c2b5cd3b6d9596a","session_id":"619be783818506d0da91adcc","condition":"full-information","relevant_dimensions":["wings","legs"],"bee_group":{"antennae":"X","wings":"1","pattern":"X","legs":"F"},"bonus":1.5200000000000014},{"rt":2062,"stimulus":"bees-with-color/bee-B2DF.svg","response":0,"trial_type":"image-button-response","trial_index":136,"time_elapsed":843383,"internal_node_id":"0.0-6.0-0.0","subject_id":"613bd3a683a2ac56a4119aa6","study_id":"6197b3f67c2b5cd3b6d9596a","session_id":"619be783818506d0da91adcc","condition":"full-information","relevant_dimensions":["wings","legs"],"bee_group":{"antennae":"X","wings":"1","pattern":"X","legs":"F"},"bonus":1.5200000000000014},{"rt":1637.800000011921,"stimulus":"bees-with-color/bee-A2SM.svg","response":0,"trial_type":"image-button-response","trial_index":137,"time_elapsed":845026,"internal_node_id":"0.0-6.0-0.1","subject_id":"613bd3a683a2ac56a4119aa6","study_id":"6197b3f67c2b5cd3b6d9596a","session_id":"619be783818506d0da91adcc","condition":"full-information","relevant_dimensions":["wings","legs"],"bee_group":{"antennae":"X","wings":"1","pattern":"X","legs":"F"},"bonus":1.5200000000000014},{"rt":1249,"stimulus":"bees-with-color/bee-B2SM.svg","response":0,"trial_type":"image-button-response","trial_index":138,"time_elapsed":846280,"internal_node_id":"0.0-6.0-0.2","subject_id":"613bd3a683a2ac56a4119aa6","study_id":"6197b3f67c2b5cd3b6d9596a","session_id":"619be783818506d0da91adcc","condition":"full-information","relevant_dimensions":["wings","legs"],"bee_group":{"antennae":"X","wings":"1","pattern":"X","legs":"F"},"bonus":1.5200000000000014},{"rt":2648.199999988079,"stimulus":"bees-with-color/bee-B1SF.svg","response":1,"trial_type":"image-button-response","trial_index":139,"time_elapsed":848933,"internal_node_id":"0.0-6.0-0.3","subject_id":"613bd3a683a2ac56a4119aa6","study_id":"6197b3f67c2b5cd3b6d9596a","session_id":"619be783818506d0da91adcc","condition":"full-information","relevant_dimensions":["wings","legs"],"bee_group":{"antennae":"X","wings":"1","pattern":"X","legs":"F"},"bonus":1.5200000000000014},{"rt":1589.5999999642372,"stimulus":"bees-with-color/bee-A1SF.svg","response":1,"trial_type":"image-button-response","trial_index":140,"time_elapsed":850527,"internal_node_id":"0.0-6.0-0.4","subject_id":"613bd3a683a2ac56a4119aa6","study_id":"6197b3f67c2b5cd3b6d9596a","session_id":"619be783818506d0da91adcc","condition":"full-information","relevant_dimensions":["wings","legs"],"bee_group":{"antennae":"X","wings":"1","pattern":"X","legs":"F"},"bonus":1.5200000000000014},{"rt":1046,"stimulus":"bees-with-color/bee-B2SF.svg","response":0,"trial_type":"image-button-response","trial_index":141,"time_elapsed":851578,"internal_node_id":"0.0-6.0-0.5","subject_id":"613bd3a683a2ac56a4119aa6","study_id":"6197b3f67c2b5cd3b6d9596a","session_id":"619be783818506d0da91adcc","condition":"full-information","relevant_dimensions":["wings","legs"],"bee_group":{"antennae":"X","wings":"1","pattern":"X","legs":"F"},"bonus":1.5200000000000014},{"rt":3009.099999964237,"stimulus":"bees-with-color/bee-A1DM.svg","response":0,"trial_type":"image-button-response","trial_index":142,"time_elapsed":854591,"internal_node_id":"0.0-6.0-0.6","subject_id":"613bd3a683a2ac56a4119aa6","study_id":"6197b3f67c2b5cd3b6d9596a","session_id":"619be783818506d0da91adcc","condition":"full-information","relevant_dimensions":["wings","legs"],"bee_group":{"antennae":"X","wings":"1","pattern":"X","legs":"F"},"bonus":1.5200000000000014},{"rt":1603.699999988079,"stimulus":"bees-with-color/bee-A2SF.svg","response":0,"trial_type":"image-button-response","trial_index":143,"time_elapsed":856200,"internal_node_id":"0.0-6.0-0.7","subject_id":"613bd3a683a2ac56a4119aa6","study_id":"6197b3f67c2b5cd3b6d9596a","session_id":"619be783818506d0da91adcc","condition":"full-information","relevant_dimensions":["wings","legs"],"bee_group":{"antennae":"X","wings":"1","pattern":"X","legs":"F"},"bonus":1.5200000000000014},{"rt":1223.6000000238419,"stimulus":"bees-with-color/bee-A2DM.svg","response":0,"trial_type":"image-button-response","trial_index":144,"time_elapsed":857428,"internal_node_id":"0.0-6.0-0.8","subject_id":"613bd3a683a2ac56a4119aa6","study_id":"6197b3f67c2b5cd3b6d9596a","session_id":"619be783818506d0da91adcc","condition":"full-information","relevant_dimensions":["wings","legs"],"bee_group":{"antennae":"X","wings":"1","pattern":"X","legs":"F"},"bonus":1.5200000000000014},{"rt":4291.099999964237,"stimulus":"bees-with-color/bee-B1DF.svg","response":1,"trial_type":"image-button-response","trial_index":145,"time_elapsed":861723,"internal_node_id":"0.0-6.0-0.9","subject_id":"613bd3a683a2ac56a4119aa6","study_id":"6197b3f67c2b5cd3b6d9596a","session_id":"619be783818506d0da91adcc","condition":"full-information","relevant_dimensions":["wings","legs"],"bee_group":{"antennae":"X","wings":"1","pattern":"X","legs":"F"},"bonus":1.5200000000000014},{"rt":4931.800000011921,"stimulus":"bees-with-color/bee-A1DF.svg","response":1,"trial_type":"image-button-response","trial_index":146,"time_elapsed":866660,"internal_node_id":"0.0-6.0-0.10","subject_id":"613bd3a683a2ac56a4119aa6","study_id":"6197b3f67c2b5cd3b6d9596a","session_id":"619be783818506d0da91adcc","condition":"full-information","relevant_dimensions":["wings","legs"],"bee_group":{"antennae":"X","wings":"1","pattern":"X","legs":"F"},"bonus":1.5200000000000014},{"rt":2930,"stimulus":"bees-with-color/bee-B1DM.svg","response":0,"trial_type":"image-button-response","trial_index":147,"time_elapsed":869594,"internal_node_id":"0.0-6.0-0.11","subject_id":"613bd3a683a2ac56a4119aa6","study_id":"6197b3f67c2b5cd3b6d9596a","session_id":"619be783818506d0da91adcc","condition":"full-information","relevant_dimensions":["wings","legs"],"bee_group":{"antennae":"X","wings":"1","pattern":"X","legs":"F"},"bonus":1.5200000000000014},{"rt":1046,"stimulus":"bees-with-color/bee-B1SM.svg","response":0,"trial_type":"image-button-response","trial_index":148,"time_elapsed":870645,"internal_node_id":"0.0-6.0-0.12","subject_id":"613bd3a683a2ac56a4119aa6","study_id":"6197b3f67c2b5cd3b6d9596a","session_id":"619be783818506d0da91adcc","condition":"full-information","relevant_dimensions":["wings","legs"],"bee_group":{"antennae":"X","wings":"1","pattern":"X","legs":"F"},"bonus":1.5200000000000014},{"rt":893.3000000119209,"stimulus":"bees-with-color/bee-B2DM.svg","response":0,"trial_type":"image-button-response","trial_index":149,"time_elapsed":871542,"internal_node_id":"0.0-6.0-0.13","subject_id":"613bd3a683a2ac56a4119aa6","study_id":"6197b3f67c2b5cd3b6d9596a","session_id":"619be783818506d0da91adcc","condition":"full-information","relevant_dimensions":["wings","legs"],"bee_group":{"antennae":"X","wings":"1","pattern":"X","legs":"F"},"bonus":1.5200000000000014},{"rt":1771.7999999523163,"stimulus":"bees-with-color/bee-A2DF.svg","response":0,"trial_type":"image-button-response","trial_index":150,"time_elapsed":873318,"internal_node_id":"0.0-6.0-0.14","subject_id":"613bd3a683a2ac56a4119aa6","study_id":"6197b3f67c2b5cd3b6d9596a","session_id":"619be783818506d0da91adcc","condition":"full-information","relevant_dimensions":["wings","legs"],"bee_group":{"antennae":"X","wings":"1","pattern":"X","legs":"F"},"bonus":1.5200000000000014},{"rt":2474.5,"stimulus":"bees-with-color/bee-A1SM.svg","response":0,"trial_type":"image-button-response","trial_index":151,"time_elapsed":875797,"internal_node_id":"0.0-6.0-0.15","subject_id":"613bd3a683a2ac56a4119aa6","study_id":"6197b3f67c2b5cd3b6d9596a","session_id":"619be783818506d0da91adcc","condition":"full-information","relevant_dimensions":["wings","legs"],"bee_group":{"antennae":"X","wings":"1","pattern":"X","legs":"F"},"bonus":1.5200000000000014},{"rt":4302.300000011921,"stimulus":"bees-with-color/bee-B1SM.svg","response":0,"trial_type":"image-button-response","trial_index":152,"time_elapsed":880103,"internal_node_id":"0.0-6.0-0.16","subject_id":"613bd3a683a2ac56a4119aa6","study_id":"6197b3f67c2b5cd3b6d9596a","session_id":"619be783818506d0da91adcc","condition":"full-information","relevant_dimensions":["wings","legs"],"bee_group":{"antennae":"X","wings":"1","pattern":"X","legs":"F"},"bonus":1.5200000000000014},{"rt":840.4000000357628,"stimulus":"bees-with-color/bee-B2DM.svg","response":0,"trial_type":"image-button-response","trial_index":153,"time_elapsed":880948,"internal_node_id":"0.0-6.0-0.17","subject_id":"613bd3a683a2ac56a4119aa6","study_id":"6197b3f67c2b5cd3b6d9596a","session_id":"619be783818506d0da91adcc","condition":"full-information","relevant_dimensions":["wings","legs"],"bee_group":{"antennae":"X","wings":"1","pattern":"X","legs":"F"},"bonus":1.5200000000000014},{"rt":7371.300000011921,"stimulus":"bees-with-color/bee-A1DF.svg","response":1,"trial_type":"image-button-response","trial_index":154,"time_elapsed":888322,"internal_node_id":"0.0-6.0-0.18","subject_id":"613bd3a683a2ac56a4119aa6","study_id":"6197b3f67c2b5cd3b6d9596a","session_id":"619be783818506d0da91adcc","condition":"full-information","relevant_dimensions":["wings","legs"],"bee_group":{"antennae":"X","wings":"1","pattern":"X","legs":"F"},"bonus":1.5200000000000014},{"rt":2298.800000011921,"stimulus":"bees-with-color/bee-A1SM.svg","response":0,"trial_type":"image-button-response","trial_index":155,"time_elapsed":890625,"internal_node_id":"0.0-6.0-0.19","subject_id":"613bd3a683a2ac56a4119aa6","study_id":"6197b3f67c2b5cd3b6d9596a","session_id":"619be783818506d0da91adcc","condition":"full-information","relevant_dimensions":["wings","legs"],"bee_group":{"antennae":"X","wings":"1","pattern":"X","legs":"F"},"bonus":1.5200000000000014},{"rt":896.5,"stimulus":"bees-with-color/bee-B1DM.svg","response":0,"trial_type":"image-button-response","trial_index":156,"time_elapsed":891525,"internal_node_id":"0.0-6.0-0.20","subject_id":"613bd3a683a2ac56a4119aa6","study_id":"6197b3f67c2b5cd3b6d9596a","session_id":"619be783818506d0da91adcc","condition":"full-information","relevant_dimensions":["wings","legs"],"bee_group":{"antennae":"X","wings":"1","pattern":"X","legs":"F"},"bonus":1.5200000000000014},{"rt":1381.6000000238419,"stimulus":"bees-with-color/bee-B2DF.svg","response":0,"trial_type":"image-button-response","trial_index":157,"time_elapsed":892910,"internal_node_id":"0.0-6.0-0.21","subject_id":"613bd3a683a2ac56a4119aa6","study_id":"6197b3f67c2b5cd3b6d9596a","session_id":"619be783818506d0da91adcc","condition":"full-information","relevant_dimensions":["wings","legs"],"bee_group":{"antennae":"X","wings":"1","pattern":"X","legs":"F"},"bonus":1.5200000000000014},{"rt":4464.5,"stimulus":"bees-with-color/bee-B1SF.svg","response":1,"trial_type":"image-button-response","t