[{"success":true,"trial_type":"fullscreen","trial_index":0,"time_elapsed":4192,"internal_node_id":"0.0-0.0","subject_id":"5b1f92bdc9d3cb0001107e75","study_id":"6197b3f67c2b5cd3b6d9596a","session_id":"619be31fef6b1a43f15af213","condition":"contingent","relevant_dimensions":["antennae","pattern"],"bee_group":{"antennae":"A","wings":"X","pattern":"S","legs":"X"},"bonus":1.1000000000000012},{"success":true,"timeout":false,"failed_images":[],"failed_audio":[],"failed_video":[],"trial_type":"preload","trial_index":1,"time_elapsed":5709,"internal_node_id":"0.0-1.0","subject_id":"5b1f92bdc9d3cb0001107e75","study_id":"6197b3f67c2b5cd3b6d9596a","session_id":"619be31fef6b1a43f15af213","condition":"contingent","relevant_dimensions":["antennae","pattern"],"bee_group":{"antennae":"A","wings":"X","pattern":"S","legs":"X"},"bonus":1.1000000000000012},{"rt":8749.399999976158,"stimulus":"Welcome! Press any key to begin.","response":"enter","trial_type":"html-keyboard-response","trial_index":2,"time_elapsed":14460,"internal_node_id":"0.0-2.0","subject_id":"5b1f92bdc9d3cb0001107e75","study_id":"6197b3f67c2b5cd3b6d9596a","session_id":"619be31fef6b1a43f15af213","condition":"contingent","relevant_dimensions":["antennae","pattern"],"bee_group":{"antennae":"A","wings":"X","pattern":"S","legs":"X"},"bonus":1.1000000000000012},{"view_history":[{"page_index":0,"viewing_time":6839.399999976158},{"page_index":1,"viewing_time":49388},{"page_index":2,"viewing_time":15787.600000023842},{"page_index":3,"viewing_time":26479.399999976158},{"page_index":4,"viewing_time":10056.400000095367},{"page_index":5,"viewing_time":9233.799999952316},{"page_index":6,"viewing_time":18025.899999976158},{"page_index":7,"viewing_time":7275.800000071526},{"page_index":8,"viewing_time":6512.099999904633},{"page_index":9,"viewing_time":4219.900000095367},{"page_index":10,"viewing_time":4536.099999904633},{"page_index":11,"viewing_time":21533.700000047684},{"page_index":12,"viewing_time":16026.200000047684},{"page_index":13,"viewing_time":9961.799999952316},{"page_index":14,"viewing_time":4585.899999976158}],"rt":210462.60000002384,"trial_type":"instructions","trial_index":3,"time_elapsed":224923,"internal_node_id":"0.0-3.0-0.0","subject_id":"5b1f92bdc9d3cb0001107e75","study_id":"6197b3f67c2b5cd3b6d9596a","session_id":"619be31fef6b1a43f15af213","condition":"contingent","relevant_dimensions":["antennae","pattern"],"bee_group":{"antennae":"A","wings":"X","pattern":"S","legs":"X"},"bonus":1.1000000000000012},{"rt":15217.300000071526,"response":{"Q0":["Two or six legs","Stripes or spots on body","Single or double wings","Antennae or no antennae"]},"question_order":[0],"trial_type":"survey-multi-select","trial_index":4,"time_elapsed":240146,"internal_node_id":"0.0-3.0-1.0","subject_id":"5b1f92bdc9d3cb0001107e75","study_id":"6197b3f67c2b5cd3b6d9596a","session_id":"619be31fef6b1a43f15af213","condition":"contingent","relevant_dimensions":["antennae","pattern"],"bee_group":{"antennae":"A","wings":"X","pattern":"S","legs":"X"},"correct":true,"bonus":1.1000000000000012},{"rt":26370,"response":{"Q1":"No.","Q2":"Based on the four features of the bee.","Q3":"You do not learn if it was friendly or dangerous, and do not alter your bonus."},"question_order":[0,1,2],"trial_type":"survey-multi-choice","trial_index":5,"time_elapsed":266521,"internal_node_id":"0.0-3.0-2.0","subject_id":"5b1f92bdc9d3cb0001107e75","study_id":"6197b3f67c2b5cd3b6d9596a","session_id":"619be31fef6b1a43f15af213","condition":"contingent","relevant_dimensions":["antennae","pattern"],"bee_group":{"antennae":"A","wings":"X","pattern":"S","legs":"X"},"correct":true,"bonus":1.1000000000000012},{"rt":3738.7000000476837,"stimulus":"<p>Congrats, you got everything right<br>When you're ready, click the button below to continue to the experiment.</p>","response":0,"trial_type":"html-button-response","trial_index":6,"time_elapsed":270262,"internal_node_id":"0.0-3.0-3.0","subject_id":"5b1f92bdc9d3cb0001107e75","study_id":"6197b3f67c2b5cd3b6d9596a","session_id":"619be31fef6b1a43f15af213","condition":"contingent","relevant_dimensions":["antennae","pattern"],"bee_group":{"antennae":"A","wings":"X","pattern":"S","legs":"X"},"bonus":1.1000000000000012},{"rt":7721.799999952316,"stimulus":"bees-with-color/bee-B1SM.svg","response":0,"trial_type":"image-button-response","trial_index":7,"time_elapsed":277988,"internal_node_id":"0.0-4.0-0.0","subject_id":"5b1f92bdc9d3cb0001107e75","study_id":"6197b3f67c2b5cd3b6d9596a","session_id":"619be31fef6b1a43f15af213","condition":"contingent","relevant_dimensions":["antennae","pattern"],"bee_group":{"antennae":"A","wings":"X","pattern":"S","legs":"X"},"action":"harvest","summary":"good-harvest","bonus":1.1000000000000012},{"rt":6583.700000047684,"stimulus":"\n                    <p><b>Action: <em>harvest</em></b></p>\n                    <p>This is the bee that you just saw.</p>\n                    <img src=\"bees-with-color/bee-B1SM.svg\" width=\"200\">\n                    <p><span class=\"greenText\"><b>Successful harvest!</b></span><br>Your pay has increased by $0.02. Your bonus pay is now $0.56.</p>\n            ","response":0,"trial_type":"html-button-response","trial_index":8,"time_elapsed":284576,"internal_node_id":"0.0-4.0-1.0","subject_id":"5b1f92bdc9d3cb0001107e75","study_id":"6197b3f67c2b5cd3b6d9596a","session_id":"619be31fef6b1a43f15af213","condition":"contingent","relevant_dimensions":["antennae","pattern"],"bee_group":{"antennae":"A","wings":"X","pattern":"S","legs":"X"},"bonus":1.1000000000000012},{"rt":2926.600000023842,"stimulus":"bees-with-color/bee-A2DF.svg","response":0,"trial_type":"image-button-response","trial_index":9,"time_elapsed":287506,"internal_node_id":"0.0-4.0-0.1","subject_id":"5b1f92bdc9d3cb0001107e75","study_id":"6197b3f67c2b5cd3b6d9596a","session_id":"619be31fef6b1a43f15af213","condition":"contingent","relevant_dimensions":["antennae","pattern"],"bee_group":{"antennae":"A","wings":"X","pattern":"S","legs":"X"},"action":"harvest","summary":"good-harvest","bonus":1.1000000000000012},{"rt":7049,"stimulus":"\n                    <p><b>Action: <em>harvest</em></b></p>\n                    <p>This is the bee that you just saw.</p>\n                    <img src=\"bees-with-color/bee-A2DF.svg\" width=\"200\">\n                    <p><span class=\"greenText\"><b>Successful harvest!</b></span><br>Your pay has increased by $0.02. Your bonus pay is now $0.58.</p>\n            ","response":0,"trial_type":"html-button-response","trial_index":10,"time_elapsed":294558,"internal_node_id":"0.0-4.0-1.1","subject_id":"5b1f92bdc9d3cb0001107e75","study_id":"6197b3f67c2b5cd3b6d9596a","session_id":"619be31fef6b1a43f15af213","condition":"contingent","relevant_dimensions":["antennae","pattern"],"bee_group":{"antennae":"A","wings":"X","pattern":"S","legs":"X"},"bonus":1.1000000000000012},{"rt":4308.799999952316,"stimulus":"bees-with-color/bee-B2DF.svg","response":0,"trial_type":"image-button-response","trial_index":11,"time_elapsed":298870,"internal_node_id":"0.0-4.0-0.2","subject_id":"5b1f92bdc9d3cb0001107e75","study_id":"6197b3f67c2b5cd3b6d9596a","session_id":"619be31fef6b1a43f15af213","condition":"contingent","relevant_dimensions":["antennae","pattern"],"bee_group":{"antennae":"A","wings":"X","pattern":"S","legs":"X"},"action":"harvest","summary":"good-harvest","bonus":1.1000000000000012},{"rt":4653.600000023842,"stimulus":"\n                    <p><b>Action: <em>harvest</em></b></p>\n                    <p>This is the bee that you just saw.</p>\n                    <img src=\"bees-with-color/bee-B2DF.svg\" width=\"200\">\n                    <p><span class=\"greenText\"><b>Successful harvest!</b></span><br>Your pay has increased by $0.02. Your bonus pay is now $0.60.</p>\n            ","response":0,"trial_type":"html-button-response","trial_index":12,"time_elapsed":303526,"internal_node_id":"0.0-4.0-1.2","subject_id":"5b1f92bdc9d3cb0001107e75","study_id":"6197b3f67c2b5cd3b6d9596a","session_id":"619be31fef6b1a43f15af213","condition":"contingent","relevant_dimensions":["antennae","pattern"],"bee_group":{"antennae":"A","wings":"X","pattern":"S","legs":"X"},"bonus":1.1000000000000012},{"rt":4369.199999928474,"stimulus":"bees-with-color/bee-A1DM.svg","response":0,"trial_type":"image-button-response","trial_index":13,"time_elapsed":307898,"internal_node_id":"0.0-4.0-0.3","subject_id":"5b1f92bdc9d3cb0001107e75","study_id":"6197b3f67c2b5cd3b6d9596a","session_id":"619be31fef6b1a43f15af213","condition":"contingent","relevant_dimensions":["antennae","pattern"],"bee_group":{"antennae":"A","wings":"X","pattern":"S","legs":"X"},"action":"harvest","summary":"good-harvest","bonus":1.1000000000000012},{"rt":4009.2999999523163,"stimulus":"\n                    <p><b>Action: <em>harvest</em></b></p>\n                    <p>This is the bee that you just saw.</p>\n                    <img src=\"bees-with-color/bee-A1DM.svg\" width=\"200\">\n                    <p><span class=\"greenText\"><b>Successful harvest!</b></span><br>Your pay has increased by $0.02. Your bonus pay is now $0.62.</p>\n            ","response":0,"trial_type":"html-button-response","trial_index":14,"time_elapsed":311909,"internal_node_id":"0.0-4.0-1.3","subject_id":"5b1f92bdc9d3cb0001107e75","study_id":"6197b3f67c2b5cd3b6d9596a","session_id":"619be31fef6b1a43f15af213","condition":"contingent","relevant_dimensions":["antennae","pattern"],"bee_group":{"antennae":"A","wings":"X","pattern":"S","legs":"X"},"bonus":1.1000000000000012},{"rt":1425.1000000238419,"stimulus":"bees-with-color/bee-B2DM.svg","response":0,"trial_type":"image-button-response","trial_index":15,"time_elapsed":313337,"internal_node_id":"0.0-4.0-0.4","subject_id":"5b1f92bdc9d3cb0001107e75","study_id":"6197b3f67c2b5cd3b6d9596a","session_id":"619be31fef6b1a43f15af213","condition":"contingent","relevant_dimensions":["antennae","pattern"],"bee_group":{"antennae":"A","wings":"X","pattern":"S","legs":"X"},"action":"harvest","summary":"good-harvest","bonus":1.1000000000000012},{"rt":3915,"stimulus":"\n                    <p><b>Action: <em>harvest</em></b></p>\n                    <p>This is the bee that you just saw.</p>\n                    <img src=\"bees-with-color/bee-B2DM.svg\" width=\"200\">\n                    <p><span class=\"greenText\"><b>Successful harvest!</b></span><br>Your pay has increased by $0.02. Your bonus pay is now $0.64.</p>\n            ","response":0,"trial_type":"html-button-response","trial_index":16,"time_elapsed":317255,"internal_node_id":"0.0-4.0-1.4","subject_id":"5b1f92bdc9d3cb0001107e75","study_id":"6197b3f67c2b5cd3b6d9596a","session_id":"619be31fef6b1a43f15af213","condition":"contingent","relevant_dimensions":["antennae","pattern"],"bee_group":{"antennae":"A","wings":"X","pattern":"S","legs":"X"},"bonus":1.1000000000000012},{"rt":5051.699999928474,"stimulus":"bees-with-color/bee-A2SF.svg","response":0,"trial_type":"image-button-response","trial_index":17,"time_elapsed":322309,"internal_node_id":"0.0-4.0-0.5","subject_id":"5b1f92bdc9d3cb0001107e75","study_id":"6197b3f67c2b5cd3b6d9596a","session_id":"619be31fef6b1a43f15af213","condition":"contingent","relevant_dimensions":["antennae","pattern"],"bee_group":{"antennae":"A","wings":"X","pattern":"S","legs":"X"},"action":"harvest","summary":"bad-harvest","bonus":1.1000000000000012},{"rt":7584,"stimulus":"\n                    <p><b>Action: <em>harvest</em></b></p>\n                    <p>This is the bee that you just saw.</p>\n                    <img src=\"bees-with-color/bee-A2SF.svg\" width=\"200\">\n                    <p><span class=\"redText\">Bad choice, the bee was angry.</span><br><b>You have been stung!</b><br>Your pay has been decreased by $0.10. Your bonus pay is now $0.54.</p>\n            ","response":0,"trial_type":"html-button-response","trial_index":18,"time_elapsed":329895,"internal_node_id":"0.0-4.0-1.5","subject_id":"5b1f92bdc9d3cb0001107e75","study_id":"6197b3f67c2b5cd3b6d9596a","session_id":"619be31fef6b1a43f15af213","condition":"contingent","relevant_dimensions":["antennae","pattern"],"bee_group":{"antennae":"A","wings":"X","pattern":"S","legs":"X"},"bonus":1.1000000000000012},{"rt":3121.2999999523163,"stimulus":"bees-with-color/bee-A1SF.svg","response":0,"trial_type":"image-button-response","trial_index":19,"time_elapsed":333019,"internal_node_id":"0.0-4.0-0.6","subject_id":"5b1f92bdc9d3cb0001107e75","study_id":"6197b3f67c2b5cd3b6d9596a","session_id":"619be31fef6b1a43f15af213","condition":"contingent","relevant_dimensions":["antennae","pattern"],"bee_group":{"antennae":"A","wings":"X","pattern":"S","legs":"X"},"action":"harvest","summary":"bad-harvest","bonus":1.1000000000000012},{"rt":6017.900000095367,"stimulus":"\n                    <p><b>Action: <em>harvest</em></b></p>\n                    <p>This is the bee that you just saw.</p>\n                    <img src=\"bees-with-color/bee-A1SF.svg\" width=\"200\">\n                    <p><span class=\"redText\">Bad choice, the bee was angry.</span><br><b>You have been stung!</b><br>Your pay has been decreased by $0.10. Your bonus pay is now $0.44.</p>\n            ","response":0,"trial_type":"html-button-response","trial_index":20,"time_elapsed":339039,"internal_node_id":"0.0-4.0-1.6","subject_id":"5b1f92bdc9d3cb0001107e75","study_id":"6197b3f67c2b5cd3b6d9596a","session_id":"619be31fef6b1a43f15af213","condition":"contingent","relevant_dimensions":["antennae","pattern"],"bee_group":{"antennae":"A","wings":"X","pattern":"S","legs":"X"},"bonus":1.1000000000000012},{"rt":1849.7000000476837,"stimulus":"bees-with-color/bee-B2SM.svg","response":0,"trial_type":"image-button-response","trial_index":21,"time_elapsed":340891,"internal_node_id":"0.0-4.0-0.7","subject_id":"5b1f92bdc9d3cb0001107e75","study_id":"6197b3f67c2b5cd3b6d9596a","session_id":"619be31fef6b1a43f15af213","condition":"contingent","relevant_dimensions":["antennae","pattern"],"bee_group":{"antennae":"A","wings":"X","pattern":"S","legs":"X"},"action":"harvest","summary":"good-harvest","bonus":1.1000000000000012},{"rt":2755.2999999523163,"stimulus":"\n                    <p><b>Action: <em>harvest</em></b></p>\n                    <p>This is the bee that you just saw.</p>\n                    <img src=\"bees-with-color/bee-B2SM.svg\" width=\"200\">\n                    <p><span class=\"greenText\"><b>Successful harvest!</b></span><br>Your pay has increased by $0.02. Your bonus pay is now $0.46.</p>\n            ","response":0,"trial_type":"html-button-response","trial_index":22,"time_elapsed":343648,"internal_node_id":"0.0-4.0-1.7","subject_id":"5b1f92bdc9d3cb0001107e75","study_id":"6197b3f67c2b5cd3b6d9596a","session_id":"619be31fef6b1a43f15af213","condition":"contingent","relevant_dimensions":["antennae","pattern"],"bee_group":{"antennae":"A","wings":"X","pattern":"S","legs":"X"},"bonus":1.1000000000000012},{"rt":3825.3000000715256,"stimulus":"bees-with-color/bee-B2SF.svg","response":1,"trial_type":"image-button-response","trial_index":23,"time_elapsed":347477,"internal_node_id":"0.0-4.0-0.8","subject_id":"5b1f92bdc9d3cb0001107e75","study_id":"6197b3f67c2b5cd3b6d9596a","session_id":"619be31fef6b1a43f15af213","condition":"contingent","relevant_dimensions":["antennae","pattern"],"bee_group":{"antennae":"A","wings":"X","pattern":"S","legs":"X"},"action":"avoid","summary":"bad-avoid","bonus":1.1000000000000012},{"rt":2173.600000023842,"stimulus":"\n                    <p><b>Action: <em>avoid</em></b></p>\n                    <p>This is the bee that you just saw.</p>\n                    <img src=\"bees-with-color/bee-B2SF.svg\" width=\"200\">\n                    <p><br>Your bonus pay is unchanged, and remains at $0.46.</p>\n            ","response":0,"trial_type":"html-button-response","trial_index":24,"time_elapsed":349653,"internal_node_id":"0.0-4.0-1.8","subject_id":"5b1f92bdc9d3cb0001107e75","study_id":"6197b3f67c2b5cd3b6d9596a","session_id":"619be31fef6b1a43f15af213","condition":"contingent","relevant_dimensions":["antennae","pattern"],"bee_group":{"antennae":"A","wings":"X","pattern":"S","legs":"X"},"bonus":1.1000000000000012},{"rt":3347.5,"stimulus":"bees-with-color/bee-A1DF.svg","response":0,"trial_type":"image-button-response","trial_index":25,"time_elapsed":353003,"internal_node_id":"0.0-4.0-0.9","subject_id":"5b1f92bdc9d3cb0001107e75","study_id":"6197b3f67c2b5cd3b6d9596a","session_id":"619be31fef6b1a43f15af213","condition":"contingent","relevant_dimensions":["antennae","pattern"],"bee_group":{"antennae":"A","wings":"X","pattern":"S","legs":"X"},"action":"harvest","summary":"good-harvest","bonus":1.1000000000000012},{"rt":2215.8000000715256,"stimulus":"\n                    <p><b>Action: <em>harvest</em></b></p>\n                    <p>This is the bee that you just saw.</p>\n                    <img src=\"bees-with-color/bee-A1DF.svg\" width=\"200\">\n                    <p><span class=\"greenText\"><b>Successful harvest!</b></span><br>Your pay has increased by $0.02. Your bonus pay is now $0.48.</p>\n            ","response":0,"trial_type":"html-button-response","trial_index":26,"time_elapsed":355221,"internal_node_id":"0.0-4.0-1.9","subject_id":"5b1f92bdc9d3cb0001107e75","study_id":"6197b3f67c2b5cd3b6d9596a","session_id":"619be31fef6b1a43f15af213","condition":"contingent","relevant_dimensions":["antennae","pattern"],"bee_group":{"antennae":"A","wings":"X","pattern":"S","legs":"X"},"bonus":1.1000000000000012},{"rt":2454.899999976158,"stimulus":"bees-with-color/bee-B1DF.svg","response":0,"trial_type":"image-button-response","trial_index":27,"time_elapsed":357678,"internal_node_id":"0.0-4.0-0.10","subject_id":"5b1f92bdc9d3cb0001107e75","study_id":"6197b3f67c2b5cd3b6d9596a","session_id":"619be31fef6b1a43f15af213","condition":"contingent","relevant_dimensions":["antennae","pattern"],"bee_group":{"antennae":"A","wings":"X","pattern":"S","legs":"X"},"action":"harvest","summary":"good-harvest","bonus":1.1000000000000012},{"rt":2085.2000000476837,"stimulus":"\n                    <p><b>Action: <em>harvest</em></b></p>\n                    <p>This is the bee that you just saw.</p>\n                    <img src=\"bees-with-color/bee-B1DF.svg\" width=\"200\">\n                    <p><span class=\"greenText\"><b>Successful harvest!</b></span><br>Your pay has increased by $0.02. Your bonus pay is now $0.50.</p>\n            ","response":0,"trial_type":"html-button-response","trial_index":28,"time_elapsed":359766,"internal_node_id":"0.0-4.0-1.10","subject_id":"5b1f92bdc9d3cb0001107e75","study_id":"6197b3f67c2b5cd3b6d9596a","session_id":"619be31fef6b1a43f15af213","condition":"contingent","relevant_dimensions":["antennae","pattern"],"bee_group":{"antennae":"A","wings":"X","pattern":"S","legs":"X"},"bonus":1.1000000000000012},{"rt":3647.5,"stimulus":"bees-with-color/bee-B1DM.svg","response":0,"trial_type":"image-button-response","trial_index":29,"time_elapsed":363416,"internal_node_id":"0.0-4.0-0.11","subject_id":"5b1f92bdc9d3cb0001107e75","study_id":"6197b3f67c2b5cd3b6d9596a","session_id":"619be31fef6b1a43f15af213","condition":"contingent","relevant_dimensions":["antennae","pattern"],"bee_group":{"antennae":"A","wings":"X","pattern":"S","legs":"X"},"action":"harvest","summary":"good-harvest","bonus":1.1000000000000012},{"rt":1547.8000000715256,"stimulus":"\n                    <p><b>Action: <em>harvest</em></b></p>\n                    <p>This is the bee that you just saw.</p>\n                    <img src=\"bees-with-color/bee-B1DM.svg\" width=\"200\">\n                    <p><span class=\"greenText\"><b>Successful harvest!</b></span><br>Your pay has increased by $0.02. Your bonus pay is now $0.52.</p>\n            ","response":0,"trial_type":"html-button-response","trial_index":30,"time_elapsed":364967,"internal_node_id":"0.0-4.0-1.11","subject_id":"5b1f92bdc9d3cb0001107e75","study_id":"6197b3f67c2b5cd3b6d9596a","session_id":"619be31fef6b1a43f15af213","condition":"contingent","relevant_dimensions":["antennae","pattern"],"bee_group":{"antennae":"A","wings":"X","pattern":"S","legs":"X"},"bonus":1.1000000000000012},{"rt":2123.2999999523163,"stimulus":"bees-with-color/bee-A2SM.svg","response":0,"trial_type":"image-button-response","trial_index":31,"time_elapsed":367092,"internal_node_id":"0.0-4.0-0.12","subject_id":"5b1f92bdc9d3cb0001107e75","study_id":"6197b3f67c2b5cd3b6d9596a","session_id":"619be31fef6b1a43f15af213","condition":"contingent","relevant_dimensions":["antennae","pattern"],"bee_group":{"antennae":"A","wings":"X","pattern":"S","legs":"X"},"action":"harvest","summary":"bad-harvest","bonus":1.1000000000000012},{"rt":6371.200000047684,"stimulus":"\n                    <p><b>Action: <em>harvest</em></b></p>\n                    <p>This is the bee that you just saw.</p>\n                    <img src=\"bees-with-color/bee-A2SM.svg\" width=\"200\">\n                    <p><span class=\"redText\">Bad choice, the bee was angry.</span><br><b>You have been stung!</b><br>Your pay has been decreased by $0.10. Your bonus pay is now $0.42.</p>\n            ","response":0,"trial_type":"html-button-response","trial_index":32,"time_elapsed":373467,"internal_node_id":"0.0-4.0-1.12","subject_id":"5b1f92bdc9d3cb0001107e75","study_id":"6197b3f67c2b5cd3b6d9596a","session_id":"619be31fef6b1a43f15af213","condition":"contingent","relevant_dimensions":["antennae","pattern"],"bee_group":{"antennae":"A","wings":"X","pattern":"S","legs":"X"},"bonus":1.1000000000000012},{"rt":1371.7000000476837,"stimulus":"bees-with-color/bee-B1SF.svg","response":0,"trial_type":"image-button-response","trial_index":33,"time_elapsed":374841,"internal_node_id":"0.0-4.0-0.13","subject_id":"5b1f92bdc9d3cb0001107e75","study_id":"6197b3f67c2b5cd3b6d9596a","session_id":"619be31fef6b1a43f15af213","condition":"contingent","relevant_dimensions":["antennae","pattern"],"bee_group":{"antennae":"A","wings":"X","pattern":"S","legs":"X"},"action":"harvest","summary":"good-harvest","bonus":1.1000000000000012},{"rt":1239.6000000238419,"stimulus":"\n                    <p><b>Action: <em>harvest</em></b></p>\n                    <p>This is the bee that you just saw.</p>\n                    <img src=\"bees-with-color/bee-B1SF.svg\" width=\"200\">\n                    <p><span class=\"greenText\"><b>Successful harvest!</b></span><br>Your pay has increased by $0.02. Your bonus pay is now $0.44.</p>\n            ","response":0,"trial_type":"html-button-response","trial_index":34,"time_elapsed":376083,"internal_node_id":"0.0-4.0-1.13","subject_id":"5b1f92bdc9d3cb0001107e75","study_id":"6197b3f67c2b5cd3b6d9596a","session_id":"619be31fef6b1a43f15af213","condition":"contingent","relevant_dimensions":["antennae","pattern"],"bee_group":{"antennae":"A","wings":"X","pattern":"S","legs":"X"},"bonus":1.1000000000000012},{"rt":2815.7999999523163,"stimulus":"bees-with-color/bee-A2DM.svg","response":0,"trial_type":"image-button-response","trial_index":35,"time_elapsed":378901,"internal_node_id":"0.0-4.0-0.14","subject_id":"5b1f92bdc9d3cb0001107e75","study_id":"6197b3f67c2b5cd3b6d9596a","session_id":"619be31fef6b1a43f15af213","condition":"contingent","relevant_dimensions":["antennae","pattern"],"bee_group":{"antennae":"A","wings":"X","pattern":"S","legs":"X"},"action":"harvest","summary":"good-harvest","bonus":1.1000000000000012},{"rt":1873.6000000238419,"stimulus":"\n                    <p><b>Action: <em>harvest</em></b></p>\n                    <p>This is the bee that you just saw.</p>\n                    <img src=\"bees-with-color/bee-A2DM.svg\" width=\"200\">\n                    <p><span class=\"greenText\"><b>Successful harvest!</b></span><br>Your pay has increased by $0.02. Your bonus pay is now $0.46.</p>\n            ","response":0,"trial_type":"html-button-response","trial_index":36,"time_elapsed":380777,"internal_node_id":"0.0-4.0-1.14","subject_id":"5b1f92bdc9d3cb0001107e75","study_id":"6197b3f67c2b5cd3b6d9596a","session_id":"619be31fef6b1a43f15af213","condition":"contingent","relevant_dimensions":["antennae","pattern"],"bee_group":{"antennae":"A","wings":"X","pattern":"S","legs":"X"},"bonus":1.1000000000000012},{"rt":2949.3000000715256,"stimulus":"bees-with-color/bee-A1SM.svg","response":0,"trial_type":"image-button-response","trial_index":37,"time_elapsed":383729,"internal_node_id":"0.0-4.0-0.15","subject_id":"5b1f92bdc9d3cb0001107e75","study_id":"6197b3f67c2b5cd3b6d9596a","session_id":"619be31fef6b1a43f15af213","condition":"contingent","relevant_dimensions":["antennae","pattern"],"bee_group":{"antennae":"A","wings":"X","pattern":"S","legs":"X"},"action":"harvest","summary":"bad-harvest","bonus":1.1000000000000012},{"rt":3097.899999976158,"stimulus":"\n                    <p><b>Action: <em>harvest</em></b></p>\n                    <p>This is the bee that you just saw.</p>\n                    <img src=\"bees-with-color/bee-A1SM.svg\" width=\"200\">\n                    <p><span class=\"redText\">Bad choice, the bee was angry.</span><br><b>You have been stung!</b><br>Your pay has been decreased by $0.10. Your bonus pay is now $0.36.</p>\n            ","response":0,"trial_type":"html-button-response","trial_index":38,"time_elapsed":386829,"internal_node_id":"0.0-4.0-1.15","subject_id":"5b1f92bdc9d3cb0001107e75","study_id":"6197b3f67c2b5cd3b6d9596a","session_id":"619be31fef6b1a43f15af213","condition":"contingent","relevant_dimensions":["antennae","pattern"],"bee_group":{"antennae":"A","wings":"X","pattern":"S","legs":"X"},"bonus":1.1000000000000012},{"rt":1299.3999999761581,"stimulus":"bees-with-color/bee-B1DF.svg","response":0,"trial_type":"image-button-response","trial_index":39,"time_elapsed":388131,"internal_node_id":"0.0-4.0-0.16","subject_id":"5b1f92bdc9d3cb0001107e75","study_id":"6197b3f67c2b5cd3b6d9596a","session_id":"619be31fef6b1a43f15af213","condition":"contingent","relevant_dimensions":["antennae","pattern"],"bee_group":{"antennae":"A","wings":"X","pattern":"S","legs":"X"},"action":"harvest","summary":"good-harvest","bonus":1.1000000000000012},{"rt":1216,"stimulus":"\n                    <p><b>Action: <em>harvest</em></b></p>\n                    <p>This is the bee that you just saw.</p>\n                    <img src=\"bees-with-color/bee-B1DF.svg\" width=\"200\">\n                    <p><span class=\"greenText\"><b>Successful harvest!</b></span><br>Your pay has increased by $0.02. Your bonus pay is now $0.38.</p>\n            ","response":0,"trial_type":"html-button-response","trial_index":40,"time_elapsed":389349,"internal_node_id":"0.0-4.0-1.16","subject_id":"5b1f92bdc9d3cb0001107e75","study_id":"6197b3f67c2b5cd3b6d9596a","session_id":"619be31fef6b1a43f15af213","condition":"contingent","relevant_dimensions":["antennae","pattern"],"bee_group":{"antennae":"A","wings":"X","pattern":"S","legs":"X"},"bonus":1.1000000000000012},{"rt":1354.1999999284744,"stimulus":"bees-with-color/bee-A2SF.svg","response":0,"trial_type":"image-button-response","trial_index":41,"time_elapsed":390705,"internal_node_id":"0.0-4.0-0.17","subject_id":"5b1f92bdc9d3cb0001107e75","study_id":"6197b3f67c2b5cd3b6d9596a","session_id":"619be31fef6b1a43f15af213","condition":"contingent","relevant_dimensions":["antennae","pattern"],"bee_group":{"antennae":"A","wings":"X","pattern":"S","legs":"X"},"action":"harvest","summary":"bad-harvest","bonus":1.1000000000000012},{"rt":1951.8999999761581,"stimulus":"\n                    <p><b>Action: <em>harvest</em></b></p>\n                    <p>This is the bee that you just saw.</p>\n                    <img src=\"bees-with-color/bee-A2SF.svg\" width=\"200\">\n                    <p><span class=\"redText\">Bad choice, the bee was angry.</span><br><b>You have been stung!</b><br>Your pay has been decreased by $0.10. Your bonus pay is now $0.28.</p>\n            ","response":0,"trial_type":"html-button-response","trial_index":42,"time_elapsed":392659,"internal_node_id":"0.0-4.0-1.17","subject_id":"5b1f92bdc9d3cb0001107e75","study_id":"6197b3f67c2b5cd3b6d9596a","session_id":"619be31fef6b1a43f15af213","condition":"contingent","relevant_dimensions":["antennae","pattern"],"bee_group":{"antennae":"A","wings":"X","pattern":"S","legs":"X"},"bonus":1.1000000000000012},{"rt":1903.6000000238419,"stimulus":"bees-with-color/bee-A1DM.svg","response":0,"trial_type":"image-button-response","trial_index":43,"time_elapsed":394565,"internal_node_id":"0.0-4.0-0.18","subject_id":"5b1f92bdc9d3cb0001107e75","study_id":"6197b3f67c2b5cd3b6d9596a","session_id":"619be31fef6b1a43f15af213","condition":"contingent","relevant_dimensions":["antennae","pattern"],"bee_group":{"antennae":"A","wings":"X","pattern":"S","legs":"X"},"action":"harvest","summary":"good-harvest","bonus":1.1000000000000012},{"rt":1766.0999999046326,"stimulus":"\n                    <p><b>Action: <em>harvest</em></b></p>\n                    <p>This is the bee that you just saw.</p>\n                    <img src=\"bees-with-color/bee-A1DM.svg\" width=\"200\">\n                    <p><span class=\"greenText\"><b>Successful harvest!</b></span><br>Your pay has increased by $0.02. Your bonus pay is now $0.30.</p>\n            ","response":0,"trial_type":"html-button-response","trial_index":44,"time_elapsed":396333,"internal_node_id":"0.0-4.0-1.18","subject_id":"5b1f92bdc9d3cb0001107e75","study_id":"6197b3f67c2b5cd3b6d9596a","session_id":"619be31fef6b1a43f15af213","condition":"contingent","relevant_dimensions":["antennae","pattern"],"bee_group":{"antennae":"A","wings":"X","pattern":"S","legs":"X"},"bonus":1.1000000000000012},{"rt":2103.7999999523163,"stimulus":"bees-with-color/bee-B1SM.svg","response":0,"trial_type":"image-button-response","trial_index":45,"time_elapsed":398439,"internal_node_id":"0.0-4.0-0.19","subject_id":"5b1f92bdc9d3cb0001107e75","study_id":"6197b3f67c2b5cd3b6d9596a","session_id":"619be31fef6b1a43f15af213","condition":"contingent","relevant_dimensions":["antennae","pattern"],"bee_group":{"antennae":"A","wings":"X","pattern":"S","legs":"X"},"action":"harvest","summary":"good-harvest","bonus":1.1000000000000012},{"rt":961.9000000953674,"stimulus":"\n                    <p><b>Action: <em>harvest</em></b></p>\n                    <p>This is the bee that you just saw.</p>\n                    <img src=\"bees-with-color/bee-B1SM.svg\" width=\"200\">\n                    <p><span class=\"greenText\"><b>Successful harvest!</b></span><br>Your pay has increased by $0.02. Your bonus pay is now $0.32.</p>\n            ","response":0,"trial_type":"html-button-response","trial_index":46,"time_elapsed":399403,"internal_node_id":"0.0-4.0-1.19","subject_id":"5b1f92bdc9d3cb0001107e75","study_id":"6197b3f67c2b5cd3b6d9596a","session_id":"619be31fef6b1a43f15af213","condition":"contingent","relevant_dimensions":["antennae","pattern"],"bee_group":{"antennae":"A","wings":"X","pattern":"S","legs":"X"},"bonus":1.1000000000000012},{"rt":3518.2999999523163,"stimulus":"bees-with-color/bee-B1DM.svg","response":0,"trial_type":"image-button-response","trial_index":47,"time_elapsed":402923,"internal_node_id":"0.0-4.0-0.20","subject_id":"5b1f92bdc9d3cb0001107e75","study_id":"6197b3f67c2b5cd3b6d9596a","session_id":"619be31fef6b1a43f15af213","condition":"contingent","relevant_dimensions":["antennae","pattern"],"bee_group":{"antennae":"A","wings":"X","pattern":"S","legs":"X"},"action":"harvest","summary":"good-harvest","bonus":1.1000000000000012},{"rt":919.7999999523163,"stimulus":"\n                    <p><b>Action: <em>harvest</em></b></p>\n                    <p>This is the bee that you just saw.</p>\n                    <img src=\"bees-with-color/bee-B1DM.svg\" width=\"200\">\n                    <p><span class=\"greenText\"><b>Successful harvest!</b></span><br>Your pay has increased by $0.02. Your bonus pay is now $0.34.</p>\n            ","response":0,"trial_type":"html-button-response","trial_index":48,"time_elapsed":403845,"internal_node_id":"0.0-4.0-1.20","subject_id":"5b1f92bdc9d3cb0001107e75","study_id":"6197b3f67c2b5cd3b6d9596a","session_id":"619be31fef6b1a43f15af213","condition":"contingent","relevant_dimensions":["antennae","pattern"],"bee_group":{"antennae":"A","wings":"X","pattern":"S","legs":"X"},"bonus":1.1000000000000012},{"rt":2319.3000000715256,"stimulus":"bees-with-color/bee-B2SM.svg","response":0,"trial_type":"image-button-response","trial_index":49,"time_elapsed":406167,"internal_node_id":"0.0-4.0-0.21","subject_id":"5b1f92bdc9d3cb0001107e75","study_id":"6197b3f67c2b5cd3b6d9596a","session_id":"619be31fef6b1a43f15af213","condition":"contingent","relevant_dimensions":["antennae","pattern"],"bee_group":{"antennae":"A","wings":"X","pattern":"S","legs":"X"},"action":"harvest","summary":"good-harvest","bonus":1.1000000000000012},{"rt":1022.2999999523163,"stimulus":"\n                    <p><b>Action: <em>harvest</em></b></p>\n                    <p>This is the bee that you just saw.</p>\n                    <img src=\"bees-with-color/bee-B2SM.svg\" width=\"200\">\n                    <p><span class=\"greenText\"><b>Successful harvest!</b></span><br>Your pay has increased by $0.02. Your bonus pay is now $0.36.</p>\n            ","response":0,"trial_type":"html-button-response","trial_index":50,"time_elapsed":407191,"internal_node_id":"0.0-4.0-1.21","subject_id":"5b1f92bdc9d3cb0001107e75","study_id":"6197b3f67c2b5cd3b6d9596a","session_id":"619be31fef6b1a43f15af213","condition":"contingent","relevant_dimensions":["antennae","pattern"],"bee_group":{"antennae":"A","wings":"X","pattern":"S","legs":"X"},"bonus":1.1000000000000012},{"rt":1518,"stimulus":"bees-with-color/bee-A2DM.svg","response":0,"trial_type":"image-button-response","trial_index":51,"time_elapsed":408711,"internal_node_id":"0.0-4.0-0.22","subject_id":"5b1f92bdc9d3cb0001107e75","study_id":"6197b3f67c2b5cd3b6d9596a","session_id":"619be31fef6b1a43f15af213","condition":"contingent","relevant_dimensions":["antennae","pattern"],"bee_group":{"antennae":"A","wings":"X","pattern":"S","legs":"X"},"action":"harvest","summary":"good-harvest","bonus":1.1000000000000012},{"rt":1144,"stimulus":"\n                    <p><b>Action: <em>harvest</em></b></p>\n                    <p>This is the bee that you just saw.</p>\n                    <img src=\"bees-with-color/bee-A2DM.svg\" width=\"200\">\n                    <p><span class=\"greenText\"><b>Successful harvest!</b></span><br>Your pay has increased by $0.02. Your bonus pay is now $0.38.</p>\n            ","response":0,"trial_type":"html-button-response","trial_index":52,"time_elapsed":409857,"internal_node_id":"0.0-4.0-1.22","subject_id":"5b1f92bdc9d3cb0001107e75","study_id":"6197b3f67c2b5cd3b6d9596a","session_id":"619be31fef6b1a43f15af213","condition":"contingent","relevant_dimensions":["antennae","pattern"],"bee_group":{"antennae":"A","wings":"X","pattern":"S","legs":"X"},"bonus":1.1000000000000012},{"rt":4209.5,"stimulus":"bees-with-color/bee-A1SF.svg","response":1,"trial_type":"image-button-response","trial_index":53,"time_elapsed":414069,"internal_node_id":"0.0-4.0-0.23","subject_id":"5b1f92bdc9d3cb0001107e75","study_id":"6197b3f67c2b5cd3b6d9596a","session_id":"619be31fef6b1a43f15af213","condition":"contingent","relevant_dimensions":["antennae","pattern"],"bee_group":{"antennae":"A","wings":"X","pattern":"S","legs":"X"},"action":"avoid","summary":"good-avoid","bonus":1.1000000000000012},{"rt":4276.100000023842,"stimulus":"\n                    <p><b>Action: <em>avoid</em></b></p>\n                    <p>This is the bee that you just saw.</p>\n                    <img src=\"bees-with-color/bee-A1SF.svg\" width=\"200\">\n                    <p><br>Your bonus pay is unchanged, and remains at $0.38.</p>\n            ","response":0,"trial_type":"html-button-response","trial_index":54,"time_elapsed":418347,"internal_node_id":"0.0-4.0-1.23","subject_id":"5b1f92bdc9d3cb0001107e75","study_id":"6197b3f67c2b5cd3b6d9596a","session_id":"619be31fef6b1a43f15af213","condition":"contingent","relevant_dimensions":["antennae","pattern"],"bee_group":{"antennae":"A","wings":"X","pattern":"S","legs":"X"},"bonus":1.1000000000000012},{"rt":1379.1000000238419,"stimulus":"bees-with-color/bee-B2SF.svg","response":1,"trial_type":"image-button-response","trial_index":55,"time_elapsed":419729,"internal_node_id":"0.0-4.0-0.24","subject_id":"5b1f92bdc9d3cb0001107e75","study_id":"6197b3f67c2b5cd3b6d9596a","session_id":"619be31fef6b1a43f15af213","condition":"contingent","relevant_dimensions":["antennae","pattern"],"bee_group":{"antennae":"A","wings":"X","pattern":"S","legs":"X"},"action":"avoid","summary":"bad-avoid","bonus":1.1000000000000012},{"rt":1463,"stimulus":"\n                    <p><b>Action: <em>avoid</em></b></p>\n                    <p>This is the bee that you just saw.</p>\n                    <img src=\"bees-with-color/bee-B2SF.svg\" width=\"200\">\n                    <p><br>Your bonus pay is unchanged, and remains at $0.38.</p>\n            ","response":0,"trial_type":"html-button-response","trial_index":56,"time_elapsed":421194,"internal_node_id":"0.0-4.0-1.24","subject_id":"5b1f92bdc9d3cb0001107e75","study_id":"6197b3f67c2b5cd3b6d9596a","session_id":"619be31fef6b1a43f15af213","condition":"contingent","relevant_dimensions":["antennae","pattern"],"bee_group":{"antennae":"A","wings":"X","pattern":"S","legs":"X"},"bonus":1.1000000000000012},{"rt":2266.100000023842,"stimulus":"bees-with-color/bee-B1SF.svg","response":1,"trial_type":"image-button-response","trial_index":57,"time_elapsed":423463,"internal_node_id":"0.0-4.0-0.25","subject_id":"5b1f92bdc9d3cb0001107e75","study_id":"6197b3f67c2b5cd3b6d9596a","session_id":"619be31fef6b1a43f15af213","condition":"contingent","relevant_dimensions":["antennae","pattern"],"bee_group":{"antennae":"A","wings":"X","pattern":"S","legs":"X"},"action":"avoid","summary":"bad-avoid","bonus":1.1000000000000012},{"rt":2299.600000023842,"stimulus":"\n                    <p><b>Action: <em>avoid</em></b></p>\n                    <p>This is the bee that you just saw.</p>\n                    <img src=\"bees-with-color/bee-B1SF.svg\" width=\"200\">\n                    <p><br>Your bonus pay is unchanged, and remains at $0.38.</p>\n            ","response":0,"trial_type":"html-button-response","trial_index":58,"time_elapsed":425765,"internal_node_id":"0.0-4.0-1.25","subject_id":"5b1f92bdc9d3cb0001107e75","study_id":"6197b3f67c2b5cd3b6d9596a","session_id":"619be31fef6b1a43f15af213","condition":"contingent","relevant_dimensions":["antennae","pattern"],"bee_group":{"antennae":"A","wings":"X","pattern":"S","legs":"X"},"bonus":1.1000000000000012},{"rt":4033.2999999523163,"stimulus":"bees-with-color/bee-A1SM.svg","response":1,"trial_type":"image-button-response","trial_index":59,"time_elapsed":429801,"internal_node_id":"0.0-4.0-0.26","subject_id":"5b1f92bdc9d3cb0001107e75","study_id":"6197b3f67c2b5cd3b6d9596a","session_id":"619be31fef6b1a43f15af213","condition":"contingent","relevant_dimensions":["antennae","pattern"],"bee_group":{"antennae":"A","wings":"X","pattern":"S","legs":"X"},"action":"avoid","summary":"good-avoid","bonus":1.1000000000000012},{"rt":1615.3999999761581,"stimulus":"\n                    <p><b>Action: <em>avoid</em></b></p>\n                    <p>This is the bee that you just saw.</p>\n                    <img src=\"bees-with-color/bee-A1SM.svg\" width=\"200\">\n                    <p><br>Your bonus pay is unchanged, and remains at $0.38.</p>\n            ","response":0,"trial_type":"html-button-response","trial_index":60,"time_elapsed":431419,"internal_node_id":"0.0-4.0-1.26","subject_id":"5b1f92bdc9d3cb0001107e75","study_id":"6197b3f67c2b5cd3b6d9596a","session_id":"619be31fef6b1a43f15af213","condition":"contingent","relevant_dimensions":["antennae","pattern"],"bee_group":{"antennae":"A","wings":"X","pattern":"S","legs":"X"},"bonus":1.1000000000000012},{"rt":1778.7000000476837,"stimulus":"bees-with-color/bee-A1DF.svg","response":0,"trial_type":"image-button-response","trial_index":61,"time_elapsed":433201,"internal_node_id":"0.0-4.0-0.27","subject_id":"5b1f92bdc9d3cb0001107e75","study_id":"6197b3f67c2b5cd3b6d9596a","session_id":"619be31fef6b1a43f15af213","condition":"contingent","relevant_dimensions":["antennae","pattern"],"bee_group":{"antennae":"A","wings":"X","pattern":"S","legs":"X"},"action":"harvest","summary":"good-harvest","bonus":1.1000000000000012},{"rt":1661.5,"stimulus":"\n                    <p><b>Action: <em>harvest</em></b></p>\n                    <p>This is the bee that you just saw.</p>\n                    <img src=\"bees-with-color/bee-A1DF.svg\" width=\"200\">\n                    <p><span class=\"greenText\"><b>Successful harvest!</b></span><br>Your pay has increased by $0.02. Your bonus pay is now $0.40.</p>\n            ","response":0,"trial_type":"html-button-response","trial_index":62,"time_elapsed":434865,"internal_node_id":"0.0-4.0-1.27","subject_id":"5b1f92bdc9d3cb0001107e75","study_id":"6197b3f67c2b5cd3b6d9596a","session_id":"619be31fef6b1a43f15af213","condition":"contingent","relevant_dimensions":["antennae","pattern"],"bee_group":{"antennae":"A","wings":"X","pattern":"S","legs":"X"},"bonus":1.1000000000000012},{"rt":2857.600000023842,"stimulus":"bees-with-color/bee-B2DF.svg","response":0,"trial_type":"image-button-response","trial_index":63,"time_elapsed":437724,"internal_node_id":"0.0-4.0-0.28","subject_id":"5b1f92bdc9d3cb0001107e75","study_id":"6197b3f67c2b5cd3b6d9596a","session_id":"619be31fef6b1a43f15af213","condition":"contingent","relevant_dimensions":["antennae","pattern"],"bee_group":{"antennae":"A","wings":"X","pattern":"S","legs":"X"},"action":"harvest","summary":"good-harvest","bonus":1.1000000000000012},{"rt":1566,"stimulus":"\n                    <p><b>Action: <em>harvest</em></b></p>\n                    <p>This is the bee that you just saw.</p>\n                    <img src=\"bees-with-color/bee-B2DF.svg\" width=\"200\">\n                    <p><span class=\"greenText\"><b>Successful harvest!</b></span><br>Your pay has increased by $0.02. Your bonus pay is now $0.42.</p>\n            ","response":0,"trial_type":"html-button-response","trial_index":64,"time_elapsed":439293,"internal_node_id":"0.0-4.0-1.28","subject_id":"5b1f92bdc9d3cb0001107e75","study_id":"6197b3f67c2b5cd3b6d9596a","session_id":"619be31fef6b1a43f15af213","condition":"contingent","relevant_dimensions":["antennae","pattern"],"bee_group":{"antennae":"A","wings":"X","pattern":"S","legs":"X"},"bonus":1.1000000000000012},{"rt":9349.600000023842,"stimulus":"bees-with-color/bee-A2SM.svg","response":1,"trial_type":"image-button-response","trial_index":65,"time_elapsed":448644,"internal_node_id":"0.0-4.0-0.29","subject_id":"5b1f92bdc9d3cb0001107e75","study_id":"6197b3f67c2b5cd3b6d9596a","session_id":"619be31fef6b1a43f15af213","condition":"contingent","relevant_dimensions":["antennae","pattern"],"bee_group":{"antennae":"A","wings":"X","pattern":"S","legs":"X"},"action":"avoid","summary":"good-avoid","bonus":1.1000000000000012},{"rt":1128,"stimulus":"\n                    <p><b>Action: <em>avoid</em></b></p>\n                    <p>This is the bee that you just saw.</p>\n                    <img src=\"bees-with-color/bee-A2SM.svg\" width=\"200\">\n                    <p><br>Your bonus pay is unchanged, and remains at $0.42.</p>\n            ","response":0,"trial_type":"html-button-response","trial_index":66,"time_elapsed":449775,"internal_node_id":"0.0-4.0-1.29","subject_id":"5b1f92bdc9d3cb0001107e75","study_id":"6197b3f67c2b5cd3b6d9596a","session_id":"619be31fef6b1a43f15af213","condition":"contingent","relevant_dimensions":["antennae","pattern"],"bee_group":{"antennae":"A","wings":"X","pattern":"S","legs":"X"},"bonus":1.1000000000000012},{"rt":2199.399999976158,"stimulus":"bees-with-color/bee-B2DM.svg","response":0,"trial_type":"image-button-response","trial_index":67,"time_elapsed":451976,"internal_node_id":"0.0-4.0-0.30","subject_id":"5b1f92bdc9d3cb0001107e75","study_id":"6197b3f67c2b5cd3b6d9596a","session_id":"619be31fef6b1a43f15af213","condition":"contingent","relevant_dimensions":["antennae","pattern"],"bee_group":{"antennae":"A","wings":"X","pattern":"S","legs":"X"},"action":"harvest","summary":"good-harvest","bonus":1.1000000000000012},{"rt":1421.8999999761581,"stimulus":"\n                    <p><b>Action: <em>harvest</em></b></p>\n                    <p>This is the bee that you just saw.</p>\n                    <img src=\"bees-with-color/bee-B2DM.svg\" width=\"200\">\n                    <p><span class=\"greenText\"><b>Successful harvest!</b></span><br>Your pay has increased by $0.02. Your bonus pay is now $0.44.</p>\n            ","response":0,"trial_type":"html-button-response","trial_index":68,"time_elapsed":453401,"internal_node_id":"0.0-4.0-1.30","subject_id":"5b1f92bdc9d3cb0001107e75","study_id":"6197b3f67c2b5cd3b6d9596a","session_id":"619be31fef6b1a43f15af213","condition":"contingent","relevant_dimensions":["antennae","pattern"],"bee_group":{"antennae":"A","wings":"X","pattern":"S","legs":"X"},"bonus":1.1000000000000012},{"rt":2936.3000000715256,"stimulus":"bees-with-color/bee-A2DF.svg","response":0,"trial_type":"image-button-response","trial_index":69,"time_elapsed":456338,"internal_node_id":"0.0-4.0-0.31","subject_id":"5b1f92bdc9d3cb0001107e75","study_id":"6197b3f67c2b5cd3b6d9596a","session_id":"619be31fef6b1a43f15af213","condition":"contingent","relevant_dimensions":["antennae","pattern"],"bee_group":{"antennae":"A","wings":"X","pattern":"S","legs":"X"},"action":"harvest","summary":"good-harvest","bonus":1.1000000000000012},{"rt":1033.8999999761581,"stimulus":"\n                    <p><b>Action: <em>harvest</em></b></p>\n                    <p>This is the bee that you just saw.</p>\n                    <img src=\"bees-with-color/bee-A2DF.svg\" width=\"200\">\n                    <p><span class=\"greenText\"><b>Successful harvest!</b></span><br>Your pay has increased by $0.02. Your bonus pay is now $0.46.</p>\n            ","response":0,"trial_type":"html-button-response","trial_index":70,"time_elapsed":457374,"internal_node_id":"0.0-4.0-1.31","subject_id":"5b1f92bdc9d3cb0001107e75","study_id":"6197b3f67c2b5cd3b6d9596a","session_id":"619be31fef6b1a43f15af213","condition":"contingent","relevant_dimensions":["antennae","pattern"],"bee_group":{"antennae":"A","wings":"X","pattern":"S","legs":"X"},"bonus":1.1000000000000012},{"rt":1371.7000000476837,"stimulus":"bees-with-color/bee-B2DM.svg","response":0,"trial_type":"image-button-response","trial_index":71,"time_elapsed":458748,"internal_node_id":"0.0-4.0-0.32","subject_id":"5b1f92bdc9d3cb0001107e75","study_id":"6197b3f67c2b5cd3b6d9596a","session_id":"619be31fef6b1a43f15af213","condition":"contingent","relevant_dimensions":["antennae","pattern"],"bee_group":{"antennae":"A","wings":"X","pattern":"S","legs":"X"},"action":"harvest","summary":"good-harvest","bonus":1.1000000000000012},{"rt":742.1000000238419,"stimulus":"\n                    <p><b>Action: <em>harvest</em></b></p>\n                    <p>This is the bee that you just saw.</p>\n                    <img src=\"bees-with-color/bee-B2DM.svg\" width=\"200\">\n                    <p><span class=\"greenText\"><b>Successful harvest!</b></span><br>Your pay has increased by $0.02. Your bonus pay is now $0.48.</p>\n            ","response":0,"trial_type":"html-button-response","trial_index":72,"time_elapsed":459492,"internal_node_id":"0.0-4.0-1.32","subject_id":"5b1f92bdc9d3cb0001107e75","study_id":"6197b3f67c2b5cd3b6d9596a","session_id":"619be31fef6b1a43f15af213","condition":"contingent","relevant_dimensions":["antennae","pattern"],"bee_group":{"antennae":"A","wings":"X","pattern":"S","legs":"X"},"bonus":1.1000000000000012},{"rt":938,"stimulus":"bees-with-color/bee-A2DM.svg","response":0,"trial_type":"image-button-response","trial_index":73,"time_elapsed":460432,"internal_node_id":"0.0-4.0-0.33","subject_id":"5b1f92bdc9d3cb0001107e75","study_id":"6197b3f67c2b5cd3b6d9596a","session_id":"619be31fef6b1a43f15af213","condition":"contingent","relevant_dimensions":["antennae","pattern"],"bee_group":{"antennae":"A","wings":"X","pattern":"S","legs":"X"},"action":"harvest","summary":"good-harvest","bonus":1.1000000000000012},{"rt":1082.1000000238419,"stimulus":"\n                    <p><b>Action: <em>harvest</em></b></p>\n                    <p>This is the bee that you just saw.</p>\n                    <img src=\"bees-with-color/bee-A2DM.svg\" width=\"200\">\n                    <p><span class=\"greenText\"><b>Successful harvest!</b></span><br>Your pay has increased by $0.02. Your bonus pay is now $0.50.</p>\n            ","response":0,"trial_type":"html-button-response","trial_index":74,"time_elapsed":461517,"internal_node_id":"0.0-4.0-1.33","subject_id":"5b1f92bdc9d3cb0001107e75","study_id":"6197b3f67c2b5cd3b6d9596a","session_id":"619be31fef6b1a43f15af213","condition":"contingent","relevant_dimensions":["antennae","pattern"],"bee_group":{"antennae":"A","wings":"X","pattern":"S","legs":"X"},"bonus":1.1000000000000012},{"rt":1232.1000000238419,"stimulus":"bees-with-color/bee-B1SM.svg","response":0,"trial_type":"image-button-response","trial_index":75,"time_elapsed":462750,"internal_node_id":"0.0-4.0-0.34","subject_id":"5b1f92bdc9d3cb0001107e75","study_id":"6197b3f67c2b5cd3b6d9596a","session_id":"619be31fef6b1a43f15af213","condition":"contingent","relevant_dimensions":["antennae","pattern"],"bee_group":{"antennae":"A","wings":"X","pattern":"S","legs":"X"},"action":"harvest","summary":"good-harvest","bonus":1.1000000000000012},{"rt":743.8999999761581,"stimulus":"\n                    <p><b>Action: <em>harvest</em></b></p>\n                    <p>This is the bee that you just saw.</p>\n                    <img src=\"bees-with-color/bee-B1SM.svg\" width=\"200\">\n                    <p><span class=\"greenText\"><b>Successful harvest!</b></span><br>Your pay has increased by $0.02. Your bonus pay is now $0.52.</p>\n            ","response":0,"trial_type":"html-button-response","trial_index":76,"time_elapsed":463497,"internal_node_id":"0.0-4.0-1.34","subject_id":"5b1f92bdc9d3cb0001107e75","study_id":"6197b3f67c2b5cd3b6d9596a","session_id":"619be31fef6b1a43f15af213","condition":"contingent","relevant_dimensions":["antennae","pattern"],"bee_group":{"antennae":"A","wings":"X","pattern":"S","legs":"X"},"bonus":1.1000000000000012},{"rt":2657.7000000476837,"stimulus":"bees-with-color/bee-A2SM.svg","response":1,"trial_type":"image-button-response","trial_index":77,"time_elapsed":466156,"internal_node_id":"0.0-4.0-0.35","subject_id":"5b1f92bdc9d3cb0001107e75","study_id":"6197b3f67c2b5cd3b6d9596a","session_id":"619be31fef6b1a43f15af213","condition":"contingent","relevant_dimensions":["antennae","pattern"],"bee_group":{"antennae":"A","wings":"X","pattern":"S","legs":"X"},"action":"avoid","summary":"good-avoid","bonus":1.1000000000000012},{"rt":822,"stimulus":"\n                    <p><b>Action: <em>avoid</em></b></p>\n                    <p>This is the bee that you just saw.</p>\n                    <img src=\"bees-with-color/bee-A2SM.svg\" width=\"200\">\n                    <p><br>Your bonus pay is unchanged, and remains at $0.52.</p>\n            ","response":0,"trial_type":"html-button-response","trial_index":78,"time_elapsed":466980,"internal_node_id":"0.0-4.0-1.35","subject_id":"5b1f92bdc9d3cb0001107e75","study_id":"6197b3f67c2b5cd3b6d9596a","session_id":"619be31fef6b1a43f15af213","condition":"contingent","relevant_dimensions":["antennae","pattern"],"bee_group":{"antennae":"A","wings":"X","pattern":"S","legs":"X"},"bonus":1.1000000000000012},{"rt":1001.8999999761581,"stimulus":"bees-with-color/bee-B1DF.svg","response":0,"trial_type":"image-button-response","trial_index":79,"time_elapsed":467984,"internal_node_id":"0.0-4.0-0.36","subject_id":"5b1f92bdc9d3cb0001107e75","study_id":"6197b3f67c2b5cd3b6d9596a","session_id":"619be31fef6b1a43f15af213","condition":"contingent","relevant_dimensions":["antennae","pattern"],"bee_group":{"antennae":"A","wings":"X","pattern":"S","legs":"X"},"action":"harvest","summary":"good-harvest","bonus":1.1000000000000012},{"rt":863.6999999284744,"stimulus":"\n                    <p><b>Action: <em>harvest</em></b></p>\n                    <p>This is the bee that you just saw.</p>\n                    <img src=\"bees-with-color/bee-B1DF.svg\" width=\"200\">\n                    <p><span class=\"greenText\"><b>Successful harvest!</b></span><br>Your pay has increased by $0.02. Your bonus pay is now $0.54.</p>\n            ","response":0,"trial_type":"html-button-response","trial_index":80,"time_elapsed":468850,"internal_node_id":"0.0-4.0-1.36","subject_id":"5b1f92bdc9d3cb0001107e75","study_id":"6197b3f67c2b5cd3b6d9596a","session_id":"619be31fef6b1a43f15af213","condition":"contingent","relevant_dimensions":["antennae","pattern"],"bee_group":{"antennae":"A","wings":"X","pattern":"S","legs":"X"},"bonus":1.1000000000000012},{"rt":971.8999999761581,"stimulus":"bees-with-color/bee-A1DF.svg","response":0,"trial_type":"image-button-response","trial_index":81,"time_elapsed":469824,"internal_node_id":"0.0-4.0-0.37","subject_id":"5b1f92bdc9d3cb0001107e75","study_id":"6197b3f67c2b5cd3b6d9596a","session_id":"619be31fef6b1a43f15af213","condition":"contingent","relevant_dimensions":["antennae","pattern"],"bee_group":{"antennae":"A","wings":"X","pattern":"S","legs":"X"},"action":"harvest","summary":"good-harvest","bonus":1.1000000000000012},{"rt":914.2000000476837,"stimulus":"\n                    <p><b>Action: <em>harvest</em></b></p>\n                    <p>This is the bee that you just saw.</p>\n                    <img src=\"bees-with-color/bee-A1DF.svg\" width=\"200\">\n                    <p><span class=\"greenText\"><b>Successful harvest!</b></span><br>Your pay has increased by $0.02. Your bonus pay is now $0.56.</p>\n            ","response":0,"trial_type":"html-button-response","trial_index":82,"time_elapsed":470741,"internal_node_id":"0.0-4.0-1.37","subject_id":"5b1f92bdc9d3cb0001107e75","study_id":"6197b3f67c2b5cd3b6d9596a","session_id":"619be31fef6b1a43f15af213","condition":"contingent","relevant_dimensions":["antennae","pattern"],"bee_group":{"antennae":"A","wings":"X","pattern":"S","legs":"X"},"bonus":1.1000000000000012},{"rt":2349.5999999046326,"stimulus":"bees-with-color/bee-A1SF.svg","response":0,"trial_type":"image-button-response","trial_index":83,"time_elapsed":473092,"internal_node_id":"0.0-4.0-0.38","subject_id":"5b1f92bdc9d3cb0001107e75","study_id":"6197b3f67c2b5cd3b6d9596a","session_id":"619be31fef6b1a43f15af213","condition":"contingent","relevant_dimensions":["antennae","pattern"],"bee_group":{"antennae":"A","wings":"X","pattern":"S","legs":"X"},"action":"harvest","summary":"bad-harvest","bonus":1.1000000000000012},{"rt":2779.5,"stimulus":"\n                    <p><b>Action: <em>harvest</em></b></p>\n                    <p>This is the bee that you just saw.</p>\n                    <img src=\"bees-with-color/bee-A1SF.svg\" width=\"200\">\n                    <p><span class=\"redText\">Bad choice, the bee was angry.</span><br><b>You have been stung!</b><br>Your pay has been decreased by $0.10. Your bonus pay is now $0.46.</p>\n            ","response":0,"trial_type":"html-button-response","trial_index":84,"time_elapsed":475874,"internal_node_id":"0.0-4.0-1.38","subject_id":"5b1f92bdc9d3cb0001107e75","study_id":"6197b3f67c2b5cd3b6d9596a","session_id":"619be31fef6b1a43f15af213","condition":"contingent","relevant_dimensions":["antennae","pattern"],"bee_group":{"antennae":"A","wings":"X","pattern":"S","legs":"X"},"bonus":1.1000000000000012},{"rt":2517.5,"stimulus":"bees-with-color/bee-B1SF.svg","response":1,"trial_type":"image-button-response","trial_index":85,"time_elapsed":478394,"internal_node_id":"0.0-4.0-0.39","subject_id":"5b1f92bdc9d3cb0001107e75","study_id":"6197b3f67c2b5cd3b6d9596a","session_id":"619be31fef6b1a43f15af213","condition":"contingent","relevant_dimensions":["antennae","pattern"],"bee_group":{"antennae":"A","wings":"X","pattern":"S","legs":"X"},"action":"avoid","summary":"bad-avoid","bonus":1.1000000000000012},{"rt":763.5,"stimulus":"\n                    <p><b>Action: <em>avoid</em></b></p>\n                    <p>This is the bee that you just saw.</p>\n                    <img src=\"bees-with-color/bee-B1SF.svg\" width=\"200\">\n                    <p><br>Your bonus pay is unchanged, and remains at $0.46.</p>\n            ","response":0,"trial_type":"html-button-response","trial_index":86,"time_elapsed":479161,"internal_node_id":"0.0-4.0-1.39","subject_id":"5b1f92bdc9d3cb0001107e75","study_id":"6197b3f67c2b5cd3b6d9596a","session_id":"619be31fef6b1a43f15af213","condition":"contingent","relevant_dimensions":["antennae","pattern"],"bee_group":{"antennae":"A","wings":"X","pattern":"S","legs":"X"},"bonus":1.1000000000000012},{"rt":1559.6000000238419,"stimulus":"bees-with-color/bee-A2DF.svg","response":0,"trial_type":"image-button-response","trial_index":87,"time_elapsed":480723,"internal_node_id":"0.0-4.0-0.40","subject_id":"5b1f92bdc9d3cb0001107e75","study_id":"6197b3f67c2b5cd3b6d9596a","session_id":"619be31fef6b1a43f15af213","condition":"contingent","relevant_dimensions":["antennae","pattern"],"bee_group":{"antennae":"A","wings":"X","pattern":"S","legs":"X"},"action":"harvest","summary":"good-harvest","bonus":1.1000000000000012},{"rt":941.6999999284744,"stimulus":"\n                    <p><b>Action: <em>harvest</em></b></p>\n                    <p>This is the bee that you just saw.</p>\n                    <img src=\"bees-with-color/bee-A2DF.svg\" width=\"200\">\n                    <p><span class=\"greenText\"><b>Successful harvest!</b></span><br>Your pay has increased by $0.02. Your bonus pay is now $0.48.</p>\n            ","response":0,"trial_type":"html-button-response","trial_index":88,"time_elapsed":481666,"internal_node_id":"0.0-4.0-1.40","subject_id":"5b1f92bdc9d3cb0001107e75","study_id":"6197b3f67c2b5cd3b6d9596a","session_id":"619be31fef6b1a43f15af213","condition":"contingent","relevant_dimensions":["antennae","pattern"],"bee_group":{"antennae":"A","wings":"X","pattern":"S","legs":"X"},"bonus":1.1000000000000012},{"rt":1325.6000000238419,"stimulus":"bees-with-color/bee-B1DM.svg","response":0,"trial_type":"image-button-response","trial_index":89,"time_elapsed":482995,"internal_node_id":"0.0-4.0-0.41","subject_id":"5b1f92bdc9d3cb0001107e75","study_id":"6197b3f67c2b5cd3b6d9596a","session_id":"619be31fef6b1a43f15af213","condition":"contingent","relevant_dimensions":["antennae","pattern"],"bee_group":{"antennae":"A","wings":"X","pattern":"S","legs":"X"},"action":"harvest","summary":"good-harvest","bonus":1.1000000000000012},{"rt":905.3999999761581,"stimulus":"\n                    <p><b>Action: <em>harvest</em></b></p>\n                    <p>This is the bee that you just saw.</p>\n                    <img src=\"bees-with-color/bee-B1DM.svg\" width=\"200\">\n                    <p><span class=\"greenText\"><b>Successful harvest!</b></span><br>Your pay has increased by $0.02. Your bonus pay is now $0.50.</p>\n            ","response":0,"trial_type":"html-button-response","trial_index":90,"time_elapsed":483905,"internal_node_id":"0.0-4.0-1.41","subject_id":"5b1f92bdc9d3cb0001107e75","study_id":"6197b3f67c2b5cd3b6d9596a","session_id":"619be31fef6b1a43f15af213","condition":"contingent","relevant_dimensions":["antennae","pattern"],"bee_group":{"antennae":"A","wings":"X","pattern":"S","legs":"X"},"bonus":1.1000000000000012},{"rt":1999,"stimulus":"bees-with-color/bee-A1SM.svg","response":1,"trial_type":"image-button-response","trial_index":91,"time_elapsed":485906,"internal_node_id":"0.0-4.0-0.42","subject_id":"5b1f92bdc9d3cb0001107e75","study_id":"6197b3f67c2b5cd3b6d9596a","session_id":"619be31fef6b1a43f15af213","condition":"contingent","relevant_dimensions":["antennae","pattern"],"bee_group":{"antennae":"A","wings":"X","pattern":"S","legs":"X"},"action":"avoid","summary":"good-avoid","bonus":1.1000000000000012},{"rt":1062.3000000715256,"stimulus":"\n                    <p><b>Action: <em>avoid</em></b></p>\n                    <p>This is the bee that you just saw.</p>\n                    <img src=\"bees-with-color/bee-A1SM.svg\" width=\"200\">\n                    <p><br>Your bonus pay is unchanged, and remains at $0.50.</p>\n            ","response":0,"trial_type":"html-button-response","trial_index":92,"time_elapsed":486971,"internal_node_id":"0.0-4.0-1.42","subject_id":"5b1f92bdc9d3cb0001107e75","study_id":"6197b3f67c2b5cd3b6d9596a","session_id":"619be31fef6b1a43f15af213","condition":"contingent","relevant_dimensions":["antennae","pattern"],"bee_group":{"antennae":"A","wings":"X","pattern":"S","legs":"X"},"bonus":1.1000000000000012},{"rt":1433.8999999761581,"stimulus":"bees-with-color/bee-B2DF.svg","response":0,"trial_type":"image-button-response","trial_index":93,"time_elapsed":488406,"internal_node_id":"0.0-4.0-0.43","subject_id":"5b1f92bdc9d3cb0001107e75","study_id":"6197b3f67c2b5cd3b6d9596a","session_id":"619be31fef6b1a43f15af213","condition":"contingent","relevant_dimensions":["antennae","pattern"],"bee_group":{"antennae":"A","wings":"X","pattern":"S","legs":"X"},"action":"harvest","summary":"good-harvest","bonus":1.1000000000000012},{"rt":1255.9000000953674,"stimulus":"\n                    <p><b>Action: <em>harvest</em></b></p>\n                    <p>This is the bee that you just saw.</p>\n                    <img src=\"bees-with-color/bee-B2DF.svg\" width=\"200\">\n                    <p><span class=\"greenText\"><b>Successful harvest!</b></span><br>Your pay has increased by $0.02. Your bonus pay is now $0.52.</p>\n            ","response":0,"trial_type":"html-button-response","trial_index":94,"time_elapsed":489664,"internal_node_id":"0.0-4.0-1.43","subject_id":"5b1f92bdc9d3cb0001107e75","study_id":"6197b3f67c2b5cd3b6d9596a","session_id":"619be31fef6b1a43f15af213","condition":"contingent","relevant_dimensions":["antennae","pattern"],"bee_group":{"antennae":"A","wings":"X","pattern":"S","legs":"X"},"bonus":1.1000000000000012},{"rt":2622.5,"stimulus":"bees-with-color/bee-A2SF.svg","response":1,"trial_type":"image-button-response","trial_index":95,"time_elapsed":492288,"internal_node_id":"0.0-4.0-0.44","subject_id":"5b1f92bdc9d3cb0001107e75","study_id":"6197b3f67c2b5cd3b6d9596a","session_id":"619be31fef6b1a43f15af213","condition":"contingent","relevant_dimensions":["antennae","pattern"],"bee_group":{"antennae":"A","wings":"X","pattern":"S","legs":"X"},"action":"avoid","summary":"good-avoid","bonus":1.1000000000000012},{"rt":903.7999999523163,"stimulus":"\n                    <p><b>Action: <em>avoid</em></b></p>\n                    <p>This is the bee that you just saw.</p>\n                    <img src=\"bees-with-color/bee-A2SF.svg\" width=\"200\">\n                    <p><br>Your bonus pay is unchanged, and remains at $0.52.</p>\n            ","response":0,"trial_type":"html-button-response","trial_index":96,"time_elapsed":493194,"internal_node_id":"0.0-4.0-1.44","subject_id":"5b1f92bdc9d3cb0001107e75","study_id":"6197b3f67c2b5cd3b6d9596a","session_id":"619be31fef6b1a43f15af213","condition":"contingent","relevant_dimensions":["antennae","pattern"],"bee_group":{"antennae":"A","wings":"X","pattern":"S","legs":"X"},"bonus":1.1000000000000012},{"rt":3201.2000000476837,"stimulus":"bees-with-color/bee-B2SM.svg","response":0,"trial_type":"image-button-response","trial_index":97,"time_elapsed":496398,"internal_node_id":"0.0-4.0-0.45","subject_id":"5b1f92bdc9d3cb0001107e75","study_id":"6197b3f67c2b5cd3b6d9596a","session_id":"619be31fef6b1a43f15af213","condition":"contingent","relevant_dimensions":["antennae","pattern"],"bee_group":{"antennae":"A","wings":"X","pattern":"S","legs":"X"},"action":"harvest","summary":"good-harvest","bonus":1.1000000000000012},{"rt":1354.2999999523163,"stimulus":"\n                    <p><b>Action: <em>harvest</em></b></p>\n                    <p>This is the bee that you just saw.</p>\n                    <img src=\"bees-with-color/bee-B2SM.svg\" width=\"200\">\n                    <p><span class=\"greenText\"><b>Successful harvest!</b></span><br>Your pay has increased by $0.02. Your bonus pay is now $0.54.</p>\n            ","response":0,"trial_type":"html-button-response","trial_index":98,"time_elapsed":497754,"internal_node_id":"0.0-4.0-1.45","subject_id":"5b1f92bdc9d3cb0001107e75","study_id":"6197b3f67c2b5cd3b6d9596a","session_id":"619be31fef6b1a43f15af213","condition":"contingent","relevant_dimensions":["antennae","pattern"],"bee_group":{"antennae":"A","wings":"X","pattern":"S","legs":"X"},"bonus":1.1000000000000012},{"rt":2559.600000023842,"stimulus":"bees-with-color/bee-A1DM.svg","response":0,"trial_type":"image-button-response","trial_index":99,"time_elapsed":500316,"internal_node_id":"0.0-4.0-0.46","subject_id":"5b1f92bdc9d3cb0001107e75","study_id":"6197b3f67c2b5cd3b6d9596a","session_id":"619be31fef6b1a43f15af213","condition":"contingent","relevant_dimensions":["antennae","pattern"],"bee_group":{"antennae":"A","wings":"X","pattern":"S","legs":"X"},"action":"harvest","summary":"good-harvest","bonus":1.1000000000000012},{"rt":745.8000000715256,"stimulus":"\n                    <p><b>Action: <em>harvest</em></b></p>\n                    <p>This is the bee that you just saw.</p>\n                    <img src=\"bees-with-color/bee-A1DM.svg\" width=\"200\">\n                    <p><span class=\"greenText\"><b>Successful harvest!</b></span><br>Your pay has increased by $0.02. Your bonus pay is now $0.56.</p>\n            ","response":0,"trial_type":"html-button-response","trial_index":100,"time_elapsed":501064,"internal_node_id":"0.0-4.0-1.46","subject_id":"5b1f92bdc9d3cb0001107e75","study_id":"6197b3f67c2b5cd3b6d9596a","session_id":"619be31fef6b1a43f15af213","condition":"contingent","relevant_dimensions":["antennae","pattern"],"bee_group":{"antennae":"A","wings":"X","pattern":"S","legs":"X"},"bonus":1.1000000000000012},{"rt":1543.5,"stimulus":"bees-with-color/bee-B2SF.svg","response":1,"trial_type":"image-button-response","trial_index":101,"time_elapsed":502610,"internal_node_id":"0.0-4.0-0.47","subject_id":"5b1f92bdc9d3cb0001107e75","study_id":"6197b3f67c2b5cd3b6d9596a","session_id":"619be31fef6b1a43f15af213","condition":"contingent","relevant_dimensions":["antennae","pattern"],"bee_group":{"antennae":"A","wings":"X","pattern":"S","legs":"X"},"action":"avoid","summary":"bad-avoid","bonus":1.1000000000000012},{"rt":1471,"stimulus":"\n                    <p><b>Action: <em>avoid</em></b></p>\n                    <p>This is the bee that you just saw.</p>\n                    <img src=\"bees-with-color/bee-B2SF.svg\" width=\"200\">\n                    <p><br>Your bonus pay is unchanged, and remains at $0.56.</p>\n            ","response":0,"trial_type":"html-button-response","trial_index":102,"time_elapsed":504084,"internal_node_id":"0.0-4.0-1.47","subject_id":"5b1f92bdc9d3cb0001107e75","study_id":"6197b3f67c2b5cd3b6d9596a","session_id":"619be31fef6b1a43f15af213","condition":"contingent","relevant_dimensions":["antennae","pattern"],"bee_group":{"antennae":"A","wings":"X","pattern":"S","legs":"X"},"bonus":1.1000000000000012},{"rt":1389.6000000238419,"stimulus":"bees-with-color/bee-A1SF.svg","response":1,"trial_type":"image-button-response","trial_index":103,"time_elapsed":505476,"internal_node_id":"0.0-4.0-0.48","subject_id":"5b1f92bdc9d3cb0001107e75","study_id":"6197b3f67c2b5cd3b6d9596a","session_id":"619be31fef6b1a43f15af213","condition":"contingent","relevant_dimensions":["antennae","pattern"],"bee_group":{"antennae":"A","wings":"X","pattern":"S","legs":"X"},"action":"avoid","summary":"good-avoid","bonus":1.1000000000000012},{"rt":1012,"stimulus":"\n                    <p><b>Action: <em>avoid</em></b></p>\n                    <p>This is the bee that you just saw.</p>\n                    <img src=\"bees-with-color/bee-A1SF.svg\" width=\"200\">\n                    <p><br>Your bonus pay is unchanged, and remains at $0.56.</p>\n            ","response":0,"trial_type":"html-button-response","trial_index":104,"time_elapsed":506490,"internal_node_id":"0.0-4.0-1.48","subject_id":"5b1f92bdc9d3cb0001107e75","study_id":"6197b3f67c2b5cd3b6d9596a","session_id":"619be31fef6b1a43f15af213","condition":"contingent","relevant_dimensions":["antennae","pattern"],"bee_group":{"antennae":"A","wings":"X","pattern":"S","legs":"X"},"bonus":1.1000000000000012},{"rt":892.1000000238419,"stimulus":"bees-with-color/bee-A2DF.svg","response":0,"trial_type":"image-button-response","trial_index":105,"time_elapsed":507384,"internal_node_id":"0.0-4.0-0.49","subject_id":"5b1f92bdc9d3cb0001107e75","study_id":"6197b3f67c2b5cd3b6d9596a","session_id":"619be31fef6b1a43f15af213","condition":"contingent","relevant_dimensions":["antennae","pattern"],"bee_group":{"antennae":"A","wings":"X","pattern":"S","legs":"X"},"action":"harvest","summary":"good-harvest","bonus":1.1000000000000012},{"rt":921.6000000238419,"stimulus":"\n                    <p><b>Action: <em>harvest</em></b></p>\n                    <p>This is the bee that you just saw.</p>\n                    <img src=\"bees-with-color/bee-A2DF.svg\" width=\"200\">\n                    <p><span class=\"greenText\"><b>Successful harvest!</b></span><br>Your pay has increased by $0.02. Your bonus pay is now $0.58.</p>\n            ","response":0,"trial_type":"html-button-response","trial_index":106,"time_elapsed":508308,"internal_node_id":"0.0-4.0-1.49","subject_id":"5b1f92bdc9d3cb0001107e75","study_id":"6197b3f67c2b5cd3b6d9596a","session_id":"619be31fef6b1a43f15af213","condition":"contingent","relevant_dimensions":["antennae","pattern"],"bee_group":{"antennae":"A","wings":"X","pattern":"S","legs":"X"},"bonus":1.1000000000000012},{"rt":928.0999999046326,"stimulus":"bees-with-color/bee-B1DF.svg","response":0,"trial_type":"image-button-response","trial_index":107,"time_elapsed":509238,"internal_node_id":"0.0-4.0-0.50","subject_id":"5b1f92bdc9d3cb0001107e75","study_id":"6197b3f67c2b5cd3b6d9596a","session_id":"619be31fef6b1a43f15af213","condition":"contingent","relevant_dimensions":["antennae","pattern"],"bee_group":{"antennae":"A","wings":"X","pattern":"S","legs":"X"},"action":"harvest","summary":"good-harvest","bonus":1.1000000000000012},{"rt":847.7000000476837,"stimulus":"\n                    <p><b>Action: <em>harvest</em></b></p>\n                    <p>This is the bee that you just saw.</p>\n                    <img src=\"bees-with-color/bee-B1DF.svg\" width=\"200\">\n                    <p><span class=\"greenText\"><b>Successful harvest!</b></span><br>Your pay has increased by $0.02. Your bonus pay is now $0.60.</p>\n            ","response":0,"trial_type":"html-button-response","trial_index":108,"time_elapsed":510088,"internal_node_id":"0.0-4.0-1.50","subject_id":"5b1f92bdc9d3cb0001107e75","study_id":"6197b3f67c2b5cd3b6d9596a","session_id":"619be31fef6b1a43f15af213","condition":"contingent","relevant_dimensions":["antennae","pattern"],"bee_group":{"antennae":"A","wings":"X","pattern":"S","legs":"X"},"bonus":1.1000000000000012},{"rt":1409.8000000715256,"stimulus":"bees-with-color/bee-A2SM.svg","response":1,"trial_type":"image-button-response","trial_index":109,"time_elapsed":511500,"internal_node_id":"0.0-4.0-0.51","subject_id":"5b1f92bdc9d3cb0001107e75","study_id":"6197b3f67c2b5cd3b6d9596a","session_id":"619be31fef6b1a43f15af213","condition":"contingent","relevant_dimensions":["antennae","pattern"],"bee_group":{"antennae":"A","wings":"X","pattern":"S","legs":"X"},"action":"avoid","summary":"good-avoid","bonus":1.1000000000000012},{"rt":717.9000000953674,"stimulus":"\n                    <p><b>Action: <em>avoid</em></b></p>\n                    <p>This is the bee that you just saw.</p>\n                    <img src=\"bees-with-color/bee-A2SM.svg\" width=\"200\">\n                    <p><br>Your bonus pay is unchanged, and remains at $0.60.</p>\n            ","response":0,"trial_type":"html-button-response","trial_index":110,"time_elapsed":512220,"internal_node_id":"0.0-4.0-1.51","subject_id":"5b1f92bdc9d3cb0001107e75","study_id":"6197b3f67c2b5cd3b6d9596a","session_id":"619be31fef6b1a43f15af213","condition":"contingent","relevant_dimensions":["antennae","pattern"],"bee_group":{"antennae":"A","wings":"X","pattern":"S","legs":"X"},"bonus":1.1000000000000012},{"rt":1424,"stimulus":"bees-with-color/bee-B1DM.svg","response":0,"trial_type":"image-button-response","trial_index":111,"time_elapsed":513646,"internal_node_id":"0.0-4.0-0.52","subject_id":"5b1f92bdc9d3cb0001107e75","study_id":"6197b3f67c2b5cd3b6d9596a","session_id":"619be31fef6b1a43f15af213","condition":"contingent","relevant_dimensions":["antennae","pattern"],"bee_group":{"antennae":"A","wings":"X","pattern":"S","legs":"X"},"action":"harvest","summary":"good-harvest","bonus":1.1000000000000012},{"rt":741.8000000715256,"stimulus":"\n                    <p><b>Action: <em>harvest</em></b></p>\n                    <p>This is the bee that you just saw.</p>\n                    <img src=\"bees-with-color/bee-B1DM.svg\" width=\"200\">\n                    <p><span class=\"greenText\"><b>Successful harvest!</b></span><br>Your pay has increased by $0.02. Your bonus pay is now $0.62.</p>\n            ","response":0,"trial_type":"html-button-response","trial_index":112,"time_elapsed":514390,"internal_node_id":"0.0-4.0-1.52","subject_id":"5b1f92bdc9d3cb0001107e75","study_id":"6197b3f67c2b5cd3b6d9596a","session_id":"619be31fef6b1a43f15af213","condition":"contingent","relevant_dimensions":["antennae","pattern"],"bee_group":{"antennae":"A","wings":"X","pattern":"S","legs":"X"},"bonus":1.1000000000000012},{"rt":1394.1000000238419,"stimulus":"bees-with-color/bee-B1SF.svg","response":1,"trial_type":"image-button-response","trial_index":113,"time_elapsed":515786,"internal_node_id":"0.0-4.0-0.53","subject_id":"5b1f92bdc9d3cb0001107e75","study_id":"6197b3f67c2b5cd3b6d9596a","session_id":"619be31fef6b1a43f15af213","condition":"contingent","relevant_dimensions":["antennae","pattern"],"bee_group":{"antennae":"A","wings":"X","pattern":"S","legs":"X"},"action":"avoid","summary":"bad-avoid","bonus":1.1000000000000012},{"rt":649.7000000476837,"stimulus":"\n                    <p><b>Action: <em>avoid</em></b></p>\n                    <p>This is the bee that you just saw.</p>\n                    <img src=\"bees-with-color/bee-B1SF.svg\" width=\"200\">\n                    <p><br>Your bonus pay is unchanged, and remains at $0.62.</p>\n            ","response":0,"trial_type":"html-button-response","trial_index":114,"time_elapsed":516438,"internal_node_id":"0.0-4.0-1.53","subject_id":"5b1f92bdc9d3cb0001107e75","study_id":"6197b3f67c2b5cd3b6d9596a","session_id":"619be31fef6b1a43f15af213","condition":"contingent","relevant_dimensions":["antennae","pattern"],"bee_group":{"antennae":"A","wings":"X","pattern":"S","legs":"X"},"bonus":1.1000000000000012},{"rt":1237.8999999761581,"stimulus":"bees-with-color/bee-B1SM.svg","response":0,"trial_type":"image-button-response","trial_index":115,"time_elapsed":517679,"internal_node_id":"0.0-4.0-0.54","subject_id":"5b1f92bdc9d3cb0001107e75","study_id":"6197b3f67c2b5cd3b6d9596a","session_id":"619be31fef6b1a43f15af213","condition":"contingent","relevant_dimensions":["antennae","pattern"],"bee_group":{"antennae":"A","wings":"X","pattern":"S","legs":"X"},"action":"harvest","summary":"good-harvest","bonus":1.1000000000000012},{"rt":630.7000000476837,"stimulus":"\n                    <p><b>Action: <em>harvest</em></b></p>\n                    <p>This is the bee that you just saw.</p>\n                    <img src=\"bees-with-color/bee-B1SM.svg\" width=\"200\">\n                    <p><span class=\"greenText\"><b>Successful harvest!</b></span><br>Your pay has increased by $0.02. Your bonus pay is now $0.64.</p>\n            ","response":0,"trial_type":"html-button-response","trial_index":116,"time_elapsed":518312,"internal_node_id":"0.0-4.0-1.54","subject_id":"5b1f92bdc9d3cb0001107e75","study_id":"6197b3f67c2b5cd3b6d9596a","session_id":"619be31fef6b1a43f15af213","condition":"contingent","relevant_dimensions":["antennae","pattern"],"bee_group":{"antennae":"A","wings":"X","pattern":"S","legs":"X"},"bonus":1.1000000000000012},{"rt":2774.100000023842,"stimulus":"bees-with-color/bee-B2DM.svg","response":0,"trial_type":"image-button-response","trial_index":117,"time_elapsed":521088,"internal_node_id":"0.0-4.0-0.55","subject_id":"5b1f92bdc9d3cb0001107e75","study_id":"6197b3f67c2b5cd3b6d9596a","session_id":"619be31fef6b1a43f15af213","condition":"contingent","relevant_dimensions":["antennae","pattern"],"bee_group":{"antennae":"A","wings":"X","pattern":"S","legs":"X"},"action":"harvest","summary":"good-harvest","bonus":1.1000000000000012},{"rt":835.8999999761581,"stimulus":"\n                    <p><b>Action: <em>harvest</em></b></p>\n                    <p>This is the bee that you just saw.</p>\n                    <img src=\"bees-with-color/bee-B2DM.svg\" width=\"200\">\n                    <p><span class=\"greenText\"><b>Successful harvest!</b></span><br>Your pay has increased by $0.02. Your bonus pay is now $0.66.</p>\n            ","response":0,"trial_type":"html-button-response","trial_index":118,"time_elapsed":521926,"internal_node_id":"0.0-4.0-1.55","subject_id":"5b1f92bdc9d3cb0001107e75","study_id":"6197b3f67c2b5cd3b6d9596a","session_id":"619be31fef6b1a43f15af213","condition":"contingent","relevant_dimensions":["antennae","pattern"],"bee_group":{"antennae":"A","wings":"X","pattern":"S","legs":"X"},"bonus":1.1000000000000012},{"rt":1110,"stimulus":"bees-with-color/bee-B2DF.svg","response":0,"trial_type":"image-button-response","trial_index":119,"time_elapsed":523038,"internal_node_id":"0.0-4.0-0.56","subject_id":"5b1f92bdc9d3cb0001107e75","study_id":"6197b3f67c2b5cd3b6d9596a","session_id":"619be31fef6b1a43f15af213","condition":"contingent","relevant_dimensions":["antennae","pattern"],"bee_group":{"antennae":"A","wings":"X","pattern":"S","legs":"X"},"action":"harvest","summary":"good-harvest","bonus":1.1000000000000012},{"rt":1038.1000000238419,"stimulus":"\n                    <p><b>Action: <em>harvest</em></b></p>\n                    <p>This is the bee that you just saw.</p>\n                    <img src=\"bees-with-color/bee-B2DF.svg\" width=\"200\">\n                    <p><span class=\"greenText\"><b>Successful harvest!</b></span><br>Your pay has increased by $0.02. Your bonus pay is now $0.68.</p>\n            ","response":0,"trial_type":"html-button-response","trial_index":120,"time_elapsed":524078,"internal_node_id":"0.0-4.0-1.56","subject_id":"5b1f92bdc9d3cb0001107e75","study_id":"6197b3f67c2b5cd3b6d9596a","session_id":"619be31fef6b1a43f15af213","condition":"contingent","relevant_dimensions":["antennae","pattern"],"bee_group":{"antennae":"A","wings":"X","pattern":"S","legs":"X"},"bonus":1.1000000000000012},{"rt":2266.3000000715256,"stimulus":"bees-with-color/bee-A2SF.svg","response":1,"trial_type":"image-button-response","trial_index":121,"time_elapsed":526346,"internal_node_id":"0.0-4.0-0.57","subject_id":"5b1f92bdc9d3cb0001107e75","study_id":"6197b3f67c2b5cd3b6d9596a","session_id":"619be31fef6b1a43f15af213","condition":"contingent","relevant_dimensions":["antennae","pattern"],"bee_group":{"antennae":"A","wings":"X","pattern":"S","legs":"X"},"action":"avoid","summary":"good-avoid","bonus":1.1000000000000012},{"rt":727.8999999761581,"stimulus":"\n                    <p><b>Action: <em>avoid</em></b></p>\n                    <p>This is the bee that you just saw.</p>\n                    <img src=\"bees-with-color/bee-A2SF.svg\" width=\"200\">\n                    <p><br>Your bonus pay is unchanged, and remains at $0.68.</p>\n            ","response":0,"trial_type":"html-button-response","trial_index":122,"time_elapsed":527076,"internal_node_id":"0.0-4.0-1.57","subject_id":"5b1f92bdc9d3cb0001107e75","study_id":"6197b3f67c2b5cd3b6d9596a","session_id":"619be31fef6b1a43f15af213","condition":"contingent","relevant_dimensions":["antennae","pattern"],"bee_group":{"antennae":"A","wings":"X","pattern":"S","legs":"X"},"bonus":1.1000000000000012},{"rt":1520.1999999284744,"stimulus":"bees-with-color/bee-A1DM.svg","response":0,"trial_type":"image-button-response","trial_index":123,"time_elapsed":528598,"internal_node_id":"0.0-4.0-0.58","subject_id":"5b1f92bdc9d3cb0001107e75","study_id":"6197b3f67c2b5cd3b6d9596a","session_id":"619be31fef6b1a43f15af213","condition":"contingent","relevant_dimensions":["antennae","pattern"],"bee_group":{"antennae":"A","wings":"X","pattern":"S","legs":"X"},"action":"harvest","summary":"good-harvest","bonus":1.1000000000000012},{"rt":774,"stimulus":"\n                    <p><b>Action: <em>harvest</em></b></p>\n                    <p>This is the bee that you just saw.</p>\n                    <img src=\"bees-with-color/bee-A1DM.svg\" width=\"200\">\n                    <p><span class=\"greenText\"><b>Successful harvest!</b></span><br>Your pay has increased by $0.02. Your bonus pay is now $0.70.</p>\n            ","response":0,"trial_type":"html-button-response","trial_index":124,"time_elapsed":529374,"internal_node_id":"0.0-4.0-1.58","subject_id":"5b1f92bdc9d3cb0001107e75","study_id":"6197b3f67c2b5cd3b6d9596a","session_id":"619be31fef6b1a43f15af213","condition":"contingent","relevant_dimensions":["antennae","pattern"],"bee_group":{"antennae":"A","wings":"X","pattern":"S","legs":"X"},"bonus":1.1000000000000012},{"rt":2814.100000023842,"stimulus":"bees-with-color/bee-A1SM.svg","response":1,"trial_type":"image-button-response","trial_index":125,"time_elapsed":532190,"internal_node_id":"0.0-4.0-0.59","subject_id":"5b1f92bdc9d3cb0001107e75","study_id":"6197b3f67c2b5cd3b6d9596a","session_id":"619be31fef6b1a43f15af213","condition":"contingent","relevant_dimensions":["antennae","pattern"],"bee_group":{"antennae":"A","wings":"X","pattern":"S","legs":"X"},"action":"avoid","summary":"good-avoid","bonus":1.1000000000000012},{"rt":951.3999999761581,"stimulus":"\n                    <p><b>Action: <em>avoid</em></b></p>\n                    <p>This is the bee that you just saw.</p>\n                    <img src=\"bees-with-color/bee-A1SM.svg\" width=\"200\">\n                    <p><br>Your bonus pay is unchanged, and remains at $0.70.</p>\n            ","response":0,"trial_type":"html-button-response","trial_index":126,"time_elapsed":533144,"internal_node_id":"0.0-4.0-1.59","subject_id":"5b1f92bdc9d3cb0001107e75","study_id":"6197b3f67c2b5cd3b6d9596a","session_id":"619be31fef6b1a43f15af213","condition":"contingent","relevant_dimensions":["antennae","pattern"],"bee_group":{"antennae":"A","wings":"X","pattern":"S","legs":"X"},"bonus":1.1000000000000012},{"rt":2111.2999999523163,"stimulus":"bees-with-color/bee-B2SM.svg","response":0,"trial_type":"image-button-response","trial_index":127,"time_elapsed":535258,"internal_node_id":"0.0-4.0-0.60","subject_id":"5b1f92bdc9d3cb0001107e75","study_id":"6197b3f67c2b5cd3b6d9596a","session_id":"619be31fef6b1a43f15af213","condition":"contingent","relevant_dimensions":["antennae","pattern"],"bee_group":{"antennae":"A","wings":"X","pattern":"S","legs":"X"},"action":"harvest","summary":"good-harvest","bonus":1.1000000000000012},{"rt":662.1000000238419,"stimulus":"\n                    <p><b>Action: <em>harvest</em></b></p>\n                    <p>This is the bee that you just saw.</p>\n                    <img src=\"bees-with-color/bee-B2SM.svg\" width=\"200\">\n                    <p><span class=\"greenText\"><b>Successful harvest!</b></span><br>Your pay has increased by $0.02. Your bonus pay is now $0.72.</p>\n            ","response":0,"trial_type":"html-button-response","trial_index":128,"time_elapsed":535922,"internal_node_id":"0.0-4.0-1.60","subject_id":"5b1f92bdc9d3cb0001107e75","study_id":"6197b3f67c2b5cd3b6d9596a","session_id":"619be31fef6b1a43f15af213","condition":"contingent","relevant_dimensions":["antennae","pattern"],"bee_group":{"antennae":"A","wings":"X","pattern":"S","legs":"X"},"bonus":1.1000000000000012},{"rt":1537.6000000238419,"stimulus":"bees-with-color/bee-A2DM.svg","response":0,"trial_type":"image-button-response","trial_index":129,"time_elapsed":537462,"internal_node_id":"0.0-4.0-0.61","subject_id":"5b1f92bdc9d3cb0001107e75","study_id":"6197b3f67c2b5cd3b6d9596a","session_id":"619be31fef6b1a43f15af213","condition":"contingent","relevant_dimensions":["antennae","pattern"],"bee_group":{"antennae":"A","wings":"X","pattern":"S","legs":"X"},"action":"harvest","summary":"good-harvest","bonus":1.1000000000000012},{"rt":827.7000000476837,"stimulus":"\n                    <p><b>Action: <em>harvest</em></b></p>\n                    <p>This is the bee that you just saw.</p>\n                    <img src=\"bees-with-color/bee-A2DM.svg\" width=\"200\">\n                    <p><span class=\"greenText\"><b>Successful harvest!</b></span><br>Your pay has increased by $0.02. Your bonus pay is now $0.74.</p>\n            ","response":0,"trial_type":"html-button-response","trial_index":130,"time_elapsed":538292,"internal_node_id":"0.0-4.0-1.61","subject_id":"5b1f92bdc9d3cb0001107e75","study_id":"6197b3f67c2b5cd3b6d9596a","session_id":"619be31fef6b1a43f15af213","condition":"contingent","relevant_dimensions":["antennae","pattern"],"bee_group":{"antennae":"A","wings":"X","pattern":"S","legs":"X"},"bonus":1.1000000000000012},{"rt":1152,"stimulus":"bees-with-color/bee-A1DF.svg","response":0,"trial_type":"image-button-response","trial_index":131,"time_elapsed":539446,"internal_node_id":"0.0-4.0-0.62","subject_id":"5b1f92bdc9d3cb0001107e75","study_id":"6197b3f67c2b5cd3b6d9596a","session_id":"619be31fef6b1a43f15af213","condition":"contingent","relevant_dimensions":["antennae","pattern"],"bee_group":{"antennae":"A","wings":"X","pattern":"S","legs":"X"},"action":"harvest","summary":"good-harvest","bonus":1.1000000000000012},{"rt":1027.5999999046326,"stimulus":"\n                    <p><b>Action: <em>harvest</em></b></p>\n                    <p>This is the bee that you just saw.</p>\n                    <img src=\"bees-with-color/bee-A1DF.svg\" width=\"200\">\n                    <p><span class=\"greenText\"><b>Successful harvest!</b></span><br>Your pay has increased by $0.02. Your bonus pay is now $0.76.</p>\n            ","response":0,"trial_type":"html-button-response","trial_index":132,"time_elapsed":540476,"internal_node_id":"0.0-4.0-1.62","subject_id":"5b1f92bdc9d3cb0001107e75","study_id":"6197b3f67c2b5cd3b6d9596a","session_id":"619be31fef6b1a43f15af213","condition":"contingent","relevant_dimensions":["antennae","pattern"],"bee_group":{"antennae":"A","wings":"X","pattern":"S","legs":"X"},"bonus":1.1000000000000012},{"rt":1183.8999999761581,"stimulus":"bees-with-color/bee-B2SF.svg","response":1,"trial_type":"image-button-response","trial_index":133,"time_elapsed":541662,"internal_node_id":"0.0-4.0-0.63","subject_id":"5b1f92bdc9d3cb0001107e75","study_id":"6197b3f67c2b5cd3b6d9596a","session_id":"619be31fef6b1a43f15af213","condition":"contingent","relevant_dimensions":["antennae","pattern"],"bee_group":{"antennae":"A","wings":"X","pattern":"S","legs":"X"},"action":"avoid","summary":"bad-avoid","bonus":1.1000000000000012},{"rt":725.6000000238419,"stimulus":"\n                    <p><b>Action: <em>avoid</em></b></p>\n                    <p>This is the bee that you just saw.</p>\n                    <img src=\"bees-with-color/bee-B2SF.svg\" width=\"200\">\n                    <p><br>Your bonus pay is unchanged, and remains at $0.76.</p>\n            ","response":0,"trial_type":"html-button-response","trial_index":134,"time_elapsed":542390,"internal_node_id":"0.0-4.0-1.63","subject_id":"5b1f92bdc9d3cb0001107e75","study_id":"6197b3f67c2b5cd3b6d9596a","session_id":"619be31fef6b1a43f15af213","condition":"contingent","relevant_dimensions":["antennae","pattern"],"bee_group":{"antennae":"A","wings":"X","pattern":"S","legs":"X"},"bonus":1.1000000000000012},{"rt":8169.899999976158,"stimulus":"You have completed the first part of this experiment.<br><br>You will now begin a shorter second part, in which you will receive no feedback.<br>The same rules regarding bonus pay apply.<br><br>Press any key to begin.","response":" ","trial_type":"html-keyboard-response","trial_index":135,"time_elapsed":550562,"internal_node_id":"0.0-5.0","subject_id":"5b1f92bdc9d3cb0001107e75","study_id":"6197b3f67c2b5cd3b6d9596a","session_id":"619be31fef6b1a43f15af213","condition":"contingent","relevant_dimensions":["antennae","pattern"],"bee_group":{"antennae":"A","wings":"X","pattern":"S","legs":"X"},"bonus":1.1000000000000012},{"rt":3805.1999999284744,"stimulus":"bees-with-color/bee-A1DF.svg","response":0,"trial_type":"image-button-response","trial_index":136,"time_elapsed":554381,"internal_node_id":"0.0-6.0-0.0","subject_id":"5b1f92bdc9d3cb0001107e75","study_id":"6197b3f67c2b5cd3b6d9596a","session_id":"619be31fef6b1a43f15af213","condition":"contingent","relevant_dimensions":["antennae","pattern"],"bee_group":{"antennae":"A","wings":"X","pattern":"S","legs":"X"},"bonus":1.1000000000000012},{"rt":2138.399999976158,"stimulus":"bees-with-color/bee-B2DF.svg","response":0,"trial_type":"image-button-response","trial_index":137,"time_elapsed":556523,"internal_node_id":"0.0-6.0-0.1","subject_id":"5b1f92bdc9d3cb0001107e75","study_id":"6197b3f67c2b5cd3b6d9596a","session_id":"619be31fef6b1a43f15af213","condition":"contingent","relevant_dimensions":["antennae","pattern"],"bee_group":{"antennae":"A","wings":"X","pattern":"S","legs":"X"},"bonus":1.1000000000000012},{"rt":1286.8999999761581,"stimulus":"bees-with-color/bee-A2SM.svg","response":1,"trial_type":"image-button-response","trial_index":138,"time_elapsed":557814,"internal_node_id":"0.0-6.0-0.2","subject_id":"5b1f92bdc9d3cb0001107e75","study_id":"6197b3f67c2b5cd3b6d9596a","session_id":"619be31fef6b1a43f15af213","condition":"contingent","relevant_dimensions":["antennae","pattern"],"bee_group":{"antennae":"A","wings":"X","pattern":"S","legs":"X"},"bonus":1.1000000000000012},{"rt":1084.3999999761581,"stimulus":"bees-with-color/bee-A2SF.svg","response":1,"trial_type":"image-button-response","trial_index":139,"time_elapsed":558901,"internal_node_id":"0.0-6.0-0.3","subject_id":"5b1f92bdc9d3cb0001107e75","study_id":"6197b3f67c2b5cd3b6d9596a","session_id":"619be31fef6b1a43f15af213","condition":"contingent","relevant_dimensions":["antennae","pattern"],"bee_group":{"antennae":"A","wings":"X","pattern":"S","legs":"X"},"bonus":1.1000000000000012},{"rt":2284.399999976158,"stimulus":"bees-with-color/bee-B2SM.svg","response":0,"trial_type":"image-button-response","trial_index":140,"time_elapsed":561189,"internal_node_id":"0.0-6.0-0.4","subject_id":"5b1f92bdc9d3cb0001107e75","study_id":"6197b3f67c2b5cd3b6d9596a","session_id":"619be31fef6b1a43f15af213","condition":"contingent","relevant_dimensions":["antennae","pattern"],"bee_group":{"antennae":"A","wings":"X","pattern":"S","legs":"X"},"bonus":1.1000000000000012},{"rt":950.1000000238419,"stimulus":"bees-with-color/bee-A2DF.svg","response":0,"trial_type":"image-button-response","trial_index":141,"time_elapsed":562143,"internal_node_id":"0.0-6.0-0.5","subject_id":"5b1f92bdc9d3cb0001107e75","study_id":"6197b3f67c2b5cd3b6d9596a","session_id":"619be31fef6b1a43f15af213","condition":"contingent","relevant_dimensions":["antennae","pattern"],"bee_group":{"antennae":"A","wings":"X","pattern":"S","legs":"X"},"bonus":1.1000000000000012},{"rt":944.5999999046326,"stimulus":"bees-with-color/bee-A2DM.svg","response":0,"trial_type":"image-button-response","trial_index":142,"time_elapsed":563091,"internal_node_id":"0.0-6.0-0.6","subject_id":"5b1f92bdc9d3cb0001107e75","study_id":"6197b3f67c2b5cd3b6d9596a","session_id":"619be31fef6b1a43f15af213","condition":"contingent","relevant_dimensions":["antennae","pattern"],"bee_group":{"antennae":"A","wings":"X","pattern":"S","legs":"X"},"bonus":1.1000000000000012},{"rt":1040.1999999284744,"stimulus":"bees-with-color/bee-B2SF.svg","response":1,"trial_type":"image-button-response","trial_index":143,"time_elapsed":564135,"internal_node_id":"0.0-6.0-0.7","subject_id":"5b1f92bdc9d3cb0001107e75","study_id":"6197b3f67c2b5cd3b6d9596a","session_id":"619be31fef6b1a43f15af213","condition":"contingent","relevant_dimensions":["antennae","pattern"],"bee_group":{"antennae":"A","wings":"X","pattern":"S","legs":"X"},"bonus":1.1000000000000012},{"rt":2094.2999999523163,"stimulus":"bees-with-color/bee-A1SM.svg","response":1,"trial_type":"image-button-response","trial_index":144,"time_elapsed":566233,"internal_node_id":"0.0-6.0-0.8","subject_id":"5b1f92bdc9d3cb0001107e75","study_id":"6197b3f67c2b5cd3b6d9596a","session_id":"619be31fef6b1a43f15af213","condition":"contingent","relevant_dimensions":["antennae","pattern"],"bee_group":{"antennae":"A","wings":"X","pattern":"S","legs":"X"},"bonus":1.1000000000000012},{"rt":2964.5,"stimulus":"bees-with-color/bee-A1SF.svg","response":1,"trial_type":"image-button-response","trial_index":145,"time_elapsed":569201,"internal_node_id":"0.0-6.0-0.9","subject_id":"5b1f92bdc9d3cb0001107e75","study_id":"6197b3f67c2b5cd3b6d9596a","session_id":"619be31fef6b1a43f15af213","condition":"contingent","relevant_dimensions":["antennae","pattern"],"bee_group":{"antennae":"A","wings":"X","pattern":"S","legs":"X"},"bonus":1.1000000000000012},{"rt":1024.7999999523163,"stimulus":"bees-with-color/bee-B1DF.svg","response":0,"trial_type":"image-button-response","trial_index":146,"time_elapsed":570229,"internal_node_id":"0.0-6.0-0.10","subject_id":"5b1f92bdc9d3cb0001107e75","study_id":"6197b3f67c2b5cd3b6d9596a","session_id":"619be31fef6b1a43f15af213","condition":"contingent","relevant_dimensions":["antennae","pattern"],"bee_group":{"antennae":"A","wings":"X","pattern":"S","legs":"X"},"bonus":1.1000000000000012},{"rt":1137,"stimulus":"bees-with-color/bee-B2DM.svg","response":0,"trial_type":"image-button-response","trial_index":147,"time_elapsed":571369,"internal_node_id":"0.0-6.0-0.11","subject_id":"5b1f92bdc9d3cb0001107e75","study_id":"6197b3f67c2b5cd3b6d9596a","session_id":"619be31fef6b1a43f15af213","condition":"contingent","relevant_dimensions":["antennae","pattern"],"bee_group":{"antennae":"A","wings":"X","pattern":"S","legs":"X"},"bonus":1.1000000000000012},{"rt":4552.900000095367,"stimulus":"bees-with-color/bee-A1DM.svg","response":1,"trial_type":"image-button-response","trial_index":148,"time_elapsed":575925,"internal_node_id":"0.0-6.0-0.12","subject_id":"5b1f92bdc9d3cb0001107e75","study_id":"6197b3f67c2b5cd3b6d9596a","session_id":"619be31fef6b1a43f15af213","condition":"contingent","relevant_dimensions":["antennae","pattern"],"bee_group":{"antennae":"A","wings":"X","pattern":"S","legs":"X"},"bonus":1.1000000000000012},{"rt":1630.3000000715256,"stimulus":"bees-with-color/bee-B1SM.svg","response":0,"trial_type":"image-button-response","trial_index":149,"time_elapsed":577559,"internal_node_id":"0.0-6.0-0.13","subject_id":"5b1f92bdc9d3cb0001107e75","study_id":"6197b3f67c2b5cd3b6d9596a","session_id":"619be31fef6b1a43f15af213","condition":"contingent","relevant_dimensions":["antennae","pattern"],"bee_group":{"antennae":"A","wings":"X","pattern":"S","legs":"X"},"bonus":1.1000000000000012},{"rt":988.5,"stimulus":"bees-with-color/bee-B1DM.svg","response":0,"trial_type":"image-button-response","trial_index":150,"time_elapsed":578551,"internal_node_id":"0.0-6.0-0.14","subject_id":"5b1f92bdc9d3cb0001107e75","study_id":"6197b3f67c2b5cd3b6d9596a","session_id":"619be31fef6b1a43f15af213","condition":"contingent","relevant_dimensions":["antennae","pattern"],"bee_group":{"antennae":"A","wings":"X","pattern":"S","legs":"X"},"bonus":1.1000000000000012},{"rt":1175,"stimulus":"bees-with-color/bee-B1SF.svg","response":1,"trial_type":"image-button-response","trial_index":151,"time_elapsed":579729,"internal_node_id":"0.0-6.0-0.15","subject_id":"5b1f92bdc9d3cb0001107e75","study_id":"6197b3f67c2b5cd3b6d9596a","session_id":"619be31fef6b1a43f15af213","condition":"contingent","relevant_dimensions":["antennae","pattern"],"bee_group":{"antennae":"A","wings":"X","pattern":"S","legs":"X"},"bonus":1.1000000000000012},{"rt":1611.6999999284744,"stimulus":"bees-with-color/bee-B2DM.svg","response":0,"trial_type":"image-button-response","trial_index":152,"time_elapsed":581343,"internal_node_id":"0.0-6.0-0.16","subject_id":"5b1f92bdc9d3cb0001107e75","study_id":"6197b3f67c2b5cd3b6d9596a","session_id":"619be31fef6b1a43f15af213","condition":"contingent","relevant_dimensions":["antennae","pattern"],"bee_group":{"antennae":"A","wings":"X","pattern":"S","legs":"X"},"bonus":1.1000000000000012},{"rt":1239.3000000715256,"stimulus":"bees-with-color/bee-A2SF.svg","response":1,"trial_type":"image-button-response","trial_index":153,"time_elapsed":582585,"internal_node_id":"0.0-6.0-0.17","subject_id":"5b1f92bdc9d3cb0001107e75","study_id":"6197b3f67c2b5cd3b6d9596a","session_id":"619be31fef6b1a43f15af213","condition":"contingent","relevant_dimensions":["antennae","pattern"],"bee_group":{"antennae":"A","wings":"X","pattern":"S","legs":"X"},"bonus":1.1000000000000012},{"rt":1089.5999999046326,"stimulus":"bees-with-color/bee-B2DF.svg","response":0,"trial_type":"image-button-response","trial_index":154,"time_elapsed":583677,"internal_node_id":"0.0-6.0-0.18","subject_id":"5b1f92bdc9d3cb0001107e75","study_id":"6197b3f67c2b5cd3b6d9596a","session_id":"619be31fef6b1a43f15af213","condition":"contingent","relevant_dimensions":["antennae","pattern"],"bee_group":{"antennae":"A","wings":"X","pattern":"S","legs":"X"},"bonus":1.1000000000000012},{"rt":1009.4000000953674,"stimulus":"bees-with-color/bee-B2SF.svg","response":1,"trial_type":"image-button-response","trial_index":155,"time_elapsed":584689,"internal_node_id":"0.0-6.0-0.19","subject_id":"5b1f92bdc9d3cb0001107e75","study_id":"6197b3f67c2b5cd3b6d9596a","session_id":"619be31fef6b1a43f15af213","condition":"contingent","relevant_dimensions":["antennae","pattern"],"bee_group":{"antennae":"A","wings":"X","pattern":"S","legs":"X"},"bonus":1.1000000000000012},{"rt":1517.4000000953674,"stimulus":"bees-with-color/bee-A1SM.svg","response":1,"trial_type":"image-button-response","trial_index":156,"time_elapsed":586209,"internal_node_id":"0.0-6.0-0.20","subject_id":"5b1f92bdc9d3cb0001107e75","study_id":"6197b3f67c2b5cd3b6d9596a","session_id":"619be31fef6b1a43f15af213","condition":"contingent","relevant_dimensions":["antennae","pattern"],"bee_group":{"antennae":"A","wings":"X","pattern":"S","legs":"X"},"bonus":1.1000000000000012},{"rt":2536.899999976158,"stimulus":"bees-with-color/bee-A1DM.svg","response":1,"trial_type":"image-button-response","trial_index":157,"time_elapsed":588749,"internal_node_id":"0.0-6.0-0.21","subject_id":"5b1f92bdc9d3cb0001107e75","study_id":"6197b3f67c2b5cd3b6d9596a","session_id":"619be31fef6b1a43f15af213","condition":"contingent","relevant_dimensions":["antennae","pattern"],"bee_group":{"antennae":"A","wings":"X","pattern":"S","legs":"X"},"bonus":1.1000000000000012},{"rt":1511.1000000238419,"stimulus":"bees-with-color/bee-A1DF.svg","response":0,"trial_type":"image-button-response","trial_index":158,"time_elapsed":590263,"internal_node_id":"0.0-6.0-0.22","subject_id":"5b1f92bdc9d3cb0001107e75","study_id":"6197b3f67c2b5cd3b6d9596a","session_id":"619be31fef6b1a43f15af213","condition":"contingent","relevant_dimensions":["antennae","pattern"],"bee_group":{"antennae":"A","wings":"X","pattern":"S","legs":"X"},"bonus":1.1000000000000012},{"rt":1903.2000000476837,"stimulus":"bees-with-color/bee-A2DF.svg","response":0,"trial_type":"image-button-response","trial_index":159,"time_elapsed":592169,"internal_node_id":"0.0-6.0-0.23","subject_id":"5b1f92bdc9d3cb0001107e75","study_id":"6197b3f67c2b5cd3b6d9596a","session_id":"619be31fef6b1a43f15af213","condition":"contingent","relevant_dimensions":["antennae","pattern"],"bee_group":{"antennae":"A","wings":"X","pattern":"S","legs":"X"},"bonus":1.1000000000000012},{"rt":1173.2999999523163,"stimulus":"bees-with-color/bee-B1DF.svg","response":0,"trial_type":"image-button-response","trial_index":160,"time_elapsed":593345,"internal_node_id":"0.0-6.0-0.24","subject_id":"5b1f92bdc9d3cb0001107e75","study_id":"6197b3f67c2b5cd3b6d9596a","session_id":"619be31fef6b1a43f15af213","condition":"contingent","relevant_dimensions":["antennae","pattern"],"bee_group":{