[{"success":true,"trial_type":"fullscreen","trial_index":0,"time_elapsed":21183,"internal_node_id":"0.0-0.0","subject_id":"5d4459fdfdaaad00180ec101","study_id":"60edd13110225f80f9f3709b","session_id":"6196c1f76890184fbe6f5612","condition":"contingent","relevant_dimensions":["antennae","wings"],"bee_group":{"antennae":"B","wings":"1","pattern":"X","legs":"X"},"bonus":0.5600000000000014},{"success":true,"timeout":false,"failed_images":[],"failed_audio":[],"failed_video":[],"trial_type":"preload","trial_index":1,"time_elapsed":23561,"internal_node_id":"0.0-1.0","subject_id":"5d4459fdfdaaad00180ec101","study_id":"60edd13110225f80f9f3709b","session_id":"6196c1f76890184fbe6f5612","condition":"contingent","relevant_dimensions":["antennae","wings"],"bee_group":{"antennae":"B","wings":"1","pattern":"X","legs":"X"},"bonus":0.5600000000000014},{"rt":2055,"stimulus":"Welcome! Press any key to begin.","response":"enter","trial_type":"html-keyboard-response","trial_index":2,"time_elapsed":25617,"internal_node_id":"0.0-2.0","subject_id":"5d4459fdfdaaad00180ec101","study_id":"60edd13110225f80f9f3709b","session_id":"6196c1f76890184fbe6f5612","condition":"contingent","relevant_dimensions":["antennae","wings"],"bee_group":{"antennae":"B","wings":"1","pattern":"X","legs":"X"},"bonus":0.5600000000000014},{"view_history":[{"page_index":0,"viewing_time":5708},{"page_index":1,"viewing_time":11788},{"page_index":2,"viewing_time":8044.0999999940395},{"page_index":3,"viewing_time":13510},{"page_index":4,"viewing_time":4117.9000000059605},{"page_index":5,"viewing_time":6855.0999999940395},{"page_index":6,"viewing_time":10882.90000000596},{"page_index":7,"viewing_time":5576.9000000059605},{"page_index":8,"viewing_time":5023.399999976158},{"page_index":9,"viewing_time":2582.7000000178814},{"page_index":10,"viewing_time":4398.5999999940395},{"page_index":11,"viewing_time":8240.5},{"page_index":12,"viewing_time":26222},{"page_index":13,"viewing_time":1040.199999988079},{"page_index":14,"viewing_time":1751.7000000178814}],"rt":115742.19999998808,"trial_type":"instructions","trial_index":3,"time_elapsed":141359,"internal_node_id":"0.0-3.0-0.0","subject_id":"5d4459fdfdaaad00180ec101","study_id":"60edd13110225f80f9f3709b","session_id":"6196c1f76890184fbe6f5612","condition":"contingent","relevant_dimensions":["antennae","wings"],"bee_group":{"antennae":"B","wings":"1","pattern":"X","legs":"X"},"bonus":0.5600000000000014},{"rt":13862.200000017881,"response":{"Q0":["Two or six legs","Stripes or spots on body","Single or double wings","Antennae or no antennae"]},"question_order":[0],"trial_type":"survey-multi-select","trial_index":4,"time_elapsed":155225,"internal_node_id":"0.0-3.0-1.0","subject_id":"5d4459fdfdaaad00180ec101","study_id":"60edd13110225f80f9f3709b","session_id":"6196c1f76890184fbe6f5612","condition":"contingent","relevant_dimensions":["antennae","wings"],"bee_group":{"antennae":"B","wings":"1","pattern":"X","legs":"X"},"correct":true,"bonus":0.5600000000000014},{"rt":19034.90000000596,"response":{"Q1":"No.","Q2":"Based on the four features of the bee.","Q3":"You do not learn if it was friendly or dangerous, and do not alter your bonus."},"question_order":[0,1,2],"trial_type":"survey-multi-choice","trial_index":5,"time_elapsed":174262,"internal_node_id":"0.0-3.0-2.0","subject_id":"5d4459fdfdaaad00180ec101","study_id":"60edd13110225f80f9f3709b","session_id":"6196c1f76890184fbe6f5612","condition":"contingent","relevant_dimensions":["antennae","wings"],"bee_group":{"antennae":"B","wings":"1","pattern":"X","legs":"X"},"correct":true,"bonus":0.5600000000000014},{"rt":2200.300000011921,"stimulus":"<p>Congrats, you got everything right<br>When you're ready, click the button below to continue to the experiment.</p>","response":0,"trial_type":"html-button-response","trial_index":6,"time_elapsed":176465,"internal_node_id":"0.0-3.0-3.0","subject_id":"5d4459fdfdaaad00180ec101","study_id":"60edd13110225f80f9f3709b","session_id":"6196c1f76890184fbe6f5612","condition":"contingent","relevant_dimensions":["antennae","wings"],"bee_group":{"antennae":"B","wings":"1","pattern":"X","legs":"X"},"bonus":0.5600000000000014},{"rt":4657.5,"stimulus":"bees-with-color/bee-A1DF.svg","response":0,"trial_type":"image-button-response","trial_index":7,"time_elapsed":181124,"internal_node_id":"0.0-4.0-0.0","subject_id":"5d4459fdfdaaad00180ec101","study_id":"60edd13110225f80f9f3709b","session_id":"6196c1f76890184fbe6f5612","condition":"contingent","relevant_dimensions":["antennae","wings"],"bee_group":{"antennae":"B","wings":"1","pattern":"X","legs":"X"},"action":"harvest","summary":"good-harvest","bonus":0.5600000000000014},{"rt":14252.59999999404,"stimulus":"\n                    <p><b>Action: <em>harvest</em></b></p>\n                    <p>This is the bee that you just saw.</p>\n                    <img src=\"bees-with-color/bee-A1DF.svg\" width=\"200\">\n                    <p><span class=\"greenText\"><b>Successful harvest!</b></span><br>Your pay has increased by $0.02. Your bonus pay is now $0.56.</p>\n            ","response":0,"trial_type":"html-button-response","trial_index":8,"time_elapsed":195378,"internal_node_id":"0.0-4.0-1.0","subject_id":"5d4459fdfdaaad00180ec101","study_id":"60edd13110225f80f9f3709b","session_id":"6196c1f76890184fbe6f5612","condition":"contingent","relevant_dimensions":["antennae","wings"],"bee_group":{"antennae":"B","wings":"1","pattern":"X","legs":"X"},"bonus":0.5600000000000014},{"rt":2859.5,"stimulus":"bees-with-color/bee-B1DF.svg","response":0,"trial_type":"image-button-response","trial_index":9,"time_elapsed":198239,"internal_node_id":"0.0-4.0-0.1","subject_id":"5d4459fdfdaaad00180ec101","study_id":"60edd13110225f80f9f3709b","session_id":"6196c1f76890184fbe6f5612","condition":"contingent","relevant_dimensions":["antennae","wings"],"bee_group":{"antennae":"B","wings":"1","pattern":"X","legs":"X"},"action":"harvest","summary":"bad-harvest","bonus":0.5600000000000014},{"rt":7729.0999999940395,"stimulus":"\n                    <p><b>Action: <em>harvest</em></b></p>\n                    <p>This is the bee that you just saw.</p>\n                    <img src=\"bees-with-color/bee-B1DF.svg\" width=\"200\">\n                    <p><span class=\"redText\">Bad choice, the bee was angry.</span><br><b>You have been stung!</b><br>Your pay has been decreased by $0.10. Your bonus pay is now $0.46.</p>\n            ","response":0,"trial_type":"html-button-response","trial_index":10,"time_elapsed":205969,"internal_node_id":"0.0-4.0-1.1","subject_id":"5d4459fdfdaaad00180ec101","study_id":"60edd13110225f80f9f3709b","session_id":"6196c1f76890184fbe6f5612","condition":"contingent","relevant_dimensions":["antennae","wings"],"bee_group":{"antennae":"B","wings":"1","pattern":"X","legs":"X"},"bonus":0.5600000000000014},{"rt":2753.5999999940395,"stimulus":"bees-with-color/bee-A1DM.svg","response":0,"trial_type":"image-button-response","trial_index":11,"time_elapsed":208724,"internal_node_id":"0.0-4.0-0.2","subject_id":"5d4459fdfdaaad00180ec101","study_id":"60edd13110225f80f9f3709b","session_id":"6196c1f76890184fbe6f5612","condition":"contingent","relevant_dimensions":["antennae","wings"],"bee_group":{"antennae":"B","wings":"1","pattern":"X","legs":"X"},"action":"harvest","summary":"good-harvest","bonus":0.5600000000000014},{"rt":3176.800000011921,"stimulus":"\n                    <p><b>Action: <em>harvest</em></b></p>\n                    <p>This is the bee that you just saw.</p>\n                    <img src=\"bees-with-color/bee-A1DM.svg\" width=\"200\">\n                    <p><span class=\"greenText\"><b>Successful harvest!</b></span><br>Your pay has increased by $0.02. Your bonus pay is now $0.48.</p>\n            ","response":0,"trial_type":"html-button-response","trial_index":12,"time_elapsed":211902,"internal_node_id":"0.0-4.0-1.2","subject_id":"5d4459fdfdaaad00180ec101","study_id":"60edd13110225f80f9f3709b","session_id":"6196c1f76890184fbe6f5612","condition":"contingent","relevant_dimensions":["antennae","wings"],"bee_group":{"antennae":"B","wings":"1","pattern":"X","legs":"X"},"bonus":0.5600000000000014},{"rt":1736.9000000059605,"stimulus":"bees-with-color/bee-B1SM.svg","response":1,"trial_type":"image-button-response","trial_index":13,"time_elapsed":213640,"internal_node_id":"0.0-4.0-0.3","subject_id":"5d4459fdfdaaad00180ec101","study_id":"60edd13110225f80f9f3709b","session_id":"6196c1f76890184fbe6f5612","condition":"contingent","relevant_dimensions":["antennae","wings"],"bee_group":{"antennae":"B","wings":"1","pattern":"X","legs":"X"},"action":"avoid","summary":"good-avoid","bonus":0.5600000000000014},{"rt":1936.199999988079,"stimulus":"\n                    <p><b>Action: <em>avoid</em></b></p>\n                    <p>This is the bee that you just saw.</p>\n                    <img src=\"bees-with-color/bee-B1SM.svg\" width=\"200\">\n                    <p><br>Your bonus pay is unchanged, and remains at $0.48.</p>\n            ","response":0,"trial_type":"html-button-response","trial_index":14,"time_elapsed":215577,"internal_node_id":"0.0-4.0-1.3","subject_id":"5d4459fdfdaaad00180ec101","study_id":"60edd13110225f80f9f3709b","session_id":"6196c1f76890184fbe6f5612","condition":"contingent","relevant_dimensions":["antennae","wings"],"bee_group":{"antennae":"B","wings":"1","pattern":"X","legs":"X"},"bonus":0.5600000000000014},{"rt":4966.4000000059605,"stimulus":"bees-with-color/bee-B2SF.svg","response":1,"trial_type":"image-button-response","trial_index":15,"time_elapsed":220545,"internal_node_id":"0.0-4.0-0.4","subject_id":"5d4459fdfdaaad00180ec101","study_id":"60edd13110225f80f9f3709b","session_id":"6196c1f76890184fbe6f5612","condition":"contingent","relevant_dimensions":["antennae","wings"],"bee_group":{"antennae":"B","wings":"1","pattern":"X","legs":"X"},"action":"avoid","summary":"bad-avoid","bonus":0.5600000000000014},{"rt":668.9000000059605,"stimulus":"\n                    <p><b>Action: <em>avoid</em></b></p>\n                    <p>This is the bee that you just saw.</p>\n                    <img src=\"bees-with-color/bee-B2SF.svg\" width=\"200\">\n                    <p><br>Your bonus pay is unchanged, and remains at $0.48.</p>\n            ","response":0,"trial_type":"html-button-response","trial_index":16,"time_elapsed":221214,"internal_node_id":"0.0-4.0-1.4","subject_id":"5d4459fdfdaaad00180ec101","study_id":"60edd13110225f80f9f3709b","session_id":"6196c1f76890184fbe6f5612","condition":"contingent","relevant_dimensions":["antennae","wings"],"bee_group":{"antennae":"B","wings":"1","pattern":"X","legs":"X"},"bonus":0.5600000000000014},{"rt":1446,"stimulus":"bees-with-color/bee-A1SM.svg","response":0,"trial_type":"image-button-response","trial_index":17,"time_elapsed":222661,"internal_node_id":"0.0-4.0-0.5","subject_id":"5d4459fdfdaaad00180ec101","study_id":"60edd13110225f80f9f3709b","session_id":"6196c1f76890184fbe6f5612","condition":"contingent","relevant_dimensions":["antennae","wings"],"bee_group":{"antennae":"B","wings":"1","pattern":"X","legs":"X"},"action":"harvest","summary":"good-harvest","bonus":0.5600000000000014},{"rt":911.1999999880791,"stimulus":"\n                    <p><b>Action: <em>harvest</em></b></p>\n                    <p>This is the bee that you just saw.</p>\n                    <img src=\"bees-with-color/bee-A1SM.svg\" width=\"200\">\n                    <p><span class=\"greenText\"><b>Successful harvest!</b></span><br>Your pay has increased by $0.02. Your bonus pay is now $0.50.</p>\n            ","response":0,"trial_type":"html-button-response","trial_index":18,"time_elapsed":223573,"internal_node_id":"0.0-4.0-1.5","subject_id":"5d4459fdfdaaad00180ec101","study_id":"60edd13110225f80f9f3709b","session_id":"6196c1f76890184fbe6f5612","condition":"contingent","relevant_dimensions":["antennae","wings"],"bee_group":{"antennae":"B","wings":"1","pattern":"X","legs":"X"},"bonus":0.5600000000000014},{"rt":2939.4000000059605,"stimulus":"bees-with-color/bee-A2DM.svg","response":0,"trial_type":"image-button-response","trial_index":19,"time_elapsed":226514,"internal_node_id":"0.0-4.0-0.6","subject_id":"5d4459fdfdaaad00180ec101","study_id":"60edd13110225f80f9f3709b","session_id":"6196c1f76890184fbe6f5612","condition":"contingent","relevant_dimensions":["antennae","wings"],"bee_group":{"antennae":"B","wings":"1","pattern":"X","legs":"X"},"action":"harvest","summary":"good-harvest","bonus":0.5600000000000014},{"rt":961.9000000059605,"stimulus":"\n                    <p><b>Action: <em>harvest</em></b></p>\n                    <p>This is the bee that you just saw.</p>\n                    <img src=\"bees-with-color/bee-A2DM.svg\" width=\"200\">\n                    <p><span class=\"greenText\"><b>Successful harvest!</b></span><br>Your pay has increased by $0.02. Your bonus pay is now $0.52.</p>\n            ","response":0,"trial_type":"html-button-response","trial_index":20,"time_elapsed":227476,"internal_node_id":"0.0-4.0-1.6","subject_id":"5d4459fdfdaaad00180ec101","study_id":"60edd13110225f80f9f3709b","session_id":"6196c1f76890184fbe6f5612","condition":"contingent","relevant_dimensions":["antennae","wings"],"bee_group":{"antennae":"B","wings":"1","pattern":"X","legs":"X"},"bonus":0.5600000000000014},{"rt":2415,"stimulus":"bees-with-color/bee-B2SM.svg","response":0,"trial_type":"image-button-response","trial_index":21,"time_elapsed":229892,"internal_node_id":"0.0-4.0-0.7","subject_id":"5d4459fdfdaaad00180ec101","study_id":"60edd13110225f80f9f3709b","session_id":"6196c1f76890184fbe6f5612","condition":"contingent","relevant_dimensions":["antennae","wings"],"bee_group":{"antennae":"B","wings":"1","pattern":"X","legs":"X"},"action":"harvest","summary":"good-harvest","bonus":0.5600000000000014},{"rt":2502.0999999940395,"stimulus":"\n                    <p><b>Action: <em>harvest</em></b></p>\n                    <p>This is the bee that you just saw.</p>\n                    <img src=\"bees-with-color/bee-B2SM.svg\" width=\"200\">\n                    <p><span class=\"greenText\"><b>Successful harvest!</b></span><br>Your pay has increased by $0.02. Your bonus pay is now $0.54.</p>\n            ","response":0,"trial_type":"html-button-response","trial_index":22,"time_elapsed":232395,"internal_node_id":"0.0-4.0-1.7","subject_id":"5d4459fdfdaaad00180ec101","study_id":"60edd13110225f80f9f3709b","session_id":"6196c1f76890184fbe6f5612","condition":"contingent","relevant_dimensions":["antennae","wings"],"bee_group":{"antennae":"B","wings":"1","pattern":"X","legs":"X"},"bonus":0.5600000000000014},{"rt":2133.7000000178814,"stimulus":"bees-with-color/bee-A1SF.svg","response":0,"trial_type":"image-button-response","trial_index":23,"time_elapsed":234530,"internal_node_id":"0.0-4.0-0.8","subject_id":"5d4459fdfdaaad00180ec101","study_id":"60edd13110225f80f9f3709b","session_id":"6196c1f76890184fbe6f5612","condition":"contingent","relevant_dimensions":["antennae","wings"],"bee_group":{"antennae":"B","wings":"1","pattern":"X","legs":"X"},"action":"harvest","summary":"good-harvest","bonus":0.5600000000000014},{"rt":1753.0999999940395,"stimulus":"\n                    <p><b>Action: <em>harvest</em></b></p>\n                    <p>This is the bee that you just saw.</p>\n                    <img src=\"bees-with-color/bee-A1SF.svg\" width=\"200\">\n                    <p><span class=\"greenText\"><b>Successful harvest!</b></span><br>Your pay has increased by $0.02. Your bonus pay is now $0.56.</p>\n            ","response":0,"trial_type":"html-button-response","trial_index":24,"time_elapsed":236284,"internal_node_id":"0.0-4.0-1.8","subject_id":"5d4459fdfdaaad00180ec101","study_id":"60edd13110225f80f9f3709b","session_id":"6196c1f76890184fbe6f5612","condition":"contingent","relevant_dimensions":["antennae","wings"],"bee_group":{"antennae":"B","wings":"1","pattern":"X","legs":"X"},"bonus":0.5600000000000014},{"rt":3623.9000000059605,"stimulus":"bees-with-color/bee-A2DF.svg","response":0,"trial_type":"image-button-response","trial_index":25,"time_elapsed":239909,"internal_node_id":"0.0-4.0-0.9","subject_id":"5d4459fdfdaaad00180ec101","study_id":"60edd13110225f80f9f3709b","session_id":"6196c1f76890184fbe6f5612","condition":"contingent","relevant_dimensions":["antennae","wings"],"bee_group":{"antennae":"B","wings":"1","pattern":"X","legs":"X"},"action":"harvest","summary":"good-harvest","bonus":0.5600000000000014},{"rt":2170.199999988079,"stimulus":"\n                    <p><b>Action: <em>harvest</em></b></p>\n                    <p>This is the bee that you just saw.</p>\n                    <img src=\"bees-with-color/bee-A2DF.svg\" width=\"200\">\n                    <p><span class=\"greenText\"><b>Successful harvest!</b></span><br>Your pay has increased by $0.02. Your bonus pay is now $0.58.</p>\n            ","response":0,"trial_type":"html-button-response","trial_index":26,"time_elapsed":242080,"internal_node_id":"0.0-4.0-1.9","subject_id":"5d4459fdfdaaad00180ec101","study_id":"60edd13110225f80f9f3709b","session_id":"6196c1f76890184fbe6f5612","condition":"contingent","relevant_dimensions":["antennae","wings"],"bee_group":{"antennae":"B","wings":"1","pattern":"X","legs":"X"},"bonus":0.5600000000000014},{"rt":3819.0999999940395,"stimulus":"bees-with-color/bee-B1DM.svg","response":0,"trial_type":"image-button-response","trial_index":27,"time_elapsed":245900,"internal_node_id":"0.0-4.0-0.10","subject_id":"5d4459fdfdaaad00180ec101","study_id":"60edd13110225f80f9f3709b","session_id":"6196c1f76890184fbe6f5612","condition":"contingent","relevant_dimensions":["antennae","wings"],"bee_group":{"antennae":"B","wings":"1","pattern":"X","legs":"X"},"action":"harvest","summary":"bad-harvest","bonus":0.5600000000000014},{"rt":1365.2999999821186,"stimulus":"\n                    <p><b>Action: <em>harvest</em></b></p>\n                    <p>This is the bee that you just saw.</p>\n                    <img src=\"bees-with-color/bee-B1DM.svg\" width=\"200\">\n                    <p><span class=\"redText\">Bad choice, the bee was angry.</span><br><b>You have been stung!</b><br>Your pay has been decreased by $0.10. Your bonus pay is now $0.48.</p>\n            ","response":0,"trial_type":"html-button-response","trial_index":28,"time_elapsed":247266,"internal_node_id":"0.0-4.0-1.10","subject_id":"5d4459fdfdaaad00180ec101","study_id":"60edd13110225f80f9f3709b","session_id":"6196c1f76890184fbe6f5612","condition":"contingent","relevant_dimensions":["antennae","wings"],"bee_group":{"antennae":"B","wings":"1","pattern":"X","legs":"X"},"bonus":0.5600000000000014},{"rt":4619.0999999940395,"stimulus":"bees-with-color/bee-A2SF.svg","response":0,"trial_type":"image-button-response","trial_index":29,"time_elapsed":251886,"internal_node_id":"0.0-4.0-0.11","subject_id":"5d4459fdfdaaad00180ec101","study_id":"60edd13110225f80f9f3709b","session_id":"6196c1f76890184fbe6f5612","condition":"contingent","relevant_dimensions":["antennae","wings"],"bee_group":{"antennae":"B","wings":"1","pattern":"X","legs":"X"},"action":"harvest","summary":"good-harvest","bonus":0.5600000000000014},{"rt":672,"stimulus":"\n                    <p><b>Action: <em>harvest</em></b></p>\n                    <p>This is the bee that you just saw.</p>\n                    <img src=\"bees-with-color/bee-A2SF.svg\" width=\"200\">\n                    <p><span class=\"greenText\"><b>Successful harvest!</b></span><br>Your pay has increased by $0.02. Your bonus pay is now $0.50.</p>\n            ","response":0,"trial_type":"html-button-response","trial_index":30,"time_elapsed":252559,"internal_node_id":"0.0-4.0-1.11","subject_id":"5d4459fdfdaaad00180ec101","study_id":"60edd13110225f80f9f3709b","session_id":"6196c1f76890184fbe6f5612","condition":"contingent","relevant_dimensions":["antennae","wings"],"bee_group":{"antennae":"B","wings":"1","pattern":"X","legs":"X"},"bonus":0.5600000000000014},{"rt":1600.0999999940395,"stimulus":"bees-with-color/bee-B1SF.svg","response":0,"trial_type":"image-button-response","trial_index":31,"time_elapsed":254160,"internal_node_id":"0.0-4.0-0.12","subject_id":"5d4459fdfdaaad00180ec101","study_id":"60edd13110225f80f9f3709b","session_id":"6196c1f76890184fbe6f5612","condition":"contingent","relevant_dimensions":["antennae","wings"],"bee_group":{"antennae":"B","wings":"1","pattern":"X","legs":"X"},"action":"harvest","summary":"bad-harvest","bonus":0.5600000000000014},{"rt":4043.0999999940395,"stimulus":"\n                    <p><b>Action: <em>harvest</em></b></p>\n                    <p>This is the bee that you just saw.</p>\n                    <img src=\"bees-with-color/bee-B1SF.svg\" width=\"200\">\n                    <p><span class=\"redText\">Bad choice, the bee was angry.</span><br><b>You have been stung!</b><br>Your pay has been decreased by $0.10. Your bonus pay is now $0.40.</p>\n            ","response":0,"trial_type":"html-button-response","trial_index":32,"time_elapsed":258204,"internal_node_id":"0.0-4.0-1.12","subject_id":"5d4459fdfdaaad00180ec101","study_id":"60edd13110225f80f9f3709b","session_id":"6196c1f76890184fbe6f5612","condition":"contingent","relevant_dimensions":["antennae","wings"],"bee_group":{"antennae":"B","wings":"1","pattern":"X","legs":"X"},"bonus":0.5600000000000014},{"rt":3023,"stimulus":"bees-with-color/bee-B2DF.svg","response":0,"trial_type":"image-button-response","trial_index":33,"time_elapsed":261228,"internal_node_id":"0.0-4.0-0.13","subject_id":"5d4459fdfdaaad00180ec101","study_id":"60edd13110225f80f9f3709b","session_id":"6196c1f76890184fbe6f5612","condition":"contingent","relevant_dimensions":["antennae","wings"],"bee_group":{"antennae":"B","wings":"1","pattern":"X","legs":"X"},"action":"harvest","summary":"good-harvest","bonus":0.5600000000000014},{"rt":2029,"stimulus":"\n                    <p><b>Action: <em>harvest</em></b></p>\n                    <p>This is the bee that you just saw.</p>\n                    <img src=\"bees-with-color/bee-B2DF.svg\" width=\"200\">\n                    <p><span class=\"greenText\"><b>Successful harvest!</b></span><br>Your pay has increased by $0.02. Your bonus pay is now $0.42.</p>\n            ","response":0,"trial_type":"html-button-response","trial_index":34,"time_elapsed":263258,"internal_node_id":"0.0-4.0-1.13","subject_id":"5d4459fdfdaaad00180ec101","study_id":"60edd13110225f80f9f3709b","session_id":"6196c1f76890184fbe6f5612","condition":"contingent","relevant_dimensions":["antennae","wings"],"bee_group":{"antennae":"B","wings":"1","pattern":"X","legs":"X"},"bonus":0.5600000000000014},{"rt":1086,"stimulus":"bees-with-color/bee-A2SM.svg","response":0,"trial_type":"image-button-response","trial_index":35,"time_elapsed":264345,"internal_node_id":"0.0-4.0-0.14","subject_id":"5d4459fdfdaaad00180ec101","study_id":"60edd13110225f80f9f3709b","session_id":"6196c1f76890184fbe6f5612","condition":"contingent","relevant_dimensions":["antennae","wings"],"bee_group":{"antennae":"B","wings":"1","pattern":"X","legs":"X"},"action":"harvest","summary":"good-harvest","bonus":0.5600000000000014},{"rt":445.09999999403954,"stimulus":"\n                    <p><b>Action: <em>harvest</em></b></p>\n                    <p>This is the bee that you just saw.</p>\n                    <img src=\"bees-with-color/bee-A2SM.svg\" width=\"200\">\n                    <p><span class=\"greenText\"><b>Successful harvest!</b></span><br>Your pay has increased by $0.02. Your bonus pay is now $0.44.</p>\n            ","response":0,"trial_type":"html-button-response","trial_index":36,"time_elapsed":264791,"internal_node_id":"0.0-4.0-1.14","subject_id":"5d4459fdfdaaad00180ec101","study_id":"60edd13110225f80f9f3709b","session_id":"6196c1f76890184fbe6f5612","condition":"contingent","relevant_dimensions":["antennae","wings"],"bee_group":{"antennae":"B","wings":"1","pattern":"X","legs":"X"},"bonus":0.5600000000000014},{"rt":2059.0999999940395,"stimulus":"bees-with-color/bee-B2DM.svg","response":0,"trial_type":"image-button-response","trial_index":37,"time_elapsed":266851,"internal_node_id":"0.0-4.0-0.15","subject_id":"5d4459fdfdaaad00180ec101","study_id":"60edd13110225f80f9f3709b","session_id":"6196c1f76890184fbe6f5612","condition":"contingent","relevant_dimensions":["antennae","wings"],"bee_group":{"antennae":"B","wings":"1","pattern":"X","legs":"X"},"action":"harvest","summary":"good-harvest","bonus":0.5600000000000014},{"rt":590.1999999880791,"stimulus":"\n                    <p><b>Action: <em>harvest</em></b></p>\n                    <p>This is the bee that you just saw.</p>\n                    <img src=\"bees-with-color/bee-B2DM.svg\" width=\"200\">\n                    <p><span class=\"greenText\"><b>Successful harvest!</b></span><br>Your pay has increased by $0.02. Your bonus pay is now $0.46.</p>\n            ","response":0,"trial_type":"html-button-response","trial_index":38,"time_elapsed":267442,"internal_node_id":"0.0-4.0-1.15","subject_id":"5d4459fdfdaaad00180ec101","study_id":"60edd13110225f80f9f3709b","session_id":"6196c1f76890184fbe6f5612","condition":"contingent","relevant_dimensions":["antennae","wings"],"bee_group":{"antennae":"B","wings":"1","pattern":"X","legs":"X"},"bonus":0.5600000000000014},{"rt":2062.300000011921,"stimulus":"bees-with-color/bee-A2SF.svg","response":0,"trial_type":"image-button-response","trial_index":39,"time_elapsed":269505,"internal_node_id":"0.0-4.0-0.16","subject_id":"5d4459fdfdaaad00180ec101","study_id":"60edd13110225f80f9f3709b","session_id":"6196c1f76890184fbe6f5612","condition":"contingent","relevant_dimensions":["antennae","wings"],"bee_group":{"antennae":"B","wings":"1","pattern":"X","legs":"X"},"action":"harvest","summary":"good-harvest","bonus":0.5600000000000014},{"rt":765.3000000119209,"stimulus":"\n                    <p><b>Action: <em>harvest</em></b></p>\n                    <p>This is the bee that you just saw.</p>\n                    <img src=\"bees-with-color/bee-A2SF.svg\" width=\"200\">\n                    <p><span class=\"greenText\"><b>Successful harvest!</b></span><br>Your pay has increased by $0.02. Your bonus pay is now $0.48.</p>\n            ","response":0,"trial_type":"html-button-response","trial_index":40,"time_elapsed":270271,"internal_node_id":"0.0-4.0-1.16","subject_id":"5d4459fdfdaaad00180ec101","study_id":"60edd13110225f80f9f3709b","session_id":"6196c1f76890184fbe6f5612","condition":"contingent","relevant_dimensions":["antennae","wings"],"bee_group":{"antennae":"B","wings":"1","pattern":"X","legs":"X"},"bonus":0.5600000000000014},{"rt":1747.0999999940395,"stimulus":"bees-with-color/bee-B1SF.svg","response":1,"trial_type":"image-button-response","trial_index":41,"time_elapsed":272019,"internal_node_id":"0.0-4.0-0.17","subject_id":"5d4459fdfdaaad00180ec101","study_id":"60edd13110225f80f9f3709b","session_id":"6196c1f76890184fbe6f5612","condition":"contingent","relevant_dimensions":["antennae","wings"],"bee_group":{"antennae":"B","wings":"1","pattern":"X","legs":"X"},"action":"avoid","summary":"good-avoid","bonus":0.5600000000000014},{"rt":492,"stimulus":"\n                    <p><b>Action: <em>avoid</em></b></p>\n                    <p>This is the bee that you just saw.</p>\n                    <img src=\"bees-with-color/bee-B1SF.svg\" width=\"200\">\n                    <p><br>Your bonus pay is unchanged, and remains at $0.48.</p>\n            ","response":0,"trial_type":"html-button-response","trial_index":42,"time_elapsed":272512,"internal_node_id":"0.0-4.0-1.17","subject_id":"5d4459fdfdaaad00180ec101","study_id":"60edd13110225f80f9f3709b","session_id":"6196c1f76890184fbe6f5612","condition":"contingent","relevant_dimensions":["antennae","wings"],"bee_group":{"antennae":"B","wings":"1","pattern":"X","legs":"X"},"bonus":0.5600000000000014},{"rt":1157.300000011921,"stimulus":"bees-with-color/bee-B2DM.svg","response":0,"trial_type":"image-button-response","trial_index":43,"time_elapsed":273670,"internal_node_id":"0.0-4.0-0.18","subject_id":"5d4459fdfdaaad00180ec101","study_id":"60edd13110225f80f9f3709b","session_id":"6196c1f76890184fbe6f5612","condition":"contingent","relevant_dimensions":["antennae","wings"],"bee_group":{"antennae":"B","wings":"1","pattern":"X","legs":"X"},"action":"harvest","summary":"good-harvest","bonus":0.5600000000000014},{"rt":468.19999998807907,"stimulus":"\n                    <p><b>Action: <em>harvest</em></b></p>\n                    <p>This is the bee that you just saw.</p>\n                    <img src=\"bees-with-color/bee-B2DM.svg\" width=\"200\">\n                    <p><span class=\"greenText\"><b>Successful harvest!</b></span><br>Your pay has increased by $0.02. Your bonus pay is now $0.50.</p>\n            ","response":0,"trial_type":"html-button-response","trial_index":44,"time_elapsed":274139,"internal_node_id":"0.0-4.0-1.18","subject_id":"5d4459fdfdaaad00180ec101","study_id":"60edd13110225f80f9f3709b","session_id":"6196c1f76890184fbe6f5612","condition":"contingent","relevant_dimensions":["antennae","wings"],"bee_group":{"antennae":"B","wings":"1","pattern":"X","legs":"X"},"bonus":0.5600000000000014},{"rt":1078.0999999940395,"stimulus":"bees-with-color/bee-B1SM.svg","response":0,"trial_type":"image-button-response","trial_index":45,"time_elapsed":275218,"internal_node_id":"0.0-4.0-0.19","subject_id":"5d4459fdfdaaad00180ec101","study_id":"60edd13110225f80f9f3709b","session_id":"6196c1f76890184fbe6f5612","condition":"contingent","relevant_dimensions":["antennae","wings"],"bee_group":{"antennae":"B","wings":"1","pattern":"X","legs":"X"},"action":"harvest","summary":"bad-harvest","bonus":0.5600000000000014},{"rt":604.1999999880791,"stimulus":"\n                    <p><b>Action: <em>harvest</em></b></p>\n                    <p>This is the bee that you just saw.</p>\n                    <img src=\"bees-with-color/bee-B1SM.svg\" width=\"200\">\n                    <p><span class=\"redText\">Bad choice, the bee was angry.</span><br><b>You have been stung!</b><br>Your pay has been decreased by $0.10. Your bonus pay is now $0.40.</p>\n            ","response":0,"trial_type":"html-button-response","trial_index":46,"time_elapsed":275823,"internal_node_id":"0.0-4.0-1.19","subject_id":"5d4459fdfdaaad00180ec101","study_id":"60edd13110225f80f9f3709b","session_id":"6196c1f76890184fbe6f5612","condition":"contingent","relevant_dimensions":["antennae","wings"],"bee_group":{"antennae":"B","wings":"1","pattern":"X","legs":"X"},"bonus":0.5600000000000014},{"rt":1463.199999988079,"stimulus":"bees-with-color/bee-A1DM.svg","response":0,"trial_type":"image-button-response","trial_index":47,"time_elapsed":277287,"internal_node_id":"0.0-4.0-0.20","subject_id":"5d4459fdfdaaad00180ec101","study_id":"60edd13110225f80f9f3709b","session_id":"6196c1f76890184fbe6f5612","condition":"contingent","relevant_dimensions":["antennae","wings"],"bee_group":{"antennae":"B","wings":"1","pattern":"X","legs":"X"},"action":"harvest","summary":"good-harvest","bonus":0.5600000000000014},{"rt":545.0999999940395,"stimulus":"\n                    <p><b>Action: <em>harvest</em></b></p>\n                    <p>This is the bee that you just saw.</p>\n                    <img src=\"bees-with-color/bee-A1DM.svg\" width=\"200\">\n                    <p><span class=\"greenText\"><b>Successful harvest!</b></span><br>Your pay has increased by $0.02. Your bonus pay is now $0.42.</p>\n            ","response":0,"trial_type":"html-button-response","trial_index":48,"time_elapsed":277833,"internal_node_id":"0.0-4.0-1.20","subject_id":"5d4459fdfdaaad00180ec101","study_id":"60edd13110225f80f9f3709b","session_id":"6196c1f76890184fbe6f5612","condition":"contingent","relevant_dimensions":["antennae","wings"],"bee_group":{"antennae":"B","wings":"1","pattern":"X","legs":"X"},"bonus":0.5600000000000014},{"rt":800.0999999940395,"stimulus":"bees-with-color/bee-A2DM.svg","response":0,"trial_type":"image-button-response","trial_index":49,"time_elapsed":278634,"internal_node_id":"0.0-4.0-0.21","subject_id":"5d4459fdfdaaad00180ec101","study_id":"60edd13110225f80f9f3709b","session_id":"6196c1f76890184fbe6f5612","condition":"contingent","relevant_dimensions":["antennae","wings"],"bee_group":{"antennae":"B","wings":"1","pattern":"X","legs":"X"},"action":"harvest","summary":"good-harvest","bonus":0.5600000000000014},{"rt":389,"stimulus":"\n                    <p><b>Action: <em>harvest</em></b></p>\n                    <p>This is the bee that you just saw.</p>\n                    <img src=\"bees-with-color/bee-A2DM.svg\" width=\"200\">\n                    <p><span class=\"greenText\"><b>Successful harvest!</b></span><br>Your pay has increased by $0.02. Your bonus pay is now $0.44.</p>\n            ","response":0,"trial_type":"html-button-response","trial_index":50,"time_elapsed":279024,"internal_node_id":"0.0-4.0-1.21","subject_id":"5d4459fdfdaaad00180ec101","study_id":"60edd13110225f80f9f3709b","session_id":"6196c1f76890184fbe6f5612","condition":"contingent","relevant_dimensions":["antennae","wings"],"bee_group":{"antennae":"B","wings":"1","pattern":"X","legs":"X"},"bonus":0.5600000000000014},{"rt":2407.4000000059605,"stimulus":"bees-with-color/bee-B2DF.svg","response":0,"trial_type":"image-button-response","trial_index":51,"time_elapsed":281432,"internal_node_id":"0.0-4.0-0.22","subject_id":"5d4459fdfdaaad00180ec101","study_id":"60edd13110225f80f9f3709b","session_id":"6196c1f76890184fbe6f5612","condition":"contingent","relevant_dimensions":["antennae","wings"],"bee_group":{"antennae":"B","wings":"1","pattern":"X","legs":"X"},"action":"harvest","summary":"good-harvest","bonus":0.5600000000000014},{"rt":706.1999999880791,"stimulus":"\n                    <p><b>Action: <em>harvest</em></b></p>\n                    <p>This is the bee that you just saw.</p>\n                    <img src=\"bees-with-color/bee-B2DF.svg\" width=\"200\">\n                    <p><span class=\"greenText\"><b>Successful harvest!</b></span><br>Your pay has increased by $0.02. Your bonus pay is now $0.46.</p>\n            ","response":0,"trial_type":"html-button-response","trial_index":52,"time_elapsed":282139,"internal_node_id":"0.0-4.0-1.22","subject_id":"5d4459fdfdaaad00180ec101","study_id":"60edd13110225f80f9f3709b","session_id":"6196c1f76890184fbe6f5612","condition":"contingent","relevant_dimensions":["antennae","wings"],"bee_group":{"antennae":"B","wings":"1","pattern":"X","legs":"X"},"bonus":0.5600000000000014},{"rt":1524.300000011921,"stimulus":"bees-with-color/bee-A1SF.svg","response":0,"trial_type":"image-button-response","trial_index":53,"time_elapsed":283664,"internal_node_id":"0.0-4.0-0.23","subject_id":"5d4459fdfdaaad00180ec101","study_id":"60edd13110225f80f9f3709b","session_id":"6196c1f76890184fbe6f5612","condition":"contingent","relevant_dimensions":["antennae","wings"],"bee_group":{"antennae":"B","wings":"1","pattern":"X","legs":"X"},"action":"harvest","summary":"good-harvest","bonus":0.5600000000000014},{"rt":512.2999999821186,"stimulus":"\n                    <p><b>Action: <em>harvest</em></b></p>\n                    <p>This is the bee that you just saw.</p>\n                    <img src=\"bees-with-color/bee-A1SF.svg\" width=\"200\">\n                    <p><span class=\"greenText\"><b>Successful harvest!</b></span><br>Your pay has increased by $0.02. Your bonus pay is now $0.48.</p>\n            ","response":0,"trial_type":"html-button-response","trial_index":54,"time_elapsed":284177,"internal_node_id":"0.0-4.0-1.23","subject_id":"5d4459fdfdaaad00180ec101","study_id":"60edd13110225f80f9f3709b","session_id":"6196c1f76890184fbe6f5612","condition":"contingent","relevant_dimensions":["antennae","wings"],"bee_group":{"antennae":"B","wings":"1","pattern":"X","legs":"X"},"bonus":0.5600000000000014},{"rt":1974.0999999940395,"stimulus":"bees-with-color/bee-B2SM.svg","response":0,"trial_type":"image-button-response","trial_index":55,"time_elapsed":286152,"internal_node_id":"0.0-4.0-0.24","subject_id":"5d4459fdfdaaad00180ec101","study_id":"60edd13110225f80f9f3709b","session_id":"6196c1f76890184fbe6f5612","condition":"contingent","relevant_dimensions":["antennae","wings"],"bee_group":{"antennae":"B","wings":"1","pattern":"X","legs":"X"},"action":"harvest","summary":"good-harvest","bonus":0.5600000000000014},{"rt":1159.0999999940395,"stimulus":"\n                    <p><b>Action: <em>harvest</em></b></p>\n                    <p>This is the bee that you just saw.</p>\n                    <img src=\"bees-with-color/bee-B2SM.svg\" width=\"200\">\n                    <p><span class=\"greenText\"><b>Successful harvest!</b></span><br>Your pay has increased by $0.02. Your bonus pay is now $0.50.</p>\n            ","response":0,"trial_type":"html-button-response","trial_index":56,"time_elapsed":287312,"internal_node_id":"0.0-4.0-1.24","subject_id":"5d4459fdfdaaad00180ec101","study_id":"60edd13110225f80f9f3709b","session_id":"6196c1f76890184fbe6f5612","condition":"contingent","relevant_dimensions":["antennae","wings"],"bee_group":{"antennae":"B","wings":"1","pattern":"X","legs":"X"},"bonus":0.5600000000000014},{"rt":1565.300000011921,"stimulus":"bees-with-color/bee-A1DF.svg","response":0,"trial_type":"image-button-response","trial_index":57,"time_elapsed":288878,"internal_node_id":"0.0-4.0-0.25","subject_id":"5d4459fdfdaaad00180ec101","study_id":"60edd13110225f80f9f3709b","session_id":"6196c1f76890184fbe6f5612","condition":"contingent","relevant_dimensions":["antennae","wings"],"bee_group":{"antennae":"B","wings":"1","pattern":"X","legs":"X"},"action":"harvest","summary":"good-harvest","bonus":0.5600000000000014},{"rt":466.19999998807907,"stimulus":"\n                    <p><b>Action: <em>harvest</em></b></p>\n                    <p>This is the bee that you just saw.</p>\n                    <img src=\"bees-with-color/bee-A1DF.svg\" width=\"200\">\n                    <p><span class=\"greenText\"><b>Successful harvest!</b></span><br>Your pay has increased by $0.02. Your bonus pay is now $0.52.</p>\n            ","response":0,"trial_type":"html-button-response","trial_index":58,"time_elapsed":289345,"internal_node_id":"0.0-4.0-1.25","subject_id":"5d4459fdfdaaad00180ec101","study_id":"60edd13110225f80f9f3709b","session_id":"6196c1f76890184fbe6f5612","condition":"contingent","relevant_dimensions":["antennae","wings"],"bee_group":{"antennae":"B","wings":"1","pattern":"X","legs":"X"},"bonus":0.5600000000000014},{"rt":6873.199999988079,"stimulus":"bees-with-color/bee-B2SF.svg","response":0,"trial_type":"image-button-response","trial_index":59,"time_elapsed":296220,"internal_node_id":"0.0-4.0-0.26","subject_id":"5d4459fdfdaaad00180ec101","study_id":"60edd13110225f80f9f3709b","session_id":"6196c1f76890184fbe6f5612","condition":"contingent","relevant_dimensions":["antennae","wings"],"bee_group":{"antennae":"B","wings":"1","pattern":"X","legs":"X"},"action":"harvest","summary":"good-harvest","bonus":0.5600000000000014},{"rt":1133.0999999940395,"stimulus":"\n                    <p><b>Action: <em>harvest</em></b></p>\n                    <p>This is the bee that you just saw.</p>\n                    <img src=\"bees-with-color/bee-B2SF.svg\" width=\"200\">\n                    <p><span class=\"greenText\"><b>Successful harvest!</b></span><br>Your pay has increased by $0.02. Your bonus pay is now $0.54.</p>\n            ","response":0,"trial_type":"html-button-response","trial_index":60,"time_elapsed":297354,"internal_node_id":"0.0-4.0-1.26","subject_id":"5d4459fdfdaaad00180ec101","study_id":"60edd13110225f80f9f3709b","session_id":"6196c1f76890184fbe6f5612","condition":"contingent","relevant_dimensions":["antennae","wings"],"bee_group":{"antennae":"B","wings":"1","pattern":"X","legs":"X"},"bonus":0.5600000000000014},{"rt":2330.9000000059605,"stimulus":"bees-with-color/bee-A2DF.svg","response":0,"trial_type":"image-button-response","trial_index":61,"time_elapsed":299686,"internal_node_id":"0.0-4.0-0.27","subject_id":"5d4459fdfdaaad00180ec101","study_id":"60edd13110225f80f9f3709b","session_id":"6196c1f76890184fbe6f5612","condition":"contingent","relevant_dimensions":["antennae","wings"],"bee_group":{"antennae":"B","wings":"1","pattern":"X","legs":"X"},"action":"harvest","summary":"good-harvest","bonus":0.5600000000000014},{"rt":501.09999999403954,"stimulus":"\n                    <p><b>Action: <em>harvest</em></b></p>\n                    <p>This is the bee that you just saw.</p>\n                    <img src=\"bees-with-color/bee-A2DF.svg\" width=\"200\">\n                    <p><span class=\"greenText\"><b>Successful harvest!</b></span><br>Your pay has increased by $0.02. Your bonus pay is now $0.56.</p>\n            ","response":0,"trial_type":"html-button-response","trial_index":62,"time_elapsed":300188,"internal_node_id":"0.0-4.0-1.27","subject_id":"5d4459fdfdaaad00180ec101","study_id":"60edd13110225f80f9f3709b","session_id":"6196c1f76890184fbe6f5612","condition":"contingent","relevant_dimensions":["antennae","wings"],"bee_group":{"antennae":"B","wings":"1","pattern":"X","legs":"X"},"bonus":0.5600000000000014},{"rt":4242.0999999940395,"stimulus":"bees-with-color/bee-B1DM.svg","response":1,"trial_type":"image-button-response","trial_index":63,"time_elapsed":304431,"internal_node_id":"0.0-4.0-0.28","subject_id":"5d4459fdfdaaad00180ec101","study_id":"60edd13110225f80f9f3709b","session_id":"6196c1f76890184fbe6f5612","condition":"contingent","relevant_dimensions":["antennae","wings"],"bee_group":{"antennae":"B","wings":"1","pattern":"X","legs":"X"},"action":"avoid","summary":"good-avoid","bonus":0.5600000000000014},{"rt":451,"stimulus":"\n                    <p><b>Action: <em>avoid</em></b></p>\n                    <p>This is the bee that you just saw.</p>\n                    <img src=\"bees-with-color/bee-B1DM.svg\" width=\"200\">\n                    <p><br>Your bonus pay is unchanged, and remains at $0.56.</p>\n            ","response":0,"trial_type":"html-button-response","trial_index":64,"time_elapsed":304883,"internal_node_id":"0.0-4.0-1.28","subject_id":"5d4459fdfdaaad00180ec101","study_id":"60edd13110225f80f9f3709b","session_id":"6196c1f76890184fbe6f5612","condition":"contingent","relevant_dimensions":["antennae","wings"],"bee_group":{"antennae":"B","wings":"1","pattern":"X","legs":"X"},"bonus":0.5600000000000014},{"rt":1082,"stimulus":"bees-with-color/bee-A1SM.svg","response":0,"trial_type":"image-button-response","trial_index":65,"time_elapsed":305966,"internal_node_id":"0.0-4.0-0.29","subject_id":"5d4459fdfdaaad00180ec101","study_id":"60edd13110225f80f9f3709b","session_id":"6196c1f76890184fbe6f5612","condition":"contingent","relevant_dimensions":["antennae","wings"],"bee_group":{"antennae":"B","wings":"1","pattern":"X","legs":"X"},"action":"harvest","summary":"good-harvest","bonus":0.5600000000000014},{"rt":568,"stimulus":"\n                    <p><b>Action: <em>harvest</em></b></p>\n                    <p>This is the bee that you just saw.</p>\n                    <img src=\"bees-with-color/bee-A1SM.svg\" width=\"200\">\n                    <p><span class=\"greenText\"><b>Successful harvest!</b></span><br>Your pay has increased by $0.02. Your bonus pay is now $0.58.</p>\n            ","response":0,"trial_type":"html-button-response","trial_index":66,"time_elapsed":306535,"internal_node_id":"0.0-4.0-1.29","subject_id":"5d4459fdfdaaad00180ec101","study_id":"60edd13110225f80f9f3709b","session_id":"6196c1f76890184fbe6f5612","condition":"contingent","relevant_dimensions":["antennae","wings"],"bee_group":{"antennae":"B","wings":"1","pattern":"X","legs":"X"},"bonus":0.5600000000000014},{"rt":744.3000000119209,"stimulus":"bees-with-color/bee-A2SM.svg","response":0,"trial_type":"image-button-response","trial_index":67,"time_elapsed":307280,"internal_node_id":"0.0-4.0-0.30","subject_id":"5d4459fdfdaaad00180ec101","study_id":"60edd13110225f80f9f3709b","session_id":"6196c1f76890184fbe6f5612","condition":"contingent","relevant_dimensions":["antennae","wings"],"bee_group":{"antennae":"B","wings":"1","pattern":"X","legs":"X"},"action":"harvest","summary":"good-harvest","bonus":0.5600000000000014},{"rt":342.5,"stimulus":"\n                    <p><b>Action: <em>harvest</em></b></p>\n                    <p>This is the bee that you just saw.</p>\n                    <img src=\"bees-with-color/bee-A2SM.svg\" width=\"200\">\n                    <p><span class=\"greenText\"><b>Successful harvest!</b></span><br>Your pay has increased by $0.02. Your bonus pay is now $0.60.</p>\n            ","response":0,"trial_type":"html-button-response","trial_index":68,"time_elapsed":307623,"internal_node_id":"0.0-4.0-1.30","subject_id":"5d4459fdfdaaad00180ec101","study_id":"60edd13110225f80f9f3709b","session_id":"6196c1f76890184fbe6f5612","condition":"contingent","relevant_dimensions":["antennae","wings"],"bee_group":{"antennae":"B","wings":"1","pattern":"X","legs":"X"},"bonus":0.5600000000000014},{"rt":1070,"stimulus":"bees-with-color/bee-B1DF.svg","response":1,"trial_type":"image-button-response","trial_index":69,"time_elapsed":308694,"internal_node_id":"0.0-4.0-0.31","subject_id":"5d4459fdfdaaad00180ec101","study_id":"60edd13110225f80f9f3709b","session_id":"6196c1f76890184fbe6f5612","condition":"contingent","relevant_dimensions":["antennae","wings"],"bee_group":{"antennae":"B","wings":"1","pattern":"X","legs":"X"},"action":"avoid","summary":"good-avoid","bonus":0.5600000000000014},{"rt":342.09999999403954,"stimulus":"\n                    <p><b>Action: <em>avoid</em></b></p>\n                    <p>This is the bee that you just saw.</p>\n                    <img src=\"bees-with-color/bee-B1DF.svg\" width=\"200\">\n                    <p><br>Your bonus pay is unchanged, and remains at $0.60.</p>\n            ","response":0,"trial_type":"html-button-response","trial_index":70,"time_elapsed":309037,"internal_node_id":"0.0-4.0-1.31","subject_id":"5d4459fdfdaaad00180ec101","study_id":"60edd13110225f80f9f3709b","session_id":"6196c1f76890184fbe6f5612","condition":"contingent","relevant_dimensions":["antennae","wings"],"bee_group":{"antennae":"B","wings":"1","pattern":"X","legs":"X"},"bonus":0.5600000000000014},{"rt":884.2999999821186,"stimulus":"bees-with-color/bee-A2SM.svg","response":0,"trial_type":"image-button-response","trial_index":71,"time_elapsed":309922,"internal_node_id":"0.0-4.0-0.32","subject_id":"5d4459fdfdaaad00180ec101","study_id":"60edd13110225f80f9f3709b","session_id":"6196c1f76890184fbe6f5612","condition":"contingent","relevant_dimensions":["antennae","wings"],"bee_group":{"antennae":"B","wings":"1","pattern":"X","legs":"X"},"action":"harvest","summary":"good-harvest","bonus":0.5600000000000014},{"rt":295,"stimulus":"\n                    <p><b>Action: <em>harvest</em></b></p>\n                    <p>This is the bee that you just saw.</p>\n                    <img src=\"bees-with-color/bee-A2SM.svg\" width=\"200\">\n                    <p><span class=\"greenText\"><b>Successful harvest!</b></span><br>Your pay has increased by $0.02. Your bonus pay is now $0.62.</p>\n            ","response":0,"trial_type":"html-button-response","trial_index":72,"time_elapsed":310218,"internal_node_id":"0.0-4.0-1.32","subject_id":"5d4459fdfdaaad00180ec101","study_id":"60edd13110225f80f9f3709b","session_id":"6196c1f76890184fbe6f5612","condition":"contingent","relevant_dimensions":["antennae","wings"],"bee_group":{"antennae":"B","wings":"1","pattern":"X","legs":"X"},"bonus":0.5600000000000014},{"rt":2071.300000011921,"stimulus":"bees-with-color/bee-B2DF.svg","response":0,"trial_type":"image-button-response","trial_index":73,"time_elapsed":312290,"internal_node_id":"0.0-4.0-0.33","subject_id":"5d4459fdfdaaad00180ec101","study_id":"60edd13110225f80f9f3709b","session_id":"6196c1f76890184fbe6f5612","condition":"contingent","relevant_dimensions":["antennae","wings"],"bee_group":{"antennae":"B","wings":"1","pattern":"X","legs":"X"},"action":"harvest","summary":"good-harvest","bonus":0.5600000000000014},{"rt":444.2999999821186,"stimulus":"\n                    <p><b>Action: <em>harvest</em></b></p>\n                    <p>This is the bee that you just saw.</p>\n                    <img src=\"bees-with-color/bee-B2DF.svg\" width=\"200\">\n                    <p><span class=\"greenText\"><b>Successful harvest!</b></span><br>Your pay has increased by $0.02. Your bonus pay is now $0.64.</p>\n            ","response":0,"trial_type":"html-button-response","trial_index":74,"time_elapsed":312735,"internal_node_id":"0.0-4.0-1.33","subject_id":"5d4459fdfdaaad00180ec101","study_id":"60edd13110225f80f9f3709b","session_id":"6196c1f76890184fbe6f5612","condition":"contingent","relevant_dimensions":["antennae","wings"],"bee_group":{"antennae":"B","wings":"1","pattern":"X","legs":"X"},"bonus":0.5600000000000014},{"rt":1150.0999999940395,"stimulus":"bees-with-color/bee-B1SF.svg","response":1,"trial_type":"image-button-response","trial_index":75,"time_elapsed":313886,"internal_node_id":"0.0-4.0-0.34","subject_id":"5d4459fdfdaaad00180ec101","study_id":"60edd13110225f80f9f3709b","session_id":"6196c1f76890184fbe6f5612","condition":"contingent","relevant_dimensions":["antennae","wings"],"bee_group":{"antennae":"B","wings":"1","pattern":"X","legs":"X"},"action":"avoid","summary":"good-avoid","bonus":0.5600000000000014},{"rt":548.2999999821186,"stimulus":"\n                    <p><b>Action: <em>avoid</em></b></p>\n                    <p>This is the bee that you just saw.</p>\n                    <img src=\"bees-with-color/bee-B1SF.svg\" width=\"200\">\n                    <p><br>Your bonus pay is unchanged, and remains at $0.64.</p>\n            ","response":0,"trial_type":"html-button-response","trial_index":76,"time_elapsed":314435,"internal_node_id":"0.0-4.0-1.34","subject_id":"5d4459fdfdaaad00180ec101","study_id":"60edd13110225f80f9f3709b","session_id":"6196c1f76890184fbe6f5612","condition":"contingent","relevant_dimensions":["antennae","wings"],"bee_group":{"antennae":"B","wings":"1","pattern":"X","legs":"X"},"bonus":0.5600000000000014},{"rt":824.9000000059605,"stimulus":"bees-with-color/bee-A1SM.svg","response":0,"trial_type":"image-button-response","trial_index":77,"time_elapsed":315261,"internal_node_id":"0.0-4.0-0.35","subject_id":"5d4459fdfdaaad00180ec101","study_id":"60edd13110225f80f9f3709b","session_id":"6196c1f76890184fbe6f5612","condition":"contingent","relevant_dimensions":["antennae","wings"],"bee_group":{"antennae":"B","wings":"1","pattern":"X","legs":"X"},"action":"harvest","summary":"good-harvest","bonus":0.5600000000000014},{"rt":285.09999999403954,"stimulus":"\n                    <p><b>Action: <em>harvest</em></b></p>\n                    <p>This is the bee that you just saw.</p>\n                    <img src=\"bees-with-color/bee-A1SM.svg\" width=\"200\">\n                    <p><span class=\"greenText\"><b>Successful harvest!</b></span><br>Your pay has increased by $0.02. Your bonus pay is now $0.66.</p>\n            ","response":0,"trial_type":"html-button-response","trial_index":78,"time_elapsed":315547,"internal_node_id":"0.0-4.0-1.35","subject_id":"5d4459fdfdaaad00180ec101","study_id":"60edd13110225f80f9f3709b","session_id":"6196c1f76890184fbe6f5612","condition":"contingent","relevant_dimensions":["antennae","wings"],"bee_group":{"antennae":"B","wings":"1","pattern":"X","legs":"X"},"bonus":0.5600000000000014},{"rt":656.1999999880791,"stimulus":"bees-with-color/bee-A2DM.svg","response":0,"trial_type":"image-button-response","trial_index":79,"time_elapsed":316204,"internal_node_id":"0.0-4.0-0.36","subject_id":"5d4459fdfdaaad00180ec101","study_id":"60edd13110225f80f9f3709b","session_id":"6196c1f76890184fbe6f5612","condition":"contingent","relevant_dimensions":["antennae","wings"],"bee_group":{"antennae":"B","wings":"1","pattern":"X","legs":"X"},"action":"harvest","summary":"good-harvest","bonus":0.5600000000000014},{"rt":271.09999999403954,"stimulus":"\n                    <p><b>Action: <em>harvest</em></b></p>\n                    <p>This is the bee that you just saw.</p>\n                    <img src=\"bees-with-color/bee-A2DM.svg\" width=\"200\">\n                    <p><span class=\"greenText\"><b>Successful harvest!</b></span><br>Your pay has increased by $0.02. Your bonus pay is now $0.68.</p>\n            ","response":0,"trial_type":"html-button-response","trial_index":80,"time_elapsed":316476,"internal_node_id":"0.0-4.0-1.36","subject_id":"5d4459fdfdaaad00180ec101","study_id":"60edd13110225f80f9f3709b","session_id":"6196c1f76890184fbe6f5612","condition":"contingent","relevant_dimensions":["antennae","wings"],"bee_group":{"antennae":"B","wings":"1","pattern":"X","legs":"X"},"bonus":0.5600000000000014},{"rt":997.3999999761581,"stimulus":"bees-with-color/bee-A1DF.svg","response":0,"trial_type":"image-button-response","trial_index":81,"time_elapsed":317474,"internal_node_id":"0.0-4.0-0.37","subject_id":"5d4459fdfdaaad00180ec101","study_id":"60edd13110225f80f9f3709b","session_id":"6196c1f76890184fbe6f5612","condition":"contingent","relevant_dimensions":["antennae","wings"],"bee_group":{"antennae":"B","wings":"1","pattern":"X","legs":"X"},"action":"harvest","summary":"good-harvest","bonus":0.5600000000000014},{"rt":397,"stimulus":"\n                    <p><b>Action: <em>harvest</em></b></p>\n                    <p>This is the bee that you just saw.</p>\n                    <img src=\"bees-with-color/bee-A1DF.svg\" width=\"200\">\n                    <p><span class=\"greenText\"><b>Successful harvest!</b></span><br>Your pay has increased by $0.02. Your bonus pay is now $0.70.</p>\n            ","response":0,"trial_type":"html-button-response","trial_index":82,"time_elapsed":317872,"internal_node_id":"0.0-4.0-1.37","subject_id":"5d4459fdfdaaad00180ec101","study_id":"60edd13110225f80f9f3709b","session_id":"6196c1f76890184fbe6f5612","condition":"contingent","relevant_dimensions":["antennae","wings"],"bee_group":{"antennae":"B","wings":"1","pattern":"X","legs":"X"},"bonus":0.5600000000000014},{"rt":1223.199999988079,"stimulus":"bees-with-color/bee-B2SF.svg","response":1,"trial_type":"image-button-response","trial_index":83,"time_elapsed":319096,"internal_node_id":"0.0-4.0-0.38","subject_id":"5d4459fdfdaaad00180ec101","study_id":"60edd13110225f80f9f3709b","session_id":"6196c1f76890184fbe6f5612","condition":"contingent","relevant_dimensions":["antennae","wings"],"bee_group":{"antennae":"B","wings":"1","pattern":"X","legs":"X"},"action":"avoid","summary":"bad-avoid","bonus":0.5600000000000014},{"rt":351.19999998807907,"stimulus":"\n                    <p><b>Action: <em>avoid</em></b></p>\n                    <p>This is the bee that you just saw.</p>\n                    <img src=\"bees-with-color/bee-B2SF.svg\" width=\"200\">\n                    <p><br>Your bonus pay is unchanged, and remains at $0.70.</p>\n            ","response":0,"trial_type":"html-button-response","trial_index":84,"time_elapsed":319448,"internal_node_id":"0.0-4.0-1.38","subject_id":"5d4459fdfdaaad00180ec101","study_id":"60edd13110225f80f9f3709b","session_id":"6196c1f76890184fbe6f5612","condition":"contingent","relevant_dimensions":["antennae","wings"],"bee_group":{"antennae":"B","wings":"1","pattern":"X","legs":"X"},"bonus":0.5600000000000014},{"rt":1194,"stimulus":"bees-with-color/bee-B1DF.svg","response":1,"trial_type":"image-button-response","trial_index":85,"time_elapsed":320643,"internal_node_id":"0.0-4.0-0.39","subject_id":"5d4459fdfdaaad00180ec101","study_id":"60edd13110225f80f9f3709b","session_id":"6196c1f76890184fbe6f5612","condition":"contingent","relevant_dimensions":["antennae","wings"],"bee_group":{"antennae":"B","wings":"1","pattern":"X","legs":"X"},"action":"avoid","summary":"good-avoid","bonus":0.5600000000000014},{"rt":297.30000001192093,"stimulus":"\n                    <p><b>Action: <em>avoid</em></b></p>\n                    <p>This is the bee that you just saw.</p>\n                    <img src=\"bees-with-color/bee-B1DF.svg\" width=\"200\">\n                    <p><br>Your bonus pay is unchanged, and remains at $0.70.</p>\n            ","response":0,"trial_type":"html-button-response","trial_index":86,"time_elapsed":320941,"internal_node_id":"0.0-4.0-1.39","subject_id":"5d4459fdfdaaad00180ec101","study_id":"60edd13110225f80f9f3709b","session_id":"6196c1f76890184fbe6f5612","condition":"contingent","relevant_dimensions":["antennae","wings"],"bee_group":{"antennae":"B","wings":"1","pattern":"X","legs":"X"},"bonus":0.5600000000000014},{"rt":1488.2999999821186,"stimulus":"bees-with-color/bee-B2SM.svg","response":0,"trial_type":"image-button-response","trial_index":87,"time_elapsed":322430,"internal_node_id":"0.0-4.0-0.40","subject_id":"5d4459fdfdaaad00180ec101","study_id":"60edd13110225f80f9f3709b","session_id":"6196c1f76890184fbe6f5612","condition":"contingent","relevant_dimensions":["antennae","wings"],"bee_group":{"antennae":"B","wings":"1","pattern":"X","legs":"X"},"action":"harvest","summary":"good-harvest","bonus":0.5600000000000014},{"rt":471,"stimulus":"\n                    <p><b>Action: <em>harvest</em></b></p>\n                    <p>This is the bee that you just saw.</p>\n                    <img src=\"bees-with-color/bee-B2SM.svg\" width=\"200\">\n                    <p><span class=\"greenText\"><b>Successful harvest!</b></span><br>Your pay has increased by $0.02. Your bonus pay is now $0.72.</p>\n            ","response":0,"trial_type":"html-button-response","trial_index":88,"time_elapsed":322902,"internal_node_id":"0.0-4.0-1.40","subject_id":"5d4459fdfdaaad00180ec101","study_id":"60edd13110225f80f9f3709b","session_id":"6196c1f76890184fbe6f5612","condition":"contingent","relevant_dimensions":["antennae","wings"],"bee_group":{"antennae":"B","wings":"1","pattern":"X","legs":"X"},"bonus":0.5600000000000014},{"rt":858.1999999880791,"stimulus":"bees-with-color/bee-A2DF.svg","response":1,"trial_type":"image-button-response","trial_index":89,"time_elapsed":323761,"internal_node_id":"0.0-4.0-0.41","subject_id":"5d4459fdfdaaad00180ec101","study_id":"60edd13110225f80f9f3709b","session_id":"6196c1f76890184fbe6f5612","condition":"contingent","relevant_dimensions":["antennae","wings"],"bee_group":{"antennae":"B","wings":"1","pattern":"X","legs":"X"},"action":"avoid","summary":"bad-avoid","bonus":0.5600000000000014},{"rt":265.09999999403954,"stimulus":"\n                    <p><b>Action: <em>avoid</em></b></p>\n                    <p>This is the bee that you just saw.</p>\n                    <img src=\"bees-with-color/bee-A2DF.svg\" width=\"200\">\n                    <p><br>Your bonus pay is unchanged, and remains at $0.72.</p>\n            ","response":0,"trial_type":"html-button-response","trial_index":90,"time_elapsed":324027,"internal_node_id":"0.0-4.0-1.41","subject_id":"5d4459fdfdaaad00180ec101","study_id":"60edd13110225f80f9f3709b","session_id":"6196c1f76890184fbe6f5612","condition":"contingent","relevant_dimensions":["antennae","wings"],"bee_group":{"antennae":"B","wings":"1","pattern":"X","legs":"X"},"bonus":0.5600000000000014},{"rt":723.5,"stimulus":"bees-with-color/bee-A1DM.svg","response":0,"trial_type":"image-button-response","trial_index":91,"time_elapsed":324751,"internal_node_id":"0.0-4.0-0.42","subject_id":"5d4459fdfdaaad00180ec101","study_id":"60edd13110225f80f9f3709b","session_id":"6196c1f76890184fbe6f5612","condition":"contingent","relevant_dimensions":["antennae","wings"],"bee_group":{"antennae":"B","wings":"1","pattern":"X","legs":"X"},"action":"harvest","summary":"good-harvest","bonus":0.5600000000000014},{"rt":297.90000000596046,"stimulus":"\n                    <p><b>Action: <em>harvest</em></b></p>\n                    <p>This is the bee that you just saw.</p>\n                    <img src=\"bees-with-color/bee-A1DM.svg\" width=\"200\">\n                    <p><span class=\"greenText\"><b>Successful harvest!</b></span><br>Your pay has increased by $0.02. Your bonus pay is now $0.74.</p>\n            ","response":0,"trial_type":"html-button-response","trial_index":92,"time_elapsed":325050,"internal_node_id":"0.0-4.0-1.42","subject_id":"5d4459fdfdaaad00180ec101","study_id":"60edd13110225f80f9f3709b","session_id":"6196c1f76890184fbe6f5612","condition":"contingent","relevant_dimensions":["antennae","wings"],"bee_group":{"antennae":"B","wings":"1","pattern":"X","legs":"X"},"bonus":0.5600000000000014},{"rt":1153.199999988079,"stimulus":"bees-with-color/bee-B1SM.svg","response":0,"trial_type":"image-button-response","trial_index":93,"time_elapsed":326204,"internal_node_id":"0.0-4.0-0.43","subject_id":"5d4459fdfdaaad00180ec101","study_id":"60edd13110225f80f9f3709b","session_id":"6196c1f76890184fbe6f5612","condition":"contingent","relevant_dimensions":["antennae","wings"],"bee_group":{"antennae":"B","wings":"1","pattern":"X","legs":"X"},"action":"harvest","summary":"bad-harvest","bonus":0.5600000000000014},{"rt":1465.0999999940395,"stimulus":"\n                    <p><b>Action: <em>harvest</em></b></p>\n                    <p>This is the bee that you just saw.</p>\n                    <img src=\"bees-with-color/bee-B1SM.svg\" width=\"200\">\n                    <p><span class=\"redText\">Bad choice, the bee was angry.</span><br><b>You have been stung!</b><br>Your pay has been decreased by $0.10. Your bonus pay is now $0.64.</p>\n            ","response":0,"trial_type":"html-button-response","trial_index":94,"time_elapsed":327670,"internal_node_id":"0.0-4.0-1.43","subject_id":"5d4459fdfdaaad00180ec101","study_id":"60edd13110225f80f9f3709b","session_id":"6196c1f76890184fbe6f5612","condition":"contingent","relevant_dimensions":["antennae","wings"],"bee_group":{"antennae":"B","wings":"1","pattern":"X","legs":"X"},"bonus":0.5600000000000014},{"rt":961.0999999940395,"stimulus":"bees-with-color/bee-A2SF.svg","response":0,"trial_type":"image-button-response","trial_index":95,"time_elapsed":328632,"internal_node_id":"0.0-4.0-0.44","subject_id":"5d4459fdfdaaad00180ec101","study_id":"60edd13110225f80f9f3709b","session_id":"6196c1f76890184fbe6f5612","condition":"contingent","relevant_dimensions":["antennae","wings"],"bee_group":{"antennae":"B","wings":"1","pattern":"X","legs":"X"},"action":"harvest","summary":"good-harvest","bonus":0.5600000000000014},{"rt":451.40000000596046,"stimulus":"\n                    <p><b>Action: <em>harvest</em></b></p>\n                    <p>This is the bee that you just saw.</p>\n                    <img src=\"bees-with-color/bee-A2SF.svg\" width=\"200\">\n                    <p><span class=\"greenText\"><b>Successful harvest!</b></span><br>Your pay has increased by $0.02. Your bonus pay is now $0.66.</p>\n            ","response":0,"trial_type":"html-button-response","trial_index":96,"time_elapsed":329084,"internal_node_id":"0.0-4.0-1.44","subject_id":"5d4459fdfdaaad00180ec101","study_id":"60edd13110225f80f9f3709b","session_id":"6196c1f76890184fbe6f5612","condition":"contingent","relevant_dimensions":["antennae","wings"],"bee_group":{"antennae":"B","wings":"1","pattern":"X","legs":"X"},"bonus":0.5600000000000014},{"rt":774.3000000119209,"stimulus":"bees-with-color/bee-A1SF.svg","response":1,"trial_type":"image-button-response","trial_index":97,"time_elapsed":329859,"internal_node_id":"0.0-4.0-0.45","subject_id":"5d4459fdfdaaad00180ec101","study_id":"60edd13110225f80f9f3709b","session_id":"6196c1f76890184fbe6f5612","condition":"contingent","relevant_dimensions":["antennae","wings"],"bee_group":{"antennae":"B","wings":"1","pattern":"X","legs":"X"},"action":"avoid","summary":"bad-avoid","bonus":0.5600000000000014},{"rt":264.40000000596046,"stimulus":"\n                    <p><b>Action: <em>avoid</em></b></p>\n                    <p>This is the bee that you just saw.</p>\n                    <img src=\"bees-with-color/bee-A1SF.svg\" width=\"200\">\n                    <p><br>Your bonus pay is unchanged, and remains at $0.66.</p>\n            ","response":0,"trial_type":"html-button-response","trial_index":98,"time_elapsed":330124,"internal_node_id":"0.0-4.0-1.45","subject_id":"5d4459fdfdaaad00180ec101","study_id":"60edd13110225f80f9f3709b","session_id":"6196c1f76890184fbe6f5612","condition":"contingent","relevant_dimensions":["antennae","wings"],"bee_group":{"antennae":"B","wings":"1","pattern":"X","legs":"X"},"bonus":0.5600000000000014},{"rt":625.1999999880791,"stimulus":"bees-with-color/bee-B1DM.svg","response":0,"trial_type":"image-button-response","trial_index":99,"time_elapsed":330750,"internal_node_id":"0.0-4.0-0.46","subject_id":"5d4459fdfdaaad00180ec101","study_id":"60edd13110225f80f9f3709b","session_id":"6196c1f76890184fbe6f5612","condition":"contingent","relevant_dimensions":["antennae","wings"],"bee_group":{"antennae":"B","wings":"1","pattern":"X","legs":"X"},"action":"harvest","summary":"bad-harvest","bonus":0.5600000000000014},{"rt":641.1999999880791,"stimulus":"\n                    <p><b>Action: <em>harvest</em></b></p>\n                    <p>This is the bee that you just saw.</p>\n                    <img src=\"bees-with-color/bee-B1DM.svg\" width=\"200\">\n                    <p><span class=\"redText\">Bad choice, the bee was angry.</span><br><b>You have been stung!</b><br>Your pay has been decreased by $0.10. Your bonus pay is now $0.56.</p>\n            ","response":0,"trial_type":"html-button-response","trial_index":100,"time_elapsed":331392,"internal_node_id":"0.0-4.0-1.46","subject_id":"5d4459fdfdaaad00180ec101","study_id":"60edd13110225f80f9f3709b","session_id":"6196c1f76890184fbe6f5612","condition":"contingent","relevant_dimensions":["antennae","wings"],"bee_group":{"antennae":"B","wings":"1","pattern":"X","legs":"X"},"bonus":0.5600000000000014},{"rt":835.1999999880791,"stimulus":"bees-with-color/bee-B2DM.svg","response":0,"trial_type":"image-button-response","trial_index":101,"time_elapsed":332228,"internal_node_id":"0.0-4.0-0.47","subject_id":"5d4459fdfdaaad00180ec101","study_id":"60edd13110225f80f9f3709b","session_id":"6196c1f76890184fbe6f5612","condition":"contingent","relevant_dimensions":["antennae","wings"],"bee_group":{"antennae":"B","wings":"1","pattern":"X","legs":"X"},"action":"harvest","summary":"good-harvest","bonus":0.5600000000000014},{"rt":432.19999998807907,"stimulus":"\n                    <p><b>Action: <em>harvest</em></b></p>\n                    <p>This is the bee that you just saw.</p>\n                    <img src=\"bees-with-color/bee-B2DM.svg\" width=\"200\">\n                    <p><span class=\"greenText\"><b>Successful harvest!</b></span><br>Your pay has increased by $0.02. Your bonus pay is now $0.58.</p>\n            ","response":0,"trial_type":"html-button-response","trial_index":102,"time_elapsed":332661,"internal_node_id":"0.0-4.0-1.47","subject_id":"5d4459fdfdaaad00180ec101","study_id":"60edd13110225f80f9f3709b","session_id":"6196c1f76890184fbe6f5612","condition":"contingent","relevant_dimensions":["antennae","wings"],"bee_group":{"antennae":"B","wings":"1","pattern":"X","legs":"X"},"bonus":0.5600000000000014},{"rt":958.1999999880791,"stimulus":"bees-with-color/bee-A1DM.svg","response":0,"trial_type":"image-button-response","trial_index":103,"time_elapsed":333620,"internal_node_id":"0.0-4.0-0.48","subject_id":"5d4459fdfdaaad00180ec101","study_id":"60edd13110225f80f9f3709b","session_id":"6196c1f76890184fbe6f5612","condition":"contingent","relevant_dimensions":["antennae","wings"],"bee_group":{"antennae":"B","wings":"1","pattern":"X","legs":"X"},"action":"harvest","summary":"good-harvest","bonus":0.5600000000000014},{"rt":253.5,"stimulus":"\n                    <p><b>Action: <em>harvest</em></b></p>\n                    <p>This is the bee that you just saw.</p>\n                    <img src=\"bees-with-color/bee-A1DM.svg\" width=\"200\">\n                    <p><span class=\"greenText\"><b>Successful harvest!</b></span><br>Your pay has increased by $0.02. Your bonus pay is now $0.60.</p>\n            ","response":0,"trial_type":"html-button-response","trial_index":104,"time_elapsed":333874,"internal_node_id":"0.0-4.0-1.48","subject_id":"5d4459fdfdaaad00180ec101","study_id":"60edd13110225f80f9f3709b","session_id":"6196c1f76890184fbe6f5612","condition":"contingent","relevant_dimensions":["antennae","wings"],"bee_group":{"antennae":"B","wings":"1","pattern":"X","legs":"X"},"bonus":0.5600000000000014},{"rt":803.9000000059605,"stimulus":"bees-with-color/bee-A2SF.svg","response":0,"trial_type":"image-button-response","trial_index":105,"time_elapsed":334679,"internal_node_id":"0.0-4.0-0.49","subject_id":"5d4459fdfdaaad00180ec101","study_id":"60edd13110225f80f9f3709b","session_id":"6196c1f76890184fbe6f5612","condition":"contingent","relevant_dimensions":["antennae","wings"],"bee_group":{"antennae":"B","wings":"1","pattern":"X","legs":"X"},"action":"harvest","summary":"good-harvest","bonus":0.5600000000000014},{"rt":351.90000000596046,"stimulus":"\n                    <p><b>Action: <em>harvest</em></b></p>\n                    <p>This is the bee that you just saw.</p>\n                    <img src=\"bees-with-color/bee-A2SF.svg\" width=\"200\">\n                    <p><span class=\"greenText\"><b>Successful harvest!</b></span><br>Your pay has increased by $0.02. Your bonus pay is now $0.62.</p>\n            ","response":0,"trial_type":"html-button-response","trial_index":106,"time_elapsed":335032,"internal_node_id":"0.0-4.0-1.49","subject_id":"5d4459fdfdaaad00180ec101","study_id":"60edd13110225f80f9f3709b","session_id":"6196c1f76890184fbe6f5612","condition":"contingent","relevant_dimensions":["antennae","wings"],"bee_group":{"antennae":"B","wings":"1","pattern":"X","legs":"X"},"bonus":0.5600000000000014},{"rt":640.2999999821186,"stimulus":"bees-with-color/bee-A2DM.svg","response":0,"trial_type":"image-button-response","trial_index":107,"time_elapsed":335673,"internal_node_id":"0.0-4.0-0.50","subject_id":"5d4459fdfdaaad00180ec101","study_id":"60edd13110225f80f9f3709b","session_id":"6196c1f76890184fbe6f5612","condition":"contingent","relevant_dimensions":["antennae","wings"],"bee_group":{"antennae":"B","wings":"1","pattern":"X","legs":"X"},"action":"harvest","summary":"good-harvest","bonus":0.5600000000000014},{"rt":249,"stimulus":"\n                    <p><b>Action: <em>harvest</em></b></p>\n                    <p>This is the bee that you just saw.</p>\n                    <img src=\"bees-with-color/bee-A2DM.svg\" width=\"200\">\n                    <p><span class=\"greenText\"><b>Successful harvest!</b></span><br>Your pay has increased by $0.02. Your bonus pay is now $0.64.</p>\n            ","response":0,"trial_type":"html-button-response","trial_index":108,"time_elapsed":335923,"internal_node_id":"0.0-4.0-1.50","subject_id":"5d4459fdfdaaad00180ec101","study_id":"60edd13110225f80f9f3709b","session_id":"6196c1f76890184fbe6f5612","condition":"contingent","relevant_dimensions":["antennae","wings"],"bee_group":{"antennae":"B","wings":"1","pattern":"X","legs":"X"},"bonus":0.5600000000000014},{"rt":844.1999999880791,"stimulus":"bees-with-color/bee-A1DF.svg","response":0,"trial_type":"image-button-response","trial_index":109,"time_elapsed":336768,"internal_node_id":"0.0-4.0-0.51","subject_id":"5d4459fdfdaaad00180ec101","study_id":"60edd13110225f80f9f3709b","session_id":"6196c1f76890184fbe6f5612","condition":"contingent","relevant_dimensions":["antennae","wings"],"bee_group":{"antennae":"B","wings":"1","pattern":"X","legs":"X"},"action":"harvest","summary":"good-harvest","bonus":0.5600000000000014},{"rt":371.19999998807907,"stimulus":"\n                    <p><b>Action: <em>harvest</em></b></p>\n                    <p>This is the bee that you just saw.</p>\n                    <img src=\"bees-with-color/bee-A1DF.svg\" width=\"200\">\n                    <p><span class=\"greenText\"><b>Successful harvest!</b></span><br>Your pay has increased by $0.02. Your bonus pay is now $0.66.</p>\n            ","response":0,"trial_type":"html-button-response","trial_index":110,"time_elapsed":337140,"internal_node_id":"0.0-4.0-1.51","subject_id":"5d4459fdfdaaad00180ec101","study_id":"60edd13110225f80f9f3709b","session_id":"6196c1f76890184fbe6f5612","condition":"contingent","relevant_dimensions":["antennae","wings"],"bee_group":{"antennae":"B","wings":"1","pattern":"X","legs":"X"},"bonus":0.5600000000000014},{"rt":2859.300000011921,"stimulus":"bees-with-color/bee-B1DM.svg","response":0,"trial_type":"image-button-response","trial_index":111,"time_elapsed":340000,"internal_node_id":"0.0-4.0-0.52","subject_id":"5d4459fdfdaaad00180ec101","study_id":"60edd13110225f80f9f3709b","session_id":"6196c1f76890184fbe6f5612","condition":"contingent","relevant_dimensions":["antennae","wings"],"bee_group":{"antennae":"B","wings":"1","pattern":"X","legs":"X"},"action":"harvest","summary":"bad-harvest","bonus":0.5600000000000014},{"rt":2173.399999976158,"stimulus":"\n                    <p><b>Action: <em>harvest</em></b></p>\n                    <p>This is the bee that you just saw.</p>\n                    <img src=\"bees-with-color/bee-B1DM.svg\" width=\"200\">\n                    <p><span class=\"redText\">Bad choice, the bee was angry.</span><br><b>You have been stung!</b><br>Your pay has been decreased by $0.10. Your bonus pay is now $0.56.</p>\n            ","response":0,"trial_type":"html-button-response","trial_index":112,"time_elapsed":342174,"internal_node_id":"0.0-4.0-1.52","subject_id":"5d4459fdfdaaad00180ec101","study_id":"60edd13110225f80f9f3709b","session_id":"6196c1f76890184fbe6f5612","condition":"contingent","relevant_dimensions":["antennae","wings"],"bee_group":{"antennae":"B","wings":"1","pattern":"X","legs":"X"},"bonus":0.5600000000000014},{"rt":2568.9000000059605,"stimulus":"bees-with-color/bee-B1SF.svg","response":0,"trial_type":"image-button-response","trial_index":113,"time_elapsed":344744,"internal_node_id":"0.0-4.0-0.53","subject_id":"5d4459fdfdaaad00180ec101","study_id":"60edd13110225f80f9f3709b","session_id":"6196c1f76890184fbe6f5612","condition":"contingent","relevant_dimensions":["antennae","wings"],"bee_group":{"antennae":"B","wings":"1","pattern":"X","legs":"X"},"action":"harvest","summary":"bad-harvest","bonus":0.5600000000000014},{"rt":1113.2999999821186,"stimulus":"\n                    <p><b>Action: <em>harvest</em></b></p>\n                    <p>This is the bee that you just saw.</p>\n                    <img src=\"bees-with-color/bee-B1SF.svg\" width=\"200\">\n                    <p><span class=\"redText\">Bad choice, the bee was angry.</span><br><b>You have been stung!</b><br>Your pay has been decreased by $0.10. Your bonus pay is now $0.46.</p>\n            ","response":0,"trial_type":"html-button-response","trial_index":114,"time_elapsed":345858,"internal_node_id":"0.0-4.0-1.53","subject_id":"5d4459fdfdaaad00180ec101","study_id":"60edd13110225f80f9f3709b","session_id":"6196c1f76890184fbe6f5612","condition":"contingent","relevant_dimensions":["antennae","wings"],"bee_group":{"antennae":"B","wings":"1","pattern":"X","legs":"X"},"bonus":0.5600000000000014},{"rt":746.9000000059605,"stimulus":"bees-with-color/bee-A1SF.svg","response":0,"trial_type":"image-button-response","trial_index":115,"time_elapsed":346606,"internal_node_id":"0.0-4.0-0.54","subject_id":"5d4459fdfdaaad00180ec101","study_id":"60edd13110225f80f9f3709b","session_id":"6196c1f76890184fbe6f5612","condition":"contingent","relevant_dimensions":["antennae","wings"],"bee_group":{"antennae":"B","wings":"1","pattern":"X","legs":"X"},"action":"harvest","summary":"good-harvest","bonus":0.5600000000000014},{"rt":447.19999998807907,"stimulus":"\n                    <p><b>Action: <em>harvest</em></b></p>\n                    <p>This is the bee that you just saw.</p>\n                    <img src=\"bees-with-color/bee-A1SF.svg\" width=\"200\">\n                    <p><span class=\"greenText\"><b>Successful harvest!</b></span><br>Your pay has increased by $0.02. Your bonus pay is now $0.48.</p>\n            ","response":0,"trial_type":"html-button-response","trial_index":116,"time_elapsed":347054,"internal_node_id":"0.0-4.0-1.54","subject_id":"5d4459fdfdaaad00180ec101","study_id":"60edd13110225f80f9f3709b","session_id":"6196c1f76890184fbe6f5612","condition":"contingent","relevant_dimensions":["antennae","wings"],"bee_group":{"antennae":"B","wings":"1","pattern":"X","legs":"X"},"bonus":0.5600000000000014},{"rt":1061,"stimulus":"bees-with-color/bee-A2DF.svg","response":0,"trial_type":"image-button-response","trial_index":117,"time_elapsed":348116,"internal_node_id":"0.0-4.0-0.55","subject_id":"5d4459fdfdaaad00180ec101","study_id":"60edd13110225f80f9f3709b","session_id":"6196c1f76890184fbe6f5612","condition":"contingent","relevant_dimensions":["antennae","wings"],"bee_group":{"antennae":"B","wings":"1","pattern":"X","legs":"X"},"action":"harvest","summary":"good-harvest","bonus":0.5600000000000014},{"rt":536.1999999880791,"stimulus":"\n                    <p><b>Action: <em>harvest</em></b></p>\n                    <p>This is the bee that you just saw.</p>\n                    <img src=\"bees-with-color/bee-A2DF.svg\" width=\"200\">\n                    <p><span class=\"greenText\"><b>Successful harvest!</b></span><br>Your pay has increased by $0.02. Your bonus pay is now $0.50.</p>\n            ","response":0,"trial_type":"html-button-response","trial_index":118,"time_elapsed":348653,"internal_node_id":"0.0-4.0-1.55","subject_id":"5d4459fdfdaaad00180ec101","study_id":"60edd13110225f80f9f3709b","session_id":"6196c1f76890184fbe6f5612","condition":"contingent","relevant_dimensions":["antennae","wings"],"bee_group":{"antennae":"B","wings":"1","pattern":"X","legs":"X"},"bonus":0.5600000000000014},{"rt":930.2999999821186,"stimulus":"bees-with-color/bee-B1SM.svg","response":0,"trial_type":"image-button-response","trial_index":119,"time_elapsed":349584,"internal_node_id":"0.0-4.0-0.56","subject_id":"5d4459fdfdaaad00180ec101","study_id":"60edd13110225f80f9f3709b","session_id":"6196c1f76890184fbe6f5612","condition":"contingent","relevant_dimensions":["antennae","wings"],"bee_group":{"antennae":"B","wings":"1","pattern":"X","legs":"X"},"action":"harvest","summary":"bad-harvest","bonus":0.5600000000000014},{"rt":655,"stimulus":"\n                    <p><b>Action: <em>harvest</em></b></p>\n                    <p>This is the bee that you just saw.</p>\n                    <img src=\"bees-with-color/bee-B1SM.svg\" width=\"200\">\n                    <p><span class=\"redText\">Bad choice, the bee was angry.</span><br><b>You have been stung!</b><br>Your pay has been decreased by $0.10. Your bonus pay is now $0.40.</p>\n            ","response":0,"trial_type":"html-button-response","trial_index":120,"time_elapsed":350240,"internal_node_id":"0.0-4.0-1.56","subject_id":"5d4459fdfdaaad00180ec101","study_id":"60edd13110225f80f9f3709b","session_id":"6196c1f76890184fbe6f5612","condition":"contingent","relevant_dimensions":["antennae","wings"],"bee_group":{"antennae":"B","wings":"1","pattern":"X","legs":"X"},"bonus":0.5600000000000014},{"rt":741.1999999880791,"stimulus":"bees-with-color/bee-B1DF.svg","response":0,"trial_type":"image-button-response","trial_index":121,"time_elapsed":350982,"internal_node_id":"0.0-4.0-0.57","subject_id":"5d4459fdfdaaad00180ec101","study_id":"60edd13110225f80f9f3709b","session_id":"6196c1f76890184fbe6f5612","condition":"contingent","relevant_dimensions":["antennae","wings"],"bee_group":{"antennae":"B","wings":"1","pattern":"X","legs":"X"},"action":"harvest","summary":"bad-harvest","bonus":0.5600000000000014},{"rt":604.0999999940395,"stimulus":"\n                    <p><b>Action: <em>harvest</em></b></p>\n                    <p>This is the bee that you just saw.</p>\n                    <img src=\"bees-with-color/bee-B1DF.svg\" width=\"200\">\n                    <p><span class=\"redText\">Bad choice, the bee was angry.</span><br><b>You have been stung!</b><br>Your pay has been decreased by $0.10. Your bonus pay is now $0.30.</p>\n            ","response":0,"trial_type":"html-button-response","trial_index":122,"time_elapsed":351587,"internal_node_id":"0.0-4.0-1.57","subject_id":"5d4459fdfdaaad00180ec101","study_id":"60edd13110225f80f9f3709b","session_id":"6196c1f76890184fbe6f5612","condition":"contingent","relevant_dimensions":["antennae","wings"],"bee_group":{"antennae":"B","wings":"1","pattern":"X","legs":"X"},"bonus":0.5600000000000014},{"rt":469.19999998807907,"stimulus":"bees-with-color/bee-B2DF.svg","response":0,"trial_type":"image-button-response","trial_index":123,"time_elapsed":352057,"internal_node_id":"0.0-4.0-0.58","subject_id":"5d4459fdfdaaad00180ec101","study_id":"60edd13110225f80f9f3709b","session_id":"6196c1f76890184fbe6f5612","condition":"contingent","relevant_dimensions":["antennae","wings"],"bee_group":{"antennae":"B","wings":"1","pattern":"X","legs":"X"},"action":"harvest","summary":"good-harvest","bonus":0.5600000000000014},{"rt":360.2999999821186,"stimulus":"\n                    <p><b>Action: <em>harvest</em></b></p>\n                    <p>This is the bee that you just saw.</p>\n                    <img src=\"bees-with-color/bee-B2DF.svg\" width=\"200\">\n                    <p><span class=\"greenText\"><b>Successful harvest!</b></span><br>Your pay has increased by $0.02. Your bonus pay is now $0.32.</p>\n            ","response":0,"trial_type":"html-button-response","trial_index":124,"time_elapsed":352418,"internal_node_id":"0.0-4.0-1.58","subject_id":"5d4459fdfdaaad00180ec101","study_id":"60edd13110225f80f9f3709b","session_id":"6196c1f76890184fbe6f5612","condition":"contingent","relevant_dimensions":["antennae","wings"],"bee_group":{"antennae":"B","wings":"1","pattern":"X","legs":"X"},"bonus":0.5600000000000014},{"rt":619.1999999880791,"stimulus":"bees-with-color/bee-A2SM.svg","response":0,"trial_type":"image-button-response","trial_index":125,"time_elapsed":353038,"internal_node_id":"0.0-4.0-0.59","subject_id":"5d4459fdfdaaad00180ec101","study_id":"60edd13110225f80f9f3709b","session_id":"6196c1f76890184fbe6f5612","condition":"contingent","relevant_dimensions":["antennae","wings"],"bee_group":{"antennae":"B","wings":"1","pattern":"X","legs":"X"},"action":"harvest","summary":"good-harvest","bonus":0.5600000000000014},{"rt":484.40000000596046,"stimulus":"\n                    <p><b>Action: <em>harvest</em></b></p>\n                    <p>This is the bee that you just saw.</p>\n                    <img src=\"bees-with-color/bee-A2SM.svg\" width=\"200\">\n                    <p><span class=\"greenText\"><b>Successful harvest!</b></span><br>Your pay has increased by $0.02. Your bonus pay is now $0.34.</p>\n            ","response":0,"trial_type":"html-button-response","trial_index":126,"time_elapsed":353523,"internal_node_id":"0.0-4.0-1.59","subject_id":"5d4459fdfdaaad00180ec101","study_id":"60edd13110225f80f9f3709b","session_id":"6196c1f76890184fbe6f5612","condition":"contingent","relevant_dimensions":["antennae","wings"],"bee_group":{"antennae":"B","wings":"1","pattern":"X","legs":"X"},"bonus":0.5600000000000014},{"rt":552.1999999880791,"stimulus":"bees-with-color/bee-A1SM.svg","response":0,"trial_type":"image-button-response","trial_index":127,"time_elapsed":354076,"internal_node_id":"0.0-4.0-0.60","subject_id":"5d4459fdfdaaad00180ec101","study_id":"60edd13110225f80f9f3709b","session_id":"6196c1f76890184fbe6f5612","condition":"contingent","relevant_dimensions":["antennae","wings"],"bee_group":{"antennae":"B","wings":"1","pattern":"X","legs":"X"},"action":"harvest","summary":"good-harvest","bonus":0.5600000000000014},{"rt":221.19999998807907,"stimulus":"\n                    <p><b>Action: <em>harvest</em></b></p>\n                    <p>This is the bee that you just saw.</p>\n                    <img src=\"bees-with-color/bee-A1SM.svg\" width=\"200\">\n                    <p><span class=\"greenText\"><b>Successful harvest!</b></span><br>Your pay has increased by $0.02. Your bonus pay is now $0.36.</p>\n            ","response":0,"trial_type":"html-button-response","trial_index":128,"time_elapsed":354298,"internal_node_id":"0.0-4.0-1.60","subject_id":"5d4459fdfdaaad00180ec101","study_id":"60edd13110225f80f9f3709b","session_id":"6196c1f76890184fbe6f5612","condition":"contingent","relevant_dimensions":["antennae","wings"],"bee_group":{"antennae":"B","wings":"1","pattern":"X","legs":"X"},"bonus":0.5600000000000014},{"rt":723.4000000059605,"stimulus":"bees-with-color/bee-B2SM.svg","response":0,"trial_type":"image-button-response","trial_index":129,"time_elapsed":355021,"internal_node_id":"0.0-4.0-0.61","subject_id":"5d4459fdfdaaad00180ec101","study_id":"60edd13110225f80f9f3709b","session_id":"6196c1f76890184fbe6f5612","condition":"contingent","relevant_dimensions":["antennae","wings"],"bee_group":{"antennae":"B","wings":"1","pattern":"X","legs":"X"},"action":"harvest","summary":"good-harvest","bonus":0.5600000000000014},{"rt":320.19999998807907,"stimulus":"\n                    <p><b>Action: <em>harvest</em></b></p>\n                    <p>This is the bee that you just saw.</p>\n                    <img src=\"bees-with-color/bee-B2SM.svg\" width=\"200\">\n                    <p><span class=\"greenText\"><b>Successful harvest!</b></span><br>Your pay has increased by $0.02. Your bonus pay is now $0.38.</p>\n            ","response":0,"trial_type":"html-button-response","trial_index":130,"time_elapsed":355342,"internal_node_id":"0.0-4.0-1.61","subject_id":"5d4459fdfdaaad00180ec101","study_id":"60edd13110225f80f9f3709b","session_id":"6196c1f76890184fbe6f5612","condition":"contingent","relevant_dimensions":["antennae","wings"],"bee_group":{"antennae":"B","wings":"1","pattern":"X","legs":"X"},"bonus":0.5600000000000014},{"rt":543.5,"stimulus":"bees-with-color/bee-B2DM.svg","response":0,"trial_type":"image-button-response","trial_index":131,"time_elapsed":355886,"internal_node_id":"0.0-4.0-0.62","subject_id":"5d4459fdfdaaad00180ec101","study_id":"60edd13110225f80f9f3709b","session_id":"6196c1f76890184fbe6f5612","condition":"contingent","relevant_dimensions":["antennae","wings"],"bee_group":{"antennae":"B","wings":"1","pattern":"X","legs":"X"},"action":"harvest","summary":"good-harvest","bonus":0.5600000000000014},{"rt":414,"stimulus":"\n                    <p><b>Action: <em>harvest</em></b></p>\n                    <p>This is the bee that you just saw.</p>\n                    <img src=\"bees-with-color/bee-B2DM.svg\" width=\"200\">\n                    <p><span class=\"greenText\"><b>Successful harvest!</b></span><br>Your pay has increased by $0.02. Your bonus pay is now $0.40.</p>\n            ","response":0,"trial_type":"html-button-response","trial_index":132,"time_elapsed":356301,"internal_node_id":"0.0-4.0-1.62","subject_id":"5d4459fdfdaaad00180ec101","study_id":"60edd13110225f80f9f3709b","session_id":"6196c1f76890184fbe6f5612","condition":"contingent","relevant_dimensions":["antennae","wings"],"bee_group":{"antennae":"B","wings":"1","pattern":"X","legs":"X"},"bonus":0.5600000000000014},{"rt":1219.8999999761581,"stimulus":"bees-with-color/bee-B2SF.svg","response":0,"trial_type":"image-button-response","trial_index":133,"time_elapsed":357522,"internal_node_id":"0.0-4.0-0.63","subject_id":"5d4459fdfdaaad00180ec101","study_id":"60edd13110225f80f9f3709b","session_id":"6196c1f76890184fbe6f5612","condition":"contingent","relevant_dimensions":["antennae","wings"],"bee_group":{"antennae":"B","wings":"1","pattern":"X","legs":"X"},"action":"harvest","summary":"good-harvest","bonus":0.5600000000000014},{"rt":372.30000001192093,"stimulus":"\n                    <p><b>Action: <em>harvest</em></b></p>\n                    <p>This is the bee that you just saw.</p>\n                    <img src=\"bees-with-color/bee-B2SF.svg\" width=\"200\">\n                    <p><span class=\"greenText\"><b>Successful harvest!</b></span><br>Your pay has increased by $0.02. Your bonus pay is now $0.42.</p>\n            ","response":0,"trial_type":"html-button-response","trial_index":134,"time_elapsed":357895,"internal_node_id":"0.0-4.0-1.63","subject_id":"5d4459fdfdaaad00180ec101","study_id":"60edd13110225f80f9f3709b","session_id":"6196c1f76890184fbe6f5612","condition":"contingent","relevant_dimensions":["antennae","wings"],"bee_group":{"antennae":"B","wings":"1","pattern":"X","legs":"X"},"bonus":0.5600000000000014},{"rt":4416.100000023842,"stimulus":"You have completed the first part of this experiment.<br><br>You will now begin a shorter second part, in which you will receive no feedback.<br>The same rules regarding bonus pay apply.<br><br>Press any key to begin.","response":"enter","trial_type":"html-keyboard-response","trial_index":135,"time_elapsed":362312,"internal_node_id":"0.0-5.0","subject_id":"5d4459fdfdaaad00180ec101","study_id":"60edd13110225f80f9f3709b","session_id":"6196c1f76890184fbe6f5612","condition":"contingent","relevant_dimensions":["antennae","wings"],"bee_group":{"antennae":"B","wings":"1","pattern":"X","legs":"X"},"bonus":0.5600000000000014},{"rt":2006.8999999761581,"stimulus":"bees-with-color/bee-B2DM.svg","response":1,"trial_type":"image-button-response","trial_index":136,"time_elapsed":364323,"internal_node_id":"0.0-6.0-0.0","subject_id":"5d4459fdfdaaad00180ec101","study_id":"60edd13110225f80f9f3709b","session_id":"6196c1f76890184fbe6f5612","condition":"contingent","relevant_dimensions":["antennae","wings"],"bee_group":{"antennae":"B","wings":"1","pattern":"X","legs":"X"},"bonus":0.5600000000000014},{"rt":566.5999999940395,"stimulus":"bees-with-color/bee-A1DM.svg","response":0,"trial_type":"image-button-response","trial_index":137,"time_elapsed":364891,"internal_node_id":"0.0-6.0-0.1","subject_id":"5d4459fdfdaaad00180ec101","study_id":"60edd13110225f80f9f3709b","session_id":"6196c1f76890184fbe6f5612","condition":"contingent","relevant_dimensions":["antennae","wings"],"bee_group":{"antennae":"B","wings":"1","pattern":"X","legs":"X"},"bonus":0.5600000000000014},{"rt":3544.800000011921,"stimulus":"bees-with-color/bee-B2SF.svg","response":1,"trial_type":"image-button-response","trial_index":138,"time_elapsed":368437,"internal_node_id":"0.0-6.0-0.2","subject_id":"5d4459fdfdaaad00180ec101","study_id":"60edd13110225f80f9f3709b","session_id":"6196c1f76890184fbe6f5612","condition":"contingent","relevant_dimensions":["antennae","wings"],"bee_group":{"antennae":"B","wings":"1","pattern":"X","legs":"X"},"bonus":0.5600000000000014},{"rt":767.6999999880791,"stimulus":"bees-with-color/bee-B2DF.svg","response":1,"trial_type":"image-button-response","trial_index":139,"time_elapsed":369206,"internal_node_id":"0.0-6.0-0.3","subject_id":"5d4459fdfdaaad00180ec101","study_id":"60edd13110225f80f9f3709b","session_id":"6196c1f76890184fbe6f5612","condition":"contingent","relevant_dimensions":["antennae","wings"],"bee_group":{"antennae":"B","wings":"1","pattern":"X","legs":"X"},"bonus":0.5600000000000014},{"rt":695.9000000059605,"stimulus":"bees-with-color/bee-B2SM.svg","response":0,"trial_type":"image-button-response","trial_index":140,"time_elapsed":369903,"internal_node_id":"0.0-6.0-0.4","subject_id":"5d4459fdfdaaad00180ec101","study_id":"60edd13110225f80f9f3709b","session_id":"6196c1f76890184fbe6f5612","condition":"contingent","relevant_dimensions":["antennae","wings"],"bee_group":{"antennae":"B","wings":"1","pattern":"X","legs":"X"},"bonus":0.5600000000000014},{"rt":992.9000000059605,"stimulus":"bees-with-color/bee-B1DF.svg","response":1,"trial_type":"image-button-response","trial_index":141,"time_elapsed":370897,"internal_node_id":"0.0-6.0-0.5","subject_id":"5d4459fdfdaaad00180ec101","study_id":"60edd13110225f80f9f3709b","session_id":"6196c1f76890184fbe6f5612","condition":"contingent","relevant_dimensions":["antennae","wings"],"bee_group":{"antennae":"B","wings":"1","pattern":"X","legs":"X"},"bonus":0.5600000000000014},{"rt":1834,"stimulus":"bees-with-color/bee-A1SF.svg","response":1,"trial_type":"image-button-response","trial_index":142,"time_elapsed":372732,"internal_node_id":"0.0-6.0-0.6","subject_id":"5d4459fdfdaaad00180ec101","study_id":"60edd13110225f80f9f3709b","session_id":"6196c1f76890184fbe6f5612","condition":"contingent","relevant_dimensions":["antennae","wings"],"bee_group":{"antennae":"B","wings":"1","pattern":"X","legs":"X"},"bonus":0.5600000000000014},{"rt":669.6999999880791,"stimulus":"bees-with-color/bee-B1SF.svg","response":1,"trial_type":"image-button-response","trial_index":143,"time_elapsed":373403,"internal_node_id":"0.0-6.0-0.7","subject_id":"5d4459fdfdaaad00180ec101","study_id":"60edd13110225f80f9f3709b","session_id":"6196c1f76890184fbe6f5612","condition":"contingent","relevant_dimensions":["antennae","wings"],"bee_group":{"antennae":"B","wings":"1","pattern":"X","legs":"X"},"bonus":0.5600000000000014},{"rt":883.6999999880791,"stimulus":"bees-with-color/bee-B1DM.svg","response":1,"trial_type":"image-button-response","trial_index":144,"time_elapsed":374288,"internal_node_id":"0.0-6.0-0.8","subject_id":"5d4459fdfdaaad00180ec101","study_id":"60edd13110225f80f9f3709b","session_id":"6196c1f76890184fbe6f5612","condition":"contingent","relevant_dimensions":["antennae","wings"],"bee_group":{"antennae":"B","wings":"1","pattern":"X","legs":"X"},"bonus":0.5600000000000014},{"rt":1309.7999999821186,"stimulus":"bees-with-color/bee-A2DF.svg","response":1,"trial_type":"image-button-response","trial_index":145,"time_elapsed":375599,"internal_node_id":"0.0-6.0-0.9","subject_id":"5d4459fdfdaaad00180ec101","study_id":"60edd13110225f80f9f3709b","session_id":"6196c1f76890184fbe6f5612","condition":"contingent","relevant_dimensions":["antennae","wings"],"bee_group":{"antennae":"B","wings":"1","pattern":"X","legs":"X"},"bonus":0.5600000000000014},{"rt":642.7999999821186,"stimulus":"bees-with-color/bee-A2SF.svg","response":0,"trial_type":"image-button-response","trial_index":146,"time_elapsed":376243,"internal_node_id":"0.0-6.0-0.10","subject_id":"5d4459fdfdaaad00180ec101","study_id":"60edd13110225f80f9f3709b","session_id":"6196c1f76890184fbe6f5612","condition":"contingent","relevant_dimensions":["antennae","wings"],"bee_group":{"antennae":"B","wings":"1","pattern":"X","legs":"X"},"bonus":0.5600000000000014},{"rt":494.7999999821186,"stimulus":"bees-with-color/bee-A2SM.svg","response":0,"trial_type":"image-button-response","trial_index":147,"time_elapsed":376739,"internal_node_id":"0.0-6.0-0.11","subject_id":"5d4459fdfdaaad00180ec101","study_id":"60edd13110225f80f9f3709b","session_id":"6196c1f76890184fbe6f5612","condition":"contingent","relevant_dimensions":["antennae","wings"],"bee_group":{"antennae":"B","wings":"1","pattern":"X","legs":"X"},"bonus":0.5600000000000014},{"rt":490,"stimulus":"bees-with-color/bee-A1SM.svg","response":0,"trial_type":"image-button-response","trial_index":148,"time_elapsed":377230,"internal_node_id":"0.0-6.0-0.12","subject_id":"5d4459fdfdaaad00180ec101","study_id":"60edd13110225f80f9f3709b","session_id":"6196c1f76890184fbe6f5612","condition":"contingent","relevant_dimensions":["antennae","wings"],"bee_group":{"antennae":"B","wings":"1","pattern":"X","legs":"X"},"bonus":0.5600000000000014},{"rt":1378.699999988079,"stimulus":"bees-with-color/bee-B1SM.svg","response":0,"trial_type":"image-button-response","trial_index":149,"time_elapsed":378610,"internal_node_id":"0.0-6.0-0.13","subject_id":"5d4459fdfdaaad00180ec101","study_id":"60edd13110225f80f9f3709b","session_id":"6196c1f76890184fbe6f5612","condition":"contingent","relevant_dimensions":["antennae","wings"],"bee_group":{"antennae":"B","wings":"1","pattern":"X","legs":"X"},"bonus":0.5600000000000014},{"rt":511.80000001192093,"stimulus":"bees-with-color/bee-A2DM.svg","response":0,"trial_type":"image-button-response","trial_index":150,"time_elapsed":379123,"internal_node_id":"0.0-6.0-0.14","subject_id":"5d4459fdfdaaad00180ec101","study_id":"60edd13110225f80f9f3709b","session_id":"6196c1f76890184fbe6f5612","condition":"contingent","relevant_dimensions":["antennae","wings"],"bee_group":{"antennae":"B","wings":"1","pattern":"X","legs":"X"},"bonus":0.5600000000000014},{"rt":997.9000000059605,"stimulus":"bees-with-color/bee-A1DF.svg","response":0,"trial_type":"image-button-response","trial_index":151,"time_elapsed":380122,"internal_node_id":"0.0-6.0-0.15","subject_id":"5d4459fdfdaaad00180ec101","study_id":"60edd13110225f80f9f3709b","session_id":"6196c1f76890184fbe6f5612","condition":"contingent","relevant_dimensions":["antennae","wings"],"bee_group":{"antennae":"B","wings":"1","pattern":"X","legs":"X"},"bonus":0.5600000000000014},{"rt":729.0999999940395,"stimulus":"bees-with-color/bee-A1SF.svg","response":0,"trial_type":"image-button-response","trial_index":152,"time_elapsed":380852,"internal_node_id":"0.0-6.0-0.16","subject_id":"5d4459fdfdaaad00180ec101","study_id":"60edd13110225f80f9f3709b","session_id":"6196c1f76890184fbe6f5612","condition":"contingent","relevant_dimensions":["antennae","wings"],"bee_group":{"antennae":"B","wings":"1","pattern":"X","legs":"X"},"bonus":0.5600000000000014},{"rt":867,"stimulus":"bees-with-color/bee-A1SM.svg","response":0,"trial_type":"image-button-response","trial_index":153,"time_elapsed":381720,"internal_node_id":"0.0-6.0-0.17","subject_id":"5d4459fdfdaaad00180ec101","study_id":"60edd13110225f80f9f3709b","session_id":"6196c1f76890184fbe6f5612","condition":"contingent","relevant_dimensions":["antennae","wings"],"bee_group":{"antennae":"B","wings":"1","pattern":"X","legs":"X"},"bonus":0.5600000000000014},{"rt":820.0999999940395,"stimulus":"bees-with-color/bee-B2DF.svg","response":1,"trial_type":"image-button-response","trial_index":154,"time_elapsed":382541,"internal_node_id":"0.0-6.0-0.18","subject_id":"5d4459fdfdaaad00180ec101","study_id":"60edd13110225f80f9f3709b","session_id":"6196c1f76890184fbe6f5612","condition":"contingent","relevant_dimensions":["antennae","wings"],"bee_group":{"antennae":"B","wings":"1","pattern":"X","legs":"X"},"bonus":0.5600000000000014},{"rt":474.09999999403954,"stimulus":"bees-with-color/bee-A2DM.svg","response":0,"trial_type":"image-button-response","trial_index":155,"time_elapsed":383016,"internal_node_id":"0.0-6.0-0.19","subject_id":"5d4459fdfdaaad00180ec101","study_id":"60edd13110225f80f9f3709b","session_id":"6196c1f76890184fbe6f5612","condition":"contingent","relevant_dimensions":["antennae","wings"],"bee_group":{"antennae":"B","wings":"1","pattern":"X","legs":"X"},"bonus":0.5600000000000014},{"rt":965.0999999940395,"stimulus":"bees-with-color/bee-A1DF.svg","response":0,"trial_type":"image-button-response","trial_index":156,"time_elapsed":383982,"internal_node_id":"0.0-6.0-0.20","subject_id":"5d4459fdfdaaad00180ec101","study_id":"60edd13110225f80f9f3709b","session_id":"6196c1f76890184fbe6f5612","condition":"contingent","relevant_dimensions":["antennae","wings"],"bee_group":{"antennae":"B","wings":"1","pattern":"X","legs":"X"},"bonus":0.5600000000000014},{"rt":571,"stimulus":"bees-with-color/bee-B1DM.svg","response":0,"trial_type":"image-button-response","trial_index":157,"time_elapsed":384554,"internal_node_id":"0.0-6.0-0.21","subject_id":"5d4459fdfdaaad00180ec101","study_id":"60edd13110225f80f9f3709b","session_id":"6196c1f76890184fbe6f5612","condition":"contingent","relevant_dimensions":["antennae","wings"],"bee_group":{"antennae":"B","wings":"1","pattern":"X","legs":"X"},"bonus":0.5600000000000014},{"rt":809.1999999880791,"stimulus":"bees-with-color/bee-A2SM.svg","response":0,"trial_type":"image-button-response","trial_index":158,"time_elapsed":385364,"internal_node_id":"0.0-6.0-0.22","subject_id":"5d4459fdfdaaad00180ec101","study_id":"60edd13110225f80f9f3709b","session_id":"6196c1f76890184fbe6f5612","condition":"contingent","relevant_dimensions":["antennae","wings"],"bee_group":{"antennae":"B","wings":"1","pattern":"X","legs":"X"},"bonus":0.5600000000000014},{"rt":748.1999999880791,"stimulus":"bees-with-color/bee-B1DF.svg","response":1,"trial_type":"image-button-response","trial_index":159,"time_elapsed":386113,"internal_node_id":"0.0-6.0-0.23","subject_id":"5d4459fdfdaaad00180ec101","study_id":"60edd13110225f80f9f3709b","session_id":"6196c1f76890184fbe6f5612","condition":"contingent","relevant_dimensions":["antennae","wings"],"bee_group":{"antennae":"B","wings":"1","pattern":"X","legs":"X"},"bonus":0.5600000000000014},{"rt":742.9000000059605,"stimulus":"bees-with-color/bee-B1SF.svg","response":1,"trial_type":"ima