[{"success":true,"trial_type":"fullscreen","trial_index":0,"time_elapsed":3965,"internal_node_id":"0.0-0.0","subject_id":"60a45d758006be79e8b07ed9","study_id":"60edd13110225f80f9f3709b","session_id":"6196c7034c669fc19099ddac","condition":"contingent","relevant_dimensions":["pattern","legs"],"bee_group":{"antennae":"X","wings":"X","pattern":"D","legs":"M"},"bonus":1.0000000000000009},{"success":true,"timeout":false,"failed_images":[],"failed_audio":[],"failed_video":[],"trial_type":"preload","trial_index":1,"time_elapsed":5643,"internal_node_id":"0.0-1.0","subject_id":"60a45d758006be79e8b07ed9","study_id":"60edd13110225f80f9f3709b","session_id":"6196c7034c669fc19099ddac","condition":"contingent","relevant_dimensions":["pattern","legs"],"bee_group":{"antennae":"X","wings":"X","pattern":"D","legs":"M"},"bonus":1.0000000000000009},{"rt":9246.5,"stimulus":"Welcome! Press any key to begin.","response":"alt","trial_type":"html-keyboard-response","trial_index":2,"time_elapsed":14890,"internal_node_id":"0.0-2.0","subject_id":"60a45d758006be79e8b07ed9","study_id":"60edd13110225f80f9f3709b","session_id":"6196c7034c669fc19099ddac","condition":"contingent","relevant_dimensions":["pattern","legs"],"bee_group":{"antennae":"X","wings":"X","pattern":"D","legs":"M"},"bonus":1.0000000000000009},{"view_history":[{"page_index":0,"viewing_time":40110},{"page_index":1,"viewing_time":9862},{"page_index":2,"viewing_time":9582.099999997765},{"page_index":3,"viewing_time":145243.1000000015},{"page_index":4,"viewing_time":5549.199999999255},{"page_index":5,"viewing_time":344357.80000000075},{"page_index":6,"viewing_time":6811.89999999851},{"page_index":7,"viewing_time":8480.10000000149},{"page_index":8,"viewing_time":6992},{"page_index":9,"viewing_time":9657},{"page_index":10,"viewing_time":7964.199999999255},{"page_index":11,"viewing_time":11831.900000002235},{"page_index":12,"viewing_time":10729},{"page_index":13,"viewing_time":48912},{"page_index":14,"viewing_time":1899}],"rt":667981.8999999985,"trial_type":"instructions","trial_index":3,"time_elapsed":682873,"internal_node_id":"0.0-3.0-0.0","subject_id":"60a45d758006be79e8b07ed9","study_id":"60edd13110225f80f9f3709b","session_id":"6196c7034c669fc19099ddac","condition":"contingent","relevant_dimensions":["pattern","legs"],"bee_group":{"antennae":"X","wings":"X","pattern":"D","legs":"M"},"bonus":1.0000000000000009},{"rt":12862.800000000745,"response":{"Q0":["Two or six legs","Stripes or spots on body","Single or double wings","Antennae or no antennae"]},"question_order":[0],"trial_type":"survey-multi-select","trial_index":4,"time_elapsed":695739,"internal_node_id":"0.0-3.0-1.0","subject_id":"60a45d758006be79e8b07ed9","study_id":"60edd13110225f80f9f3709b","session_id":"6196c7034c669fc19099ddac","condition":"contingent","relevant_dimensions":["pattern","legs"],"bee_group":{"antennae":"X","wings":"X","pattern":"D","legs":"M"},"correct":true,"bonus":1.0000000000000009},{"rt":14510.89999999851,"response":{"Q1":"No.","Q2":"Based on the four features of the bee.","Q3":"You do not learn if it was friendly or dangerous, and do not alter your bonus."},"question_order":[0,1,2],"trial_type":"survey-multi-choice","trial_index":5,"time_elapsed":710254,"internal_node_id":"0.0-3.0-2.0","subject_id":"60a45d758006be79e8b07ed9","study_id":"60edd13110225f80f9f3709b","session_id":"6196c7034c669fc19099ddac","condition":"contingent","relevant_dimensions":["pattern","legs"],"bee_group":{"antennae":"X","wings":"X","pattern":"D","legs":"M"},"correct":true,"bonus":1.0000000000000009},{"rt":1945.0999999977648,"stimulus":"<p>Congrats, you got everything right<br>When you're ready, click the button below to continue to the experiment.</p>","response":0,"trial_type":"html-button-response","trial_index":6,"time_elapsed":712202,"internal_node_id":"0.0-3.0-3.0","subject_id":"60a45d758006be79e8b07ed9","study_id":"60edd13110225f80f9f3709b","session_id":"6196c7034c669fc19099ddac","condition":"contingent","relevant_dimensions":["pattern","legs"],"bee_group":{"antennae":"X","wings":"X","pattern":"D","legs":"M"},"bonus":1.0000000000000009},{"rt":59903.5,"stimulus":"bees-with-color/bee-A1SM.svg","response":0,"trial_type":"image-button-response","trial_index":7,"time_elapsed":772106,"internal_node_id":"0.0-4.0-0.0","subject_id":"60a45d758006be79e8b07ed9","study_id":"60edd13110225f80f9f3709b","session_id":"6196c7034c669fc19099ddac","condition":"contingent","relevant_dimensions":["pattern","legs"],"bee_group":{"antennae":"X","wings":"X","pattern":"D","legs":"M"},"action":"harvest","summary":"good-harvest","bonus":1.0000000000000009},{"rt":8028.10000000149,"stimulus":"\n                    <p><b>Action: <em>harvest</em></b></p>\n                    <p>This is the bee that you just saw.</p>\n                    <img src=\"bees-with-color/bee-A1SM.svg\" width=\"200\">\n                    <p><span class=\"greenText\"><b>Successful harvest!</b></span><br>Your pay has increased by $0.02. Your bonus pay is now $0.56.</p>\n            ","response":0,"trial_type":"html-button-response","trial_index":8,"time_elapsed":780136,"internal_node_id":"0.0-4.0-1.0","subject_id":"60a45d758006be79e8b07ed9","study_id":"60edd13110225f80f9f3709b","session_id":"6196c7034c669fc19099ddac","condition":"contingent","relevant_dimensions":["pattern","legs"],"bee_group":{"antennae":"X","wings":"X","pattern":"D","legs":"M"},"bonus":1.0000000000000009},{"rt":31775.599999997765,"stimulus":"bees-with-color/bee-B2DM.svg","response":0,"trial_type":"image-button-response","trial_index":9,"time_elapsed":811913,"internal_node_id":"0.0-4.0-0.1","subject_id":"60a45d758006be79e8b07ed9","study_id":"60edd13110225f80f9f3709b","session_id":"6196c7034c669fc19099ddac","condition":"contingent","relevant_dimensions":["pattern","legs"],"bee_group":{"antennae":"X","wings":"X","pattern":"D","legs":"M"},"action":"harvest","summary":"bad-harvest","bonus":1.0000000000000009},{"rt":15912.699999999255,"stimulus":"\n                    <p><b>Action: <em>harvest</em></b></p>\n                    <p>This is the bee that you just saw.</p>\n                    <img src=\"bees-with-color/bee-B2DM.svg\" width=\"200\">\n                    <p><span class=\"redText\">Bad choice, the bee was angry.</span><br><b>You have been stung!</b><br>Your pay has been decreased by $0.10. Your bonus pay is now $0.46.</p>\n            ","response":0,"trial_type":"html-button-response","trial_index":10,"time_elapsed":827827,"internal_node_id":"0.0-4.0-1.1","subject_id":"60a45d758006be79e8b07ed9","study_id":"60edd13110225f80f9f3709b","session_id":"6196c7034c669fc19099ddac","condition":"contingent","relevant_dimensions":["pattern","legs"],"bee_group":{"antennae":"X","wings":"X","pattern":"D","legs":"M"},"bonus":1.0000000000000009},{"rt":5117.699999999255,"stimulus":"bees-with-color/bee-B2SF.svg","response":0,"trial_type":"image-button-response","trial_index":11,"time_elapsed":832946,"internal_node_id":"0.0-4.0-0.2","subject_id":"60a45d758006be79e8b07ed9","study_id":"60edd13110225f80f9f3709b","session_id":"6196c7034c669fc19099ddac","condition":"contingent","relevant_dimensions":["pattern","legs"],"bee_group":{"antennae":"X","wings":"X","pattern":"D","legs":"M"},"action":"harvest","summary":"good-harvest","bonus":1.0000000000000009},{"rt":12169.400000002235,"stimulus":"\n                    <p><b>Action: <em>harvest</em></b></p>\n                    <p>This is the bee that you just saw.</p>\n                    <img src=\"bees-with-color/bee-B2SF.svg\" width=\"200\">\n                    <p><span class=\"greenText\"><b>Successful harvest!</b></span><br>Your pay has increased by $0.02. Your bonus pay is now $0.48.</p>\n            ","response":0,"trial_type":"html-button-response","trial_index":12,"time_elapsed":845117,"internal_node_id":"0.0-4.0-1.2","subject_id":"60a45d758006be79e8b07ed9","study_id":"60edd13110225f80f9f3709b","session_id":"6196c7034c669fc19099ddac","condition":"contingent","relevant_dimensions":["pattern","legs"],"bee_group":{"antennae":"X","wings":"X","pattern":"D","legs":"M"},"bonus":1.0000000000000009},{"rt":2146.800000000745,"stimulus":"bees-with-color/bee-A2DF.svg","response":1,"trial_type":"image-button-response","trial_index":13,"time_elapsed":847265,"internal_node_id":"0.0-4.0-0.3","subject_id":"60a45d758006be79e8b07ed9","study_id":"60edd13110225f80f9f3709b","session_id":"6196c7034c669fc19099ddac","condition":"contingent","relevant_dimensions":["pattern","legs"],"bee_group":{"antennae":"X","wings":"X","pattern":"D","legs":"M"},"action":"avoid","summary":"bad-avoid","bonus":1.0000000000000009},{"rt":3396,"stimulus":"\n                    <p><b>Action: <em>avoid</em></b></p>\n                    <p>This is the bee that you just saw.</p>\n                    <img src=\"bees-with-color/bee-A2DF.svg\" width=\"200\">\n                    <p><br>Your bonus pay is unchanged, and remains at $0.48.</p>\n            ","response":0,"trial_type":"html-button-response","trial_index":14,"time_elapsed":850662,"internal_node_id":"0.0-4.0-1.3","subject_id":"60a45d758006be79e8b07ed9","study_id":"60edd13110225f80f9f3709b","session_id":"6196c7034c669fc19099ddac","condition":"contingent","relevant_dimensions":["pattern","legs"],"bee_group":{"antennae":"X","wings":"X","pattern":"D","legs":"M"},"bonus":1.0000000000000009},{"rt":1621.9000000022352,"stimulus":"bees-with-color/bee-A2SM.svg","response":0,"trial_type":"image-button-response","trial_index":15,"time_elapsed":852285,"internal_node_id":"0.0-4.0-0.4","subject_id":"60a45d758006be79e8b07ed9","study_id":"60edd13110225f80f9f3709b","session_id":"6196c7034c669fc19099ddac","condition":"contingent","relevant_dimensions":["pattern","legs"],"bee_group":{"antennae":"X","wings":"X","pattern":"D","legs":"M"},"action":"harvest","summary":"good-harvest","bonus":1.0000000000000009},{"rt":1056,"stimulus":"\n                    <p><b>Action: <em>harvest</em></b></p>\n                    <p>This is the bee that you just saw.</p>\n                    <img src=\"bees-with-color/bee-A2SM.svg\" width=\"200\">\n                    <p><span class=\"greenText\"><b>Successful harvest!</b></span><br>Your pay has increased by $0.02. Your bonus pay is now $0.50.</p>\n            ","response":0,"trial_type":"html-button-response","trial_index":16,"time_elapsed":853342,"internal_node_id":"0.0-4.0-1.4","subject_id":"60a45d758006be79e8b07ed9","study_id":"60edd13110225f80f9f3709b","session_id":"6196c7034c669fc19099ddac","condition":"contingent","relevant_dimensions":["pattern","legs"],"bee_group":{"antennae":"X","wings":"X","pattern":"D","legs":"M"},"bonus":1.0000000000000009},{"rt":965,"stimulus":"bees-with-color/bee-A2SF.svg","response":1,"trial_type":"image-button-response","trial_index":17,"time_elapsed":854308,"internal_node_id":"0.0-4.0-0.5","subject_id":"60a45d758006be79e8b07ed9","study_id":"60edd13110225f80f9f3709b","session_id":"6196c7034c669fc19099ddac","condition":"contingent","relevant_dimensions":["pattern","legs"],"bee_group":{"antennae":"X","wings":"X","pattern":"D","legs":"M"},"action":"avoid","summary":"bad-avoid","bonus":1.0000000000000009},{"rt":905.8999999985099,"stimulus":"\n                    <p><b>Action: <em>avoid</em></b></p>\n                    <p>This is the bee that you just saw.</p>\n                    <img src=\"bees-with-color/bee-A2SF.svg\" width=\"200\">\n                    <p><br>Your bonus pay is unchanged, and remains at $0.50.</p>\n            ","response":0,"trial_type":"html-button-response","trial_index":18,"time_elapsed":855215,"internal_node_id":"0.0-4.0-1.5","subject_id":"60a45d758006be79e8b07ed9","study_id":"60edd13110225f80f9f3709b","session_id":"6196c7034c669fc19099ddac","condition":"contingent","relevant_dimensions":["pattern","legs"],"bee_group":{"antennae":"X","wings":"X","pattern":"D","legs":"M"},"bonus":1.0000000000000009},{"rt":859.8999999985099,"stimulus":"bees-with-color/bee-A1DF.svg","response":1,"trial_type":"image-button-response","trial_index":19,"time_elapsed":856076,"internal_node_id":"0.0-4.0-0.6","subject_id":"60a45d758006be79e8b07ed9","study_id":"60edd13110225f80f9f3709b","session_id":"6196c7034c669fc19099ddac","condition":"contingent","relevant_dimensions":["pattern","legs"],"bee_group":{"antennae":"X","wings":"X","pattern":"D","legs":"M"},"action":"avoid","summary":"bad-avoid","bonus":1.0000000000000009},{"rt":439.70000000298023,"stimulus":"\n                    <p><b>Action: <em>avoid</em></b></p>\n                    <p>This is the bee that you just saw.</p>\n                    <img src=\"bees-with-color/bee-A1DF.svg\" width=\"200\">\n                    <p><br>Your bonus pay is unchanged, and remains at $0.50.</p>\n            ","response":0,"trial_type":"html-button-response","trial_index":20,"time_elapsed":856517,"internal_node_id":"0.0-4.0-1.6","subject_id":"60a45d758006be79e8b07ed9","study_id":"60edd13110225f80f9f3709b","session_id":"6196c7034c669fc19099ddac","condition":"contingent","relevant_dimensions":["pattern","legs"],"bee_group":{"antennae":"X","wings":"X","pattern":"D","legs":"M"},"bonus":1.0000000000000009},{"rt":720.1999999992549,"stimulus":"bees-with-color/bee-A1DM.svg","response":1,"trial_type":"image-button-response","trial_index":21,"time_elapsed":857238,"internal_node_id":"0.0-4.0-0.7","subject_id":"60a45d758006be79e8b07ed9","study_id":"60edd13110225f80f9f3709b","session_id":"6196c7034c669fc19099ddac","condition":"contingent","relevant_dimensions":["pattern","legs"],"bee_group":{"antennae":"X","wings":"X","pattern":"D","legs":"M"},"action":"avoid","summary":"good-avoid","bonus":1.0000000000000009},{"rt":349.80000000074506,"stimulus":"\n                    <p><b>Action: <em>avoid</em></b></p>\n                    <p>This is the bee that you just saw.</p>\n                    <img src=\"bees-with-color/bee-A1DM.svg\" width=\"200\">\n                    <p><br>Your bonus pay is unchanged, and remains at $0.50.</p>\n            ","response":0,"trial_type":"html-button-response","trial_index":22,"time_elapsed":857589,"internal_node_id":"0.0-4.0-1.7","subject_id":"60a45d758006be79e8b07ed9","study_id":"60edd13110225f80f9f3709b","session_id":"6196c7034c669fc19099ddac","condition":"contingent","relevant_dimensions":["pattern","legs"],"bee_group":{"antennae":"X","wings":"X","pattern":"D","legs":"M"},"bonus":1.0000000000000009},{"rt":709.9000000022352,"stimulus":"bees-with-color/bee-B1SM.svg","response":0,"trial_type":"image-button-response","trial_index":23,"time_elapsed":858300,"internal_node_id":"0.0-4.0-0.8","subject_id":"60a45d758006be79e8b07ed9","study_id":"60edd13110225f80f9f3709b","session_id":"6196c7034c669fc19099ddac","condition":"contingent","relevant_dimensions":["pattern","legs"],"bee_group":{"antennae":"X","wings":"X","pattern":"D","legs":"M"},"action":"harvest","summary":"good-harvest","bonus":1.0000000000000009},{"rt":450,"stimulus":"\n                    <p><b>Action: <em>harvest</em></b></p>\n                    <p>This is the bee that you just saw.</p>\n                    <img src=\"bees-with-color/bee-B1SM.svg\" width=\"200\">\n                    <p><span class=\"greenText\"><b>Successful harvest!</b></span><br>Your pay has increased by $0.02. Your bonus pay is now $0.52.</p>\n            ","response":0,"trial_type":"html-button-response","trial_index":24,"time_elapsed":858751,"internal_node_id":"0.0-4.0-1.8","subject_id":"60a45d758006be79e8b07ed9","study_id":"60edd13110225f80f9f3709b","session_id":"6196c7034c669fc19099ddac","condition":"contingent","relevant_dimensions":["pattern","legs"],"bee_group":{"antennae":"X","wings":"X","pattern":"D","legs":"M"},"bonus":1.0000000000000009},{"rt":831.1000000014901,"stimulus":"bees-with-color/bee-B2SM.svg","response":0,"trial_type":"image-button-response","trial_index":25,"time_elapsed":859583,"internal_node_id":"0.0-4.0-0.9","subject_id":"60a45d758006be79e8b07ed9","study_id":"60edd13110225f80f9f3709b","session_id":"6196c7034c669fc19099ddac","condition":"contingent","relevant_dimensions":["pattern","legs"],"bee_group":{"antennae":"X","wings":"X","pattern":"D","legs":"M"},"action":"harvest","summary":"good-harvest","bonus":1.0000000000000009},{"rt":418.80000000074506,"stimulus":"\n                    <p><b>Action: <em>harvest</em></b></p>\n                    <p>This is the bee that you just saw.</p>\n                    <img src=\"bees-with-color/bee-B2SM.svg\" width=\"200\">\n                    <p><span class=\"greenText\"><b>Successful harvest!</b></span><br>Your pay has increased by $0.02. Your bonus pay is now $0.54.</p>\n            ","response":0,"trial_type":"html-button-response","trial_index":26,"time_elapsed":860003,"internal_node_id":"0.0-4.0-1.9","subject_id":"60a45d758006be79e8b07ed9","study_id":"60edd13110225f80f9f3709b","session_id":"6196c7034c669fc19099ddac","condition":"contingent","relevant_dimensions":["pattern","legs"],"bee_group":{"antennae":"X","wings":"X","pattern":"D","legs":"M"},"bonus":1.0000000000000009},{"rt":831.3999999985099,"stimulus":"bees-with-color/bee-B1DF.svg","response":1,"trial_type":"image-button-response","trial_index":27,"time_elapsed":860835,"internal_node_id":"0.0-4.0-0.10","subject_id":"60a45d758006be79e8b07ed9","study_id":"60edd13110225f80f9f3709b","session_id":"6196c7034c669fc19099ddac","condition":"contingent","relevant_dimensions":["pattern","legs"],"bee_group":{"antennae":"X","wings":"X","pattern":"D","legs":"M"},"action":"avoid","summary":"bad-avoid","bonus":1.0000000000000009},{"rt":404.69999999925494,"stimulus":"\n                    <p><b>Action: <em>avoid</em></b></p>\n                    <p>This is the bee that you just saw.</p>\n                    <img src=\"bees-with-color/bee-B1DF.svg\" width=\"200\">\n                    <p><br>Your bonus pay is unchanged, and remains at $0.54.</p>\n            ","response":0,"trial_type":"html-button-response","trial_index":28,"time_elapsed":861241,"internal_node_id":"0.0-4.0-1.10","subject_id":"60a45d758006be79e8b07ed9","study_id":"60edd13110225f80f9f3709b","session_id":"6196c7034c669fc19099ddac","condition":"contingent","relevant_dimensions":["pattern","legs"],"bee_group":{"antennae":"X","wings":"X","pattern":"D","legs":"M"},"bonus":1.0000000000000009},{"rt":590.5,"stimulus":"bees-with-color/bee-A1SF.svg","response":0,"trial_type":"image-button-response","trial_index":29,"time_elapsed":861832,"internal_node_id":"0.0-4.0-0.11","subject_id":"60a45d758006be79e8b07ed9","study_id":"60edd13110225f80f9f3709b","session_id":"6196c7034c669fc19099ddac","condition":"contingent","relevant_dimensions":["pattern","legs"],"bee_group":{"antennae":"X","wings":"X","pattern":"D","legs":"M"},"action":"harvest","summary":"good-harvest","bonus":1.0000000000000009},{"rt":395,"stimulus":"\n                    <p><b>Action: <em>harvest</em></b></p>\n                    <p>This is the bee that you just saw.</p>\n                    <img src=\"bees-with-color/bee-A1SF.svg\" width=\"200\">\n                    <p><span class=\"greenText\"><b>Successful harvest!</b></span><br>Your pay has increased by $0.02. Your bonus pay is now $0.56.</p>\n            ","response":0,"trial_type":"html-button-response","trial_index":30,"time_elapsed":862228,"internal_node_id":"0.0-4.0-1.11","subject_id":"60a45d758006be79e8b07ed9","study_id":"60edd13110225f80f9f3709b","session_id":"6196c7034c669fc19099ddac","condition":"contingent","relevant_dimensions":["pattern","legs"],"bee_group":{"antennae":"X","wings":"X","pattern":"D","legs":"M"},"bonus":1.0000000000000009},{"rt":1166.1000000014901,"stimulus":"bees-with-color/bee-B1SF.svg","response":0,"trial_type":"image-button-response","trial_index":31,"time_elapsed":863395,"internal_node_id":"0.0-4.0-0.12","subject_id":"60a45d758006be79e8b07ed9","study_id":"60edd13110225f80f9f3709b","session_id":"6196c7034c669fc19099ddac","condition":"contingent","relevant_dimensions":["pattern","legs"],"bee_group":{"antennae":"X","wings":"X","pattern":"D","legs":"M"},"action":"harvest","summary":"good-harvest","bonus":1.0000000000000009},{"rt":369.1000000014901,"stimulus":"\n                    <p><b>Action: <em>harvest</em></b></p>\n                    <p>This is the bee that you just saw.</p>\n                    <img src=\"bees-with-color/bee-B1SF.svg\" width=\"200\">\n                    <p><span class=\"greenText\"><b>Successful harvest!</b></span><br>Your pay has increased by $0.02. Your bonus pay is now $0.58.</p>\n            ","response":0,"trial_type":"html-button-response","trial_index":32,"time_elapsed":863765,"internal_node_id":"0.0-4.0-1.12","subject_id":"60a45d758006be79e8b07ed9","study_id":"60edd13110225f80f9f3709b","session_id":"6196c7034c669fc19099ddac","condition":"contingent","relevant_dimensions":["pattern","legs"],"bee_group":{"antennae":"X","wings":"X","pattern":"D","legs":"M"},"bonus":1.0000000000000009},{"rt":806.0999999977648,"stimulus":"bees-with-color/bee-B2DF.svg","response":1,"trial_type":"image-button-response","trial_index":33,"time_elapsed":864572,"internal_node_id":"0.0-4.0-0.13","subject_id":"60a45d758006be79e8b07ed9","study_id":"60edd13110225f80f9f3709b","session_id":"6196c7034c669fc19099ddac","condition":"contingent","relevant_dimensions":["pattern","legs"],"bee_group":{"antennae":"X","wings":"X","pattern":"D","legs":"M"},"action":"avoid","summary":"bad-avoid","bonus":1.0000000000000009},{"rt":348.5,"stimulus":"\n                    <p><b>Action: <em>avoid</em></b></p>\n                    <p>This is the bee that you just saw.</p>\n                    <img src=\"bees-with-color/bee-B2DF.svg\" width=\"200\">\n                    <p><br>Your bonus pay is unchanged, and remains at $0.58.</p>\n            ","response":0,"trial_type":"html-button-response","trial_index":34,"time_elapsed":864923,"internal_node_id":"0.0-4.0-1.13","subject_id":"60a45d758006be79e8b07ed9","study_id":"60edd13110225f80f9f3709b","session_id":"6196c7034c669fc19099ddac","condition":"contingent","relevant_dimensions":["pattern","legs"],"bee_group":{"antennae":"X","wings":"X","pattern":"D","legs":"M"},"bonus":1.0000000000000009},{"rt":2359.5,"stimulus":"bees-with-color/bee-A2DM.svg","response":1,"trial_type":"image-button-response","trial_index":35,"time_elapsed":867283,"internal_node_id":"0.0-4.0-0.14","subject_id":"60a45d758006be79e8b07ed9","study_id":"60edd13110225f80f9f3709b","session_id":"6196c7034c669fc19099ddac","condition":"contingent","relevant_dimensions":["pattern","legs"],"bee_group":{"antennae":"X","wings":"X","pattern":"D","legs":"M"},"action":"avoid","summary":"good-avoid","bonus":1.0000000000000009},{"rt":358.6000000014901,"stimulus":"\n                    <p><b>Action: <em>avoid</em></b></p>\n                    <p>This is the bee that you just saw.</p>\n                    <img src=\"bees-with-color/bee-A2DM.svg\" width=\"200\">\n                    <p><br>Your bonus pay is unchanged, and remains at $0.58.</p>\n            ","response":0,"trial_type":"html-button-response","trial_index":36,"time_elapsed":867643,"internal_node_id":"0.0-4.0-1.14","subject_id":"60a45d758006be79e8b07ed9","study_id":"60edd13110225f80f9f3709b","session_id":"6196c7034c669fc19099ddac","condition":"contingent","relevant_dimensions":["pattern","legs"],"bee_group":{"antennae":"X","wings":"X","pattern":"D","legs":"M"},"bonus":1.0000000000000009},{"rt":746.0999999977648,"stimulus":"bees-with-color/bee-B1DM.svg","response":1,"trial_type":"image-button-response","trial_index":37,"time_elapsed":868390,"internal_node_id":"0.0-4.0-0.15","subject_id":"60a45d758006be79e8b07ed9","study_id":"60edd13110225f80f9f3709b","session_id":"6196c7034c669fc19099ddac","condition":"contingent","relevant_dimensions":["pattern","legs"],"bee_group":{"antennae":"X","wings":"X","pattern":"D","legs":"M"},"action":"avoid","summary":"good-avoid","bonus":1.0000000000000009},{"rt":363.80000000074506,"stimulus":"\n                    <p><b>Action: <em>avoid</em></b></p>\n                    <p>This is the bee that you just saw.</p>\n                    <img src=\"bees-with-color/bee-B1DM.svg\" width=\"200\">\n                    <p><br>Your bonus pay is unchanged, and remains at $0.58.</p>\n            ","response":0,"trial_type":"html-button-response","trial_index":38,"time_elapsed":868755,"internal_node_id":"0.0-4.0-1.15","subject_id":"60a45d758006be79e8b07ed9","study_id":"60edd13110225f80f9f3709b","session_id":"6196c7034c669fc19099ddac","condition":"contingent","relevant_dimensions":["pattern","legs"],"bee_group":{"antennae":"X","wings":"X","pattern":"D","legs":"M"},"bonus":1.0000000000000009},{"rt":640.5,"stimulus":"bees-with-color/bee-B2DF.svg","response":1,"trial_type":"image-button-response","trial_index":39,"time_elapsed":869396,"internal_node_id":"0.0-4.0-0.16","subject_id":"60a45d758006be79e8b07ed9","study_id":"60edd13110225f80f9f3709b","session_id":"6196c7034c669fc19099ddac","condition":"contingent","relevant_dimensions":["pattern","legs"],"bee_group":{"antennae":"X","wings":"X","pattern":"D","legs":"M"},"action":"avoid","summary":"bad-avoid","bonus":1.0000000000000009},{"rt":385,"stimulus":"\n                    <p><b>Action: <em>avoid</em></b></p>\n                    <p>This is the bee that you just saw.</p>\n                    <img src=\"bees-with-color/bee-B2DF.svg\" width=\"200\">\n                    <p><br>Your bonus pay is unchanged, and remains at $0.58.</p>\n            ","response":0,"trial_type":"html-button-response","trial_index":40,"time_elapsed":869782,"internal_node_id":"0.0-4.0-1.16","subject_id":"60a45d758006be79e8b07ed9","study_id":"60edd13110225f80f9f3709b","session_id":"6196c7034c669fc19099ddac","condition":"contingent","relevant_dimensions":["pattern","legs"],"bee_group":{"antennae":"X","wings":"X","pattern":"D","legs":"M"},"bonus":1.0000000000000009},{"rt":791.3000000007451,"stimulus":"bees-with-color/bee-A1DF.svg","response":0,"trial_type":"image-button-response","trial_index":41,"time_elapsed":870574,"internal_node_id":"0.0-4.0-0.17","subject_id":"60a45d758006be79e8b07ed9","study_id":"60edd13110225f80f9f3709b","session_id":"6196c7034c669fc19099ddac","condition":"contingent","relevant_dimensions":["pattern","legs"],"bee_group":{"antennae":"X","wings":"X","pattern":"D","legs":"M"},"action":"harvest","summary":"good-harvest","bonus":1.0000000000000009},{"rt":583.8000000007451,"stimulus":"\n                    <p><b>Action: <em>harvest</em></b></p>\n                    <p>This is the bee that you just saw.</p>\n                    <img src=\"bees-with-color/bee-A1DF.svg\" width=\"200\">\n                    <p><span class=\"greenText\"><b>Successful harvest!</b></span><br>Your pay has increased by $0.02. Your bonus pay is now $0.60.</p>\n            ","response":0,"trial_type":"html-button-response","trial_index":42,"time_elapsed":871159,"internal_node_id":"0.0-4.0-1.17","subject_id":"60a45d758006be79e8b07ed9","study_id":"60edd13110225f80f9f3709b","session_id":"6196c7034c669fc19099ddac","condition":"contingent","relevant_dimensions":["pattern","legs"],"bee_group":{"antennae":"X","wings":"X","pattern":"D","legs":"M"},"bonus":1.0000000000000009},{"rt":2033.300000000745,"stimulus":"bees-with-color/bee-A1SF.svg","response":0,"trial_type":"image-button-response","trial_index":43,"time_elapsed":873193,"internal_node_id":"0.0-4.0-0.18","subject_id":"60a45d758006be79e8b07ed9","study_id":"60edd13110225f80f9f3709b","session_id":"6196c7034c669fc19099ddac","condition":"contingent","relevant_dimensions":["pattern","legs"],"bee_group":{"antennae":"X","wings":"X","pattern":"D","legs":"M"},"action":"harvest","summary":"good-harvest","bonus":1.0000000000000009},{"rt":519.6999999992549,"stimulus":"\n                    <p><b>Action: <em>harvest</em></b></p>\n                    <p>This is the bee that you just saw.</p>\n                    <img src=\"bees-with-color/bee-A1SF.svg\" width=\"200\">\n                    <p><span class=\"greenText\"><b>Successful harvest!</b></span><br>Your pay has increased by $0.02. Your bonus pay is now $0.62.</p>\n            ","response":0,"trial_type":"html-button-response","trial_index":44,"time_elapsed":873714,"internal_node_id":"0.0-4.0-1.18","subject_id":"60a45d758006be79e8b07ed9","study_id":"60edd13110225f80f9f3709b","session_id":"6196c7034c669fc19099ddac","condition":"contingent","relevant_dimensions":["pattern","legs"],"bee_group":{"antennae":"X","wings":"X","pattern":"D","legs":"M"},"bonus":1.0000000000000009},{"rt":2013.4000000022352,"stimulus":"bees-with-color/bee-B1DM.svg","response":0,"trial_type":"image-button-response","trial_index":45,"time_elapsed":875728,"internal_node_id":"0.0-4.0-0.19","subject_id":"60a45d758006be79e8b07ed9","study_id":"60edd13110225f80f9f3709b","session_id":"6196c7034c669fc19099ddac","condition":"contingent","relevant_dimensions":["pattern","legs"],"bee_group":{"antennae":"X","wings":"X","pattern":"D","legs":"M"},"action":"harvest","summary":"bad-harvest","bonus":1.0000000000000009},{"rt":5183.70000000298,"stimulus":"\n                    <p><b>Action: <em>harvest</em></b></p>\n                    <p>This is the bee that you just saw.</p>\n                    <img src=\"bees-with-color/bee-B1DM.svg\" width=\"200\">\n                    <p><span class=\"redText\">Bad choice, the bee was angry.</span><br><b>You have been stung!</b><br>Your pay has been decreased by $0.10. Your bonus pay is now $0.52.</p>\n            ","response":0,"trial_type":"html-button-response","trial_index":46,"time_elapsed":880913,"internal_node_id":"0.0-4.0-1.19","subject_id":"60a45d758006be79e8b07ed9","study_id":"60edd13110225f80f9f3709b","session_id":"6196c7034c669fc19099ddac","condition":"contingent","relevant_dimensions":["pattern","legs"],"bee_group":{"antennae":"X","wings":"X","pattern":"D","legs":"M"},"bonus":1.0000000000000009},{"rt":1380.5999999977648,"stimulus":"bees-with-color/bee-A1DM.svg","response":0,"trial_type":"image-button-response","trial_index":47,"time_elapsed":882295,"internal_node_id":"0.0-4.0-0.20","subject_id":"60a45d758006be79e8b07ed9","study_id":"60edd13110225f80f9f3709b","session_id":"6196c7034c669fc19099ddac","condition":"contingent","relevant_dimensions":["pattern","legs"],"bee_group":{"antennae":"X","wings":"X","pattern":"D","legs":"M"},"action":"harvest","summary":"bad-harvest","bonus":1.0000000000000009},{"rt":801.3000000007451,"stimulus":"\n                    <p><b>Action: <em>harvest</em></b></p>\n                    <p>This is the bee that you just saw.</p>\n                    <img src=\"bees-with-color/bee-A1DM.svg\" width=\"200\">\n                    <p><span class=\"redText\">Bad choice, the bee was angry.</span><br><b>You have been stung!</b><br>Your pay has been decreased by $0.10. Your bonus pay is now $0.42.</p>\n            ","response":0,"trial_type":"html-button-response","trial_index":48,"time_elapsed":883097,"internal_node_id":"0.0-4.0-1.20","subject_id":"60a45d758006be79e8b07ed9","study_id":"60edd13110225f80f9f3709b","session_id":"6196c7034c669fc19099ddac","condition":"contingent","relevant_dimensions":["pattern","legs"],"bee_group":{"antennae":"X","wings":"X","pattern":"D","legs":"M"},"bonus":1.0000000000000009},{"rt":1937,"stimulus":"bees-with-color/bee-A2SF.svg","response":0,"trial_type":"image-button-response","trial_index":49,"time_elapsed":885035,"internal_node_id":"0.0-4.0-0.21","subject_id":"60a45d758006be79e8b07ed9","study_id":"60edd13110225f80f9f3709b","session_id":"6196c7034c669fc19099ddac","condition":"contingent","relevant_dimensions":["pattern","legs"],"bee_group":{"antennae":"X","wings":"X","pattern":"D","legs":"M"},"action":"harvest","summary":"good-harvest","bonus":1.0000000000000009},{"rt":500,"stimulus":"\n                    <p><b>Action: <em>harvest</em></b></p>\n                    <p>This is the bee that you just saw.</p>\n                    <img src=\"bees-with-color/bee-A2SF.svg\" width=\"200\">\n                    <p><span class=\"greenText\"><b>Successful harvest!</b></span><br>Your pay has increased by $0.02. Your bonus pay is now $0.44.</p>\n            ","response":0,"trial_type":"html-button-response","trial_index":50,"time_elapsed":885536,"internal_node_id":"0.0-4.0-1.21","subject_id":"60a45d758006be79e8b07ed9","study_id":"60edd13110225f80f9f3709b","session_id":"6196c7034c669fc19099ddac","condition":"contingent","relevant_dimensions":["pattern","legs"],"bee_group":{"antennae":"X","wings":"X","pattern":"D","legs":"M"},"bonus":1.0000000000000009},{"rt":750.9000000022352,"stimulus":"bees-with-color/bee-B1SM.svg","response":0,"trial_type":"image-button-response","trial_index":51,"time_elapsed":886288,"internal_node_id":"0.0-4.0-0.22","subject_id":"60a45d758006be79e8b07ed9","study_id":"60edd13110225f80f9f3709b","session_id":"6196c7034c669fc19099ddac","condition":"contingent","relevant_dimensions":["pattern","legs"],"bee_group":{"antennae":"X","wings":"X","pattern":"D","legs":"M"},"action":"harvest","summary":"good-harvest","bonus":1.0000000000000009},{"rt":383.80000000074506,"stimulus":"\n                    <p><b>Action: <em>harvest</em></b></p>\n                    <p>This is the bee that you just saw.</p>\n                    <img src=\"bees-with-color/bee-B1SM.svg\" width=\"200\">\n                    <p><span class=\"greenText\"><b>Successful harvest!</b></span><br>Your pay has increased by $0.02. Your bonus pay is now $0.46.</p>\n            ","response":0,"trial_type":"html-button-response","trial_index":52,"time_elapsed":886673,"internal_node_id":"0.0-4.0-1.22","subject_id":"60a45d758006be79e8b07ed9","study_id":"60edd13110225f80f9f3709b","session_id":"6196c7034c669fc19099ddac","condition":"contingent","relevant_dimensions":["pattern","legs"],"bee_group":{"antennae":"X","wings":"X","pattern":"D","legs":"M"},"bonus":1.0000000000000009},{"rt":696.8999999985099,"stimulus":"bees-with-color/bee-A2DF.svg","response":1,"trial_type":"image-button-response","trial_index":53,"time_elapsed":887370,"internal_node_id":"0.0-4.0-0.23","subject_id":"60a45d758006be79e8b07ed9","study_id":"60edd13110225f80f9f3709b","session_id":"6196c7034c669fc19099ddac","condition":"contingent","relevant_dimensions":["pattern","legs"],"bee_group":{"antennae":"X","wings":"X","pattern":"D","legs":"M"},"action":"avoid","summary":"bad-avoid","bonus":1.0000000000000009},{"rt":373.5,"stimulus":"\n                    <p><b>Action: <em>avoid</em></b></p>\n                    <p>This is the bee that you just saw.</p>\n                    <img src=\"bees-with-color/bee-A2DF.svg\" width=\"200\">\n                    <p><br>Your bonus pay is unchanged, and remains at $0.46.</p>\n            ","response":0,"trial_type":"html-button-response","trial_index":54,"time_elapsed":887745,"internal_node_id":"0.0-4.0-1.23","subject_id":"60a45d758006be79e8b07ed9","study_id":"60edd13110225f80f9f3709b","session_id":"6196c7034c669fc19099ddac","condition":"contingent","relevant_dimensions":["pattern","legs"],"bee_group":{"antennae":"X","wings":"X","pattern":"D","legs":"M"},"bonus":1.0000000000000009},{"rt":625.3000000007451,"stimulus":"bees-with-color/bee-A1SM.svg","response":0,"trial_type":"image-button-response","trial_index":55,"time_elapsed":888371,"internal_node_id":"0.0-4.0-0.24","subject_id":"60a45d758006be79e8b07ed9","study_id":"60edd13110225f80f9f3709b","session_id":"6196c7034c669fc19099ddac","condition":"contingent","relevant_dimensions":["pattern","legs"],"bee_group":{"antennae":"X","wings":"X","pattern":"D","legs":"M"},"action":"harvest","summary":"good-harvest","bonus":1.0000000000000009},{"rt":390.1000000014901,"stimulus":"\n                    <p><b>Action: <em>harvest</em></b></p>\n                    <p>This is the bee that you just saw.</p>\n                    <img src=\"bees-with-color/bee-A1SM.svg\" width=\"200\">\n                    <p><span class=\"greenText\"><b>Successful harvest!</b></span><br>Your pay has increased by $0.02. Your bonus pay is now $0.48.</p>\n            ","response":0,"trial_type":"html-button-response","trial_index":56,"time_elapsed":888762,"internal_node_id":"0.0-4.0-1.24","subject_id":"60a45d758006be79e8b07ed9","study_id":"60edd13110225f80f9f3709b","session_id":"6196c7034c669fc19099ddac","condition":"contingent","relevant_dimensions":["pattern","legs"],"bee_group":{"antennae":"X","wings":"X","pattern":"D","legs":"M"},"bonus":1.0000000000000009},{"rt":759.6000000014901,"stimulus":"bees-with-color/bee-B1SF.svg","response":0,"trial_type":"image-button-response","trial_index":57,"time_elapsed":889523,"internal_node_id":"0.0-4.0-0.25","subject_id":"60a45d758006be79e8b07ed9","study_id":"60edd13110225f80f9f3709b","session_id":"6196c7034c669fc19099ddac","condition":"contingent","relevant_dimensions":["pattern","legs"],"bee_group":{"antennae":"X","wings":"X","pattern":"D","legs":"M"},"action":"harvest","summary":"good-harvest","bonus":1.0000000000000009},{"rt":410,"stimulus":"\n                    <p><b>Action: <em>harvest</em></b></p>\n                    <p>This is the bee that you just saw.</p>\n                    <img src=\"bees-with-color/bee-B1SF.svg\" width=\"200\">\n                    <p><span class=\"greenText\"><b>Successful harvest!</b></span><br>Your pay has increased by $0.02. Your bonus pay is now $0.50.</p>\n            ","response":0,"trial_type":"html-button-response","trial_index":58,"time_elapsed":889934,"internal_node_id":"0.0-4.0-1.25","subject_id":"60a45d758006be79e8b07ed9","study_id":"60edd13110225f80f9f3709b","session_id":"6196c7034c669fc19099ddac","condition":"contingent","relevant_dimensions":["pattern","legs"],"bee_group":{"antennae":"X","wings":"X","pattern":"D","legs":"M"},"bonus":1.0000000000000009},{"rt":706.3999999985099,"stimulus":"bees-with-color/bee-A2DM.svg","response":1,"trial_type":"image-button-response","trial_index":59,"time_elapsed":890641,"internal_node_id":"0.0-4.0-0.26","subject_id":"60a45d758006be79e8b07ed9","study_id":"60edd13110225f80f9f3709b","session_id":"6196c7034c669fc19099ddac","condition":"contingent","relevant_dimensions":["pattern","legs"],"bee_group":{"antennae":"X","wings":"X","pattern":"D","legs":"M"},"action":"avoid","summary":"good-avoid","bonus":1.0000000000000009},{"rt":318.80000000074506,"stimulus":"\n                    <p><b>Action: <em>avoid</em></b></p>\n                    <p>This is the bee that you just saw.</p>\n                    <img src=\"bees-with-color/bee-A2DM.svg\" width=\"200\">\n                    <p><br>Your bonus pay is unchanged, and remains at $0.50.</p>\n            ","response":0,"trial_type":"html-button-response","trial_index":60,"time_elapsed":890961,"internal_node_id":"0.0-4.0-1.26","subject_id":"60a45d758006be79e8b07ed9","study_id":"60edd13110225f80f9f3709b","session_id":"6196c7034c669fc19099ddac","condition":"contingent","relevant_dimensions":["pattern","legs"],"bee_group":{"antennae":"X","wings":"X","pattern":"D","legs":"M"},"bonus":1.0000000000000009},{"rt":440.5,"stimulus":"bees-with-color/bee-B2SF.svg","response":0,"trial_type":"image-button-response","trial_index":61,"time_elapsed":891402,"internal_node_id":"0.0-4.0-0.27","subject_id":"60a45d758006be79e8b07ed9","study_id":"60edd13110225f80f9f3709b","session_id":"6196c7034c669fc19099ddac","condition":"contingent","relevant_dimensions":["pattern","legs"],"bee_group":{"antennae":"X","wings":"X","pattern":"D","legs":"M"},"action":"harvest","summary":"good-harvest","bonus":1.0000000000000009},{"rt":394.5999999977648,"stimulus":"\n                    <p><b>Action: <em>harvest</em></b></p>\n                    <p>This is the bee that you just saw.</p>\n                    <img src=\"bees-with-color/bee-B2SF.svg\" width=\"200\">\n                    <p><span class=\"greenText\"><b>Successful harvest!</b></span><br>Your pay has increased by $0.02. Your bonus pay is now $0.52.</p>\n            ","response":0,"trial_type":"html-button-response","trial_index":62,"time_elapsed":891798,"internal_node_id":"0.0-4.0-1.27","subject_id":"60a45d758006be79e8b07ed9","study_id":"60edd13110225f80f9f3709b","session_id":"6196c7034c669fc19099ddac","condition":"contingent","relevant_dimensions":["pattern","legs"],"bee_group":{"antennae":"X","wings":"X","pattern":"D","legs":"M"},"bonus":1.0000000000000009},{"rt":730.2000000029802,"stimulus":"bees-with-color/bee-B2DM.svg","response":1,"trial_type":"image-button-response","trial_index":63,"time_elapsed":892529,"internal_node_id":"0.0-4.0-0.28","subject_id":"60a45d758006be79e8b07ed9","study_id":"60edd13110225f80f9f3709b","session_id":"6196c7034c669fc19099ddac","condition":"contingent","relevant_dimensions":["pattern","legs"],"bee_group":{"antennae":"X","wings":"X","pattern":"D","legs":"M"},"action":"avoid","summary":"good-avoid","bonus":1.0000000000000009},{"rt":304.80000000074506,"stimulus":"\n                    <p><b>Action: <em>avoid</em></b></p>\n                    <p>This is the bee that you just saw.</p>\n                    <img src=\"bees-with-color/bee-B2DM.svg\" width=\"200\">\n                    <p><br>Your bonus pay is unchanged, and remains at $0.52.</p>\n            ","response":0,"trial_type":"html-button-response","trial_index":64,"time_elapsed":892835,"internal_node_id":"0.0-4.0-1.28","subject_id":"60a45d758006be79e8b07ed9","study_id":"60edd13110225f80f9f3709b","session_id":"6196c7034c669fc19099ddac","condition":"contingent","relevant_dimensions":["pattern","legs"],"bee_group":{"antennae":"X","wings":"X","pattern":"D","legs":"M"},"bonus":1.0000000000000009},{"rt":865.4000000022352,"stimulus":"bees-with-color/bee-B1DF.svg","response":1,"trial_type":"image-button-response","trial_index":65,"time_elapsed":893701,"internal_node_id":"0.0-4.0-0.29","subject_id":"60a45d758006be79e8b07ed9","study_id":"60edd13110225f80f9f3709b","session_id":"6196c7034c669fc19099ddac","condition":"contingent","relevant_dimensions":["pattern","legs"],"bee_group":{"antennae":"X","wings":"X","pattern":"D","legs":"M"},"action":"avoid","summary":"bad-avoid","bonus":1.0000000000000009},{"rt":449.3999999985099,"stimulus":"\n                    <p><b>Action: <em>avoid</em></b></p>\n                    <p>This is the bee that you just saw.</p>\n                    <img src=\"bees-with-color/bee-B1DF.svg\" width=\"200\">\n                    <p><br>Your bonus pay is unchanged, and remains at $0.52.</p>\n            ","response":0,"trial_type":"html-button-response","trial_index":66,"time_elapsed":894152,"internal_node_id":"0.0-4.0-1.29","subject_id":"60a45d758006be79e8b07ed9","study_id":"60edd13110225f80f9f3709b","session_id":"6196c7034c669fc19099ddac","condition":"contingent","relevant_dimensions":["pattern","legs"],"bee_group":{"antennae":"X","wings":"X","pattern":"D","legs":"M"},"bonus":1.0000000000000009},{"rt":520.3000000007451,"stimulus":"bees-with-color/bee-B2SM.svg","response":0,"trial_type":"image-button-response","trial_index":67,"time_elapsed":894673,"internal_node_id":"0.0-4.0-0.30","subject_id":"60a45d758006be79e8b07ed9","study_id":"60edd13110225f80f9f3709b","session_id":"6196c7034c669fc19099ddac","condition":"contingent","relevant_dimensions":["pattern","legs"],"bee_group":{"antennae":"X","wings":"X","pattern":"D","legs":"M"},"action":"harvest","summary":"good-harvest","bonus":1.0000000000000009},{"rt":389.8999999985099,"stimulus":"\n                    <p><b>Action: <em>harvest</em></b></p>\n                    <p>This is the bee that you just saw.</p>\n                    <img src=\"bees-with-color/bee-B2SM.svg\" width=\"200\">\n                    <p><span class=\"greenText\"><b>Successful harvest!</b></span><br>Your pay has increased by $0.02. Your bonus pay is now $0.54.</p>\n            ","response":0,"trial_type":"html-button-response","trial_index":68,"time_elapsed":895064,"internal_node_id":"0.0-4.0-1.30","subject_id":"60a45d758006be79e8b07ed9","study_id":"60edd13110225f80f9f3709b","session_id":"6196c7034c669fc19099ddac","condition":"contingent","relevant_dimensions":["pattern","legs"],"bee_group":{"antennae":"X","wings":"X","pattern":"D","legs":"M"},"bonus":1.0000000000000009},{"rt":660.1999999992549,"stimulus":"bees-with-color/bee-A2SM.svg","response":0,"trial_type":"image-button-response","trial_index":69,"time_elapsed":895725,"internal_node_id":"0.0-4.0-0.31","subject_id":"60a45d758006be79e8b07ed9","study_id":"60edd13110225f80f9f3709b","session_id":"6196c7034c669fc19099ddac","condition":"contingent","relevant_dimensions":["pattern","legs"],"bee_group":{"antennae":"X","wings":"X","pattern":"D","legs":"M"},"action":"harvest","summary":"good-harvest","bonus":1.0000000000000009},{"rt":365.1000000014901,"stimulus":"\n                    <p><b>Action: <em>harvest</em></b></p>\n                    <p>This is the bee that you just saw.</p>\n                    <img src=\"bees-with-color/bee-A2SM.svg\" width=\"200\">\n                    <p><span class=\"greenText\"><b>Successful harvest!</b></span><br>Your pay has increased by $0.02. Your bonus pay is now $0.56.</p>\n            ","response":0,"trial_type":"html-button-response","trial_index":70,"time_elapsed":896091,"internal_node_id":"0.0-4.0-1.31","subject_id":"60a45d758006be79e8b07ed9","study_id":"60edd13110225f80f9f3709b","session_id":"6196c7034c669fc19099ddac","condition":"contingent","relevant_dimensions":["pattern","legs"],"bee_group":{"antennae":"X","wings":"X","pattern":"D","legs":"M"},"bonus":1.0000000000000009},{"rt":725.1000000014901,"stimulus":"bees-with-color/bee-B2DM.svg","response":1,"trial_type":"image-button-response","trial_index":71,"time_elapsed":896817,"internal_node_id":"0.0-4.0-0.32","subject_id":"60a45d758006be79e8b07ed9","study_id":"60edd13110225f80f9f3709b","session_id":"6196c7034c669fc19099ddac","condition":"contingent","relevant_dimensions":["pattern","legs"],"bee_group":{"antennae":"X","wings":"X","pattern":"D","legs":"M"},"action":"avoid","summary":"good-avoid","bonus":1.0000000000000009},{"rt":340,"stimulus":"\n                    <p><b>Action: <em>avoid</em></b></p>\n                    <p>This is the bee that you just saw.</p>\n                    <img src=\"bees-with-color/bee-B2DM.svg\" width=\"200\">\n                    <p><br>Your bonus pay is unchanged, and remains at $0.56.</p>\n            ","response":0,"trial_type":"html-button-response","trial_index":72,"time_elapsed":897158,"internal_node_id":"0.0-4.0-1.32","subject_id":"60a45d758006be79e8b07ed9","study_id":"60edd13110225f80f9f3709b","session_id":"6196c7034c669fc19099ddac","condition":"contingent","relevant_dimensions":["pattern","legs"],"bee_group":{"antennae":"X","wings":"X","pattern":"D","legs":"M"},"bonus":1.0000000000000009},{"rt":481.1000000014901,"stimulus":"bees-with-color/bee-A2SM.svg","response":0,"trial_type":"image-button-response","trial_index":73,"time_elapsed":897640,"internal_node_id":"0.0-4.0-0.33","subject_id":"60a45d758006be79e8b07ed9","study_id":"60edd13110225f80f9f3709b","session_id":"6196c7034c669fc19099ddac","condition":"contingent","relevant_dimensions":["pattern","legs"],"bee_group":{"antennae":"X","wings":"X","pattern":"D","legs":"M"},"action":"harvest","summary":"good-harvest","bonus":1.0000000000000009},{"rt":368.6000000014901,"stimulus":"\n                    <p><b>Action: <em>harvest</em></b></p>\n                    <p>This is the bee that you just saw.</p>\n                    <img src=\"bees-with-color/bee-A2SM.svg\" width=\"200\">\n                    <p><span class=\"greenText\"><b>Successful harvest!</b></span><br>Your pay has increased by $0.02. Your bonus pay is now $0.58.</p>\n            ","response":0,"trial_type":"html-button-response","trial_index":74,"time_elapsed":898009,"internal_node_id":"0.0-4.0-1.33","subject_id":"60a45d758006be79e8b07ed9","study_id":"60edd13110225f80f9f3709b","session_id":"6196c7034c669fc19099ddac","condition":"contingent","relevant_dimensions":["pattern","legs"],"bee_group":{"antennae":"X","wings":"X","pattern":"D","legs":"M"},"bonus":1.0000000000000009},{"rt":825.9000000022352,"stimulus":"bees-with-color/bee-B1SM.svg","response":0,"trial_type":"image-button-response","trial_index":75,"time_elapsed":898836,"internal_node_id":"0.0-4.0-0.34","subject_id":"60a45d758006be79e8b07ed9","study_id":"60edd13110225f80f9f3709b","session_id":"6196c7034c669fc19099ddac","condition":"contingent","relevant_dimensions":["pattern","legs"],"bee_group":{"antennae":"X","wings":"X","pattern":"D","legs":"M"},"action":"harvest","summary":"good-harvest","bonus":1.0000000000000009},{"rt":408.80000000074506,"stimulus":"\n                    <p><b>Action: <em>harvest</em></b></p>\n                    <p>This is the bee that you just saw.</p>\n                    <img src=\"bees-with-color/bee-B1SM.svg\" width=\"200\">\n                    <p><span class=\"greenText\"><b>Successful harvest!</b></span><br>Your pay has increased by $0.02. Your bonus pay is now $0.60.</p>\n            ","response":0,"trial_type":"html-button-response","trial_index":76,"time_elapsed":899246,"internal_node_id":"0.0-4.0-1.34","subject_id":"60a45d758006be79e8b07ed9","study_id":"60edd13110225f80f9f3709b","session_id":"6196c7034c669fc19099ddac","condition":"contingent","relevant_dimensions":["pattern","legs"],"bee_group":{"antennae":"X","wings":"X","pattern":"D","legs":"M"},"bonus":1.0000000000000009},{"rt":535.1999999992549,"stimulus":"bees-with-color/bee-A1SF.svg","response":0,"trial_type":"image-button-response","trial_index":77,"time_elapsed":899782,"internal_node_id":"0.0-4.0-0.35","subject_id":"60a45d758006be79e8b07ed9","study_id":"60edd13110225f80f9f3709b","session_id":"6196c7034c669fc19099ddac","condition":"contingent","relevant_dimensions":["pattern","legs"],"bee_group":{"antennae":"X","wings":"X","pattern":"D","legs":"M"},"action":"harvest","summary":"good-harvest","bonus":1.0000000000000009},{"rt":375,"stimulus":"\n                    <p><b>Action: <em>harvest</em></b></p>\n                    <p>This is the bee that you just saw.</p>\n                    <img src=\"bees-with-color/bee-A1SF.svg\" width=\"200\">\n                    <p><span class=\"greenText\"><b>Successful harvest!</b></span><br>Your pay has increased by $0.02. Your bonus pay is now $0.62.</p>\n            ","response":0,"trial_type":"html-button-response","trial_index":78,"time_elapsed":900158,"internal_node_id":"0.0-4.0-1.35","subject_id":"60a45d758006be79e8b07ed9","study_id":"60edd13110225f80f9f3709b","session_id":"6196c7034c669fc19099ddac","condition":"contingent","relevant_dimensions":["pattern","legs"],"bee_group":{"antennae":"X","wings":"X","pattern":"D","legs":"M"},"bonus":1.0000000000000009},{"rt":706.0999999977648,"stimulus":"bees-with-color/bee-A2DF.svg","response":1,"trial_type":"image-button-response","trial_index":79,"time_elapsed":900865,"internal_node_id":"0.0-4.0-0.36","subject_id":"60a45d758006be79e8b07ed9","study_id":"60edd13110225f80f9f3709b","session_id":"6196c7034c669fc19099ddac","condition":"contingent","relevant_dimensions":["pattern","legs"],"bee_group":{"antennae":"X","wings":"X","pattern":"D","legs":"M"},"action":"avoid","summary":"bad-avoid","bonus":1.0000000000000009},{"rt":363.6000000014901,"stimulus":"\n                    <p><b>Action: <em>avoid</em></b></p>\n                    <p>This is the bee that you just saw.</p>\n                    <img src=\"bees-with-color/bee-A2DF.svg\" width=\"200\">\n                    <p><br>Your bonus pay is unchanged, and remains at $0.62.</p>\n            ","response":0,"trial_type":"html-button-response","trial_index":80,"time_elapsed":901230,"internal_node_id":"0.0-4.0-1.36","subject_id":"60a45d758006be79e8b07ed9","study_id":"60edd13110225f80f9f3709b","session_id":"6196c7034c669fc19099ddac","condition":"contingent","relevant_dimensions":["pattern","legs"],"bee_group":{"antennae":"X","wings":"X","pattern":"D","legs":"M"},"bonus":1.0000000000000009},{"rt":550.3999999985099,"stimulus":"bees-with-color/bee-B2SF.svg","response":0,"trial_type":"image-button-response","trial_index":81,"time_elapsed":901781,"internal_node_id":"0.0-4.0-0.37","subject_id":"60a45d758006be79e8b07ed9","study_id":"60edd13110225f80f9f3709b","session_id":"6196c7034c669fc19099ddac","condition":"contingent","relevant_dimensions":["pattern","legs"],"bee_group":{"antennae":"X","wings":"X","pattern":"D","legs":"M"},"action":"harvest","summary":"good-harvest","bonus":1.0000000000000009},{"rt":389.80000000074506,"stimulus":"\n                    <p><b>Action: <em>harvest</em></b></p>\n                    <p>This is the bee that you just saw.</p>\n                    <img src=\"bees-with-color/bee-B2SF.svg\" width=\"200\">\n                    <p><span class=\"greenText\"><b>Successful harvest!</b></span><br>Your pay has increased by $0.02. Your bonus pay is now $0.64.</p>\n            ","response":0,"trial_type":"html-button-response","trial_index":82,"time_elapsed":902172,"internal_node_id":"0.0-4.0-1.37","subject_id":"60a45d758006be79e8b07ed9","study_id":"60edd13110225f80f9f3709b","session_id":"6196c7034c669fc19099ddac","condition":"contingent","relevant_dimensions":["pattern","legs"],"bee_group":{"antennae":"X","wings":"X","pattern":"D","legs":"M"},"bonus":1.0000000000000009},{"rt":7096.39999999851,"stimulus":"bees-with-color/bee-B1DM.svg","response":0,"trial_type":"image-button-response","trial_index":83,"time_elapsed":909269,"internal_node_id":"0.0-4.0-0.38","subject_id":"60a45d758006be79e8b07ed9","study_id":"60edd13110225f80f9f3709b","session_id":"6196c7034c669fc19099ddac","condition":"contingent","relevant_dimensions":["pattern","legs"],"bee_group":{"antennae":"X","wings":"X","pattern":"D","legs":"M"},"action":"harvest","summary":"bad-harvest","bonus":1.0000000000000009},{"rt":529.8999999985099,"stimulus":"\n                    <p><b>Action: <em>harvest</em></b></p>\n                    <p>This is the bee that you just saw.</p>\n                    <img src=\"bees-with-color/bee-B1DM.svg\" width=\"200\">\n                    <p><span class=\"redText\">Bad choice, the bee was angry.</span><br><b>You have been stung!</b><br>Your pay has been decreased by $0.10. Your bonus pay is now $0.54.</p>\n            ","response":0,"trial_type":"html-button-response","trial_index":84,"time_elapsed":909800,"internal_node_id":"0.0-4.0-1.38","subject_id":"60a45d758006be79e8b07ed9","study_id":"60edd13110225f80f9f3709b","session_id":"6196c7034c669fc19099ddac","condition":"contingent","relevant_dimensions":["pattern","legs"],"bee_group":{"antennae":"X","wings":"X","pattern":"D","legs":"M"},"bonus":1.0000000000000009},{"rt":849.8000000007451,"stimulus":"bees-with-color/bee-A1SM.svg","response":1,"trial_type":"image-button-response","trial_index":85,"time_elapsed":910651,"internal_node_id":"0.0-4.0-0.39","subject_id":"60a45d758006be79e8b07ed9","study_id":"60edd13110225f80f9f3709b","session_id":"6196c7034c669fc19099ddac","condition":"contingent","relevant_dimensions":["pattern","legs"],"bee_group":{"antennae":"X","wings":"X","pattern":"D","legs":"M"},"action":"avoid","summary":"bad-avoid","bonus":1.0000000000000009},{"rt":370.1000000014901,"stimulus":"\n                    <p><b>Action: <em>avoid</em></b></p>\n                    <p>This is the bee that you just saw.</p>\n                    <img src=\"bees-with-color/bee-A1SM.svg\" width=\"200\">\n                    <p><br>Your bonus pay is unchanged, and remains at $0.54.</p>\n            ","response":0,"trial_type":"html-button-response","trial_index":86,"time_elapsed":911022,"internal_node_id":"0.0-4.0-1.39","subject_id":"60a45d758006be79e8b07ed9","study_id":"60edd13110225f80f9f3709b","session_id":"6196c7034c669fc19099ddac","condition":"contingent","relevant_dimensions":["pattern","legs"],"bee_group":{"antennae":"X","wings":"X","pattern":"D","legs":"M"},"bonus":1.0000000000000009},{"rt":1331.300000000745,"stimulus":"bees-with-color/bee-B1DF.svg","response":1,"trial_type":"image-button-response","trial_index":87,"time_elapsed":912354,"internal_node_id":"0.0-4.0-0.40","subject_id":"60a45d758006be79e8b07ed9","study_id":"60edd13110225f80f9f3709b","session_id":"6196c7034c669fc19099ddac","condition":"contingent","relevant_dimensions":["pattern","legs"],"bee_group":{"antennae":"X","wings":"X","pattern":"D","legs":"M"},"action":"avoid","summary":"bad-avoid","bonus":1.0000000000000009},{"rt":409.9000000022352,"stimulus":"\n                    <p><b>Action: <em>avoid</em></b></p>\n                    <p>This is the bee that you just saw.</p>\n                    <img src=\"bees-with-color/bee-B1DF.svg\" width=\"200\">\n                    <p><br>Your bonus pay is unchanged, and remains at $0.54.</p>\n            ","response":0,"trial_type":"html-button-response","trial_index":88,"time_elapsed":912765,"internal_node_id":"0.0-4.0-1.40","subject_id":"60a45d758006be79e8b07ed9","study_id":"60edd13110225f80f9f3709b","session_id":"6196c7034c669fc19099ddac","condition":"contingent","relevant_dimensions":["pattern","legs"],"bee_group":{"antennae":"X","wings":"X","pattern":"D","legs":"M"},"bonus":1.0000000000000009},{"rt":715.1999999992549,"stimulus":"bees-with-color/bee-B2DF.svg","response":0,"trial_type":"image-button-response","trial_index":89,"time_elapsed":913481,"internal_node_id":"0.0-4.0-0.41","subject_id":"60a45d758006be79e8b07ed9","study_id":"60edd13110225f80f9f3709b","session_id":"6196c7034c669fc19099ddac","condition":"contingent","relevant_dimensions":["pattern","legs"],"bee_group":{"antennae":"X","wings":"X","pattern":"D","legs":"M"},"action":"harvest","summary":"good-harvest","bonus":1.0000000000000009},{"rt":324.8999999985099,"stimulus":"\n                    <p><b>Action: <em>harvest</em></b></p>\n                    <p>This is the bee that you just saw.</p>\n                    <img src=\"bees-with-color/bee-B2DF.svg\" width=\"200\">\n                    <p><span class=\"greenText\"><b>Successful harvest!</b></span><br>Your pay has increased by $0.02. Your bonus pay is now $0.56.</p>\n            ","response":0,"trial_type":"html-button-response","trial_index":90,"time_elapsed":913807,"internal_node_id":"0.0-4.0-1.41","subject_id":"60a45d758006be79e8b07ed9","study_id":"60edd13110225f80f9f3709b","session_id":"6196c7034c669fc19099ddac","condition":"contingent","relevant_dimensions":["pattern","legs"],"bee_group":{"antennae":"X","wings":"X","pattern":"D","legs":"M"},"bonus":1.0000000000000009},{"rt":1000.3000000007451,"stimulus":"bees-with-color/bee-A2SF.svg","response":0,"trial_type":"image-button-response","trial_index":91,"time_elapsed":914808,"internal_node_id":"0.0-4.0-0.42","subject_id":"60a45d758006be79e8b07ed9","study_id":"60edd13110225f80f9f3709b","session_id":"6196c7034c669fc19099ddac","condition":"contingent","relevant_dimensions":["pattern","legs"],"bee_group":{"antennae":"X","wings":"X","pattern":"D","legs":"M"},"action":"harvest","summary":"good-harvest","bonus":1.0000000000000009},{"rt":379.8999999985099,"stimulus":"\n                    <p><b>Action: <em>harvest</em></b></p>\n                    <p>This is the bee that you just saw.</p>\n                    <img src=\"bees-with-color/bee-A2SF.svg\" width=\"200\">\n                    <p><span class=\"greenText\"><b>Successful harvest!</b></span><br>Your pay has increased by $0.02. Your bonus pay is now $0.58.</p>\n            ","response":0,"trial_type":"html-button-response","trial_index":92,"time_elapsed":915189,"internal_node_id":"0.0-4.0-1.42","subject_id":"60a45d758006be79e8b07ed9","study_id":"60edd13110225f80f9f3709b","session_id":"6196c7034c669fc19099ddac","condition":"contingent","relevant_dimensions":["pattern","legs"],"bee_group":{"antennae":"X","wings":"X","pattern":"D","legs":"M"},"bonus":1.0000000000000009},{"rt":810.3000000007451,"stimulus":"bees-with-color/bee-B1SF.svg","response":0,"trial_type":"image-button-response","trial_index":93,"time_elapsed":916000,"internal_node_id":"0.0-4.0-0.43","subject_id":"60a45d758006be79e8b07ed9","study_id":"60edd13110225f80f9f3709b","session_id":"6196c7034c669fc19099ddac","condition":"contingent","relevant_dimensions":["pattern","legs"],"bee_group":{"antennae":"X","wings":"X","pattern":"D","legs":"M"},"action":"harvest","summary":"good-harvest","bonus":1.0000000000000009},{"rt":339.6000000014901,"stimulus":"\n                    <p><b>Action: <em>harvest</em></b></p>\n                    <p>This is the bee that you just saw.</p>\n                    <img src=\"bees-with-color/bee-B1SF.svg\" width=\"200\">\n                    <p><span class=\"greenText\"><b>Successful harvest!</b></span><br>Your pay has increased by $0.02. Your bonus pay is now $0.60.</p>\n            ","response":0,"trial_type":"html-button-response","trial_index":94,"time_elapsed":916341,"internal_node_id":"0.0-4.0-1.43","subject_id":"60a45d758006be79e8b07ed9","study_id":"60edd13110225f80f9f3709b","session_id":"6196c7034c669fc19099ddac","condition":"contingent","relevant_dimensions":["pattern","legs"],"bee_group":{"antennae":"X","wings":"X","pattern":"D","legs":"M"},"bonus":1.0000000000000009},{"rt":695.6000000014901,"stimulus":"bees-with-color/bee-B2SM.svg","response":0,"trial_type":"image-button-response","trial_index":95,"time_elapsed":917037,"internal_node_id":"0.0-4.0-0.44","subject_id":"60a45d758006be79e8b07ed9","study_id":"60edd13110225f80f9f3709b","session_id":"6196c7034c669fc19099ddac","condition":"contingent","relevant_dimensions":["pattern","legs"],"bee_group":{"antennae":"X","wings":"X","pattern":"D","legs":"M"},"action":"harvest","summary":"good-harvest","bonus":1.0000000000000009},{"rt":419.80000000074506,"stimulus":"\n                    <p><b>Action: <em>harvest</em></b></p>\n                    <p>This is the bee that you just saw.</p>\n                    <img src=\"bees-with-color/bee-B2SM.svg\" width=\"200\">\n                    <p><span class=\"greenText\"><b>Successful harvest!</b></span><br>Your pay has increased by $0.02. Your bonus pay is now $0.62.</p>\n            ","response":0,"trial_type":"html-button-response","trial_index":96,"time_elapsed":917458,"internal_node_id":"0.0-4.0-1.44","subject_id":"60a45d758006be79e8b07ed9","study_id":"60edd13110225f80f9f3709b","session_id":"6196c7034c669fc19099ddac","condition":"contingent","relevant_dimensions":["pattern","legs"],"bee_group":{"antennae":"X","wings":"X","pattern":"D","legs":"M"},"bonus":1.0000000000000009},{"rt":720.1999999992549,"stimulus":"bees-with-color/bee-A2DM.svg","response":0,"trial_type":"image-button-response","trial_index":97,"time_elapsed":918179,"internal_node_id":"0.0-4.0-0.45","subject_id":"60a45d758006be79e8b07ed9","study_id":"60edd13110225f80f9f3709b","session_id":"6196c7034c669fc19099ddac","condition":"contingent","relevant_dimensions":["pattern","legs"],"bee_group":{"antennae":"X","wings":"X","pattern":"D","legs":"M"},"action":"harvest","summary":"bad-harvest","bonus":1.0000000000000009},{"rt":1170.9000000022352,"stimulus":"\n                    <p><b>Action: <em>harvest</em></b></p>\n                    <p>This is the bee that you just saw.</p>\n                    <img src=\"bees-with-color/bee-A2DM.svg\" width=\"200\">\n                    <p><span class=\"redText\">Bad choice, the bee was angry.</span><br><b>You have been stung!</b><br>Your pay has been decreased by $0.10. Your bonus pay is now $0.52.</p>\n            ","response":0,"trial_type":"html-button-response","trial_index":98,"time_elapsed":919351,"internal_node_id":"0.0-4.0-1.45","subject_id":"60a45d758006be79e8b07ed9","study_id":"60edd13110225f80f9f3709b","session_id":"6196c7034c669fc19099ddac","condition":"contingent","relevant_dimensions":["pattern","legs"],"bee_group":{"antennae":"X","wings":"X","pattern":"D","legs":"M"},"bonus":1.0000000000000009},{"rt":1207,"stimulus":"bees-with-color/bee-A1DF.svg","response":1,"trial_type":"image-button-response","trial_index":99,"time_elapsed":920559,"internal_node_id":"0.0-4.0-0.46","subject_id":"60a45d758006be79e8b07ed9","study_id":"60edd13110225f80f9f3709b","session_id":"6196c7034c669fc19099ddac","condition":"contingent","relevant_dimensions":["pattern","legs"],"bee_group":{"antennae":"X","wings":"X","pattern":"D","legs":"M"},"action":"avoid","summary":"bad-avoid","bonus":1.0000000000000009},{"rt":343.6000000014901,"stimulus":"\n                    <p><b>Action: <em>avoid</em></b></p>\n                    <p>This is the bee that you just saw.</p>\n                    <img src=\"bees-with-color/bee-A1DF.svg\" width=\"200\">\n                    <p><br>Your bonus pay is unchanged, and remains at $0.52.</p>\n            ","response":0,"trial_type":"html-button-response","trial_index":100,"time_elapsed":920904,"internal_node_id":"0.0-4.0-1.46","subject_id":"60a45d758006be79e8b07ed9","study_id":"60edd13110225f80f9f3709b","session_id":"6196c7034c669fc19099ddac","condition":"contingent","relevant_dimensions":["pattern","legs"],"bee_group":{"antennae":"X","wings":"X","pattern":"D","legs":"M"},"bonus":1.0000000000000009},{"rt":815.1999999992549,"stimulus":"bees-with-color/bee-A1DM.svg","response":1,"trial_type":"image-button-response","trial_index":101,"time_elapsed":921720,"internal_node_id":"0.0-4.0-0.47","subject_id":"60a45d758006be79e8b07ed9","study_id":"60edd13110225f80f9f3709b","session_id":"6196c7034c669fc19099ddac","condition":"contingent","relevant_dimensions":["pattern","legs"],"bee_group":{"antennae":"X","wings":"X","pattern":"D","legs":"M"},"action":"avoid","summary":"good-avoid","bonus":1.0000000000000009},{"rt":609.9000000022352,"stimulus":"\n                    <p><b>Action: <em>avoid</em></b></p>\n                    <p>This is the bee that you just saw.</p>\n                    <img src=\"bees-with-color/bee-A1DM.svg\" width=\"200\">\n                    <p><br>Your bonus pay is unchanged, and remains at $0.52.</p>\n            ","response":0,"trial_type":"html-button-response","trial_index":102,"time_elapsed":922331,"internal_node_id":"0.0-4.0-1.47","subject_id":"60a45d758006be79e8b07ed9","study_id":"60edd13110225f80f9f3709b","session_id":"6196c7034c669fc19099ddac","condition":"contingent","relevant_dimensions":["pattern","legs"],"bee_group":{"antennae":"X","wings":"X","pattern":"D","legs":"M"},"bonus":1.0000000000000009},{"rt":740.0999999977648,"stimulus":"bees-with-color/bee-B2SF.svg","response":0,"trial_type":"image-button-response","trial_index":103,"time_elapsed":923072,"internal_node_id":"0.0-4.0-0.48","subject_id":"60a45d758006be79e8b07ed9","study_id":"60edd13110225f80f9f3709b","session_id":"6196c7034c669fc19099ddac","condition":"contingent","relevant_dimensions":["pattern","legs"],"bee_group":{"antennae":"X","wings":"X","pattern":"D","legs":"M"},"action":"harvest","summary":"good-harvest","bonus":1.0000000000000009},{"rt":495,"stimulus":"\n                    <p><b>Action: <em>harvest</em></b></p>\n                    <p>This is the bee that you just saw.</p>\n                    <img src=\"bees-with-color/bee-B2SF.svg\" width=\"200\">\n                    <p><span class=\"greenText\"><b>Successful harvest!</b></span><br>Your pay has increased by $0.02. Your bonus pay is now $0.54.</p>\n            ","response":0,"trial_type":"html-button-response","trial_index":104,"time_elapsed":923568,"internal_node_id":"0.0-4.0-1.48","subject_id":"60a45d758006be79e8b07ed9","study_id":"60edd13110225f80f9f3709b","session_id":"6196c7034c669fc19099ddac","condition":"contingent","relevant_dimensions":["pattern","legs"],"bee_group":{"antennae":"X","wings":"X","pattern":"D","legs":"M"},"bonus":1.0000000000000009},{"rt":696.3000000007451,"stimulus":"bees-with-color/bee-B1SF.svg","response":0,"trial_type":"image-button-response","trial_index":105,"time_elapsed":924265,"internal_node_id":"0.0-4.0-0.49","subject_id":"60a45d758006be79e8b07ed9","study_id":"60edd13110225f80f9f3709b","session_id":"6196c7034c669fc19099ddac","condition":"contingent","relevant_dimensions":["pattern","legs"],"bee_group":{"antennae":"X","wings":"X","pattern":"D","legs":"M"},"action":"harvest","summary":"good-harvest","bonus":1.0000000000000009},{"rt":384,"stimulus":"\n                    <p><b>Action: <em>harvest</em></b></p>\n                    <p>This is the bee that you just saw.</p>\n                    <img src=\"bees-with-color/bee-B1SF.svg\" width=\"200\">\n                    <p><span class=\"greenText\"><b>Successful harvest!</b></span><br>Your pay has increased by $0.02. Your bonus pay is now $0.56.</p>\n            ","response":0,"trial_type":"html-button-response","trial_index":106,"time_elapsed":924650,"internal_node_id":"0.0-4.0-1.49","subject_id":"60a45d758006be79e8b07ed9","study_id":"60edd13110225f80f9f3709b","session_id":"6196c7034c669fc19099ddac","condition":"contingent","relevant_dimensions":["pattern","legs"],"bee_group":{"antennae":"X","wings":"X","pattern":"D","legs":"M"},"bonus":1.0000000000000009},{"rt":630.3000000007451,"stimulus":"bees-with-color/bee-A1DM.svg","response":1,"trial_type":"image-button-response","trial_index":107,"time_elapsed":925281,"internal_node_id":"0.0-4.0-0.50","subject_id":"60a45d758006be79e8b07ed9","study_id":"60edd13110225f80f9f3709b","session_id":"6196c7034c669fc19099ddac","condition":"contingent","relevant_dimensions":["pattern","legs"],"bee_group":{"antennae":"X","wings":"X","pattern":"D","legs":"M"},"action":"avoid","summary":"good-avoid","bonus":1.0000000000000009},{"rt":360,"stimulus":"\n                    <p><b>Action: <em>avoid</em></b></p>\n                    <p>This is the bee that you just saw.</p>\n                    <img src=\"bees-with-color/bee-A1DM.svg\" width=\"200\">\n                    <p><br>Your bonus pay is unchanged, and remains at $0.56.</p>\n            ","response":0,"trial_type":"html-button-response","trial_index":108,"time_elapsed":925642,"internal_node_id":"0.0-4.0-1.50","subject_id":"60a45d758006be79e8b07ed9","study_id":"60edd13110225f80f9f3709b","session_id":"6196c7034c669fc19099ddac","condition":"contingent","relevant_dimensions":["pattern","legs"],"bee_group":{"antennae":"X","wings":"X","pattern":"D","legs":"M"},"bonus":1.0000000000000009},{"rt":500.30000000074506,"stimulus":"bees-with-color/bee-B2SM.svg","response":0,"trial_type":"image-button-response","trial_index":109,"time_elapsed":926143,"internal_node_id":"0.0-4.0-0.51","subject_id":"60a45d758006be79e8b07ed9","study_id":"60edd13110225f80f9f3709b","session_id":"6196c7034c669fc19099ddac","condition":"contingent","relevant_dimensions":["pattern","legs"],"bee_group":{"antennae":"X","wings":"X","pattern":"D","legs":"M"},"action":"harvest","summary":"good-harvest","bonus":1.0000000000000009},{"rt":379.3999999985099,"stimulus":"\n                    <p><b>Action: <em>harvest</em></b></p>\n                    <p>This is the bee that you just saw.</p>\n                    <img src=\"bees-with-color/bee-B2SM.svg\" width=\"200\">\n                    <p><span class=\"greenText\"><b>Successful harvest!</b></span><br>Your pay has increased by $0.02. Your bonus pay is now $0.58.</p>\n            ","response":0,"trial_type":"html-button-response","trial_index":110,"time_elapsed":926523,"internal_node_id":"0.0-4.0-1.51","subject_id":"60a45d758006be79e8b07ed9","study_id":"60edd13110225f80f9f3709b","session_id":"6196c7034c669fc19099ddac","condition":"contingent","relevant_dimensions":["pattern","legs"],"bee_group":{"antennae":"X","wings":"X","pattern":"D","legs":"M"},"bonus":1.0000000000000009},{"rt":735.5,"stimulus":"bees-with-color/bee-A1SF.svg","response":0,"trial_type":"image-button-response","trial_index":111,"time_elapsed":927260,"internal_node_id":"0.0-4.0-0.52","subject_id":"60a45d758006be79e8b07ed9","study_id":"60edd13110225f80f9f3709b","session_id":"6196c7034c669fc19099ddac","condition":"contingent","relevant_dimensions":["pattern","legs"],"bee_group":{"antennae":"X","wings":"X","pattern":"D","legs":"M"},"action":"harvest","summary":"good-harvest","bonus":1.0000000000000009},{"rt":349,"stimulus":"\n                    <p><b>Action: <em>harvest</em></b></p>\n                    <p>This is the bee that you just saw.</p>\n                    <img src=\"bees-with-color/bee-A1SF.svg\" width=\"200\">\n                    <p><span class=\"greenText\"><b>Successful harvest!</b></span><br>Your pay has increased by $0.02. Your bonus pay is now $0.60.</p>\n            ","response":0,"trial_type":"html-button-response","trial_index":112,"time_elapsed":927610,"internal_node_id":"0.0-4.0-1.52","subject_id":"60a45d758006be79e8b07ed9","study_id":"60edd13110225f80f9f3709b","session_id":"6196c7034c669fc19099ddac","condition":"contingent","relevant_dimensions":["pattern","legs"],"bee_group":{"antennae":"X","wings":"X","pattern":"D","legs":"M"},"bonus":1.0000000000000009},{"rt":660,"stimulus":"bees-with-color/bee-B2DF.svg","response":1,"trial_type":"image-button-response","trial_index":113,"time_elapsed":928271,"internal_node_id":"0.0-4.0-0.53","subject_id":"60a45d758006be79e8b07ed9","study_id":"60edd13110225f80f9f3709b","session_id":"6196c7034c669fc19099ddac","condition":"contingent","relevant_dimensions":["pattern","legs"],"bee_group":{"antennae":"X","wings":"X","pattern":"D","legs":"M"},"action":"avoid","summary":"bad-avoid","bonus":1.0000000000000009},{"rt":339.69999999925494,"stimulus":"\n                    <p><b>Action: <em>avoid</em></b></p>\n                    <p>This is the bee that you just saw.</p>\n                    <img src=\"bees-with-color/bee-B2DF.svg\" width=\"200\">\n                    <p><br>Your bonus pay is unchanged, and remains at $0.60.</p>\n            ","response":0,"trial_type":"html-button-response","trial_index":114,"time_elapsed":928611,"internal_node_id":"0.0-4.0-1.53","subject_id":"60a45d758006be79e8b07ed9","study_id":"60edd13110225f80f9f3709b","session_id":"6196c7034c669fc19099ddac","condition":"contingent","relevant_dimensions":["pattern","legs"],"bee_group":{"antennae":"X","wings":"X","pattern":"D","legs":"M"},"bonus":1.0000000000000009},{"rt":790.3999999985099,"stimulus":"bees-with-color/bee-A2DM.svg","response":1,"trial_type":"image-button-response","trial_index":115,"time_elapsed":929403,"internal_node_id":"0.0-4.0-0.54","subject_id":"60a45d758006be79e8b07ed9","study_id":"60edd13110225f80f9f3709b","session_id":"6196c7034c669fc19099ddac","condition":"contingent","relevant_dimensions":["pattern","legs"],"bee_group":{"antennae":"X","wings":"X","pattern":"D","legs":"M"},"action":"avoid","summary":"good-avoid","bonus":1.0000000000000009},{"rt":369.69999999925494,"stimulus":"\n                    <p><b>Action: <em>avoid</em></b></p>\n                    <p>This is the bee that you just saw.</p>\n                    <img src=\"bees-with-color/bee-A2DM.svg\" width=\"200\">\n                    <p><br>Your bonus pay is unchanged, and remains at $0.60.</p>\n            ","response":0,"trial_type":"html-button-response","trial_index":116,"time_elapsed":929774,"internal_node_id":"0.0-4.0-1.54","subject_id":"60a45d758006be79e8b07ed9","study_id":"60edd13110225f80f9f3709b","session_id":"6196c7034c669fc19099ddac","condition":"contingent","relevant_dimensions":["pattern","legs"],"bee_group":{"antennae":"X","wings":"X","pattern":"D","legs":"M"},"bonus":1.0000000000000009},{"rt":485.19999999925494,"stimulus":"bees-with-color/bee-A2SF.svg","response":0,"trial_type":"image-button-response","trial_index":117,"time_elapsed":930260,"internal_node_id":"0.0-4.0-0.55","subject_id":"60a45d758006be79e8b07ed9","study_id":"60edd13110225f80f9f3709b","session_id":"6196c7034c669fc19099ddac","condition":"contingent","relevant_dimensions":["pattern","legs"],"bee_group":{"antennae":"X","wings":"X","pattern":"D","legs":"M"},"action":"harvest","summary":"good-harvest","bonus":1.0000000000000009},{"rt":373.80000000074506,"stimulus":"\n                    <p><b>Action: <em>harvest</em></b></p>\n                    <p>This is the bee that you just saw.</p>\n                    <img src=\"bees-with-color/bee-A2SF.svg\" width=\"200\">\n                    <p><span class=\"greenText\"><b>Successful harvest!</b></span><br>Your pay has increased by $0.02. Your bonus pay is now $0.62.</p>\n            ","response":0,"trial_type":"html-button-response","trial_index":118,"time_elapsed":930635,"internal_node_id":"0.0-4.0-1.55","subject_id":"60a45d758006be79e8b07ed9","study_id":"60edd13110225f80f9f3709b","session_id":"6196c7034c669fc19099ddac","condition":"contingent","relevant_dimensions":["pattern","legs"],"bee_group":{"antennae":"X","wings":"X","pattern":"D","legs":"M"},"bonus":1.0000000000000009},{"rt":901.1999999992549,"stimulus":"bees-with-color/bee-B1DF.svg","response":1,"trial_type":"image-button-response","trial_index":119,"time_elapsed":931537,"internal_node_id":"0.0-4.0-0.56","subject_id":"60a45d758006be79e8b07ed9","study_id":"60edd13110225f80f9f3709b","session_id":"6196c7034c669fc19099ddac","condition":"contingent","relevant_dimensions":["pattern","legs"],"bee_group":{"antennae":"X","wings":"X","pattern":"D","legs":"M"},"action":"avoid","summary":"bad-avoid","bonus":1.0000000000000009},{"rt":323.70000000298023,"stimulus":"\n                    <p><b>Action: <em>avoid</em></b></p>\n                    <p>This is the bee that you just saw.</p>\n                    <img src=\"bees-with-color/bee-B1DF.svg\" width=\"200\">\n                    <p><br>Your bonus pay is unchanged, and remains at $0.62.</p>\n            ","response":0,"trial_type":"html-button-response","trial_index":120,"time_elapsed":931862,"internal_node_id":"0.0-4.0-1.56","subject_id":"60a45d758006be79e8b07ed9","study_id":"60edd13110225f80f9f3709b","session_id":"6196c7034c669fc19099ddac","condition":"contingent","relevant_dimensions":["pattern","legs"],"bee_group":{"antennae":"X","wings":"X","pattern":"D","legs":"M"},"bonus":1.0000000000000009},{"rt":791.3999999985099,"stimulus":"bees-with-color/bee-B1DM.svg","response":1,"trial_type":"image-button-response","trial_index":121,"time_elapsed":932654,"internal_node_id":"0.0-4.0-0.57","subject_id":"60a45d758006be79e8b07ed9","study_id":"60edd13110225f80f9f3709b","session_id":"6196c7034c669fc19099ddac","condition":"contingent","relevant_dimensions":["pattern","legs"],"bee_group":{"antennae":"X","wings":"X","pattern":"D","legs":"M"},"action":"avoid","summary":"good-avoid","bonus":1.0000000000000009},{"rt":354.1000000014901,"stimulus":"\n                    <p><b>Action: <em>avoid</em></b></p>\n                    <p>This is the bee that you just saw.</p>\n                    <img src=\"bees-with-color/bee-B1DM.svg\" width=\"200\">\n                    <p><br>Your bonus pay is unchanged, and remains at $0.62.</p>\n            ","response":0,"trial_type":"html-button-response","trial_index":122,"time_elapsed":933009,"internal_node_id":"0.0-4.0-1.57","subject_id":"60a45d758006be79e8b07ed9","study_id":"60edd13110225f80f9f3709b","session_id":"6196c7034c669fc19099ddac","condition":"contingent","relevant_dimensions":["pattern","legs"],"bee_group":{"antennae":"X","wings":"X","pattern":"D","legs":"M"},"bonus":1.0000000000000009},{"rt":455.30000000074506,"stimulus":"bees-with-color/bee-B1SM.svg","response":0,"trial_type":"image-button-response","trial_index":123,"time_elapsed":933465,"internal_node_id":"0.0-4.0-0.58","subject_id":"60a45d758006be79e8b07ed9","study_id":"60edd13110225f80f9f3709b","session_id":"6196c7034c669fc19099ddac","condition":"contingent","relevant_dimensions":["pattern","legs"],"bee_group":{"antennae":"X","wings":"X","pattern":"D","legs":"M"},"action":"harvest","summary":"good-harvest","bonus":1.0000000000000009},{"rt":544.8000000007451,"stimulus":"\n                    <p><b>Action: <em>harvest</em></b></p>\n                    <p>This is the bee that you just saw.</p>\n                    <img src=\"bees-with-color/bee-B1SM.svg\" width=\"200\">\n                    <p><span class=\"greenText\"><b>Successful harvest!</b></span><br>Your pay has increased by $0.02. Your bonus pay is now $0.64.</p>\n            ","response":0,"trial_type":"html-button-response","trial_index":124,"time_elapsed":934011,"internal_node_id":"0.0-4.0-1.58","subject_id":"60a45d758006be79e8b07ed9","study_id":"60edd13110225f80f9f3709b","session_id":"6196c7034c669fc19099ddac","condition":"contingent","relevant_dimensions":["pattern","legs"],"bee_group":{"antennae":"X","wings":"X","pattern":"D","legs":"M"},"bonus":1.0000000000000009},{"rt":720.2000000029802,"stimulus":"bees-with-color/bee-A2SM.svg","response":0,"trial_type":"image-button-response","trial_index":125,"time_elapsed":934732,"internal_node_id":"0.0-4.0-0.59","subject_id":"60a45d758006be79e8b07ed9","study_id":"60edd13110225f80f9f3709b","session_id":"6196c7034c669fc19099ddac","condition":"contingent","relevant_dimensions":["pattern","legs"],"bee_group":{"antennae":"X","wings":"X","pattern":"D","legs":"M"},"action":"harvest","summary":"good-harvest","bonus":1.0000000000000009},{"rt":350,"stimulus":"\n                    <p><b>Action: <em>harvest</em></b></p>\n                    <p>This is the bee that you just saw.</p>\n                    <img src=\"bees-with-color/bee-A2SM.svg\" width=\"200\">\n                    <p><span class=\"greenText\"><b>Successful harvest!</b></span><br>Your pay has increased by $0.02. Your bonus pay is now $0.66.</p>\n            ","response":0,"trial_type":"html-button-response","trial_index":126,"time_elapsed":935083,"internal_node_id":"0.0-4.0-1.59","subject_id":"60a45d758006be79e8b07ed9","study_id":"60edd13110225f80f9f3709b","session_id":"6196c7034c669fc19099ddac","condition":"contingent","relevant_dimensions":["pattern","legs"],"bee_group":{"antennae":"X","wings":"X","pattern":"D","legs":"M"},"bonus":1.0000000000000009},{"rt":585.3000000007451,"stimulus":"bees-with-color/bee-A2DF.svg","response":1,"trial_type":"image-button-response","trial_index":127,"time_elapsed":935669,"internal_node_id":"0.0-4.0-0.60","subject_id":"60a45d758006be79e8b07ed9","study_id":"60edd13110225f80f9f3709b","session_id":"6196c7034c669fc19099ddac","condition":"contingent","relevant_dimensions":["pattern","legs"],"bee_group":{"antennae":"X","wings":"X","pattern":"D","legs":"M"},"action":"avoid","summary":"bad-avoid","bonus":1.0000000000000009},{"rt":343.80000000074506,"stimulus":"\n                    <p><b>Action: <em>avoid</em></b></p>\n                    <p>This is the bee that you just saw.</p>\n                    <img src=\"bees-with-color/bee-A2DF.svg\" width=\"200\">\n                    <p><br>Your bonus pay is unchanged, and remains at $0.66.</p>\n            ","response":0,"trial_type":"html-button-response","trial_index":128,"time_elapsed":936014,"internal_node_id":"0.0-4.0-1.60","subject_id":"60a45d758006be79e8b07ed9","study_id":"60edd13110225f80f9f3709b","session_id":"6196c7034c669fc19099ddac","condition":"contingent","relevant_dimensions":["pattern","legs"],"bee_group":{"antennae":"X","wings":"X","pattern":"D","legs":"M"},"bonus":1.0000000000000009},{"rt":700,"stimulus":"bees-with-color/bee-A1DF.svg","response":1,"trial_type":"image-button-response","trial_index":129,"time_elapsed":936715,"internal_node_id":"0.0-4.0-0.61","subject_id":"60a45d758006be79e8b07ed9","study_id":"60edd13110225f80f9f3709b","session_id":"6196c7034c669fc19099ddac","condition":"contingent","relevant_dimensions":["pattern","legs"],"bee_group":{"antennae":"X","wings":"X","pattern":"D","legs":"M"},"action":"avoid","summary":"bad-avoid","bonus":1.0000000000000009},{"rt":350,"stimulus":"\n                    <p><b>Action: <em>avoid</em></b></p>\n                    <p>This is the bee that you just saw.</p>\n                    <img src=\"bees-with-color/bee-A1DF.svg\" width=\"200\">\n                    <p><br>Your bonus pay is unchanged, and remains at $0.66.</p>\n            ","response":0,"trial_type":"html-button-response","trial_index":130,"time_elapsed":937066,"internal_node_id":"0.0-4.0-1.61","subject_id":"60a45d758006be79e8b07ed9","study_id":"60edd13110225f80f9f3709b","session_id":"6196c7034c669fc19099ddac","condition":"contingent","relevant_dimensions":["pattern","legs"],"bee_group":{"antennae":"X","wings":"X","pattern":"D","legs":"M"},"bonus":1.0000000000000009},{"rt":500.19999999925494,"stimulus":"bees-with-color/bee-A1SM.svg","response":0,"trial_type":"image-button-response","trial_index":131,"time_elapsed":937567,"internal_node_id":"0.0-4.0-0.62","subject_id":"60a45d758006be79e8b07ed9","study_id":"60edd13110225f80f9f3709b","session_id":"6196c7034c669fc19099ddac","condition":"contingent","relevant_dimensions":["pattern","legs"],"bee_group":{"antennae":"X","wings":"X","pattern":"D","legs":"M"},"action":"harvest","summary":"good-harvest","bonus":1.0000000000000009},{"rt":343.9000000022352,"stimulus":"\n                    <p><b>Action: <em>harvest</em></b></p>\n                    <p>This is the bee that you just saw.</p>\n                    <img src=\"bees-with-color/bee-A1SM.svg\" width=\"200\">\n                    <p><span class=\"greenText\"><b>Successful harvest!</b></span><br>Your pay has increased by $0.02. Your bonus pay is now $0.68.</p>\n            ","response":0,"trial_type":"html-button-response","trial_index":132,"time_elapsed":937912,"internal_node_id":"0.0-4.0-1.62","subject_id":"60a45d758006be79e8b07ed9","study_id":"60edd13110225f80f9f3709b","session_id":"6196c7034c669fc19099ddac","condition":"contingent","relevant_dimensions":["pattern","legs"],"bee_group":{"antennae":"X","wings":"X","pattern":"D","legs":"M"},"bonus":1.0000000000000009},{"rt":651.3000000007451,"stimulus":"bees-with-color/bee-B2DM.svg","response":1,"trial_type":"image-button-response","trial_index":133,"time_elapsed":938564,"internal_node_id":"0.0-4.0-0.63","subject_id":"60a45d758006be79e8b07ed9","study_id":"60edd13110225f80f9f3709b","session_id":"6196c7034c669fc19099ddac","condition":"contingent","relevant_dimensions":["pattern","legs"],"bee_group":{"antennae":"X","wings":"X","pattern":"D","legs":"M"},"action":"avoid","summary":"good-avoid","bonus":1.0000000000000009},{"rt":328.6000000014901,"stimulus":"\n                    <p><b>Action: <em>avoid</em></b></p>\n                    <p>This is the bee that you just saw.</p>\n                    <img src=\"bees-with-color/bee-B2DM.svg\" width=\"200\">\n                    <p><br>Your bonus pay is unchanged, and remains at $0.68.</p>\n            ","response":0,"trial_type":"html-button-response","trial_index":134,"time_elapsed":938894,"internal_node_id":"0.0-4.0-1.63","subject_id":"60a45d758006be79e8b07ed9","study_id":"60edd13110225f80f9f3709b","session_id":"6196c7034c669fc19099ddac","condition":"contingent","relevant_dimensions":["pattern","legs"],"bee_group":{"antennae":"X","wings":"X","pattern":"D","legs":"M"},"bonus":1.0000000000000009},{"rt":7620.699999999255,"stimulus":"You have completed the first part of this experiment.<br><br>You will now begin a shorter second part, in which you will receive no feedback.<br>The same rules regarding bonus pay apply.<br><br>Press any key to begin.","response":"enter","trial_type":"html-keyboard-response","trial_index":135,"time_elapsed":946515,"internal_node_id":"0.0-5.0","subject_id":"60a45d758006be79e8b07ed9","study_id":"60edd13110225f80f9f3709b","session_id":"6196c7034c669fc19099ddac","condition":"contingent","relevant_dimensions":["pattern","legs"],"bee_group":{"antennae":"X","wings":"X","pattern":"D","legs":"M"},"bonus":1.0000000000000009},{"rt":1643.300000000745,"stimulus":"bees-with-color/bee-B1SF.svg","response":0,"trial_type":"image-button-response","trial_index":136,"time_elapsed":948165,"internal_node_id":"0.0-6.0-0.0","subject_id":"60a45d758006be79e8b07ed9","study_id":"60edd13110225f80f9f3709b","session_id":"6196c7034c669fc19099ddac","condition":"contingent","relevant_dimensions":["pattern","legs"],"bee_group":{"antennae":"X","wings":"X","pattern":"D","legs":"M"},"bonus":1.0000000000000009},{"rt":1064.3999999985099,"stimulus":"bees-with-color/bee-A2DF.svg","response":1,"trial_type":"image-button-response","trial_index":137,"time_elapsed":949231,"internal_node_id":"0.0-6.0-0.1","subject_id":"60a45d758006be79e8b07ed9","study_id":"60edd13110225f80f9f3709b","session_id":"6196c7034c669fc19099ddac","condition":"contingent","relevant_dimensions":["pattern","legs"],"bee_group":{"antennae":"X","wings":"X","pattern":"D","legs":"M"},"bonus":1.0000000000000009},{"rt":615.4000000022352,"stimulus":"bees-with-color/bee-A2SM.svg","response":0,"trial_type":"image-button-response","trial_index":138,"time_elapsed":949848,"internal_node_id":"0.0-6.0-0.2","subject_id":"60a45d758006be79e8b07ed9","study_id":"60edd13110225f80f9f3709b","session_id":"6196c7034c669fc19099ddac","condition":"contingent","relevant_dimensions":["pattern","legs"],"bee_group":{"antennae":"X","wings":"X","pattern":"D","legs":"M"},"bonus":1.0000000000000009},{"rt":729.6999999992549,"stimulus":"bees-with-color/bee-A1SF.svg","response":0,"trial_type":"image-button-response","trial_index":139,"time_elapsed":950579,"internal_node_id":"0.0-6.0-0.3","subject_id":"60a45d758006be79e8b07ed9","study_id":"60edd13110225f80f9f3709b","session_id":"6196c7034c669fc19099ddac","condition":"contingent","relevant_dimensions":["pattern","legs"],"bee_group":{"antennae":"X","wings":"X","pattern":"D","legs":"M"},"bonus":1.0000000000000009},{"rt":684.4000000022352,"stimulus":"bees-with-color/bee-A1DM.svg","response":1,"trial_type":"image-button-response","trial_index":140,"time_elapsed":951265,"internal_node_id":"0.0-6.0-0.4","subject_id":"60a45d758006be79e8b07ed9","study_id":"60edd13110225f80f9f3709b","session_id":"6196c7034c669fc19099ddac","condition":"contingent","relevant_dimensions":["pattern","legs"],"bee_group":{"antennae":"X","wings":"X","pattern":"D","legs":"M"},"bonus":1.0000000000000009},{"rt":694.6000000014901,"stimulus":"bees-with-color/bee-B2SF.svg","response":0,"trial_type":"image-button-response","trial_index":141,"time_elapsed":951961,"internal_node_id":"0.0-6.0-0.5","subject_id":"60a45d758006be79e8b07ed9","study_id":"60edd13110225f80f9f3709b","session_id":"6196c7034c669fc19099ddac","condition":"contingent","relevant_dimensions":["pattern","legs"],"bee_group":{"antennae":"X","wings":"X","pattern":"D","legs":"M"},"bonus":1.0000000000000009},{"rt":765.1999999992549,"stimulus":"bees-with-color/bee-B1SM.svg","response":0,"trial_type":"image-button-response","trial_index":142,"time_elapsed":952728,"internal_node_id":"0.0-6.0-0.6","subject_id":"60a45d758006be79e8b07ed9","study_id":"60edd13110225f80f9f3709b","session_id":"6196c7034c669fc19099ddac","condition":"contingent","relevant_dimensions":["pattern","legs"],"bee_group":{"antennae":"X","wings":"X","pattern":"D","legs":"M"},"bonus":1.0000000000000009},{"rt":709.3999999985099,"stimulus":"bees-with-color/bee-B1DM.svg","response":1,"trial_type":"image-button-response","trial_index":143,"time_elapsed":953439,"internal_node_id":"0.0-6.0-0.7","subject_id":"60a45d758006be79e8b07ed9","study_id":"60edd13110225f80f9f3709b","session_id":"6196c7034c669fc19099ddac","condition":"contingent","relevant_dimensions":["pattern","legs"],"bee_group":{"antennae":"X","wings":"X","pattern":"D","legs":"M"},"bonus":1.0000000000000009},{"rt":804.6999999992549,"stimulus":"bees-with-color/bee-A2DM.svg","response":1,"trial_type":"image-button-response","trial_index":144,"time_elapsed":954245,"internal_node_id":"0.0-6.0-0.8","subject_id":"60a45d758006be79e8b07ed9","study_id":"60edd13110225f80f9f3709b","session_id":"6196c7034c669fc19099ddac","condition":"contingent","relevant_dimensions":["pattern","legs"],"bee_group":{"antennae":"X","wings":"X","pattern":"D","legs":"M"},"bonus":1.0000000000000009},{"rt":765.5,"stimulus":"bees-with-color/bee-B2DF.svg","response":1,"trial_type":"image-button-response","trial_index":145,"time_elapsed":955012,"internal_node_id":"0.0-6.0-0.9","subject_id":"60a45d758006be79e8b07ed9","study_id":"60edd13110225f80f9f3709b","session_id":"6196c7034c669fc19099ddac","condition":"contingent","relevant_dimensions":["pattern","legs"],"bee_group":{"antennae":"X","wings":"X","pattern":"D","legs":"M"},"bonus":1.0000000000000009},{"rt":854.3000000007451,"stimulus":"bees-with-color/bee-B2SM.svg","response":0,"trial_type":"image-button-response","trial_index":146,"time_elapsed":955868,"internal_node_id":"0.0-6.0-0.10","subject_id":"60a45d758006be79e8b07ed9","study_id":"60edd13110225f80f9f3709b","session_id":"6196c7034c669fc19099ddac","condition":"contingent","relevant_dimensions":["pattern","legs"],"bee_group":{"antennae":"X","wings":"X","pattern":"D","legs":"M"},"bonus":1.0000000000000009},{"rt":890.5,"stimulus":"bees-with-color/bee-B2DM.svg","response":1,"trial_type":"image-button-response","trial_index":147,"time_elapsed":956760,"internal_node_id":"0.0-6.0-0.11","subject_id":"60a45d758006be79e8b07ed9","study_id":"60edd13110225f80f9f3709b","session_id":"6196c7034c669fc19099ddac","condition":"contingent","relevant_dimensions":["pattern","legs"],"bee_group":{"antennae":"X","wings":"X","pattern":"D","legs":"M"},"bonus":1.0000000000000009},{"rt":829.4000000022352,"stimulus":"bees-with-color/bee-A1SM.svg","response":0,"trial_type":"image-button-response","trial_index":148,"time_elapsed":957591,"internal_node_id":"0.0-6.0-0.12","subject_id":"60a45d758006be79e8b07ed9","study_id":"60edd13110225f80f9f3709b","session_id":"6196c7034c669fc19099ddac","condition":"contingent","relevant_dimensions":["pattern","legs"],"bee_group":{"antennae":"X","wings":"X","pattern":"D","legs":"M"},"bonus":1.0000000000000009},{"rt":730.5,"stimulus":"bees-with-color/bee-A1DF.svg","response":1,"trial_type":"image-button-response","trial_index":149,"time_elapsed":958323,"internal_node_id":"0.0-6.0-0.13","subject_id":"60a45d758006be79e8b07ed9","study_id":"60edd13110225f80f9f3709b","session_id":"6196c7034c669fc19099ddac","condition":"contingent","relevant_dimensions":["pattern","legs"],"bee_group":{"antennae":"X","wings":"X","pattern":"D","legs":"M"},"bonus":1.0000000000000009},{"rt":714.5999999977648,"stimulus":"bees-with-color/bee-A2SF.svg","response":0,"trial_type":"image-button-response","trial_index":150,"time_elapsed":959039,"internal_node_id":"0.0-6.0-0.14","subject_id":"60a45d758006be79e8b07ed9","study_id":"60edd13110225f80f9f3709b","session_id":"6196c7034c669fc19099ddac","condition":"contingent","relevant_dimensions":["pattern","legs"],"bee_group":{"antennae":"X","wings":"X","pattern":"D","legs":"M"},"bonus":1.0000000000000009},{"rt":674.6999999992549,"stimulus":"bees-with-color/bee-B1DF.svg","response":1,"trial_type":"image-button-response","trial_index":151,"time_elapsed":959715,"internal_node_id":"0.0-6.0-0.15","subject_id":"60a45d758006be79e8b07ed9","study_id":"60edd13110225f80f9f3709b","session_id":"6196c7034c669fc19099ddac","condition":"contingent","relevant_dimensions":["pattern","legs"],"bee_group":{"antennae":"X","wings":"X","pattern":"D","legs":"M"},"bonus":1.0000000000000009},{"rt":709.8999999985099,"stimulus":"bees-with-color/bee-A2DF.svg","response":1,"trial_type":"image-button-response","trial_index":152,"time_elapsed":960426,"internal_node_id":"0.0-6.0-0.16","subject_id":"60a45d758006be79e8b07ed9","study_id":"60edd13110225f80f9f3709b","session_id":"6196c7034c669fc19099ddac","condition":"contingent","relevant_dimensions":["pattern","legs"],"bee_group":{"antennae":"X","wings":"X","pattern":"D","legs":"M"},"bonus":1.0000000000000009},{"rt":624.8999999985099,"stimulus":"bees-with-color/bee-A2SF.svg","response":0,"trial_type":"image-button-response","trial_index":153,"time_elapsed":961052,"internal_node_id":"0.0-6.0-0.17","subject_id":"60a45d758006be79e8b07ed9","study_id":"60edd13110225f80f9f3709b","session_id":"6196c7034c669fc19099ddac","condition":"contingent","relevant_dimensions":["pattern","legs"],"bee_group":{"antennae":"X","wings":"X","pattern":"D","legs":"M"},"bonus":1.0000000000000009},{"rt":645.8999999985099,"stimulus":"bees-with-color/bee-A1SF.svg","response":0,"trial_type":"image-button-response","trial_index":154,"time_elapsed":961699,"internal_node_id":"0.0-6.0-0.18","subject_id":"60a45d758006be79e8b07ed9","study_id":"60edd13110225f80f9f3709b","session_id":"6196c7034c669fc19099ddac","condition":"contingent","relevant_dimensions":["pattern","legs"],"bee_group":{"antennae":"X","wings":"X","pattern":"D","legs":"M"},"bonus":1.0000000000000009},{"rt":670,"stimulus":"bees-with-color/bee-B1DM.svg","response":1,"trial_type":"image-button-response","trial_index":155,"time_elapsed":962370,"internal_node_id":"0.0-6.0-0.19","subject_id":"60a45d758006be79e8b07ed9","study_id":"60edd13110225f80f9f3709b","session_id":"6196c7034c669fc19099ddac","condition":"contingent","relevant_dimensions":["pattern","legs"],"bee_group":{"antennae":"X","wings":"X","pattern":"D","legs":"M"},"bonus":1.0000000000000009},{"rt":645.1000000014901,"stimulus":"bees-with-color/bee-A1DM.svg","response":1,"trial_type":"image-button-response","trial_index":156,"time_elapsed":963016,"internal_node_id":"0.0-6.0-0.20","subject_id":"60a45d758006be79e8b07ed9","study_id":"60edd13110225f80f9f3709b","session_id":"6196c7034c669fc19099ddac","condition":"contingent","relevant_dimensions":["pattern","legs"],"bee_group":{"antennae":"X","wings":"X","pattern":"D","legs":"M"},"bonus":1.0000000000000009},{"rt":754.8999999985099,"stimulus":"bees-with-color/bee-B2DF.svg","response":1,"trial_type":"image-button-response","trial_index":157,"time_elapsed":963772,"internal_node_id":"0.0-6.0-0.21","subject_id":"60a45d758006be79e8b07ed9","study_id":"60edd13110225f80f9f3709b","session_id":"6196c7034c669fc19099ddac","condition":"contingent","relevant_dimensions":["pattern","legs"],"bee_group":{"antennae":"X","wings":"X","pattern":"D","legs":"M"},"bonus":1.0000000000000009},{"rt":685.5,"stimulus":"bees-with-color/bee-A1SM.svg","response":0,"trial_type":"image-button-response","trial_index":158,"time_elapsed":964458,"internal_node_id":"0.0-6.0-0.22","subject_id":"60a45d758006be79e8b07ed9","study_id":"60edd13110225f80f9f3709b","session_id":"6196c7034c669fc19099ddac","condition":"contingent","relevant_dimensions":["pattern","legs"],"bee_group":{"antennae":"X","wings":"X","pattern":"D","legs":"M"},"bonus":1.0000000000000009},{"rt":770.5999999977648,"stimulus":"bees-with-color/bee-A1DF.svg","response":1,"trial_type":"image-button-response","trial_index":159,"time_elapsed":965230,"internal_node_id":"0.0-6.0-0.23","subject_id":"60a45d758006be79e8b07ed9","study_id":"60edd13110225f80f9f3709b","session_id":"6196c7034c669fc19099ddac","condition":"contingent","relevant_dimensions":["pattern","legs"],"bee_group":{"antennae":"X","wings":"X","pattern":"D","legs":"M"},"bonus":1.0000000000000009},{"rt":760,"stimulus":"bees-with-color/bee-B1DF.svg","response":1,"trial_type":"image-button-response","trial_index":160,"time_elapsed":965991,"internal_node_id":"0.0-6.0-0.24","subject_id":"60a45d758006be79e8b07ed9","study_id":"60edd13110225f80f9f3709b","session_id":"6196c7034c669fc19099ddac","condition":"contingent","relevant_dimensions":["pattern","legs"],"bee_group":{"antennae":"X","wings":"X","pattern":"D","legs":"M"},"bonus":1.0000000000000009},{"rt":896.1000000014901,"stimulus":"bees-with-color/bee-A2DM.svg","response":1,"trial_type":"image-button-response","trial_index":161,"time_elapsed":966888,"internal_node_id":"0.0-6.0-0.25","subject_id":"60a45d758006be79e8b07ed9","study_id":"60edd13110225f80f9f3709b","session_id":"6196c7034c669fc19099ddac","condition":"contingent","relevant_dimensions":["pattern","legs"],"bee_group":{"antennae":"X","wings":"X","pattern":"D","legs":"M"},"bonus":1.0000000000000009},{"rt":870.8000000007451,"stimulus":"bees-with-color/bee-B2DM.svg","response":1,"trial_type":"image-button-response","trial_index":162,"time_elapsed":967760,"internal_node_id":"0.0-6.0-0.26","subject_id":"60a45d758006be79e8b07ed9","study_id":"60edd13110225f80f9f3709b","session_id":"6196c7034c669fc19099ddac","condition":"contingent","relevant_dimensions":["pattern","legs"],"bee_group":{"antennae":"X","wings":"X","pattern":"D","legs":"M"},"bonus":1.0000000000000009},{"rt":665.1000000014901,"stimulus":"bees-with-color/bee-B2SM.svg","response":0,"trial_type":"image-button-response","trial_index":163,"time_elapsed":968426,"internal_node_id":"0.0-6.0-0.27","subject_id":"60a45d758006be79e8b07ed9","study_id":"60edd13110225f80f9f3709b","session_id":"6196c7034c669fc19099ddac","condition":"contingent","relevant_dimensions":["pattern","legs"],"bee_group":{"antennae":"X","wings":"X","pattern":"D","legs":"M"},"bonus":1.0000000000000009},{"rt":610.1999999992549,"stimulus":"bees-with-color/bee-B1SM.svg","response":0,"trial_type":"image-button-response","trial_index":164,"time_elapsed