[{"success":true,"trial_type":"fullscreen","trial_index":0,"time_elapsed":32508,"internal_node_id":"0.0-0.0","subject_id":"5e7a02573c2d45034af62eb9","study_id":"60edd13110225f80f9f3709b","session_id":"6196c706933e3e5a6c3afef8","condition":"contingent","relevant_dimensions":["antennae","wings"],"bee_group":{"antennae":"A","wings":"1","pattern":"X","legs":"X"},"bonus":0.5800000000000005},{"success":true,"timeout":false,"failed_images":[],"failed_audio":[],"failed_video":[],"trial_type":"preload","trial_index":1,"time_elapsed":34954,"internal_node_id":"0.0-1.0","subject_id":"5e7a02573c2d45034af62eb9","study_id":"60edd13110225f80f9f3709b","session_id":"6196c706933e3e5a6c3afef8","condition":"contingent","relevant_dimensions":["antennae","wings"],"bee_group":{"antennae":"A","wings":"1","pattern":"X","legs":"X"},"bonus":0.5800000000000005},{"rt":1487.699999988079,"stimulus":"Welcome! Press any key to begin.","response":" ","trial_type":"html-keyboard-response","trial_index":2,"time_elapsed":36442,"internal_node_id":"0.0-2.0","subject_id":"5e7a02573c2d45034af62eb9","study_id":"60edd13110225f80f9f3709b","session_id":"6196c706933e3e5a6c3afef8","condition":"contingent","relevant_dimensions":["antennae","wings"],"bee_group":{"antennae":"A","wings":"1","pattern":"X","legs":"X"},"bonus":0.5800000000000005},{"view_history":[{"page_index":0,"viewing_time":7703.9000000059605},{"page_index":1,"viewing_time":19423.79999998212},{"page_index":2,"viewing_time":30435.09999999404},{"page_index":3,"viewing_time":20538.90000000596},{"page_index":4,"viewing_time":11282.200000017881},{"page_index":5,"viewing_time":8162.699999988079},{"page_index":6,"viewing_time":10370.699999988079},{"page_index":7,"viewing_time":4582.5},{"page_index":8,"viewing_time":4131.100000023842},{"page_index":9,"viewing_time":2713.7999999821186},{"page_index":10,"viewing_time":2208.9000000059605},{"page_index":11,"viewing_time":9090.59999999404},{"page_index":12,"viewing_time":30486.40000000596},{"page_index":13,"viewing_time":1737.0999999940395},{"page_index":14,"viewing_time":2217}],"rt":165084.90000000596,"trial_type":"instructions","trial_index":3,"time_elapsed":201529,"internal_node_id":"0.0-3.0-0.0","subject_id":"5e7a02573c2d45034af62eb9","study_id":"60edd13110225f80f9f3709b","session_id":"6196c706933e3e5a6c3afef8","condition":"contingent","relevant_dimensions":["antennae","wings"],"bee_group":{"antennae":"A","wings":"1","pattern":"X","legs":"X"},"bonus":0.5800000000000005},{"rt":21822,"response":{"Q0":["Two or six legs","Stripes or spots on body","Single or double wings","Antennae or no antennae"]},"question_order":[0],"trial_type":"survey-multi-select","trial_index":4,"time_elapsed":223354,"internal_node_id":"0.0-3.0-1.0","subject_id":"5e7a02573c2d45034af62eb9","study_id":"60edd13110225f80f9f3709b","session_id":"6196c706933e3e5a6c3afef8","condition":"contingent","relevant_dimensions":["antennae","wings"],"bee_group":{"antennae":"A","wings":"1","pattern":"X","legs":"X"},"correct":true,"bonus":0.5800000000000005},{"rt":38795.70000001788,"response":{"Q1":"No.","Q2":"Based on the four features of the bee.","Q3":"You do not learn if it was friendly or dangerous, and do not alter your bonus."},"question_order":[0,1,2],"trial_type":"survey-multi-choice","trial_index":5,"time_elapsed":262153,"internal_node_id":"0.0-3.0-2.0","subject_id":"5e7a02573c2d45034af62eb9","study_id":"60edd13110225f80f9f3709b","session_id":"6196c706933e3e5a6c3afef8","condition":"contingent","relevant_dimensions":["antennae","wings"],"bee_group":{"antennae":"A","wings":"1","pattern":"X","legs":"X"},"correct":true,"bonus":0.5800000000000005},{"rt":5293.799999982119,"stimulus":"<p>Congrats, you got everything right<br>When you're ready, click the button below to continue to the experiment.</p>","response":0,"trial_type":"html-button-response","trial_index":6,"time_elapsed":267448,"internal_node_id":"0.0-3.0-3.0","subject_id":"5e7a02573c2d45034af62eb9","study_id":"60edd13110225f80f9f3709b","session_id":"6196c706933e3e5a6c3afef8","condition":"contingent","relevant_dimensions":["antennae","wings"],"bee_group":{"antennae":"A","wings":"1","pattern":"X","legs":"X"},"bonus":0.5800000000000005},{"rt":7048.699999988079,"stimulus":"bees-with-color/bee-B1DF.svg","response":0,"trial_type":"image-button-response","trial_index":7,"time_elapsed":274499,"internal_node_id":"0.0-4.0-0.0","subject_id":"5e7a02573c2d45034af62eb9","study_id":"60edd13110225f80f9f3709b","session_id":"6196c706933e3e5a6c3afef8","condition":"contingent","relevant_dimensions":["antennae","wings"],"bee_group":{"antennae":"A","wings":"1","pattern":"X","legs":"X"},"action":"harvest","summary":"good-harvest","bonus":0.5800000000000005},{"rt":6010.700000017881,"stimulus":"\n                    <p><b>Action: <em>harvest</em></b></p>\n                    <p>This is the bee that you just saw.</p>\n                    <img src=\"bees-with-color/bee-B1DF.svg\" width=\"200\">\n                    <p><span class=\"greenText\"><b>Successful harvest!</b></span><br>Your pay has increased by $0.02. Your bonus pay is now $0.56.</p>\n            ","response":0,"trial_type":"html-button-response","trial_index":8,"time_elapsed":280513,"internal_node_id":"0.0-4.0-1.0","subject_id":"5e7a02573c2d45034af62eb9","study_id":"60edd13110225f80f9f3709b","session_id":"6196c706933e3e5a6c3afef8","condition":"contingent","relevant_dimensions":["antennae","wings"],"bee_group":{"antennae":"A","wings":"1","pattern":"X","legs":"X"},"bonus":0.5800000000000005},{"rt":8850,"stimulus":"bees-with-color/bee-B2SM.svg","response":1,"trial_type":"image-button-response","trial_index":9,"time_elapsed":289365,"internal_node_id":"0.0-4.0-0.1","subject_id":"5e7a02573c2d45034af62eb9","study_id":"60edd13110225f80f9f3709b","session_id":"6196c706933e3e5a6c3afef8","condition":"contingent","relevant_dimensions":["antennae","wings"],"bee_group":{"antennae":"A","wings":"1","pattern":"X","legs":"X"},"action":"avoid","summary":"bad-avoid","bonus":0.5800000000000005},{"rt":5333.700000017881,"stimulus":"\n                    <p><b>Action: <em>avoid</em></b></p>\n                    <p>This is the bee that you just saw.</p>\n                    <img src=\"bees-with-color/bee-B2SM.svg\" width=\"200\">\n                    <p><br>Your bonus pay is unchanged, and remains at $0.56.</p>\n            ","response":0,"trial_type":"html-button-response","trial_index":10,"time_elapsed":294703,"internal_node_id":"0.0-4.0-1.1","subject_id":"5e7a02573c2d45034af62eb9","study_id":"60edd13110225f80f9f3709b","session_id":"6196c706933e3e5a6c3afef8","condition":"contingent","relevant_dimensions":["antennae","wings"],"bee_group":{"antennae":"A","wings":"1","pattern":"X","legs":"X"},"bonus":0.5800000000000005},{"rt":7934.9000000059605,"stimulus":"bees-with-color/bee-B1DM.svg","response":0,"trial_type":"image-button-response","trial_index":11,"time_elapsed":302640,"internal_node_id":"0.0-4.0-0.2","subject_id":"5e7a02573c2d45034af62eb9","study_id":"60edd13110225f80f9f3709b","session_id":"6196c706933e3e5a6c3afef8","condition":"contingent","relevant_dimensions":["antennae","wings"],"bee_group":{"antennae":"A","wings":"1","pattern":"X","legs":"X"},"action":"harvest","summary":"good-harvest","bonus":0.5800000000000005},{"rt":3706.5,"stimulus":"\n                    <p><b>Action: <em>harvest</em></b></p>\n                    <p>This is the bee that you just saw.</p>\n                    <img src=\"bees-with-color/bee-B1DM.svg\" width=\"200\">\n                    <p><span class=\"greenText\"><b>Successful harvest!</b></span><br>Your pay has increased by $0.02. Your bonus pay is now $0.58.</p>\n            ","response":0,"trial_type":"html-button-response","trial_index":12,"time_elapsed":306349,"internal_node_id":"0.0-4.0-1.2","subject_id":"5e7a02573c2d45034af62eb9","study_id":"60edd13110225f80f9f3709b","session_id":"6196c706933e3e5a6c3afef8","condition":"contingent","relevant_dimensions":["antennae","wings"],"bee_group":{"antennae":"A","wings":"1","pattern":"X","legs":"X"},"bonus":0.5800000000000005},{"rt":5434.0999999940395,"stimulus":"bees-with-color/bee-B2DF.svg","response":0,"trial_type":"image-button-response","trial_index":13,"time_elapsed":311785,"internal_node_id":"0.0-4.0-0.3","subject_id":"5e7a02573c2d45034af62eb9","study_id":"60edd13110225f80f9f3709b","session_id":"6196c706933e3e5a6c3afef8","condition":"contingent","relevant_dimensions":["antennae","wings"],"bee_group":{"antennae":"A","wings":"1","pattern":"X","legs":"X"},"action":"harvest","summary":"good-harvest","bonus":0.5800000000000005},{"rt":3284.399999976158,"stimulus":"\n                    <p><b>Action: <em>harvest</em></b></p>\n                    <p>This is the bee that you just saw.</p>\n                    <img src=\"bees-with-color/bee-B2DF.svg\" width=\"200\">\n                    <p><span class=\"greenText\"><b>Successful harvest!</b></span><br>Your pay has increased by $0.02. Your bonus pay is now $0.60.</p>\n            ","response":0,"trial_type":"html-button-response","trial_index":14,"time_elapsed":315070,"internal_node_id":"0.0-4.0-1.3","subject_id":"5e7a02573c2d45034af62eb9","study_id":"60edd13110225f80f9f3709b","session_id":"6196c706933e3e5a6c3afef8","condition":"contingent","relevant_dimensions":["antennae","wings"],"bee_group":{"antennae":"A","wings":"1","pattern":"X","legs":"X"},"bonus":0.5800000000000005},{"rt":4616.399999976158,"stimulus":"bees-with-color/bee-A1DF.svg","response":0,"trial_type":"image-button-response","trial_index":15,"time_elapsed":319688,"internal_node_id":"0.0-4.0-0.4","subject_id":"5e7a02573c2d45034af62eb9","study_id":"60edd13110225f80f9f3709b","session_id":"6196c706933e3e5a6c3afef8","condition":"contingent","relevant_dimensions":["antennae","wings"],"bee_group":{"antennae":"A","wings":"1","pattern":"X","legs":"X"},"action":"harvest","summary":"bad-harvest","bonus":0.5800000000000005},{"rt":73450,"stimulus":"\n                    <p><b>Action: <em>harvest</em></b></p>\n                    <p>This is the bee that you just saw.</p>\n                    <img src=\"bees-with-color/bee-A1DF.svg\" width=\"200\">\n                    <p><span class=\"redText\">Bad choice, the bee was angry.</span><br><b>You have been stung!</b><br>Your pay has been decreased by $0.10. Your bonus pay is now $0.50.</p>\n            ","response":0,"trial_type":"html-button-response","trial_index":16,"time_elapsed":393140,"internal_node_id":"0.0-4.0-1.4","subject_id":"5e7a02573c2d45034af62eb9","study_id":"60edd13110225f80f9f3709b","session_id":"6196c706933e3e5a6c3afef8","condition":"contingent","relevant_dimensions":["antennae","wings"],"bee_group":{"antennae":"A","wings":"1","pattern":"X","legs":"X"},"bonus":0.5800000000000005},{"rt":4402.699999988079,"stimulus":"bees-with-color/bee-A2SF.svg","response":0,"trial_type":"image-button-response","trial_index":17,"time_elapsed":397544,"internal_node_id":"0.0-4.0-0.5","subject_id":"5e7a02573c2d45034af62eb9","study_id":"60edd13110225f80f9f3709b","session_id":"6196c706933e3e5a6c3afef8","condition":"contingent","relevant_dimensions":["antennae","wings"],"bee_group":{"antennae":"A","wings":"1","pattern":"X","legs":"X"},"action":"harvest","summary":"good-harvest","bonus":0.5800000000000005},{"rt":2560.699999988079,"stimulus":"\n                    <p><b>Action: <em>harvest</em></b></p>\n                    <p>This is the bee that you just saw.</p>\n                    <img src=\"bees-with-color/bee-A2SF.svg\" width=\"200\">\n                    <p><span class=\"greenText\"><b>Successful harvest!</b></span><br>Your pay has increased by $0.02. Your bonus pay is now $0.52.</p>\n            ","response":0,"trial_type":"html-button-response","trial_index":18,"time_elapsed":400106,"internal_node_id":"0.0-4.0-1.5","subject_id":"5e7a02573c2d45034af62eb9","study_id":"60edd13110225f80f9f3709b","session_id":"6196c706933e3e5a6c3afef8","condition":"contingent","relevant_dimensions":["antennae","wings"],"bee_group":{"antennae":"A","wings":"1","pattern":"X","legs":"X"},"bonus":0.5800000000000005},{"rt":4104.699999988079,"stimulus":"bees-with-color/bee-B1SM.svg","response":0,"trial_type":"image-button-response","trial_index":19,"time_elapsed":404212,"internal_node_id":"0.0-4.0-0.6","subject_id":"5e7a02573c2d45034af62eb9","study_id":"60edd13110225f80f9f3709b","session_id":"6196c706933e3e5a6c3afef8","condition":"contingent","relevant_dimensions":["antennae","wings"],"bee_group":{"antennae":"A","wings":"1","pattern":"X","legs":"X"},"action":"harvest","summary":"good-harvest","bonus":0.5800000000000005},{"rt":2416.9000000059605,"stimulus":"\n                    <p><b>Action: <em>harvest</em></b></p>\n                    <p>This is the bee that you just saw.</p>\n                    <img src=\"bees-with-color/bee-B1SM.svg\" width=\"200\">\n                    <p><span class=\"greenText\"><b>Successful harvest!</b></span><br>Your pay has increased by $0.02. Your bonus pay is now $0.54.</p>\n            ","response":0,"trial_type":"html-button-response","trial_index":20,"time_elapsed":406631,"internal_node_id":"0.0-4.0-1.6","subject_id":"5e7a02573c2d45034af62eb9","study_id":"60edd13110225f80f9f3709b","session_id":"6196c706933e3e5a6c3afef8","condition":"contingent","relevant_dimensions":["antennae","wings"],"bee_group":{"antennae":"A","wings":"1","pattern":"X","legs":"X"},"bonus":0.5800000000000005},{"rt":4962.5999999940395,"stimulus":"bees-with-color/bee-A1SM.svg","response":0,"trial_type":"image-button-response","trial_index":21,"time_elapsed":411595,"internal_node_id":"0.0-4.0-0.7","subject_id":"5e7a02573c2d45034af62eb9","study_id":"60edd13110225f80f9f3709b","session_id":"6196c706933e3e5a6c3afef8","condition":"contingent","relevant_dimensions":["antennae","wings"],"bee_group":{"antennae":"A","wings":"1","pattern":"X","legs":"X"},"action":"harvest","summary":"bad-harvest","bonus":0.5800000000000005},{"rt":104457.70000001788,"stimulus":"\n                    <p><b>Action: <em>harvest</em></b></p>\n                    <p>This is the bee that you just saw.</p>\n                    <img src=\"bees-with-color/bee-A1SM.svg\" width=\"200\">\n                    <p><span class=\"redText\">Bad choice, the bee was angry.</span><br><b>You have been stung!</b><br>Your pay has been decreased by $0.10. Your bonus pay is now $0.44.</p>\n            ","response":0,"trial_type":"html-button-response","trial_index":22,"time_elapsed":516055,"internal_node_id":"0.0-4.0-1.7","subject_id":"5e7a02573c2d45034af62eb9","study_id":"60edd13110225f80f9f3709b","session_id":"6196c706933e3e5a6c3afef8","condition":"contingent","relevant_dimensions":["antennae","wings"],"bee_group":{"antennae":"A","wings":"1","pattern":"X","legs":"X"},"bonus":0.5800000000000005},{"rt":1821.5999999940395,"stimulus":"bees-with-color/bee-A2DM.svg","response":0,"trial_type":"image-button-response","trial_index":23,"time_elapsed":517879,"internal_node_id":"0.0-4.0-0.8","subject_id":"5e7a02573c2d45034af62eb9","study_id":"60edd13110225f80f9f3709b","session_id":"6196c706933e3e5a6c3afef8","condition":"contingent","relevant_dimensions":["antennae","wings"],"bee_group":{"antennae":"A","wings":"1","pattern":"X","legs":"X"},"action":"harvest","summary":"good-harvest","bonus":0.5800000000000005},{"rt":2001.5999999940395,"stimulus":"\n                    <p><b>Action: <em>harvest</em></b></p>\n                    <p>This is the bee that you just saw.</p>\n                    <img src=\"bees-with-color/bee-A2DM.svg\" width=\"200\">\n                    <p><span class=\"greenText\"><b>Successful harvest!</b></span><br>Your pay has increased by $0.02. Your bonus pay is now $0.46.</p>\n            ","response":0,"trial_type":"html-button-response","trial_index":24,"time_elapsed":519882,"internal_node_id":"0.0-4.0-1.8","subject_id":"5e7a02573c2d45034af62eb9","study_id":"60edd13110225f80f9f3709b","session_id":"6196c706933e3e5a6c3afef8","condition":"contingent","relevant_dimensions":["antennae","wings"],"bee_group":{"antennae":"A","wings":"1","pattern":"X","legs":"X"},"bonus":0.5800000000000005},{"rt":1211.8999999761581,"stimulus":"bees-with-color/bee-B2SF.svg","response":1,"trial_type":"image-button-response","trial_index":25,"time_elapsed":521095,"internal_node_id":"0.0-4.0-0.9","subject_id":"5e7a02573c2d45034af62eb9","study_id":"60edd13110225f80f9f3709b","session_id":"6196c706933e3e5a6c3afef8","condition":"contingent","relevant_dimensions":["antennae","wings"],"bee_group":{"antennae":"A","wings":"1","pattern":"X","legs":"X"},"action":"avoid","summary":"bad-avoid","bonus":0.5800000000000005},{"rt":1219.7999999821186,"stimulus":"\n                    <p><b>Action: <em>avoid</em></b></p>\n                    <p>This is the bee that you just saw.</p>\n                    <img src=\"bees-with-color/bee-B2SF.svg\" width=\"200\">\n                    <p><br>Your bonus pay is unchanged, and remains at $0.46.</p>\n            ","response":0,"trial_type":"html-button-response","trial_index":26,"time_elapsed":522317,"internal_node_id":"0.0-4.0-1.9","subject_id":"5e7a02573c2d45034af62eb9","study_id":"60edd13110225f80f9f3709b","session_id":"6196c706933e3e5a6c3afef8","condition":"contingent","relevant_dimensions":["antennae","wings"],"bee_group":{"antennae":"A","wings":"1","pattern":"X","legs":"X"},"bonus":0.5800000000000005},{"rt":1967.4000000059605,"stimulus":"bees-with-color/bee-B1SF.svg","response":1,"trial_type":"image-button-response","trial_index":27,"time_elapsed":524286,"internal_node_id":"0.0-4.0-0.10","subject_id":"5e7a02573c2d45034af62eb9","study_id":"60edd13110225f80f9f3709b","session_id":"6196c706933e3e5a6c3afef8","condition":"contingent","relevant_dimensions":["antennae","wings"],"bee_group":{"antennae":"A","wings":"1","pattern":"X","legs":"X"},"action":"avoid","summary":"bad-avoid","bonus":0.5800000000000005},{"rt":955.6999999880791,"stimulus":"\n                    <p><b>Action: <em>avoid</em></b></p>\n                    <p>This is the bee that you just saw.</p>\n                    <img src=\"bees-with-color/bee-B1SF.svg\" width=\"200\">\n                    <p><br>Your bonus pay is unchanged, and remains at $0.46.</p>\n            ","response":0,"trial_type":"html-button-response","trial_index":28,"time_elapsed":525243,"internal_node_id":"0.0-4.0-1.10","subject_id":"5e7a02573c2d45034af62eb9","study_id":"60edd13110225f80f9f3709b","session_id":"6196c706933e3e5a6c3afef8","condition":"contingent","relevant_dimensions":["antennae","wings"],"bee_group":{"antennae":"A","wings":"1","pattern":"X","legs":"X"},"bonus":0.5800000000000005},{"rt":697.5999999940395,"stimulus":"bees-with-color/bee-B2DM.svg","response":0,"trial_type":"image-button-response","trial_index":29,"time_elapsed":525942,"internal_node_id":"0.0-4.0-0.11","subject_id":"5e7a02573c2d45034af62eb9","study_id":"60edd13110225f80f9f3709b","session_id":"6196c706933e3e5a6c3afef8","condition":"contingent","relevant_dimensions":["antennae","wings"],"bee_group":{"antennae":"A","wings":"1","pattern":"X","legs":"X"},"action":"harvest","summary":"good-harvest","bonus":0.5800000000000005},{"rt":1165.2999999821186,"stimulus":"\n                    <p><b>Action: <em>harvest</em></b></p>\n                    <p>This is the bee that you just saw.</p>\n                    <img src=\"bees-with-color/bee-B2DM.svg\" width=\"200\">\n                    <p><span class=\"greenText\"><b>Successful harvest!</b></span><br>Your pay has increased by $0.02. Your bonus pay is now $0.48.</p>\n            ","response":0,"trial_type":"html-button-response","trial_index":30,"time_elapsed":527109,"internal_node_id":"0.0-4.0-1.11","subject_id":"5e7a02573c2d45034af62eb9","study_id":"60edd13110225f80f9f3709b","session_id":"6196c706933e3e5a6c3afef8","condition":"contingent","relevant_dimensions":["antennae","wings"],"bee_group":{"antennae":"A","wings":"1","pattern":"X","legs":"X"},"bonus":0.5800000000000005},{"rt":1163,"stimulus":"bees-with-color/bee-A1SF.svg","response":0,"trial_type":"image-button-response","trial_index":31,"time_elapsed":528273,"internal_node_id":"0.0-4.0-0.12","subject_id":"5e7a02573c2d45034af62eb9","study_id":"60edd13110225f80f9f3709b","session_id":"6196c706933e3e5a6c3afef8","condition":"contingent","relevant_dimensions":["antennae","wings"],"bee_group":{"antennae":"A","wings":"1","pattern":"X","legs":"X"},"action":"harvest","summary":"bad-harvest","bonus":0.5800000000000005},{"rt":2729.7999999821186,"stimulus":"\n                    <p><b>Action: <em>harvest</em></b></p>\n                    <p>This is the bee that you just saw.</p>\n                    <img src=\"bees-with-color/bee-A1SF.svg\" width=\"200\">\n                    <p><span class=\"redText\">Bad choice, the bee was angry.</span><br><b>You have been stung!</b><br>Your pay has been decreased by $0.10. Your bonus pay is now $0.38.</p>\n            ","response":0,"trial_type":"html-button-response","trial_index":32,"time_elapsed":531005,"internal_node_id":"0.0-4.0-1.12","subject_id":"5e7a02573c2d45034af62eb9","study_id":"60edd13110225f80f9f3709b","session_id":"6196c706933e3e5a6c3afef8","condition":"contingent","relevant_dimensions":["antennae","wings"],"bee_group":{"antennae":"A","wings":"1","pattern":"X","legs":"X"},"bonus":0.5800000000000005},{"rt":1687.2000000178814,"stimulus":"bees-with-color/bee-A1DM.svg","response":0,"trial_type":"image-button-response","trial_index":33,"time_elapsed":532694,"internal_node_id":"0.0-4.0-0.13","subject_id":"5e7a02573c2d45034af62eb9","study_id":"60edd13110225f80f9f3709b","session_id":"6196c706933e3e5a6c3afef8","condition":"contingent","relevant_dimensions":["antennae","wings"],"bee_group":{"antennae":"A","wings":"1","pattern":"X","legs":"X"},"action":"harvest","summary":"bad-harvest","bonus":0.5800000000000005},{"rt":1299.800000011921,"stimulus":"\n                    <p><b>Action: <em>harvest</em></b></p>\n                    <p>This is the bee that you just saw.</p>\n                    <img src=\"bees-with-color/bee-A1DM.svg\" width=\"200\">\n                    <p><span class=\"redText\">Bad choice, the bee was angry.</span><br><b>You have been stung!</b><br>Your pay has been decreased by $0.10. Your bonus pay is now $0.28.</p>\n            ","response":0,"trial_type":"html-button-response","trial_index":34,"time_elapsed":533995,"internal_node_id":"0.0-4.0-1.13","subject_id":"5e7a02573c2d45034af62eb9","study_id":"60edd13110225f80f9f3709b","session_id":"6196c706933e3e5a6c3afef8","condition":"contingent","relevant_dimensions":["antennae","wings"],"bee_group":{"antennae":"A","wings":"1","pattern":"X","legs":"X"},"bonus":0.5800000000000005},{"rt":1132,"stimulus":"bees-with-color/bee-A2DF.svg","response":0,"trial_type":"image-button-response","trial_index":35,"time_elapsed":535129,"internal_node_id":"0.0-4.0-0.14","subject_id":"5e7a02573c2d45034af62eb9","study_id":"60edd13110225f80f9f3709b","session_id":"6196c706933e3e5a6c3afef8","condition":"contingent","relevant_dimensions":["antennae","wings"],"bee_group":{"antennae":"A","wings":"1","pattern":"X","legs":"X"},"action":"harvest","summary":"good-harvest","bonus":0.5800000000000005},{"rt":1106.0999999940395,"stimulus":"\n                    <p><b>Action: <em>harvest</em></b></p>\n                    <p>This is the bee that you just saw.</p>\n                    <img src=\"bees-with-color/bee-A2DF.svg\" width=\"200\">\n                    <p><span class=\"greenText\"><b>Successful harvest!</b></span><br>Your pay has increased by $0.02. Your bonus pay is now $0.30.</p>\n            ","response":0,"trial_type":"html-button-response","trial_index":36,"time_elapsed":536236,"internal_node_id":"0.0-4.0-1.14","subject_id":"5e7a02573c2d45034af62eb9","study_id":"60edd13110225f80f9f3709b","session_id":"6196c706933e3e5a6c3afef8","condition":"contingent","relevant_dimensions":["antennae","wings"],"bee_group":{"antennae":"A","wings":"1","pattern":"X","legs":"X"},"bonus":0.5800000000000005},{"rt":1042.0999999940395,"stimulus":"bees-with-color/bee-A2SM.svg","response":1,"trial_type":"image-button-response","trial_index":37,"time_elapsed":537281,"internal_node_id":"0.0-4.0-0.15","subject_id":"5e7a02573c2d45034af62eb9","study_id":"60edd13110225f80f9f3709b","session_id":"6196c706933e3e5a6c3afef8","condition":"contingent","relevant_dimensions":["antennae","wings"],"bee_group":{"antennae":"A","wings":"1","pattern":"X","legs":"X"},"action":"avoid","summary":"bad-avoid","bonus":0.5800000000000005},{"rt":818.5999999940395,"stimulus":"\n                    <p><b>Action: <em>avoid</em></b></p>\n                    <p>This is the bee that you just saw.</p>\n                    <img src=\"bees-with-color/bee-A2SM.svg\" width=\"200\">\n                    <p><br>Your bonus pay is unchanged, and remains at $0.30.</p>\n            ","response":0,"trial_type":"html-button-response","trial_index":38,"time_elapsed":538101,"internal_node_id":"0.0-4.0-1.15","subject_id":"5e7a02573c2d45034af62eb9","study_id":"60edd13110225f80f9f3709b","session_id":"6196c706933e3e5a6c3afef8","condition":"contingent","relevant_dimensions":["antennae","wings"],"bee_group":{"antennae":"A","wings":"1","pattern":"X","legs":"X"},"bonus":0.5800000000000005},{"rt":1589.9000000059605,"stimulus":"bees-with-color/bee-A2DF.svg","response":1,"trial_type":"image-button-response","trial_index":39,"time_elapsed":539692,"internal_node_id":"0.0-4.0-0.16","subject_id":"5e7a02573c2d45034af62eb9","study_id":"60edd13110225f80f9f3709b","session_id":"6196c706933e3e5a6c3afef8","condition":"contingent","relevant_dimensions":["antennae","wings"],"bee_group":{"antennae":"A","wings":"1","pattern":"X","legs":"X"},"action":"avoid","summary":"bad-avoid","bonus":0.5800000000000005},{"rt":705.0999999940395,"stimulus":"\n                    <p><b>Action: <em>avoid</em></b></p>\n                    <p>This is the bee that you just saw.</p>\n                    <img src=\"bees-with-color/bee-A2DF.svg\" width=\"200\">\n                    <p><br>Your bonus pay is unchanged, and remains at $0.30.</p>\n            ","response":0,"trial_type":"html-button-response","trial_index":40,"time_elapsed":540399,"internal_node_id":"0.0-4.0-1.16","subject_id":"5e7a02573c2d45034af62eb9","study_id":"60edd13110225f80f9f3709b","session_id":"6196c706933e3e5a6c3afef8","condition":"contingent","relevant_dimensions":["antennae","wings"],"bee_group":{"antennae":"A","wings":"1","pattern":"X","legs":"X"},"bonus":0.5800000000000005},{"rt":2151.2000000178814,"stimulus":"bees-with-color/bee-B2SF.svg","response":0,"trial_type":"image-button-response","trial_index":41,"time_elapsed":542552,"internal_node_id":"0.0-4.0-0.17","subject_id":"5e7a02573c2d45034af62eb9","study_id":"60edd13110225f80f9f3709b","session_id":"6196c706933e3e5a6c3afef8","condition":"contingent","relevant_dimensions":["antennae","wings"],"bee_group":{"antennae":"A","wings":"1","pattern":"X","legs":"X"},"action":"harvest","summary":"good-harvest","bonus":0.5800000000000005},{"rt":1115.5,"stimulus":"\n                    <p><b>Action: <em>harvest</em></b></p>\n                    <p>This is the bee that you just saw.</p>\n                    <img src=\"bees-with-color/bee-B2SF.svg\" width=\"200\">\n                    <p><span class=\"greenText\"><b>Successful harvest!</b></span><br>Your pay has increased by $0.02. Your bonus pay is now $0.32.</p>\n            ","response":0,"trial_type":"html-button-response","trial_index":42,"time_elapsed":543669,"internal_node_id":"0.0-4.0-1.17","subject_id":"5e7a02573c2d45034af62eb9","study_id":"60edd13110225f80f9f3709b","session_id":"6196c706933e3e5a6c3afef8","condition":"contingent","relevant_dimensions":["antennae","wings"],"bee_group":{"antennae":"A","wings":"1","pattern":"X","legs":"X"},"bonus":0.5800000000000005},{"rt":1805.6000000238419,"stimulus":"bees-with-color/bee-B2DM.svg","response":0,"trial_type":"image-button-response","trial_index":43,"time_elapsed":545477,"internal_node_id":"0.0-4.0-0.18","subject_id":"5e7a02573c2d45034af62eb9","study_id":"60edd13110225f80f9f3709b","session_id":"6196c706933e3e5a6c3afef8","condition":"contingent","relevant_dimensions":["antennae","wings"],"bee_group":{"antennae":"A","wings":"1","pattern":"X","legs":"X"},"action":"harvest","summary":"good-harvest","bonus":0.5800000000000005},{"rt":2175.5,"stimulus":"\n                    <p><b>Action: <em>harvest</em></b></p>\n                    <p>This is the bee that you just saw.</p>\n                    <img src=\"bees-with-color/bee-B2DM.svg\" width=\"200\">\n                    <p><span class=\"greenText\"><b>Successful harvest!</b></span><br>Your pay has increased by $0.02. Your bonus pay is now $0.34.</p>\n            ","response":0,"trial_type":"html-button-response","trial_index":44,"time_elapsed":547654,"internal_node_id":"0.0-4.0-1.18","subject_id":"5e7a02573c2d45034af62eb9","study_id":"60edd13110225f80f9f3709b","session_id":"6196c706933e3e5a6c3afef8","condition":"contingent","relevant_dimensions":["antennae","wings"],"bee_group":{"antennae":"A","wings":"1","pattern":"X","legs":"X"},"bonus":0.5800000000000005},{"rt":16621.90000000596,"stimulus":"bees-with-color/bee-B1SF.svg","response":1,"trial_type":"image-button-response","trial_index":45,"time_elapsed":564278,"internal_node_id":"0.0-4.0-0.19","subject_id":"5e7a02573c2d45034af62eb9","study_id":"60edd13110225f80f9f3709b","session_id":"6196c706933e3e5a6c3afef8","condition":"contingent","relevant_dimensions":["antennae","wings"],"bee_group":{"antennae":"A","wings":"1","pattern":"X","legs":"X"},"action":"avoid","summary":"bad-avoid","bonus":0.5800000000000005},{"rt":1285.199999988079,"stimulus":"\n                    <p><b>Action: <em>avoid</em></b></p>\n                    <p>This is the bee that you just saw.</p>\n                    <img src=\"bees-with-color/bee-B1SF.svg\" width=\"200\">\n                    <p><br>Your bonus pay is unchanged, and remains at $0.34.</p>\n            ","response":0,"trial_type":"html-button-response","trial_index":46,"time_elapsed":565564,"internal_node_id":"0.0-4.0-1.19","subject_id":"5e7a02573c2d45034af62eb9","study_id":"60edd13110225f80f9f3709b","session_id":"6196c706933e3e5a6c3afef8","condition":"contingent","relevant_dimensions":["antennae","wings"],"bee_group":{"antennae":"A","wings":"1","pattern":"X","legs":"X"},"bonus":0.5800000000000005},{"rt":3937.5,"stimulus":"bees-with-color/bee-B1SM.svg","response":0,"trial_type":"image-button-response","trial_index":47,"time_elapsed":569503,"internal_node_id":"0.0-4.0-0.20","subject_id":"5e7a02573c2d45034af62eb9","study_id":"60edd13110225f80f9f3709b","session_id":"6196c706933e3e5a6c3afef8","condition":"contingent","relevant_dimensions":["antennae","wings"],"bee_group":{"antennae":"A","wings":"1","pattern":"X","legs":"X"},"action":"harvest","summary":"good-harvest","bonus":0.5800000000000005},{"rt":1251,"stimulus":"\n                    <p><b>Action: <em>harvest</em></b></p>\n                    <p>This is the bee that you just saw.</p>\n                    <img src=\"bees-with-color/bee-B1SM.svg\" width=\"200\">\n                    <p><span class=\"greenText\"><b>Successful harvest!</b></span><br>Your pay has increased by $0.02. Your bonus pay is now $0.36.</p>\n            ","response":0,"trial_type":"html-button-response","trial_index":48,"time_elapsed":570756,"internal_node_id":"0.0-4.0-1.20","subject_id":"5e7a02573c2d45034af62eb9","study_id":"60edd13110225f80f9f3709b","session_id":"6196c706933e3e5a6c3afef8","condition":"contingent","relevant_dimensions":["antennae","wings"],"bee_group":{"antennae":"A","wings":"1","pattern":"X","legs":"X"},"bonus":0.5800000000000005},{"rt":7387.0999999940395,"stimulus":"bees-with-color/bee-B2DF.svg","response":0,"trial_type":"image-button-response","trial_index":49,"time_elapsed":578144,"internal_node_id":"0.0-4.0-0.21","subject_id":"5e7a02573c2d45034af62eb9","study_id":"60edd13110225f80f9f3709b","session_id":"6196c706933e3e5a6c3afef8","condition":"contingent","relevant_dimensions":["antennae","wings"],"bee_group":{"antennae":"A","wings":"1","pattern":"X","legs":"X"},"action":"harvest","summary":"good-harvest","bonus":0.5800000000000005},{"rt":1533.800000011921,"stimulus":"\n                    <p><b>Action: <em>harvest</em></b></p>\n                    <p>This is the bee that you just saw.</p>\n                    <img src=\"bees-with-color/bee-B2DF.svg\" width=\"200\">\n                    <p><span class=\"greenText\"><b>Successful harvest!</b></span><br>Your pay has increased by $0.02. Your bonus pay is now $0.38.</p>\n            ","response":0,"trial_type":"html-button-response","trial_index":50,"time_elapsed":579680,"internal_node_id":"0.0-4.0-1.21","subject_id":"5e7a02573c2d45034af62eb9","study_id":"60edd13110225f80f9f3709b","session_id":"6196c706933e3e5a6c3afef8","condition":"contingent","relevant_dimensions":["antennae","wings"],"bee_group":{"antennae":"A","wings":"1","pattern":"X","legs":"X"},"bonus":0.5800000000000005},{"rt":7790.800000011921,"stimulus":"bees-with-color/bee-A1SF.svg","response":0,"trial_type":"image-button-response","trial_index":51,"time_elapsed":587472,"internal_node_id":"0.0-4.0-0.22","subject_id":"5e7a02573c2d45034af62eb9","study_id":"60edd13110225f80f9f3709b","session_id":"6196c706933e3e5a6c3afef8","condition":"contingent","relevant_dimensions":["antennae","wings"],"bee_group":{"antennae":"A","wings":"1","pattern":"X","legs":"X"},"action":"harvest","summary":"bad-harvest","bonus":0.5800000000000005},{"rt":2288.9000000059605,"stimulus":"\n                    <p><b>Action: <em>harvest</em></b></p>\n                    <p>This is the bee that you just saw.</p>\n                    <img src=\"bees-with-color/bee-A1SF.svg\" width=\"200\">\n                    <p><span class=\"redText\">Bad choice, the bee was angry.</span><br><b>You have been stung!</b><br>Your pay has been decreased by $0.10. Your bonus pay is now $0.28.</p>\n            ","response":0,"trial_type":"html-button-response","trial_index":52,"time_elapsed":589762,"internal_node_id":"0.0-4.0-1.22","subject_id":"5e7a02573c2d45034af62eb9","study_id":"60edd13110225f80f9f3709b","session_id":"6196c706933e3e5a6c3afef8","condition":"contingent","relevant_dimensions":["antennae","wings"],"bee_group":{"antennae":"A","wings":"1","pattern":"X","legs":"X"},"bonus":0.5800000000000005},{"rt":9479.40000000596,"stimulus":"bees-with-color/bee-A1DM.svg","response":0,"trial_type":"image-button-response","trial_index":53,"time_elapsed":599243,"internal_node_id":"0.0-4.0-0.23","subject_id":"5e7a02573c2d45034af62eb9","study_id":"60edd13110225f80f9f3709b","session_id":"6196c706933e3e5a6c3afef8","condition":"contingent","relevant_dimensions":["antennae","wings"],"bee_group":{"antennae":"A","wings":"1","pattern":"X","legs":"X"},"action":"harvest","summary":"bad-harvest","bonus":0.5800000000000005},{"rt":8144.5,"stimulus":"\n                    <p><b>Action: <em>harvest</em></b></p>\n                    <p>This is the bee that you just saw.</p>\n                    <img src=\"bees-with-color/bee-A1DM.svg\" width=\"200\">\n                    <p><span class=\"redText\">Bad choice, the bee was angry.</span><br><b>You have been stung!</b><br>Your pay has been decreased by $0.10. Your bonus pay is now $0.18.</p>\n            ","response":0,"trial_type":"html-button-response","trial_index":54,"time_elapsed":607389,"internal_node_id":"0.0-4.0-1.23","subject_id":"5e7a02573c2d45034af62eb9","study_id":"60edd13110225f80f9f3709b","session_id":"6196c706933e3e5a6c3afef8","condition":"contingent","relevant_dimensions":["antennae","wings"],"bee_group":{"antennae":"A","wings":"1","pattern":"X","legs":"X"},"bonus":0.5800000000000005},{"rt":15247.5,"stimulus":"bees-with-color/bee-B1DF.svg","response":0,"trial_type":"image-button-response","trial_index":55,"time_elapsed":622638,"internal_node_id":"0.0-4.0-0.24","subject_id":"5e7a02573c2d45034af62eb9","study_id":"60edd13110225f80f9f3709b","session_id":"6196c706933e3e5a6c3afef8","condition":"contingent","relevant_dimensions":["antennae","wings"],"bee_group":{"antennae":"A","wings":"1","pattern":"X","legs":"X"},"action":"harvest","summary":"good-harvest","bonus":0.5800000000000005},{"rt":1130.2999999821186,"stimulus":"\n                    <p><b>Action: <em>harvest</em></b></p>\n                    <p>This is the bee that you just saw.</p>\n                    <img src=\"bees-with-color/bee-B1DF.svg\" width=\"200\">\n                    <p><span class=\"greenText\"><b>Successful harvest!</b></span><br>Your pay has increased by $0.02. Your bonus pay is now $0.20.</p>\n            ","response":0,"trial_type":"html-button-response","trial_index":56,"time_elapsed":623771,"internal_node_id":"0.0-4.0-1.24","subject_id":"5e7a02573c2d45034af62eb9","study_id":"60edd13110225f80f9f3709b","session_id":"6196c706933e3e5a6c3afef8","condition":"contingent","relevant_dimensions":["antennae","wings"],"bee_group":{"antennae":"A","wings":"1","pattern":"X","legs":"X"},"bonus":0.5800000000000005},{"rt":16590,"stimulus":"bees-with-color/bee-A2DM.svg","response":0,"trial_type":"image-button-response","trial_index":57,"time_elapsed":640363,"internal_node_id":"0.0-4.0-0.25","subject_id":"5e7a02573c2d45034af62eb9","study_id":"60edd13110225f80f9f3709b","session_id":"6196c706933e3e5a6c3afef8","condition":"contingent","relevant_dimensions":["antennae","wings"],"bee_group":{"antennae":"A","wings":"1","pattern":"X","legs":"X"},"action":"harvest","summary":"good-harvest","bonus":0.5800000000000005},{"rt":3197.7000000178814,"stimulus":"\n                    <p><b>Action: <em>harvest</em></b></p>\n                    <p>This is the bee that you just saw.</p>\n                    <img src=\"bees-with-color/bee-A2DM.svg\" width=\"200\">\n                    <p><span class=\"greenText\"><b>Successful harvest!</b></span><br>Your pay has increased by $0.02. Your bonus pay is now $0.22.</p>\n            ","response":0,"trial_type":"html-button-response","trial_index":58,"time_elapsed":643562,"internal_node_id":"0.0-4.0-1.25","subject_id":"5e7a02573c2d45034af62eb9","study_id":"60edd13110225f80f9f3709b","session_id":"6196c706933e3e5a6c3afef8","condition":"contingent","relevant_dimensions":["antennae","wings"],"bee_group":{"antennae":"A","wings":"1","pattern":"X","legs":"X"},"bonus":0.5800000000000005},{"rt":8341.700000017881,"stimulus":"bees-with-color/bee-A2SF.svg","response":0,"trial_type":"image-button-response","trial_index":59,"time_elapsed":651905,"internal_node_id":"0.0-4.0-0.26","subject_id":"5e7a02573c2d45034af62eb9","study_id":"60edd13110225f80f9f3709b","session_id":"6196c706933e3e5a6c3afef8","condition":"contingent","relevant_dimensions":["antennae","wings"],"bee_group":{"antennae":"A","wings":"1","pattern":"X","legs":"X"},"action":"harvest","summary":"good-harvest","bonus":0.5800000000000005},{"rt":1179.7000000178814,"stimulus":"\n                    <p><b>Action: <em>harvest</em></b></p>\n                    <p>This is the bee that you just saw.</p>\n                    <img src=\"bees-with-color/bee-A2SF.svg\" width=\"200\">\n                    <p><span class=\"greenText\"><b>Successful harvest!</b></span><br>Your pay has increased by $0.02. Your bonus pay is now $0.24.</p>\n            ","response":0,"trial_type":"html-button-response","trial_index":60,"time_elapsed":653086,"internal_node_id":"0.0-4.0-1.26","subject_id":"5e7a02573c2d45034af62eb9","study_id":"60edd13110225f80f9f3709b","session_id":"6196c706933e3e5a6c3afef8","condition":"contingent","relevant_dimensions":["antennae","wings"],"bee_group":{"antennae":"A","wings":"1","pattern":"X","legs":"X"},"bonus":0.5800000000000005},{"rt":9722.5,"stimulus":"bees-with-color/bee-A2SM.svg","response":0,"trial_type":"image-button-response","trial_index":61,"time_elapsed":662811,"internal_node_id":"0.0-4.0-0.27","subject_id":"5e7a02573c2d45034af62eb9","study_id":"60edd13110225f80f9f3709b","session_id":"6196c706933e3e5a6c3afef8","condition":"contingent","relevant_dimensions":["antennae","wings"],"bee_group":{"antennae":"A","wings":"1","pattern":"X","legs":"X"},"action":"harvest","summary":"good-harvest","bonus":0.5800000000000005},{"rt":1155.6000000238419,"stimulus":"\n                    <p><b>Action: <em>harvest</em></b></p>\n                    <p>This is the bee that you just saw.</p>\n                    <img src=\"bees-with-color/bee-A2SM.svg\" width=\"200\">\n                    <p><span class=\"greenText\"><b>Successful harvest!</b></span><br>Your pay has increased by $0.02. Your bonus pay is now $0.26.</p>\n            ","response":0,"trial_type":"html-button-response","trial_index":62,"time_elapsed":663968,"internal_node_id":"0.0-4.0-1.27","subject_id":"5e7a02573c2d45034af62eb9","study_id":"60edd13110225f80f9f3709b","session_id":"6196c706933e3e5a6c3afef8","condition":"contingent","relevant_dimensions":["antennae","wings"],"bee_group":{"antennae":"A","wings":"1","pattern":"X","legs":"X"},"bonus":0.5800000000000005},{"rt":4593.5999999940395,"stimulus":"bees-with-color/bee-B1DM.svg","response":0,"trial_type":"image-button-response","trial_index":63,"time_elapsed":668564,"internal_node_id":"0.0-4.0-0.28","subject_id":"5e7a02573c2d45034af62eb9","study_id":"60edd13110225f80f9f3709b","session_id":"6196c706933e3e5a6c3afef8","condition":"contingent","relevant_dimensions":["antennae","wings"],"bee_group":{"antennae":"A","wings":"1","pattern":"X","legs":"X"},"action":"harvest","summary":"good-harvest","bonus":0.5800000000000005},{"rt":1043.199999988079,"stimulus":"\n                    <p><b>Action: <em>harvest</em></b></p>\n                    <p>This is the bee that you just saw.</p>\n                    <img src=\"bees-with-color/bee-B1DM.svg\" width=\"200\">\n                    <p><span class=\"greenText\"><b>Successful harvest!</b></span><br>Your pay has increased by $0.02. Your bonus pay is now $0.28.</p>\n            ","response":0,"trial_type":"html-button-response","trial_index":64,"time_elapsed":669609,"internal_node_id":"0.0-4.0-1.28","subject_id":"5e7a02573c2d45034af62eb9","study_id":"60edd13110225f80f9f3709b","session_id":"6196c706933e3e5a6c3afef8","condition":"contingent","relevant_dimensions":["antennae","wings"],"bee_group":{"antennae":"A","wings":"1","pattern":"X","legs":"X"},"bonus":0.5800000000000005},{"rt":5933.199999988079,"stimulus":"bees-with-color/bee-A1DF.svg","response":0,"trial_type":"image-button-response","trial_index":65,"time_elapsed":675545,"internal_node_id":"0.0-4.0-0.29","subject_id":"5e7a02573c2d45034af62eb9","study_id":"60edd13110225f80f9f3709b","session_id":"6196c706933e3e5a6c3afef8","condition":"contingent","relevant_dimensions":["antennae","wings"],"bee_group":{"antennae":"A","wings":"1","pattern":"X","legs":"X"},"action":"harvest","summary":"bad-harvest","bonus":0.5800000000000005},{"rt":9526.40000000596,"stimulus":"\n                    <p><b>Action: <em>harvest</em></b></p>\n                    <p>This is the bee that you just saw.</p>\n                    <img src=\"bees-with-color/bee-A1DF.svg\" width=\"200\">\n                    <p><span class=\"redText\">Bad choice, the bee was angry.</span><br><b>You have been stung!</b><br>Your pay has been decreased by $0.10. Your bonus pay is now $0.18.</p>\n            ","response":0,"trial_type":"html-button-response","trial_index":66,"time_elapsed":685073,"internal_node_id":"0.0-4.0-1.29","subject_id":"5e7a02573c2d45034af62eb9","study_id":"60edd13110225f80f9f3709b","session_id":"6196c706933e3e5a6c3afef8","condition":"contingent","relevant_dimensions":["antennae","wings"],"bee_group":{"antennae":"A","wings":"1","pattern":"X","legs":"X"},"bonus":0.5800000000000005},{"rt":7250.299999982119,"stimulus":"bees-with-color/bee-A1SM.svg","response":0,"trial_type":"image-button-response","trial_index":67,"time_elapsed":692326,"internal_node_id":"0.0-4.0-0.30","subject_id":"5e7a02573c2d45034af62eb9","study_id":"60edd13110225f80f9f3709b","session_id":"6196c706933e3e5a6c3afef8","condition":"contingent","relevant_dimensions":["antennae","wings"],"bee_group":{"antennae":"A","wings":"1","pattern":"X","legs":"X"},"action":"harvest","summary":"bad-harvest","bonus":0.5800000000000005},{"rt":970.4000000059605,"stimulus":"\n                    <p><b>Action: <em>harvest</em></b></p>\n                    <p>This is the bee that you just saw.</p>\n                    <img src=\"bees-with-color/bee-A1SM.svg\" width=\"200\">\n                    <p><span class=\"redText\">Bad choice, the bee was angry.</span><br><b>You have been stung!</b><br>Your pay has been decreased by $0.10. Your bonus pay is now $0.08.</p>\n            ","response":0,"trial_type":"html-button-response","trial_index":68,"time_elapsed":693298,"internal_node_id":"0.0-4.0-1.30","subject_id":"5e7a02573c2d45034af62eb9","study_id":"60edd13110225f80f9f3709b","session_id":"6196c706933e3e5a6c3afef8","condition":"contingent","relevant_dimensions":["antennae","wings"],"bee_group":{"antennae":"A","wings":"1","pattern":"X","legs":"X"},"bonus":0.5800000000000005},{"rt":11497,"stimulus":"bees-with-color/bee-B2SM.svg","response":0,"trial_type":"image-button-response","trial_index":69,"time_elapsed":704798,"internal_node_id":"0.0-4.0-0.31","subject_id":"5e7a02573c2d45034af62eb9","study_id":"60edd13110225f80f9f3709b","session_id":"6196c706933e3e5a6c3afef8","condition":"contingent","relevant_dimensions":["antennae","wings"],"bee_group":{"antennae":"A","wings":"1","pattern":"X","legs":"X"},"action":"harvest","summary":"good-harvest","bonus":0.5800000000000005},{"rt":1195.2000000178814,"stimulus":"\n                    <p><b>Action: <em>harvest</em></b></p>\n                    <p>This is the bee that you just saw.</p>\n                    <img src=\"bees-with-color/bee-B2SM.svg\" width=\"200\">\n                    <p><span class=\"greenText\"><b>Successful harvest!</b></span><br>Your pay has increased by $0.02. Your bonus pay is now $0.10.</p>\n            ","response":0,"trial_type":"html-button-response","trial_index":70,"time_elapsed":705995,"internal_node_id":"0.0-4.0-1.31","subject_id":"5e7a02573c2d45034af62eb9","study_id":"60edd13110225f80f9f3709b","session_id":"6196c706933e3e5a6c3afef8","condition":"contingent","relevant_dimensions":["antennae","wings"],"bee_group":{"antennae":"A","wings":"1","pattern":"X","legs":"X"},"bonus":0.5800000000000005},{"rt":14603.100000023842,"stimulus":"bees-with-color/bee-A1SM.svg","response":1,"trial_type":"image-button-response","trial_index":71,"time_elapsed":720600,"internal_node_id":"0.0-4.0-0.32","subject_id":"5e7a02573c2d45034af62eb9","study_id":"60edd13110225f80f9f3709b","session_id":"6196c706933e3e5a6c3afef8","condition":"contingent","relevant_dimensions":["antennae","wings"],"bee_group":{"antennae":"A","wings":"1","pattern":"X","legs":"X"},"action":"avoid","summary":"good-avoid","bonus":0.5800000000000005},{"rt":1422.5999999940395,"stimulus":"\n                    <p><b>Action: <em>avoid</em></b></p>\n                    <p>This is the bee that you just saw.</p>\n                    <img src=\"bees-with-color/bee-A1SM.svg\" width=\"200\">\n                    <p><br>Your bonus pay is unchanged, and remains at $0.10.</p>\n            ","response":0,"trial_type":"html-button-response","trial_index":72,"time_elapsed":722025,"internal_node_id":"0.0-4.0-1.32","subject_id":"5e7a02573c2d45034af62eb9","study_id":"60edd13110225f80f9f3709b","session_id":"6196c706933e3e5a6c3afef8","condition":"contingent","relevant_dimensions":["antennae","wings"],"bee_group":{"antennae":"A","wings":"1","pattern":"X","legs":"X"},"bonus":0.5800000000000005},{"rt":11653.800000011921,"stimulus":"bees-with-color/bee-A2SF.svg","response":0,"trial_type":"image-button-response","trial_index":73,"time_elapsed":733680,"internal_node_id":"0.0-4.0-0.33","subject_id":"5e7a02573c2d45034af62eb9","study_id":"60edd13110225f80f9f3709b","session_id":"6196c706933e3e5a6c3afef8","condition":"contingent","relevant_dimensions":["antennae","wings"],"bee_group":{"antennae":"A","wings":"1","pattern":"X","legs":"X"},"action":"harvest","summary":"good-harvest","bonus":0.5800000000000005},{"rt":1362.2000000178814,"stimulus":"\n                    <p><b>Action: <em>harvest</em></b></p>\n                    <p>This is the bee that you just saw.</p>\n                    <img src=\"bees-with-color/bee-A2SF.svg\" width=\"200\">\n                    <p><span class=\"greenText\"><b>Successful harvest!</b></span><br>Your pay has increased by $0.02. Your bonus pay is now $0.12.</p>\n            ","response":0,"trial_type":"html-button-response","trial_index":74,"time_elapsed":735043,"internal_node_id":"0.0-4.0-1.33","subject_id":"5e7a02573c2d45034af62eb9","study_id":"60edd13110225f80f9f3709b","session_id":"6196c706933e3e5a6c3afef8","condition":"contingent","relevant_dimensions":["antennae","wings"],"bee_group":{"antennae":"A","wings":"1","pattern":"X","legs":"X"},"bonus":0.5800000000000005},{"rt":16514.600000023842,"stimulus":"bees-with-color/bee-A1SF.svg","response":1,"trial_type":"image-button-response","trial_index":75,"time_elapsed":751560,"internal_node_id":"0.0-4.0-0.34","subject_id":"5e7a02573c2d45034af62eb9","study_id":"60edd13110225f80f9f3709b","session_id":"6196c706933e3e5a6c3afef8","condition":"contingent","relevant_dimensions":["antennae","wings"],"bee_group":{"antennae":"A","wings":"1","pattern":"X","legs":"X"},"action":"avoid","summary":"good-avoid","bonus":0.5800000000000005},{"rt":1670.5,"stimulus":"\n                    <p><b>Action: <em>avoid</em></b></p>\n                    <p>This is the bee that you just saw.</p>\n                    <img src=\"bees-with-color/bee-A1SF.svg\" width=\"200\">\n                    <p><br>Your bonus pay is unchanged, and remains at $0.12.</p>\n            ","response":0,"trial_type":"html-button-response","trial_index":76,"time_elapsed":753232,"internal_node_id":"0.0-4.0-1.34","subject_id":"5e7a02573c2d45034af62eb9","study_id":"60edd13110225f80f9f3709b","session_id":"6196c706933e3e5a6c3afef8","condition":"contingent","relevant_dimensions":["antennae","wings"],"bee_group":{"antennae":"A","wings":"1","pattern":"X","legs":"X"},"bonus":0.5800000000000005},{"rt":4907.199999988079,"stimulus":"bees-with-color/bee-B1SF.svg","response":0,"trial_type":"image-button-response","trial_index":77,"time_elapsed":758141,"internal_node_id":"0.0-4.0-0.35","subject_id":"5e7a02573c2d45034af62eb9","study_id":"60edd13110225f80f9f3709b","session_id":"6196c706933e3e5a6c3afef8","condition":"contingent","relevant_dimensions":["antennae","wings"],"bee_group":{"antennae":"A","wings":"1","pattern":"X","legs":"X"},"action":"harvest","summary":"good-harvest","bonus":0.5800000000000005},{"rt":3275.5999999940395,"stimulus":"\n                    <p><b>Action: <em>harvest</em></b></p>\n                    <p>This is the bee that you just saw.</p>\n                    <img src=\"bees-with-color/bee-B1SF.svg\" width=\"200\">\n                    <p><span class=\"greenText\"><b>Successful harvest!</b></span><br>Your pay has increased by $0.02. Your bonus pay is now $0.14.</p>\n            ","response":0,"trial_type":"html-button-response","trial_index":78,"time_elapsed":761418,"internal_node_id":"0.0-4.0-1.35","subject_id":"5e7a02573c2d45034af62eb9","study_id":"60edd13110225f80f9f3709b","session_id":"6196c706933e3e5a6c3afef8","condition":"contingent","relevant_dimensions":["antennae","wings"],"bee_group":{"antennae":"A","wings":"1","pattern":"X","legs":"X"},"bonus":0.5800000000000005},{"rt":10006.899999976158,"stimulus":"bees-with-color/bee-B1DM.svg","response":1,"trial_type":"image-button-response","trial_index":79,"time_elapsed":771426,"internal_node_id":"0.0-4.0-0.36","subject_id":"5e7a02573c2d45034af62eb9","study_id":"60edd13110225f80f9f3709b","session_id":"6196c706933e3e5a6c3afef8","condition":"contingent","relevant_dimensions":["antennae","wings"],"bee_group":{"antennae":"A","wings":"1","pattern":"X","legs":"X"},"action":"avoid","summary":"bad-avoid","bonus":0.5800000000000005},{"rt":1319.5,"stimulus":"\n                    <p><b>Action: <em>avoid</em></b></p>\n                    <p>This is the bee that you just saw.</p>\n                    <img src=\"bees-with-color/bee-B1DM.svg\" width=\"200\">\n                    <p><br>Your bonus pay is unchanged, and remains at $0.14.</p>\n            ","response":0,"trial_type":"html-button-response","trial_index":80,"time_elapsed":772747,"internal_node_id":"0.0-4.0-1.36","subject_id":"5e7a02573c2d45034af62eb9","study_id":"60edd13110225f80f9f3709b","session_id":"6196c706933e3e5a6c3afef8","condition":"contingent","relevant_dimensions":["antennae","wings"],"bee_group":{"antennae":"A","wings":"1","pattern":"X","legs":"X"},"bonus":0.5800000000000005},{"rt":9477.90000000596,"stimulus":"bees-with-color/bee-B2DM.svg","response":1,"trial_type":"image-button-response","trial_index":81,"time_elapsed":782227,"internal_node_id":"0.0-4.0-0.37","subject_id":"5e7a02573c2d45034af62eb9","study_id":"60edd13110225f80f9f3709b","session_id":"6196c706933e3e5a6c3afef8","condition":"contingent","relevant_dimensions":["antennae","wings"],"bee_group":{"antennae":"A","wings":"1","pattern":"X","legs":"X"},"action":"avoid","summary":"bad-avoid","bonus":0.5800000000000005},{"rt":12765.200000017881,"stimulus":"\n                    <p><b>Action: <em>avoid</em></b></p>\n                    <p>This is the bee that you just saw.</p>\n                    <img src=\"bees-with-color/bee-B2DM.svg\" width=\"200\">\n                    <p><br>Your bonus pay is unchanged, and remains at $0.14.</p>\n            ","response":0,"trial_type":"html-button-response","trial_index":82,"time_elapsed":794994,"internal_node_id":"0.0-4.0-1.37","subject_id":"5e7a02573c2d45034af62eb9","study_id":"60edd13110225f80f9f3709b","session_id":"6196c706933e3e5a6c3afef8","condition":"contingent","relevant_dimensions":["antennae","wings"],"bee_group":{"antennae":"A","wings":"1","pattern":"X","legs":"X"},"bonus":0.5800000000000005},{"rt":9589.699999988079,"stimulus":"bees-with-color/bee-B2SM.svg","response":0,"trial_type":"image-button-response","trial_index":83,"time_elapsed":804585,"internal_node_id":"0.0-4.0-0.38","subject_id":"5e7a02573c2d45034af62eb9","study_id":"60edd13110225f80f9f3709b","session_id":"6196c706933e3e5a6c3afef8","condition":"contingent","relevant_dimensions":["antennae","wings"],"bee_group":{"antennae":"A","wings":"1","pattern":"X","legs":"X"},"action":"harvest","summary":"good-harvest","bonus":0.5800000000000005},{"rt":1044.1000000238419,"stimulus":"\n                    <p><b>Action: <em>harvest</em></b></p>\n                    <p>This is the bee that you just saw.</p>\n                    <img src=\"bees-with-color/bee-B2SM.svg\" width=\"200\">\n                    <p><span class=\"greenText\"><b>Successful harvest!</b></span><br>Your pay has increased by $0.02. Your bonus pay is now $0.16.</p>\n            ","response":0,"trial_type":"html-button-response","trial_index":84,"time_elapsed":805631,"internal_node_id":"0.0-4.0-1.38","subject_id":"5e7a02573c2d45034af62eb9","study_id":"60edd13110225f80f9f3709b","session_id":"6196c706933e3e5a6c3afef8","condition":"contingent","relevant_dimensions":["antennae","wings"],"bee_group":{"antennae":"A","wings":"1","pattern":"X","legs":"X"},"bonus":0.5800000000000005},{"rt":5832,"stimulus":"bees-with-color/bee-B2SF.svg","response":0,"trial_type":"image-button-response","trial_index":85,"time_elapsed":811465,"internal_node_id":"0.0-4.0-0.39","subject_id":"5e7a02573c2d45034af62eb9","study_id":"60edd13110225f80f9f3709b","session_id":"6196c706933e3e5a6c3afef8","condition":"contingent","relevant_dimensions":["antennae","wings"],"bee_group":{"antennae":"A","wings":"1","pattern":"X","legs":"X"},"action":"harvest","summary":"good-harvest","bonus":0.5800000000000005},{"rt":1107.5999999940395,"stimulus":"\n                    <p><b>Action: <em>harvest</em></b></p>\n                    <p>This is the bee that you just saw.</p>\n                    <img src=\"bees-with-color/bee-B2SF.svg\" width=\"200\">\n                    <p><span class=\"greenText\"><b>Successful harvest!</b></span><br>Your pay has increased by $0.02. Your bonus pay is now $0.18.</p>\n            ","response":0,"trial_type":"html-button-response","trial_index":86,"time_elapsed":812574,"internal_node_id":"0.0-4.0-1.39","subject_id":"5e7a02573c2d45034af62eb9","study_id":"60edd13110225f80f9f3709b","session_id":"6196c706933e3e5a6c3afef8","condition":"contingent","relevant_dimensions":["antennae","wings"],"bee_group":{"antennae":"A","wings":"1","pattern":"X","legs":"X"},"bonus":0.5800000000000005},{"rt":5453.799999982119,"stimulus":"bees-with-color/bee-B2DF.svg","response":0,"trial_type":"image-button-response","trial_index":87,"time_elapsed":818030,"internal_node_id":"0.0-4.0-0.40","subject_id":"5e7a02573c2d45034af62eb9","study_id":"60edd13110225f80f9f3709b","session_id":"6196c706933e3e5a6c3afef8","condition":"contingent","relevant_dimensions":["antennae","wings"],"bee_group":{"antennae":"A","wings":"1","pattern":"X","legs":"X"},"action":"harvest","summary":"good-harvest","bonus":0.5800000000000005},{"rt":1043.0999999940395,"stimulus":"\n                    <p><b>Action: <em>harvest</em></b></p>\n                    <p>This is the bee that you just saw.</p>\n                    <img src=\"bees-with-color/bee-B2DF.svg\" width=\"200\">\n                    <p><span class=\"greenText\"><b>Successful harvest!</b></span><br>Your pay has increased by $0.02. Your bonus pay is now $0.20.</p>\n            ","response":0,"trial_type":"html-button-response","trial_index":88,"time_elapsed":819075,"internal_node_id":"0.0-4.0-1.40","subject_id":"5e7a02573c2d45034af62eb9","study_id":"60edd13110225f80f9f3709b","session_id":"6196c706933e3e5a6c3afef8","condition":"contingent","relevant_dimensions":["antennae","wings"],"bee_group":{"antennae":"A","wings":"1","pattern":"X","legs":"X"},"bonus":0.5800000000000005},{"rt":9308.299999982119,"stimulus":"bees-with-color/bee-B1DF.svg","response":0,"trial_type":"image-button-response","trial_index":89,"time_elapsed":828385,"internal_node_id":"0.0-4.0-0.41","subject_id":"5e7a02573c2d45034af62eb9","study_id":"60edd13110225f80f9f3709b","session_id":"6196c706933e3e5a6c3afef8","condition":"contingent","relevant_dimensions":["antennae","wings"],"bee_group":{"antennae":"A","wings":"1","pattern":"X","legs":"X"},"action":"harvest","summary":"good-harvest","bonus":0.5800000000000005},{"rt":1034.800000011921,"stimulus":"\n                    <p><b>Action: <em>harvest</em></b></p>\n                    <p>This is the bee that you just saw.</p>\n                    <img src=\"bees-with-color/bee-B1DF.svg\" width=\"200\">\n                    <p><span class=\"greenText\"><b>Successful harvest!</b></span><br>Your pay has increased by $0.02. Your bonus pay is now $0.22.</p>\n            ","response":0,"trial_type":"html-button-response","trial_index":90,"time_elapsed":829421,"internal_node_id":"0.0-4.0-1.41","subject_id":"5e7a02573c2d45034af62eb9","study_id":"60edd13110225f80f9f3709b","session_id":"6196c706933e3e5a6c3afef8","condition":"contingent","relevant_dimensions":["antennae","wings"],"bee_group":{"antennae":"A","wings":"1","pattern":"X","legs":"X"},"bonus":0.5800000000000005},{"rt":9226.699999988079,"stimulus":"bees-with-color/bee-A1DF.svg","response":1,"trial_type":"image-button-response","trial_index":91,"time_elapsed":838650,"internal_node_id":"0.0-4.0-0.42","subject_id":"5e7a02573c2d45034af62eb9","study_id":"60edd13110225f80f9f3709b","session_id":"6196c706933e3e5a6c3afef8","condition":"contingent","relevant_dimensions":["antennae","wings"],"bee_group":{"antennae":"A","wings":"1","pattern":"X","legs":"X"},"action":"avoid","summary":"good-avoid","bonus":0.5800000000000005},{"rt":1331.3999999761581,"stimulus":"\n                    <p><b>Action: <em>avoid</em></b></p>\n                    <p>This is the bee that you just saw.</p>\n                    <img src=\"bees-with-color/bee-A1DF.svg\" width=\"200\">\n                    <p><br>Your bonus pay is unchanged, and remains at $0.22.</p>\n            ","response":0,"trial_type":"html-button-response","trial_index":92,"time_elapsed":839984,"internal_node_id":"0.0-4.0-1.42","subject_id":"5e7a02573c2d45034af62eb9","study_id":"60edd13110225f80f9f3709b","session_id":"6196c706933e3e5a6c3afef8","condition":"contingent","relevant_dimensions":["antennae","wings"],"bee_group":{"antennae":"A","wings":"1","pattern":"X","legs":"X"},"bonus":0.5800000000000005},{"rt":16606.70000001788,"stimulus":"bees-with-color/bee-A1DM.svg","response":1,"trial_type":"image-button-response","trial_index":93,"time_elapsed":856592,"internal_node_id":"0.0-4.0-0.43","subject_id":"5e7a02573c2d45034af62eb9","study_id":"60edd13110225f80f9f3709b","session_id":"6196c706933e3e5a6c3afef8","condition":"contingent","relevant_dimensions":["antennae","wings"],"bee_group":{"antennae":"A","wings":"1","pattern":"X","legs":"X"},"action":"avoid","summary":"good-avoid","bonus":0.5800000000000005},{"rt":1059.9000000059605,"stimulus":"\n                    <p><b>Action: <em>avoid</em></b></p>\n                    <p>This is the bee that you just saw.</p>\n                    <img src=\"bees-with-color/bee-A1DM.svg\" width=\"200\">\n                    <p><br>Your bonus pay is unchanged, and remains at $0.22.</p>\n            ","response":0,"trial_type":"html-button-response","trial_index":94,"time_elapsed":857654,"internal_node_id":"0.0-4.0-1.43","subject_id":"5e7a02573c2d45034af62eb9","study_id":"60edd13110225f80f9f3709b","session_id":"6196c706933e3e5a6c3afef8","condition":"contingent","relevant_dimensions":["antennae","wings"],"bee_group":{"antennae":"A","wings":"1","pattern":"X","legs":"X"},"bonus":0.5800000000000005},{"rt":7780.300000011921,"stimulus":"bees-with-color/bee-A2DM.svg","response":0,"trial_type":"image-button-response","trial_index":95,"time_elapsed":865436,"internal_node_id":"0.0-4.0-0.44","subject_id":"5e7a02573c2d45034af62eb9","study_id":"60edd13110225f80f9f3709b","session_id":"6196c706933e3e5a6c3afef8","condition":"contingent","relevant_dimensions":["antennae","wings"],"bee_group":{"antennae":"A","wings":"1","pattern":"X","legs":"X"},"action":"harvest","summary":"good-harvest","bonus":0.5800000000000005},{"rt":1050.9000000059605,"stimulus":"\n                    <p><b>Action: <em>harvest</em></b></p>\n                    <p>This is the bee that you just saw.</p>\n                    <img src=\"bees-with-color/bee-A2DM.svg\" width=\"200\">\n                    <p><span class=\"greenText\"><b>Successful harvest!</b></span><br>Your pay has increased by $0.02. Your bonus pay is now $0.24.</p>\n            ","response":0,"trial_type":"html-button-response","trial_index":96,"time_elapsed":866489,"internal_node_id":"0.0-4.0-1.44","subject_id":"5e7a02573c2d45034af62eb9","study_id":"60edd13110225f80f9f3709b","session_id":"6196c706933e3e5a6c3afef8","condition":"contingent","relevant_dimensions":["antennae","wings"],"bee_group":{"antennae":"A","wings":"1","pattern":"X","legs":"X"},"bonus":0.5800000000000005},{"rt":13147.59999999404,"stimulus":"bees-with-color/bee-B1SM.svg","response":1,"trial_type":"image-button-response","trial_index":97,"time_elapsed":879638,"internal_node_id":"0.0-4.0-0.45","subject_id":"5e7a02573c2d45034af62eb9","study_id":"60edd13110225f80f9f3709b","session_id":"6196c706933e3e5a6c3afef8","condition":"contingent","relevant_dimensions":["antennae","wings"],"bee_group":{"antennae":"A","wings":"1","pattern":"X","legs":"X"},"action":"avoid","summary":"bad-avoid","bonus":0.5800000000000005},{"rt":1284.0999999940395,"stimulus":"\n                    <p><b>Action: <em>avoid</em></b></p>\n                    <p>This is the bee that you just saw.</p>\n                    <img src=\"bees-with-color/bee-B1SM.svg\" width=\"200\">\n                    <p><br>Your bonus pay is unchanged, and remains at $0.24.</p>\n            ","response":0,"trial_type":"html-button-response","trial_index":98,"time_elapsed":880925,"internal_node_id":"0.0-4.0-1.45","subject_id":"5e7a02573c2d45034af62eb9","study_id":"60edd13110225f80f9f3709b","session_id":"6196c706933e3e5a6c3afef8","condition":"contingent","relevant_dimensions":["antennae","wings"],"bee_group":{"antennae":"A","wings":"1","pattern":"X","legs":"X"},"bonus":0.5800000000000005},{"rt":7067.700000017881,"stimulus":"bees-with-color/bee-A2SM.svg","response":1,"trial_type":"image-button-response","trial_index":99,"time_elapsed":887994,"internal_node_id":"0.0-4.0-0.46","subject_id":"5e7a02573c2d45034af62eb9","study_id":"60edd13110225f80f9f3709b","session_id":"6196c706933e3e5a6c3afef8","condition":"contingent","relevant_dimensions":["antennae","wings"],"bee_group":{"antennae":"A","wings":"1","pattern":"X","legs":"X"},"action":"avoid","summary":"bad-avoid","bonus":0.5800000000000005},{"rt":1209.9000000059605,"stimulus":"\n                    <p><b>Action: <em>avoid</em></b></p>\n                    <p>This is the bee that you just saw.</p>\n                    <img src=\"bees-with-color/bee-A2SM.svg\" width=\"200\">\n                    <p><br>Your bonus pay is unchanged, and remains at $0.24.</p>\n            ","response":0,"trial_type":"html-button-response","trial_index":100,"time_elapsed":889205,"internal_node_id":"0.0-4.0-1.46","subject_id":"5e7a02573c2d45034af62eb9","study_id":"60edd13110225f80f9f3709b","session_id":"6196c706933e3e5a6c3afef8","condition":"contingent","relevant_dimensions":["antennae","wings"],"bee_group":{"antennae":"A","wings":"1","pattern":"X","legs":"X"},"bonus":0.5800000000000005},{"rt":8500.899999976158,"stimulus":"bees-with-color/bee-A2DF.svg","response":1,"trial_type":"image-button-response","trial_index":101,"time_elapsed":897708,"internal_node_id":"0.0-4.0-0.47","subject_id":"5e7a02573c2d45034af62eb9","study_id":"60edd13110225f80f9f3709b","session_id":"6196c706933e3e5a6c3afef8","condition":"contingent","relevant_dimensions":["antennae","wings"],"bee_group":{"antennae":"A","wings":"1","pattern":"X","legs":"X"},"action":"avoid","summary":"bad-avoid","bonus":0.5800000000000005},{"rt":1132.5999999940395,"stimulus":"\n                    <p><b>Action: <em>avoid</em></b></p>\n                    <p>This is the bee that you just saw.</p>\n                    <img src=\"bees-with-color/bee-A2DF.svg\" width=\"200\">\n                    <p><br>Your bonus pay is unchanged, and remains at $0.24.</p>\n            ","response":0,"trial_type":"html-button-response","trial_index":102,"time_elapsed":898842,"internal_node_id":"0.0-4.0-1.47","subject_id":"5e7a02573c2d45034af62eb9","study_id":"60edd13110225f80f9f3709b","session_id":"6196c706933e3e5a6c3afef8","condition":"contingent","relevant_dimensions":["antennae","wings"],"bee_group":{"antennae":"A","wings":"1","pattern":"X","legs":"X"},"bonus":0.5800000000000005},{"rt":5743.4000000059605,"stimulus":"bees-with-color/bee-B1DM.svg","response":0,"trial_type":"image-button-response","trial_index":103,"time_elapsed":904587,"internal_node_id":"0.0-4.0-0.48","subject_id":"5e7a02573c2d45034af62eb9","study_id":"60edd13110225f80f9f3709b","session_id":"6196c706933e3e5a6c3afef8","condition":"contingent","relevant_dimensions":["antennae","wings"],"bee_group":{"antennae":"A","wings":"1","pattern":"X","legs":"X"},"action":"harvest","summary":"good-harvest","bonus":0.5800000000000005},{"rt":1067.2999999821186,"stimulus":"\n                    <p><b>Action: <em>harvest</em></b></p>\n                    <p>This is the bee that you just saw.</p>\n                    <img src=\"bees-with-color/bee-B1DM.svg\" width=\"200\">\n                    <p><span class=\"greenText\"><b>Successful harvest!</b></span><br>Your pay has increased by $0.02. Your bonus pay is now $0.26.</p>\n            ","response":0,"trial_type":"html-button-response","trial_index":104,"time_elapsed":905656,"internal_node_id":"0.0-4.0-1.48","subject_id":"5e7a02573c2d45034af62eb9","study_id":"60edd13110225f80f9f3709b","session_id":"6196c706933e3e5a6c3afef8","condition":"contingent","relevant_dimensions":["antennae","wings"],"bee_group":{"antennae":"A","wings":"1","pattern":"X","legs":"X"},"bonus":0.5800000000000005},{"rt":7872.5,"stimulus":"bees-with-color/bee-A1SF.svg","response":1,"trial_type":"image-button-response","trial_index":105,"time_elapsed":913530,"internal_node_id":"0.0-4.0-0.49","subject_id":"5e7a02573c2d45034af62eb9","study_id":"60edd13110225f80f9f3709b","session_id":"6196c706933e3e5a6c3afef8","condition":"contingent","relevant_dimensions":["antennae","wings"],"bee_group":{"antennae":"A","wings":"1","pattern":"X","legs":"X"},"action":"avoid","summary":"good-avoid","bonus":0.5800000000000005},{"rt":1292.0999999940395,"stimulus":"\n                    <p><b>Action: <em>avoid</em></b></p>\n                    <p>This is the bee that you just saw.</p>\n                    <img src=\"bees-with-color/bee-A1SF.svg\" width=\"200\">\n                    <p><br>Your bonus pay is unchanged, and remains at $0.26.</p>\n            ","response":0,"trial_type":"html-button-response","trial_index":106,"time_elapsed":914823,"internal_node_id":"0.0-4.0-1.49","subject_id":"5e7a02573c2d45034af62eb9","study_id":"60edd13110225f80f9f3709b","session_id":"6196c706933e3e5a6c3afef8","condition":"contingent","relevant_dimensions":["antennae","wings"],"bee_group":{"antennae":"A","wings":"1","pattern":"X","legs":"X"},"bonus":0.5800000000000005},{"rt":10727.100000023842,"stimulus":"bees-with-color/bee-B2DM.svg","response":1,"trial_type":"image-button-response","trial_index":107,"time_elapsed":925553,"internal_node_id":"0.0-4.0-0.50","subject_id":"5e7a02573c2d45034af62eb9","study_id":"60edd13110225f80f9f3709b","session_id":"6196c706933e3e5a6c3afef8","condition":"contingent","relevant_dimensions":["antennae","wings"],"bee_group":{"antennae":"A","wings":"1","pattern":"X","legs":"X"},"action":"avoid","summary":"bad-avoid","bonus":0.5800000000000005},{"rt":1124.5,"stimulus":"\n                    <p><b>Action: <em>avoid</em></b></p>\n                    <p>This is the bee that you just saw.</p>\n                    <img src=\"bees-with-color/bee-B2DM.svg\" width=\"200\">\n                    <p><br>Your bonus pay is unchanged, and remains at $0.26.</p>\n            ","response":0,"trial_type":"html-button-response","trial_index":108,"time_elapsed":926679,"internal_node_id":"0.0-4.0-1.50","subject_id":"5e7a02573c2d45034af62eb9","study_id":"60edd13110225f80f9f3709b","session_id":"6196c706933e3e5a6c3afef8","condition":"contingent","relevant_dimensions":["antennae","wings"],"bee_group":{"antennae":"A","wings":"1","pattern":"X","legs":"X"},"bonus":0.5800000000000005},{"rt":25228.30000001192,"stimulus":"bees-with-color/bee-B2SF.svg","response":1,"trial_type":"image-button-response","trial_index":109,"time_elapsed":951909,"internal_node_id":"0.0-4.0-0.51","subject_id":"5e7a02573c2d45034af62eb9","study_id":"60edd13110225f80f9f3709b","session_id":"6196c706933e3e5a6c3afef8","condition":"contingent","relevant_dimensions":["antennae","wings"],"bee_group":{"antennae":"A","wings":"1","pattern":"X","legs":"X"},"action":"avoid","summary":"bad-avoid","bonus":0.5800000000000005},{"rt":1163.0999999940395,"stimulus":"\n                    <p><b>Action: <em>avoid</em></b></p>\n                    <p>This is the bee that you just saw.</p>\n                    <img src=\"bees-with-color/bee-B2SF.svg\" width=\"200\">\n                    <p><br>Your bonus pay is unchanged, and remains at $0.26.</p>\n            ","response":0,"trial_type":"html-button-response","trial_index":110,"time_elapsed":953074,"internal_node_id":"0.0-4.0-1.51","subject_id":"5e7a02573c2d45034af62eb9","study_id":"60edd13110225f80f9f3709b","session_id":"6196c706933e3e5a6c3afef8","condition":"contingent","relevant_dimensions":["antennae","wings"],"bee_group":{"antennae":"A","wings":"1","pattern":"X","legs":"X"},"bonus":0.5800000000000005},{"rt":10458.59999999404,"stimulus":"bees-with-color/bee-A1SM.svg","response":1,"trial_type":"image-button-response","trial_index":111,"time_elapsed":963534,"internal_node_id":"0.0-4.0-0.52","subject_id":"5e7a02573c2d45034af62eb9","study_id":"60edd13110225f80f9f3709b","session_id":"6196c706933e3e5a6c3afef8","condition":"contingent","relevant_dimensions":["antennae","wings"],"bee_group":{"antennae":"A","wings":"1","pattern":"X","legs":"X"},"action":"avoid","summary":"good-avoid","bonus":0.5800000000000005},{"rt":1829.7999999821186,"stimulus":"\n                    <p><b>Action: <em>avoid</em></b></p>\n                    <p>This is the bee that you just saw.</p>\n                    <img src=\"bees-with-color/bee-A1SM.svg\" width=\"200\">\n                    <p><br>Your bonus pay is unchanged, and remains at $0.26.</p>\n            ","response":0,"trial_type":"html-button-response","trial_index":112,"time_elapsed":965366,"internal_node_id":"0.0-4.0-1.52","subject_id":"5e7a02573c2d45034af62eb9","study_id":"60edd13110225f80f9f3709b","session_id":"6196c706933e3e5a6c3afef8","condition":"contingent","relevant_dimensions":["antennae","wings"],"bee_group":{"antennae":"A","wings":"1","pattern":"X","legs":"X"},"bonus":0.5800000000000005},{"rt":8730.40000000596,"stimulus":"bees-with-color/bee-B2SM.svg","response":0,"trial_type":"image-button-response","trial_index":113,"time_elapsed":974099,"internal_node_id":"0.0-4.0-0.53","subject_id":"5e7a02573c2d45034af62eb9","study_id":"60edd13110225f80f9f3709b","session_id":"6196c706933e3e5a6c3afef8","condition":"contingent","relevant_dimensions":["antennae","wings"],"bee_group":{"antennae":"A","wings":"1","pattern":"X","legs":"X"},"action":"harvest","summary":"good-harvest","bonus":0.5800000000000005},{"rt":1065.9000000059605,"stimulus":"\n                    <p><b>Action: <em>harvest</em></b></p>\n                    <p>This is the bee that you just saw.</p>\n                    <img src=\"bees-with-color/bee-B2SM.svg\" width=\"200\">\n                    <p><span class=\"greenText\"><b>Successful harvest!</b></span><br>Your pay has increased by $0.02. Your bonus pay is now $0.28.</p>\n            ","response":0,"trial_type":"html-button-response","trial_index":114,"time_elapsed":975167,"internal_node_id":"0.0-4.0-1.53","subject_id":"5e7a02573c2d45034af62eb9","study_id":"60edd13110225f80f9f3709b","session_id":"6196c706933e3e5a6c3afef8","condition":"contingent","relevant_dimensions":["antennae","wings"],"bee_group":{"antennae":"A","wings":"1","pattern":"X","legs":"X"},"bonus":0.5800000000000005},{"rt":6157,"stimulus":"bees-with-color/bee-A2SF.svg","response":0,"trial_type":"image-button-response","trial_index":115,"time_elapsed":981327,"internal_node_id":"0.0-4.0-0.54","subject_id":"5e7a02573c2d45034af62eb9","study_id":"60edd13110225f80f9f3709b","session_id":"6196c706933e3e5a6c3afef8","condition":"contingent","relevant_dimensions":["antennae","wings"],"bee_group":{"antennae":"A","wings":"1","pattern":"X","legs":"X"},"action":"harvest","summary":"good-harvest","bonus":0.5800000000000005},{"rt":1034.5999999940395,"stimulus":"\n                    <p><b>Action: <em>harvest</em></b></p>\n                    <p>This is the bee that you just saw.</p>\n                    <img src=\"bees-with-color/bee-A2SF.svg\" width=\"200\">\n                    <p><span class=\"greenText\"><b>Successful harvest!</b></span><br>Your pay has increased by $0.02. Your bonus pay is now $0.30.</p>\n            ","response":0,"trial_type":"html-button-response","trial_index":116,"time_elapsed":982363,"internal_node_id":"0.0-4.0-1.54","subject_id":"5e7a02573c2d45034af62eb9","study_id":"60edd13110225f80f9f3709b","session_id":"6196c706933e3e5a6c3afef8","condition":"contingent","relevant_dimensions":["antennae","wings"],"bee_group":{"antennae":"A","wings":"1","pattern":"X","legs":"X"},"bonus":0.5800000000000005},{"rt":9680.699999988079,"stimulus":"bees-with-color/bee-A2SM.svg","response":0,"trial_type":"image-button-response","trial_index":117,"time_elapsed":992045,"internal_node_id":"0.0-4.0-0.55","subject_id":"5e7a02573c2d45034af62eb9","study_id":"60edd13110225f80f9f3709b","session_id":"6196c706933e3e5a6c3afef8","condition":"contingent","relevant_dimensions":["antennae","wings"],"bee_group":{"antennae":"A","wings":"1","pattern":"X","legs":"X"},"action":"harvest","summary":"good-harvest","bonus":0.5800000000000005},{"rt":990.3000000119209,"stimulus":"\n                    <p><b>Action: <em>harvest</em></b></p>\n                    <p>This is the bee that you just saw.</p>\n                    <img src=\"bees-with-color/bee-A2SM.svg\" width=\"200\">\n                    <p><span class=\"greenText\"><b>Successful harvest!</b></span><br>Your pay has increased by $0.02. Your bonus pay is now $0.32.</p>\n            ","response":0,"trial_type":"html-button-response","trial_index":118,"time_elapsed":993037,"internal_node_id":"0.0-4.0-1.55","subject_id":"5e7a02573c2d45034af62eb9","study_id":"60edd13110225f80f9f3709b","session_id":"6196c706933e3e5a6c3afef8","condition":"contingent","relevant_dimensions":["antennae","wings"],"bee_group":{"antennae":"A","wings":"1","pattern":"X","legs":"X"},"bonus":0.5800000000000005},{"rt":4176.5,"stimulus":"bees-with-color/bee-A2DM.svg","response":1,"trial_type":"image-button-response","trial_index":119,"time_elapsed":997215,"internal_node_id":"0.0-4.0-0.56","subject_id":"5e7a02573c2d45034af62eb9","study_id":"60edd13110225f80f9f3709b","session_id":"6196c706933e3e5a6c3afef8","condition":"contingent","relevant_dimensions":["antennae","wings"],"bee_group":{"antennae":"A","wings":"1","pattern":"X","legs":"X"},"action":"avoid","summary":"bad-avoid","bonus":0.5800000000000005},{"rt":1371.9000000059605,"stimulus":"\n                    <p><b>Action: <em>avoid</em></b></p>\n                    <p>This is the bee that you just saw.</p>\n                    <img src=\"bees-with-color/bee-A2DM.svg\" width=\"200\">\n                    <p><br>Your bonus pay is unchanged, and remains at $0.32.</p>\n            ","response":0,"trial_type":"html-button-response","trial_index":120,"time_elapsed":998589,"internal_node_id":"0.0-4.0-1.56","subject_id":"5e7a02573c2d45034af62eb9","study_id":"60edd13110225f80f9f3709b","session_id":"6196c706933e3e5a6c3afef8","condition":"contingent","relevant_dimensions":["antennae","wings"],"bee_group":{"antennae":"A","wings":"1","pattern":"X","legs":"X"},"bonus":0.5800000000000005},{"rt":24840.69999998808,"stimulus":"bees-with-color/bee-B2DF.svg","response":0,"trial_type":"image-button-response","trial_index":121,"time_elapsed":1023432,"internal_node_id":"0.0-4.0-0.57","subject_id":"5e7a02573c2d45034af62eb9","study_id":"60edd13110225f80f9f3709b","session_id":"6196c706933e3e5a6c3afef8","condition":"contingent","relevant_dimensions":["antennae","wings"],"bee_group":{"antennae":"A","wings":"1","pattern":"X","legs":"X"},"action":"harvest","summary":"good-harvest","bonus":0.5800000000000005},{"rt":1066,"stimulus":"\n                    <p><b>Action: <em>harvest</em></b></p>\n                    <p>This is the bee that you just saw.</p>\n                    <img src=\"bees-with-color/bee-B2DF.svg\" width=\"200\">\n                    <p><span class=\"greenText\"><b>Successful harvest!</b></span><br>Your pay has increased by $0.02. Your bonus pay is now $0.34.</p>\n            ","response":0,"trial_type":"html-button-response","trial_index":122,"time_elapsed":1024499,"internal_node_id":"0.0-4.0-1.57","subject_id":"5e7a02573c2d45034af62eb9","study_id":"60edd13110225f80f9f3709b","session_id":"6196c706933e3e5a6c3afef8","condition":"contingent","relevant_dimensions":["antennae","wings"],"bee_group":{"antennae":"A","wings":"1","pattern":"X","legs":"X"},"bonus":0.5800000000000005},{"rt":10694.5,"stimulus":"bees-with-color/bee-A1DF.svg","response":1,"trial_type":"image-button-response","trial_index":123,"time_elapsed":1035196,"internal_node_id":"0.0-4.0-0.58","subject_id":"5e7a02573c2d45034af62eb9","study_id":"60edd13110225f80f9f3709b","session_id":"6196c706933e3e5a6c3afef8","condition":"contingent","relevant_dimensions":["antennae","wings"],"bee_group":{"antennae":"A","wings":"1","pattern":"X","legs":"X"},"action":"avoid","summary":"good-avoid","bonus":0.5800000000000005},{"rt":1186.0999999940395,"stimulus":"\n                    <p><b>Action: <em>avoid</em></b></p>\n                    <p>This is the bee that you just saw.</p>\n                    <img src=\"bees-with-color/bee-A1DF.svg\" width=\"200\">\n                    <p><br>Your bonus pay is unchanged, and remains at $0.34.</p>\n            ","response":0,"trial_type":"html-button-response","trial_index":124,"time_elapsed":1036383,"internal_node_id":"0.0-4.0-1.58","subject_id":"5e7a02573c2d45034af62eb9","study_id":"60edd13110225f80f9f3709b","session_id":"6196c706933e3e5a6c3afef8","condition":"contingent","relevant_dimensions":["antennae","wings"],"bee_group":{"antennae":"A","wings":"1","pattern":"X","legs":"X"},"bonus":0.5800000000000005},{"rt":15960.09999999404,"stimulus":"bees-with-color/bee-B1DF.svg","response":0,"trial_type":"image-button-response","trial_index":125,"time_elapsed":1052345,"internal_node_id":"0.0-4.0-0.59","subject_id":"5e7a02573c2d45034af62eb9","study_id":"60edd13110225f80f9f3709b","session_id":"6196c706933e3e5a6c3afef8","condition":"contingent","relevant_dimensions":["antennae","wings"],"bee_group":{"antennae":"A","wings":"1","pattern":"X","legs":"X"},"action":"harvest","summary":"good-harvest","bonus":0.5800000000000005},{"rt":1058.8999999761581,"stimulus":"\n                    <p><b>Action: <em>harvest</em></b></p>\n                    <p>This is the bee that you just saw.</p>\n                    <img src=\"bees-with-color/bee-B1DF.svg\" width=\"200\">\n                    <p><span class=\"greenText\"><b>Successful harvest!</b></span><br>Your pay has increased by $0.02. Your bonus pay is now $0.36.</p>\n            ","response":0,"trial_type":"html-button-response","trial_index":126,"time_elapsed":1053406,"internal_node_id":"0.0-4.0-1.59","subject_id":"5e7a02573c2d45034af62eb9","study_id":"60edd13110225f80f9f3709b","session_id":"6196c706933e3e5a6c3afef8","condition":"contingent","relevant_dimensions":["antennae","wings"],"bee_group":{"antennae":"A","wings":"1","pattern":"X","legs":"X"},"bonus":0.5800000000000005},{"rt":11848.90000000596,"stimulus":"bees-with-color/bee-A2DF.svg","response":1,"trial_type":"image-button-response","trial_index":127,"time_elapsed":1065256,"internal_node_id":"0.0-4.0-0.60","subject_id":"5e7a02573c2d45034af62eb9","study_id":"60edd13110225f80f9f3709b","session_id":"6196c706933e3e5a6c3afef8","condition":"contingent","relevant_dimensions":["antennae","wings"],"bee_group":{"antennae":"A","wings":"1","pattern":"X","legs":"X"},"action":"avoid","summary":"bad-avoid","bonus":0.5800000000000005},{"rt":1091.5999999940395,"stimulus":"\n                    <p><b>Action: <em>avoid</em></b></p>\n                    <p>This is the bee that you just saw.</p>\n                    <img src=\"bees-with-color/bee-A2DF.svg\" width=\"200\">\n                    <p><br>Your bonus pay is unchanged, and remains at $0.36.</p>\n            ","response":0,"trial_type":"html-button-response","trial_index":128,"time_elapsed":1066349,"internal_node_id":"0.0-4.0-1.60","subject_id":"5e7a02573c2d45034af62eb9","study_id":"60edd13110225f80f9f3709b","session_id":"6196c706933e3e5a6c3afef8","condition":"contingent","relevant_dimensions":["antennae","wings"],"bee_group":{"antennae":"A","wings":"1","pattern":"X","legs":"X"},"bonus":0.5800000000000005},{"rt":9120.09999999404,"stimulus":"bees-with-color/bee-B1SM.svg","response":0,"trial_type":"image-button-response","trial_index":129,"time_elapsed":1075471,"internal_node_id":"0.0-4.0-0.61","subject_id":"5e7a02573c2d45034af62eb9","study_id":"60edd13110225f80f9f3709b","session_id":"6196c706933e3e5a6c3afef8","condition":"contingent","relevant_dimensions":["antennae","wings"],"bee_group":{"antennae":"A","wings":"1","pattern":"X","legs":"X"},"action":"harvest","summary":"good-harvest","bonus":0.5800000000000005},{"rt":1178.5999999940395,"stimulus":"\n                    <p><b>Action: <em>harvest</em></b></p>\n                    <p>This is the bee that you just saw.</p>\n                    <img src=\"bees-with-color/bee-B1SM.svg\" width=\"200\">\n                    <p><span class=\"greenText\"><b>Successful harvest!</b></span><br>Your pay has increased by $0.02. Your bonus pay is now $0.38.</p>\n            ","response":0,"trial_type":"html-button-response","trial_index":130,"time_elapsed":1076651,"internal_node_id":"0.0-4.0-1.61","subject_id":"5e7a02573c2d45034af62eb9","study_id":"60edd13110225f80f9f3709b","session_id":"6196c706933e3e5a6c3afef8","condition":"contingent","relevant_dimensions":["antennae","wings"],"bee_group":{"antennae":"A","wings":"1","pattern":"X","legs":"X"},"bonus":0.5800000000000005},{"rt":10088.59999999404,"stimulus":"bees-with-color/bee-B1SF.svg","response":0,"trial_type":"image-button-response","trial_index":131,"time_elapsed":1086741,"internal_node_id":"0.0-4.0-0.62","subject_id":"5e7a02573c2d45034af62eb9","study_id":"60edd13110225f80f9f3709b","session_id":"6196c706933e3e5a6c3afef8","condition":"contingent","relevant_dimensions":["antennae","wings"],"bee_group":{"antennae":"A","wings":"1","pattern":"X","legs":"X"},"action":"harvest","summary":"good-harvest","bonus":0.5800000000000005},{"rt":1074.0999999940395,"stimulus":"\n                    <p><b>Action: <em>harvest</em></b></p>\n                    <p>This is the bee that you just saw.</p>\n                    <img src=\"bees-with-color/bee-B1SF.svg\" width=\"200\">\n                    <p><span class=\"greenText\"><b>Successful harvest!</b></span><br>Your pay has increased by $0.02. Your bonus pay is now $0.40.</p>\n            ","response":0,"trial_type":"html-button-response","trial_index":132,"time_elapsed":1087817,"internal_node_id":"0.0-4.0-1.62","subject_id":"5e7a02573c2d45034af62eb9","study_id":"60edd13110225f80f9f3709b","session_id":"6196c706933e3e5a6c3afef8","condition":"contingent","relevant_dimensions":["antennae","wings"],"bee_group":{"antennae":"A","wings":"1","pattern":"X","legs":"X"},"bonus":0.5800000000000005},{"rt":9702.09999999404,"stimulus":"bees-with-color/bee-A1DM.svg","response":1,"trial_type":"image-button-response","trial_index":133,"time_elapsed":1097521,"internal_node_id":"0.0-4.0-0.63","subject_id":"5e7a02573c2d45034af62eb9","study_id":"60edd13110225f80f9f3709b","session_id":"6196c706933e3e5a6c3afef8","condition":"contingent","relevant_dimensions":["antennae","wings"],"bee_group":{"antennae":"A","wings":"1","pattern":"X","legs":"X"},"action":"avoid","summary":"good-avoid","bonus":0.5800000000000005},{"rt":1139.1000000238419,"stimulus":"\n                    <p><b>Action: <em>avoid</em></b></p>\n                    <p>This is the bee that you just saw.</p>\n                    <img src=\"bees-with-color/bee-A1DM.svg\" width=\"200\">\n                    <p><br>Your bonus pay is unchanged, and remains at $0.40.</p>\n            ","response":0,"trial_type":"html-button-response","trial_index":134,"time_elapsed":1098662,"internal_node_id":"0.0-4.0-1.63","subject_id":"5e7a02573c2d45034af62eb9","study_id":"60edd13110225f80f9f3709b","session_id":"6196c706933e3e5a6c3afef8","condition":"contingent","relevant_dimensions":["antennae","wings"],"bee_group":{"antennae":"A","wings":"1","pattern":"X","legs":"X"},"bonus":0.5800000000000005},{"rt":6751.300000011921,"stimulus":"You have completed the first part of this experiment.<br><br>You will now begin a shorter second part, in which you will receive no feedback.<br>The same rules regarding bonus pay apply.<br><br>Press any key to begin.","response":" ","trial_type":"html-keyboard-response","trial_index":135,"time_elapsed":1105415,"internal_node_id":"0.0-5.0","subject_id":"5e7a02573c2d45034af62eb9","study_id":"60edd13110225f80f9f3709b","session_id":"6196c706933e3e5a6c3afef8","condition":"contingent","relevant_dimensions":["antennae","wings"],"bee_group":{"antennae":"A","wings":"1","pattern":"X","legs":"X"},"bonus":0.5800000000000005},{"rt":9157.5,"stimulus":"bees-with-color/bee-B1DM.svg","response":0,"trial_type":"image-button-response","trial_index":136,"time_elapsed":1114582,"internal_node_id":"0.0-6.0-0.0","subject_id":"5e7a02573c2d45034af62eb9","study_id":"60edd13110225f80f9f3709b","session_id":"6196c706933e3e5a6c3afef8","condition":"contingent","relevant_dimensions":["antennae","wings"],"bee_group":{"antennae":"A","wings":"1","pattern":"X","legs":"X"},"bonus":0.5800000000000005},{"rt":3782.600000023842,"stimulus":"bees-with-color/bee-B1SF.svg","response":0,"trial_type":"image-button-response","trial_index":137,"time_elapsed":1118367,"internal_node_id":"0.0-6.0-0.1","subject_id":"5e7a02573c2d45034af62eb9","study_id":"60edd13110225f80f9f3709b","session_id":"6196c706933e3e5a6c3afef8","condition":"contingent","relevant_dimensions":["antennae","wings"],"bee_group":{"antennae":"A","wings":"1","pattern":"X","legs":"X"},"bonus":0.5800000000000005},{"rt":8275,"stimulus":"bees-with-color/bee-A2SF.svg","response":0,"trial_type":"image-button-response","trial_index":138,"time_elapsed":1126645,"internal_node_id":"0.0-6.0-0.2","subject_id":"5e7a02573c2d45034af62eb9","study_id":"60edd13110225f80f9f3709b","session_id":"6196c706933e3e5a6c3afef8","condition":"contingent","relevant_dimensions":["antennae","wings"],"bee_group":{"antennae":"A","wings":"1","pattern":"X","legs":"X"},"bonus":0.5800000000000005},{"rt":5575.800000011921,"stimulus":"bees-with-color/bee-A2DF.svg","response":1,"trial_type":"image-button-response","trial_index":139,"time_elapsed":1132224,"internal_node_id":"0.0-6.0-0.3","subject_id":"5e7a02573c2d45034af62eb9","study_id":"60edd13110225f80f9f3709b","session_id":"6196c706933e3e5a6c3afef8","condition":"contingent","relevant_dimensions":["antennae","wings"],"bee_group":{"antennae":"A","wings":"1","pattern":"X","legs":"X"},"bonus":0.5800000000000005},{"rt":5724.0999999940395,"stimulus":"bees-with-color/bee-A1SF.svg","response":1,"trial_type":"image-button-response","trial_index":140,"time_elapsed":1137950,"internal_node_id":"0.0-6.0-0.4","subject_id":"5e7a02573c2d45034af62eb9","study_id":"60edd13110225f80f9f3709b","session_id":"6196c706933e3e5a6c3afef8","condition":"contingent","relevant_dimensions":["antennae","wings"],"bee_group":{"antennae":"A","wings":"1","pattern":"X","legs":"X"},"bonus":0.5800000000000005},{"rt":8028.800000011921,"stimulus":"bees-with-color/bee-B2SF.svg","response":1,"trial_type":"image-button-response","trial_index":141,"time_elapsed":1145982,"internal_node_id":"0.0-6.0-0.5","subject_id":"5e7a02573c2d45034af62eb9","study_id":"60edd13110225f80f9f3709b","session_id":"6196c706933e3e5a6c3afef8","condition":"contingent","relevant_dimensions":["antennae","wings"],"bee_group":{"antennae":"A","wings":"1","pattern":"X","legs":"X"},"bonus":0.5800000000000005},{"rt":4947.200000017881,"stimulus":"bees-with-color/bee-A2DM.svg","response":1,"trial_type":"image-button-response","trial_index":142,"time_elapsed":1150932,"internal_node_id":"0.0-6.0-0.6","subject_id":"5e7a02573c2d45034af62eb9","study_id":"60edd13110225f80f9f3709b","session_id":"6196c706933e3e5a6c3afef8","condition":"contingent","relevant_dimensions":["antennae","wings"],"bee_group":{"antennae":"A","wings":"1","pattern":"X","legs":"X"},"bonus":0.5800000000000005},{"rt":13204.899999976158,"stimulus":"bees-with-color/bee-A1SM.svg","response":1,"trial_type":"image-button-response","trial_index":143,"time_elapsed":1164139,"internal_node_id":"0.0-6.0-0.7","subject_id":"5e7a02573c2d45034af62eb9","study_id":"60edd13110225f80f9f3709b","session_id":"6196c706933e3e5a6c3afef8","condition":"contingent","relevant_dimensions":["antennae","wings"],"bee_group":{"antennae":"A","wings":"1","pattern":"X","legs":"X"},"bonus":0.5800000000000005},{"rt":2883.0999999940395,"stimulus":"bees-with-color/bee-A1DF.svg","response":1,"trial_type":"image-button-response","trial_index":144,"time_elapsed":1167025,"internal_node_id":"0.0-6.0-0.8","subject_id":"5e7a02573c2d45034af62eb9","study_id":"60edd13110225f80f9f3709b","session_id":"6196c706933e3e5a6c3afef8","condition":"contingent","relevant_dimensions":["antennae","wings"],"bee_group":{"antennae":"A","wings":"1","pattern":"X","legs":"X"},"bonus":0.5800000000000005},{"rt":17449.40000000596,"stimulus":"bees-with-color/bee-B1DF.svg","response":1,"trial_type":"image-button-response","trial_index":145,"time_elapsed":1184477,"internal_node_id":"0.0-6.0-0.9","subject_id":"5e7a02573c2d45034af62eb9","study_id":"60edd13110225f80f9f3709b","session_id":"6196c706933e3e5a6c3afef8","condition":"contingent","relevant_dimensions":["antennae","wings"],"bee_group":{"antennae":"A","wings":"1","pattern":"X","legs":"X"},"bonus":0.5800000000000005},{"rt":1315.0999999940395,"stimulus":"bees-with-color/bee-A2SM.svg","response":1,"trial_type":"image-button-response","trial_index":146,"time_elapsed":1185796,"internal_node_id":"0.0-6.0-0.10","subject_id":"5e7a02573c2d45034af62eb9","study_id":"60edd13110225f80f9f3709b","session_id":"6196c706933e3e5a6c3afef8","condition":"contingent","relevant_dimensions":["antennae","wings"],"bee_group":{"antennae":"A","wings":"1","pattern":"X","legs":"X"},"bonus":0.5800000000000005},{"rt":12438.5,"stimulus":"bees-with-color/bee-A1DM.svg","response":1,"trial_type":"image-button-response","trial_index":147,"time_elapsed":1198242,"internal_node_id":"0.0-6.0-0.11","subject_id":"5e7a02573c2d45034af62eb9","study_id":"60edd13110225f80f9f3709b","session_id":"6196c706933e3e5a6c3afef8","condition":"contingent","relevant_dimensions":["antennae","wings"],"bee_group":{"antennae":"A","wings":"1","pattern":"X","legs":"X"},"bonus":0.5800000000000005},{"rt":6973.300000011921,"stimulus":"bees-with-color/bee-B1SM.svg","response":0,"trial_type":"image-button-response","trial_index":148,"time_elapsed":1205220,"internal_node_id":"0.0-6.0-0.12","subject_id":"5e7a02573c2d45034af62eb9","study_id":"60edd13110225f80f9f3709b","session_id":"6196c706933e3e5a6c3afef8","condition":"contingent","relevant_dimensions":["antennae","wings"],"bee_group":{"antennae":"A","wings":"1","pattern":"X","legs":"X"},"bonus":0.5800000000000005},{"rt":9911.800000011921,"stimulus":"bees-with-color/bee-B2DF.svg","response":0,"trial_type":"image-button-response","trial_index":149,"time_elapsed":1215136,"internal_node_id":"0.0-6.0-0.13","subject_id":"5e7a02573c2d45034af62eb9","study_id":"60edd13110225f80f9f3709b","session_id":"6196c706933e3e5a6c3afef8","condition":"contingent","relevant_dimensions":["antennae","wings"],"bee_group":{"antennae":"A","wings":"1","pattern":"X","legs":"X"},"bonus":0.5800000000000005},{"rt":13479.300000011921,"stimulus":"bees-with-color/bee-B2SM.svg","response":1,"trial_type":"image-button-response","trial_index":150,"time_elapsed":1228618,"internal_node_id":"0.0-6.0-0.14","subject_id":"5e7a02573c2d45034af62eb9","study_id":"60edd13110225f80f9f3709b","session_id":"6196c706933e3e5a6c3afef8","condition":"contingent","relevant_dimensions":["antennae","wings"],"bee_group":{"antennae":"A","wings":"1","pattern":"X","legs":"X"},"bonus":0.5800000000000005},{"rt":9250.300000011921,"stimulus":"bees-with-color/bee-B2DM.svg","response":1,"trial_type":"image-button-response","trial_index":151,"time_elapsed":1237871,"internal_node_id":"0.0-6.0-0.15","subject_id":"5e7a02573c2d45034af62eb9","study_id":"60edd13110225f80f9f3709b","session_id":"6196c706933e3e5a6c3afef8","condition":"contingent","relevant_dimensions":["antennae","wings"],"bee_group":{"antennae":"A","wings":"1","pattern":"X","legs":"X"},"bonus":0.5800000000000005},{"rt":9134,"stimulus":"bees-with-color/bee-B1DF.svg","response":0,"trial_type":"image-button-response","trial_index":152,"time_elapsed":1247007,"internal_node_id":"0.0-6.0-0.16","subject_id":"5e7a02573c2d45034af62eb9","study_id":"60edd13110225f80f9f3709b","session_id":"6196c706933e3e5a6c3afef8","condition":"contingent","relevant_dimensions":["antennae","wings"],"bee_group":{"antennae":"A","wings":"1","pattern":"X","legs":"X"},"bonus":0.5800000000000005},{"rt":8999.90000000596,"stimulus":"bees-with-color/bee-A2SM.svg","response":1,"trial_type":"image-button-response","trial_index":153,"time_elapsed":1256010,"internal_node_id":"0.0-6.0-0.17","subject_id":"5e7a02573c2d45034af62eb9","study_id":"60edd13110225f80f9f3709b","session_id":"6196c706933e3e5a6c3afef8","condition":"contingent","relevant_dimensions":["antennae","wings"],"bee_group":{"antennae":"A","wings":"1","pattern":"X","legs":"X"},"bonus":0.5800000000000005},{"rt":4679.0999999940395,"stimulus":"bees-with-color/bee-B2DM.svg","response":1,"trial_type":"image-button-response","trial_index":154,"time_elapsed":1260693,"internal_node_id":"0.0-6.0-0.18","subject_id":"5e7a02573c2d45034af62eb9","study_id":"60edd13110225f80f9f3709b","session_id":"6196c706933e3e5a6c3afef8","condition":"contingent","relevant_dimensions":["antennae","wings"],"bee_group":{"antennae":"A","wings":"1","pattern":"X","legs":"X"},"bonus":0.5800000000000005},{"rt":6430.299999982119,"stimulus":"bees-with-color/bee-B2SF.svg","response":0,"trial_type":"image-button-response","trial_index":155,"time_elapsed":1267125,"internal_node_id":"0.0-6.0-0.19","subject_id":"5e7a02573c2d45034af62eb9","study_id":"60edd13110225f80f9f3709b","session_id":"6196c706933e3e5a6c3afef8","condition":"contingent","relevant_dimensions":["antennae","wings"],"bee_group":{"antennae":"A","wings":"1","pattern":"X","legs":"X"},"bonus":0.5800000000000005},{"rt":10665.90000000596,"stimulus":"bees-with-color/bee-A1DM.svg","response":1,"trial_type":"image-button-response","trial_index":156,"time_elapsed":1277794,"internal_node_id":"0.0-6.0-0.20","subject_id":"5e7a02573c2d45034af62eb9","study_id":"60edd13110225f80f9f3709b","session_id":"6196c706933e3e5a6c3afef8","condition":"contingent","relevant_dimensions":["antennae","wings"],"bee_group":{"antennae":"A","wings":"1","pattern":"X","legs":"X"},"bonus":0.5800000000000005},{"rt":914,"stimulus":"bees-with-color/bee-B2SM.svg","response":1,"trial_type":"image-button-response","trial_index":157,"time_elapsed":1278710,"internal_node_id":"0.0-6.0-0.21","subject_id":"5e7a02573c2d45034af62eb9","study_id":"60edd13110225f80f9f3709b","session_id":"6196c706933e3e5a6c3afef8","condition":"contingent","relevant_dimensions":["antennae","wings"],"bee_group":{"antennae":"A","wings":"1","pattern":"X","legs":"X"},"bonus":0.5800000000000005},{"rt":6457.5999999940395,"stimulus":"bees-with-color/bee-A1SF.svg","response":1,"trial_type":"image-button-response","trial_index":158,"time_elapsed":1285169,"internal_node_id":"0.0-6.0-0.22","subject_id":"5e7a02573c2d45034af62eb9","study_id":"60edd13110225f80f9f3709b","session_id":"6196c706933e3e5a6c3afef8","condition":"contingent","relevant_dimensions":["antennae","wings"],"bee_group":{"antennae":"A","wings":"1","pattern":"X","legs":"X"},"bonus":0.5800000000000005},{"rt":6149,"stimulus":"bees-with-color/bee-B1SF.svg","response":0,"trial_type":"image-button-response","trial_index":159,"time_elapsed":1291321,"internal_node_id":"0.0-6.0-0.23","subject_id":"5e7a02573c2d45034af62eb9","study_id":"60edd13110225f80f9f3709b","session_id":"6196c706933e3e5a6c3afef8","condition":"contingent","relevant_dimensions":["antennae","wings"],"bee_group":{"antennae":"A","wings":"1","pattern":"X","legs":"X"},"bonus":0.5800000000000005},{"rt":7441,"stimulus":"bees-with-color/bee-A2DM.svg","response":1,"trial_type":"image-button-response","trial_index":160,"time_elapsed":1298764,"internal_node_id":"0.0-6.0-0.24","subject_id":"5e7a02573c2d45034af62eb9","study_id":"60edd13110225f80f9f3709b","session_id":"6196c706933e3e5a6c3afef8","condition":"contingent","relevant_dimensions":["antennae","wings"],"bee_group":{"antennae":"A","wings":"1","pattern":"X","legs":"X"},"bonus":0.5800000000000005},{"rt":2328.2999999821186,"stimulus":"bees-with-color/bee-B1SM.svg","response":1,"trial_type":"image-button-response","trial_index":161,"time_elapsed":1301094,"internal_node_id":"0.0-6.0-0.25","subject_id":"5e7a02573c2d45034af62eb9","study_id":"60edd13110225f80f9f3709b","session_id":"6196c706933e3e5a6c3afef8","condition":"contingent","relevant_dimensions":["antennae","wings"],"bee_group":{"antennae":"A","wings":"1","pattern":"X","legs":"X"},"bonus":0.5800000000000005},{"rt":3114.0999999940395,"stimulus":"bees-with-color/bee-A2DF.svg","response":1,"trial_type":"image-button-response",