[{"success":true,"trial_type":"fullscreen","trial_index":0,"time_elapsed":3768,"internal_node_id":"0.0-0.0","subject_id":"5bb511c6689fc5000149c703","study_id":"6197b3f67c2b5cd3b6d9596a","session_id":"619beee9c0aee2f9df46b19a","condition":"full-information","relevant_dimensions":["pattern","legs"],"bee_group":{"antennae":"X","wings":"X","pattern":"S","legs":"M"},"bonus":1.4000000000000012},{"success":true,"timeout":false,"failed_images":[],"failed_audio":[],"failed_video":[],"trial_type":"preload","trial_index":1,"time_elapsed":6307,"internal_node_id":"0.0-1.0","subject_id":"5bb511c6689fc5000149c703","study_id":"6197b3f67c2b5cd3b6d9596a","session_id":"619beee9c0aee2f9df46b19a","condition":"full-information","relevant_dimensions":["pattern","legs"],"bee_group":{"antennae":"X","wings":"X","pattern":"S","legs":"M"},"bonus":1.4000000000000012},{"rt":29227.69999999553,"stimulus":"Welcome! Press any key to begin.","response":" ","trial_type":"html-keyboard-response","trial_index":2,"time_elapsed":35537,"internal_node_id":"0.0-2.0","subject_id":"5bb511c6689fc5000149c703","study_id":"6197b3f67c2b5cd3b6d9596a","session_id":"619beee9c0aee2f9df46b19a","condition":"full-information","relevant_dimensions":["pattern","legs"],"bee_group":{"antennae":"X","wings":"X","pattern":"S","legs":"M"},"bonus":1.4000000000000012},{"view_history":[{"page_index":0,"viewing_time":2847.2999999970198},{"page_index":1,"viewing_time":5136.10000000149},{"page_index":2,"viewing_time":7136.20000000298},{"page_index":1,"viewing_time":2296},{"page_index":0,"viewing_time":2144},{"page_index":1,"viewing_time":792},{"page_index":2,"viewing_time":912.1000000014901},{"page_index":3,"viewing_time":9095.5},{"page_index":4,"viewing_time":6120.0999999940395},{"page_index":5,"viewing_time":7872},{"page_index":6,"viewing_time":11280.10000000149},{"page_index":7,"viewing_time":6223.80000000447},{"page_index":8,"viewing_time":1568.2999999970198},{"page_index":7,"viewing_time":520.1000000014901},{"page_index":8,"viewing_time":767.7999999970198},{"page_index":9,"viewing_time":2976.10000000149},{"page_index":10,"viewing_time":1112},{"page_index":9,"viewing_time":152.10000000149012},{"page_index":8,"viewing_time":623.7999999970198},{"page_index":7,"viewing_time":368.1000000014901},{"page_index":8,"viewing_time":184},{"page_index":9,"viewing_time":160},{"page_index":10,"viewing_time":2807.7999999970198},{"page_index":11,"viewing_time":7440.4000000059605},{"page_index":12,"viewing_time":1543.7999999970198},{"page_index":13,"viewing_time":1111.8999999985099},{"page_index":14,"viewing_time":1175.8999999985099}],"rt":84367.79999999702,"trial_type":"instructions","trial_index":3,"time_elapsed":119905,"internal_node_id":"0.0-3.0-0.0","subject_id":"5bb511c6689fc5000149c703","study_id":"6197b3f67c2b5cd3b6d9596a","session_id":"619beee9c0aee2f9df46b19a","condition":"full-information","relevant_dimensions":["pattern","legs"],"bee_group":{"antennae":"X","wings":"X","pattern":"S","legs":"M"},"bonus":1.4000000000000012},{"rt":7060.69999999553,"response":{"Q0":["Two or six legs","Stripes or spots on body","Single or double wings","Antennae or no antennae"]},"question_order":[0],"trial_type":"survey-multi-select","trial_index":4,"time_elapsed":126969,"internal_node_id":"0.0-3.0-1.0","subject_id":"5bb511c6689fc5000149c703","study_id":"6197b3f67c2b5cd3b6d9596a","session_id":"619beee9c0aee2f9df46b19a","condition":"full-information","relevant_dimensions":["pattern","legs"],"bee_group":{"antennae":"X","wings":"X","pattern":"S","legs":"M"},"correct":true,"bonus":1.4000000000000012},{"rt":11981.89999999851,"response":{"Q1":"No.","Q2":"Based on the four features of the bee.","Q3":"You learn if it was friendly or dangerous, but do not alter your bonus."},"question_order":[0,1,2],"trial_type":"survey-multi-choice","trial_index":5,"time_elapsed":138953,"internal_node_id":"0.0-3.0-2.0","subject_id":"5bb511c6689fc5000149c703","study_id":"6197b3f67c2b5cd3b6d9596a","session_id":"619beee9c0aee2f9df46b19a","condition":"full-information","relevant_dimensions":["pattern","legs"],"bee_group":{"antennae":"X","wings":"X","pattern":"S","legs":"M"},"correct":true,"bonus":1.4000000000000012},{"rt":1294.1000000014901,"stimulus":"<p>Congrats, you got everything right<br>When you're ready, click the button below to continue to the experiment.</p>","response":0,"trial_type":"html-button-response","trial_index":6,"time_elapsed":140249,"internal_node_id":"0.0-3.0-3.0","subject_id":"5bb511c6689fc5000149c703","study_id":"6197b3f67c2b5cd3b6d9596a","session_id":"619beee9c0aee2f9df46b19a","condition":"full-information","relevant_dimensions":["pattern","legs"],"bee_group":{"antennae":"X","wings":"X","pattern":"S","legs":"M"},"bonus":1.4000000000000012},{"rt":2693.2000000029802,"stimulus":"bees-with-color/bee-B2DM.svg","response":0,"trial_type":"image-button-response","trial_index":7,"time_elapsed":142945,"internal_node_id":"0.0-4.0-0.0","subject_id":"5bb511c6689fc5000149c703","study_id":"6197b3f67c2b5cd3b6d9596a","session_id":"619beee9c0aee2f9df46b19a","condition":"full-information","relevant_dimensions":["pattern","legs"],"bee_group":{"antennae":"X","wings":"X","pattern":"S","legs":"M"},"action":"harvest","summary":"good-harvest","bonus":1.4000000000000012},{"rt":1148.2999999970198,"stimulus":"\n                    <p><b>Action: <em>harvest</em></b></p>\n                    <p>This is the bee that you just saw.</p>\n                    <img src=\"bees-with-color/bee-B2DM.svg\" width=\"200\">\n                    <p><span class=\"greenText\"><b>Successful harvest!</b></span><br>Your pay has increased by $0.02. Your bonus pay is now $0.56.</p>\n            ","response":0,"trial_type":"html-button-response","trial_index":8,"time_elapsed":144097,"internal_node_id":"0.0-4.0-1.0","subject_id":"5bb511c6689fc5000149c703","study_id":"6197b3f67c2b5cd3b6d9596a","session_id":"619beee9c0aee2f9df46b19a","condition":"full-information","relevant_dimensions":["pattern","legs"],"bee_group":{"antennae":"X","wings":"X","pattern":"S","legs":"M"},"bonus":1.4000000000000012},{"rt":1413.1000000014901,"stimulus":"bees-with-color/bee-A1DF.svg","response":0,"trial_type":"image-button-response","trial_index":9,"time_elapsed":145512,"internal_node_id":"0.0-4.0-0.1","subject_id":"5bb511c6689fc5000149c703","study_id":"6197b3f67c2b5cd3b6d9596a","session_id":"619beee9c0aee2f9df46b19a","condition":"full-information","relevant_dimensions":["pattern","legs"],"bee_group":{"antennae":"X","wings":"X","pattern":"S","legs":"M"},"action":"harvest","summary":"good-harvest","bonus":1.4000000000000012},{"rt":950.1999999955297,"stimulus":"\n                    <p><b>Action: <em>harvest</em></b></p>\n                    <p>This is the bee that you just saw.</p>\n                    <img src=\"bees-with-color/bee-A1DF.svg\" width=\"200\">\n                    <p><span class=\"greenText\"><b>Successful harvest!</b></span><br>Your pay has increased by $0.02. Your bonus pay is now $0.58.</p>\n            ","response":0,"trial_type":"html-button-response","trial_index":10,"time_elapsed":146465,"internal_node_id":"0.0-4.0-1.1","subject_id":"5bb511c6689fc5000149c703","study_id":"6197b3f67c2b5cd3b6d9596a","session_id":"619beee9c0aee2f9df46b19a","condition":"full-information","relevant_dimensions":["pattern","legs"],"bee_group":{"antennae":"X","wings":"X","pattern":"S","legs":"M"},"bonus":1.4000000000000012},{"rt":1693.8999999985099,"stimulus":"bees-with-color/bee-B2DF.svg","response":0,"trial_type":"image-button-response","trial_index":11,"time_elapsed":148161,"internal_node_id":"0.0-4.0-0.2","subject_id":"5bb511c6689fc5000149c703","study_id":"6197b3f67c2b5cd3b6d9596a","session_id":"619beee9c0aee2f9df46b19a","condition":"full-information","relevant_dimensions":["pattern","legs"],"bee_group":{"antennae":"X","wings":"X","pattern":"S","legs":"M"},"action":"harvest","summary":"good-harvest","bonus":1.4000000000000012},{"rt":1022.5,"stimulus":"\n                    <p><b>Action: <em>harvest</em></b></p>\n                    <p>This is the bee that you just saw.</p>\n                    <img src=\"bees-with-color/bee-B2DF.svg\" width=\"200\">\n                    <p><span class=\"greenText\"><b>Successful harvest!</b></span><br>Your pay has increased by $0.02. Your bonus pay is now $0.60.</p>\n            ","response":0,"trial_type":"html-button-response","trial_index":12,"time_elapsed":149185,"internal_node_id":"0.0-4.0-1.2","subject_id":"5bb511c6689fc5000149c703","study_id":"6197b3f67c2b5cd3b6d9596a","session_id":"619beee9c0aee2f9df46b19a","condition":"full-information","relevant_dimensions":["pattern","legs"],"bee_group":{"antennae":"X","wings":"X","pattern":"S","legs":"M"},"bonus":1.4000000000000012},{"rt":1806.3999999985099,"stimulus":"bees-with-color/bee-B1SF.svg","response":1,"trial_type":"image-button-response","trial_index":13,"time_elapsed":150993,"internal_node_id":"0.0-4.0-0.3","subject_id":"5bb511c6689fc5000149c703","study_id":"6197b3f67c2b5cd3b6d9596a","session_id":"619beee9c0aee2f9df46b19a","condition":"full-information","relevant_dimensions":["pattern","legs"],"bee_group":{"antennae":"X","wings":"X","pattern":"S","legs":"M"},"action":"avoid","summary":"bad-avoid","bonus":1.4000000000000012},{"rt":7550.69999999553,"stimulus":"\n                    <p><b>Action: <em>avoid</em></b></p>\n                    <p>This is the bee that you just saw.</p>\n                    <img src=\"bees-with-color/bee-B1SF.svg\" width=\"200\">\n                    <p><span class=\"redText\">Bad choice,</span> the bee was friendly.<br>Your bonus pay is unchanged, and remains at $0.60.</p>\n            ","response":0,"trial_type":"html-button-response","trial_index":14,"time_elapsed":158545,"internal_node_id":"0.0-4.0-1.3","subject_id":"5bb511c6689fc5000149c703","study_id":"6197b3f67c2b5cd3b6d9596a","session_id":"619beee9c0aee2f9df46b19a","condition":"full-information","relevant_dimensions":["pattern","legs"],"bee_group":{"antennae":"X","wings":"X","pattern":"S","legs":"M"},"bonus":1.4000000000000012},{"rt":1486.3000000044703,"stimulus":"bees-with-color/bee-B1DM.svg","response":0,"trial_type":"image-button-response","trial_index":15,"time_elapsed":160033,"internal_node_id":"0.0-4.0-0.4","subject_id":"5bb511c6689fc5000149c703","study_id":"6197b3f67c2b5cd3b6d9596a","session_id":"619beee9c0aee2f9df46b19a","condition":"full-information","relevant_dimensions":["pattern","legs"],"bee_group":{"antennae":"X","wings":"X","pattern":"S","legs":"M"},"action":"harvest","summary":"good-harvest","bonus":1.4000000000000012},{"rt":758.5,"stimulus":"\n                    <p><b>Action: <em>harvest</em></b></p>\n                    <p>This is the bee that you just saw.</p>\n                    <img src=\"bees-with-color/bee-B1DM.svg\" width=\"200\">\n                    <p><span class=\"greenText\"><b>Successful harvest!</b></span><br>Your pay has increased by $0.02. Your bonus pay is now $0.62.</p>\n            ","response":0,"trial_type":"html-button-response","trial_index":16,"time_elapsed":160793,"internal_node_id":"0.0-4.0-1.4","subject_id":"5bb511c6689fc5000149c703","study_id":"6197b3f67c2b5cd3b6d9596a","session_id":"619beee9c0aee2f9df46b19a","condition":"full-information","relevant_dimensions":["pattern","legs"],"bee_group":{"antennae":"X","wings":"X","pattern":"S","legs":"M"},"bonus":1.4000000000000012},{"rt":1118.7999999970198,"stimulus":"bees-with-color/bee-A2SF.svg","response":1,"trial_type":"image-button-response","trial_index":17,"time_elapsed":161913,"internal_node_id":"0.0-4.0-0.5","subject_id":"5bb511c6689fc5000149c703","study_id":"6197b3f67c2b5cd3b6d9596a","session_id":"619beee9c0aee2f9df46b19a","condition":"full-information","relevant_dimensions":["pattern","legs"],"bee_group":{"antennae":"X","wings":"X","pattern":"S","legs":"M"},"action":"avoid","summary":"bad-avoid","bonus":1.4000000000000012},{"rt":12678.5,"stimulus":"\n                    <p><b>Action: <em>avoid</em></b></p>\n                    <p>This is the bee that you just saw.</p>\n                    <img src=\"bees-with-color/bee-A2SF.svg\" width=\"200\">\n                    <p><span class=\"redText\">Bad choice,</span> the bee was friendly.<br>Your bonus pay is unchanged, and remains at $0.62.</p>\n            ","response":0,"trial_type":"html-button-response","trial_index":18,"time_elapsed":174593,"internal_node_id":"0.0-4.0-1.5","subject_id":"5bb511c6689fc5000149c703","study_id":"6197b3f67c2b5cd3b6d9596a","session_id":"619beee9c0aee2f9df46b19a","condition":"full-information","relevant_dimensions":["pattern","legs"],"bee_group":{"antennae":"X","wings":"X","pattern":"S","legs":"M"},"bonus":1.4000000000000012},{"rt":1149.3999999985099,"stimulus":"bees-with-color/bee-B2SM.svg","response":0,"trial_type":"image-button-response","trial_index":19,"time_elapsed":175745,"internal_node_id":"0.0-4.0-0.6","subject_id":"5bb511c6689fc5000149c703","study_id":"6197b3f67c2b5cd3b6d9596a","session_id":"619beee9c0aee2f9df46b19a","condition":"full-information","relevant_dimensions":["pattern","legs"],"bee_group":{"antennae":"X","wings":"X","pattern":"S","legs":"M"},"action":"harvest","summary":"bad-harvest","bonus":1.4000000000000012},{"rt":6222.10000000149,"stimulus":"\n                    <p><b>Action: <em>harvest</em></b></p>\n                    <p>This is the bee that you just saw.</p>\n                    <img src=\"bees-with-color/bee-B2SM.svg\" width=\"200\">\n                    <p><span class=\"redText\">Bad choice, the bee was angry.</span><br><b>You have been stung!</b><br>Your pay has been decreased by $0.10. Your bonus pay is now $0.52.</p>\n            ","response":0,"trial_type":"html-button-response","trial_index":20,"time_elapsed":181969,"internal_node_id":"0.0-4.0-1.6","subject_id":"5bb511c6689fc5000149c703","study_id":"6197b3f67c2b5cd3b6d9596a","session_id":"619beee9c0aee2f9df46b19a","condition":"full-information","relevant_dimensions":["pattern","legs"],"bee_group":{"antennae":"X","wings":"X","pattern":"S","legs":"M"},"bonus":1.4000000000000012},{"rt":3110.7000000029802,"stimulus":"bees-with-color/bee-B1SM.svg","response":0,"trial_type":"image-button-response","trial_index":21,"time_elapsed":185082,"internal_node_id":"0.0-4.0-0.7","subject_id":"5bb511c6689fc5000149c703","study_id":"6197b3f67c2b5cd3b6d9596a","session_id":"619beee9c0aee2f9df46b19a","condition":"full-information","relevant_dimensions":["pattern","legs"],"bee_group":{"antennae":"X","wings":"X","pattern":"S","legs":"M"},"action":"harvest","summary":"bad-harvest","bonus":1.4000000000000012},{"rt":2334.2000000029802,"stimulus":"\n                    <p><b>Action: <em>harvest</em></b></p>\n                    <p>This is the bee that you just saw.</p>\n                    <img src=\"bees-with-color/bee-B1SM.svg\" width=\"200\">\n                    <p><span class=\"redText\">Bad choice, the bee was angry.</span><br><b>You have been stung!</b><br>Your pay has been decreased by $0.10. Your bonus pay is now $0.42.</p>\n            ","response":0,"trial_type":"html-button-response","trial_index":22,"time_elapsed":187417,"internal_node_id":"0.0-4.0-1.7","subject_id":"5bb511c6689fc5000149c703","study_id":"6197b3f67c2b5cd3b6d9596a","session_id":"619beee9c0aee2f9df46b19a","condition":"full-information","relevant_dimensions":["pattern","legs"],"bee_group":{"antennae":"X","wings":"X","pattern":"S","legs":"M"},"bonus":1.4000000000000012},{"rt":1893.8999999985099,"stimulus":"bees-with-color/bee-A1SF.svg","response":0,"trial_type":"image-button-response","trial_index":23,"time_elapsed":189314,"internal_node_id":"0.0-4.0-0.8","subject_id":"5bb511c6689fc5000149c703","study_id":"6197b3f67c2b5cd3b6d9596a","session_id":"619beee9c0aee2f9df46b19a","condition":"full-information","relevant_dimensions":["pattern","legs"],"bee_group":{"antennae":"X","wings":"X","pattern":"S","legs":"M"},"action":"harvest","summary":"good-harvest","bonus":1.4000000000000012},{"rt":766.2000000029802,"stimulus":"\n                    <p><b>Action: <em>harvest</em></b></p>\n                    <p>This is the bee that you just saw.</p>\n                    <img src=\"bees-with-color/bee-A1SF.svg\" width=\"200\">\n                    <p><span class=\"greenText\"><b>Successful harvest!</b></span><br>Your pay has increased by $0.02. Your bonus pay is now $0.44.</p>\n            ","response":0,"trial_type":"html-button-response","trial_index":24,"time_elapsed":190081,"internal_node_id":"0.0-4.0-1.8","subject_id":"5bb511c6689fc5000149c703","study_id":"6197b3f67c2b5cd3b6d9596a","session_id":"619beee9c0aee2f9df46b19a","condition":"full-information","relevant_dimensions":["pattern","legs"],"bee_group":{"antennae":"X","wings":"X","pattern":"S","legs":"M"},"bonus":1.4000000000000012},{"rt":2454.7999999970198,"stimulus":"bees-with-color/bee-A2SM.svg","response":0,"trial_type":"image-button-response","trial_index":25,"time_elapsed":192537,"internal_node_id":"0.0-4.0-0.9","subject_id":"5bb511c6689fc5000149c703","study_id":"6197b3f67c2b5cd3b6d9596a","session_id":"619beee9c0aee2f9df46b19a","condition":"full-information","relevant_dimensions":["pattern","legs"],"bee_group":{"antennae":"X","wings":"X","pattern":"S","legs":"M"},"action":"harvest","summary":"bad-harvest","bonus":1.4000000000000012},{"rt":5190,"stimulus":"\n                    <p><b>Action: <em>harvest</em></b></p>\n                    <p>This is the bee that you just saw.</p>\n                    <img src=\"bees-with-color/bee-A2SM.svg\" width=\"200\">\n                    <p><span class=\"redText\">Bad choice, the bee was angry.</span><br><b>You have been stung!</b><br>Your pay has been decreased by $0.10. Your bonus pay is now $0.34.</p>\n            ","response":0,"trial_type":"html-button-response","trial_index":26,"time_elapsed":197730,"internal_node_id":"0.0-4.0-1.9","subject_id":"5bb511c6689fc5000149c703","study_id":"6197b3f67c2b5cd3b6d9596a","session_id":"619beee9c0aee2f9df46b19a","condition":"full-information","relevant_dimensions":["pattern","legs"],"bee_group":{"antennae":"X","wings":"X","pattern":"S","legs":"M"},"bonus":1.4000000000000012},{"rt":2598.10000000149,"stimulus":"bees-with-color/bee-B2SF.svg","response":0,"trial_type":"image-button-response","trial_index":27,"time_elapsed":200330,"internal_node_id":"0.0-4.0-0.10","subject_id":"5bb511c6689fc5000149c703","study_id":"6197b3f67c2b5cd3b6d9596a","session_id":"619beee9c0aee2f9df46b19a","condition":"full-information","relevant_dimensions":["pattern","legs"],"bee_group":{"antennae":"X","wings":"X","pattern":"S","legs":"M"},"action":"harvest","summary":"good-harvest","bonus":1.4000000000000012},{"rt":830.7000000029802,"stimulus":"\n                    <p><b>Action: <em>harvest</em></b></p>\n                    <p>This is the bee that you just saw.</p>\n                    <img src=\"bees-with-color/bee-B2SF.svg\" width=\"200\">\n                    <p><span class=\"greenText\"><b>Successful harvest!</b></span><br>Your pay has increased by $0.02. Your bonus pay is now $0.36.</p>\n            ","response":0,"trial_type":"html-button-response","trial_index":28,"time_elapsed":201162,"internal_node_id":"0.0-4.0-1.10","subject_id":"5bb511c6689fc5000149c703","study_id":"6197b3f67c2b5cd3b6d9596a","session_id":"619beee9c0aee2f9df46b19a","condition":"full-information","relevant_dimensions":["pattern","legs"],"bee_group":{"antennae":"X","wings":"X","pattern":"S","legs":"M"},"bonus":1.4000000000000012},{"rt":1646,"stimulus":"bees-with-color/bee-A1SM.svg","response":0,"trial_type":"image-button-response","trial_index":29,"time_elapsed":202810,"internal_node_id":"0.0-4.0-0.11","subject_id":"5bb511c6689fc5000149c703","study_id":"6197b3f67c2b5cd3b6d9596a","session_id":"619beee9c0aee2f9df46b19a","condition":"full-information","relevant_dimensions":["pattern","legs"],"bee_group":{"antennae":"X","wings":"X","pattern":"S","legs":"M"},"action":"harvest","summary":"bad-harvest","bonus":1.4000000000000012},{"rt":5222.5,"stimulus":"\n                    <p><b>Action: <em>harvest</em></b></p>\n                    <p>This is the bee that you just saw.</p>\n                    <img src=\"bees-with-color/bee-A1SM.svg\" width=\"200\">\n                    <p><span class=\"redText\">Bad choice, the bee was angry.</span><br><b>You have been stung!</b><br>Your pay has been decreased by $0.10. Your bonus pay is now $0.26.</p>\n            ","response":0,"trial_type":"html-button-response","trial_index":30,"time_elapsed":208034,"internal_node_id":"0.0-4.0-1.11","subject_id":"5bb511c6689fc5000149c703","study_id":"6197b3f67c2b5cd3b6d9596a","session_id":"619beee9c0aee2f9df46b19a","condition":"full-information","relevant_dimensions":["pattern","legs"],"bee_group":{"antennae":"X","wings":"X","pattern":"S","legs":"M"},"bonus":1.4000000000000012},{"rt":1037.7999999970198,"stimulus":"bees-with-color/bee-B1DF.svg","response":0,"trial_type":"image-button-response","trial_index":31,"time_elapsed":209073,"internal_node_id":"0.0-4.0-0.12","subject_id":"5bb511c6689fc5000149c703","study_id":"6197b3f67c2b5cd3b6d9596a","session_id":"619beee9c0aee2f9df46b19a","condition":"full-information","relevant_dimensions":["pattern","legs"],"bee_group":{"antennae":"X","wings":"X","pattern":"S","legs":"M"},"action":"harvest","summary":"good-harvest","bonus":1.4000000000000012},{"rt":662.3999999985099,"stimulus":"\n                    <p><b>Action: <em>harvest</em></b></p>\n                    <p>This is the bee that you just saw.</p>\n                    <img src=\"bees-with-color/bee-B1DF.svg\" width=\"200\">\n                    <p><span class=\"greenText\"><b>Successful harvest!</b></span><br>Your pay has increased by $0.02. Your bonus pay is now $0.28.</p>\n            ","response":0,"trial_type":"html-button-response","trial_index":32,"time_elapsed":209737,"internal_node_id":"0.0-4.0-1.12","subject_id":"5bb511c6689fc5000149c703","study_id":"6197b3f67c2b5cd3b6d9596a","session_id":"619beee9c0aee2f9df46b19a","condition":"full-information","relevant_dimensions":["pattern","legs"],"bee_group":{"antennae":"X","wings":"X","pattern":"S","legs":"M"},"bonus":1.4000000000000012},{"rt":926.3000000044703,"stimulus":"bees-with-color/bee-A2DM.svg","response":0,"trial_type":"image-button-response","trial_index":33,"time_elapsed":210665,"internal_node_id":"0.0-4.0-0.13","subject_id":"5bb511c6689fc5000149c703","study_id":"6197b3f67c2b5cd3b6d9596a","session_id":"619beee9c0aee2f9df46b19a","condition":"full-information","relevant_dimensions":["pattern","legs"],"bee_group":{"antennae":"X","wings":"X","pattern":"S","legs":"M"},"action":"harvest","summary":"good-harvest","bonus":1.4000000000000012},{"rt":502.5,"stimulus":"\n                    <p><b>Action: <em>harvest</em></b></p>\n                    <p>This is the bee that you just saw.</p>\n                    <img src=\"bees-with-color/bee-A2DM.svg\" width=\"200\">\n                    <p><span class=\"greenText\"><b>Successful harvest!</b></span><br>Your pay has increased by $0.02. Your bonus pay is now $0.30.</p>\n            ","response":0,"trial_type":"html-button-response","trial_index":34,"time_elapsed":211169,"internal_node_id":"0.0-4.0-1.13","subject_id":"5bb511c6689fc5000149c703","study_id":"6197b3f67c2b5cd3b6d9596a","session_id":"619beee9c0aee2f9df46b19a","condition":"full-information","relevant_dimensions":["pattern","legs"],"bee_group":{"antennae":"X","wings":"X","pattern":"S","legs":"M"},"bonus":1.4000000000000012},{"rt":662.7000000029802,"stimulus":"bees-with-color/bee-A2DF.svg","response":0,"trial_type":"image-button-response","trial_index":35,"time_elapsed":211834,"internal_node_id":"0.0-4.0-0.14","subject_id":"5bb511c6689fc5000149c703","study_id":"6197b3f67c2b5cd3b6d9596a","session_id":"619beee9c0aee2f9df46b19a","condition":"full-information","relevant_dimensions":["pattern","legs"],"bee_group":{"antennae":"X","wings":"X","pattern":"S","legs":"M"},"action":"harvest","summary":"good-harvest","bonus":1.4000000000000012},{"rt":454.29999999701977,"stimulus":"\n                    <p><b>Action: <em>harvest</em></b></p>\n                    <p>This is the bee that you just saw.</p>\n                    <img src=\"bees-with-color/bee-A2DF.svg\" width=\"200\">\n                    <p><span class=\"greenText\"><b>Successful harvest!</b></span><br>Your pay has increased by $0.02. Your bonus pay is now $0.32.</p>\n            ","response":0,"trial_type":"html-button-response","trial_index":36,"time_elapsed":212290,"internal_node_id":"0.0-4.0-1.14","subject_id":"5bb511c6689fc5000149c703","study_id":"6197b3f67c2b5cd3b6d9596a","session_id":"619beee9c0aee2f9df46b19a","condition":"full-information","relevant_dimensions":["pattern","legs"],"bee_group":{"antennae":"X","wings":"X","pattern":"S","legs":"M"},"bonus":1.4000000000000012},{"rt":686.5,"stimulus":"bees-with-color/bee-A1DM.svg","response":0,"trial_type":"image-button-response","trial_index":37,"time_elapsed":212977,"internal_node_id":"0.0-4.0-0.15","subject_id":"5bb511c6689fc5000149c703","study_id":"6197b3f67c2b5cd3b6d9596a","session_id":"619beee9c0aee2f9df46b19a","condition":"full-information","relevant_dimensions":["pattern","legs"],"bee_group":{"antennae":"X","wings":"X","pattern":"S","legs":"M"},"action":"harvest","summary":"good-harvest","bonus":1.4000000000000012},{"rt":822.1000000014901,"stimulus":"\n                    <p><b>Action: <em>harvest</em></b></p>\n                    <p>This is the bee that you just saw.</p>\n                    <img src=\"bees-with-color/bee-A1DM.svg\" width=\"200\">\n                    <p><span class=\"greenText\"><b>Successful harvest!</b></span><br>Your pay has increased by $0.02. Your bonus pay is now $0.34.</p>\n            ","response":0,"trial_type":"html-button-response","trial_index":38,"time_elapsed":213801,"internal_node_id":"0.0-4.0-1.15","subject_id":"5bb511c6689fc5000149c703","study_id":"6197b3f67c2b5cd3b6d9596a","session_id":"619beee9c0aee2f9df46b19a","condition":"full-information","relevant_dimensions":["pattern","legs"],"bee_group":{"antennae":"X","wings":"X","pattern":"S","legs":"M"},"bonus":1.4000000000000012},{"rt":574.7000000029802,"stimulus":"bees-with-color/bee-A1DM.svg","response":0,"trial_type":"image-button-response","trial_index":39,"time_elapsed":214377,"internal_node_id":"0.0-4.0-0.16","subject_id":"5bb511c6689fc5000149c703","study_id":"6197b3f67c2b5cd3b6d9596a","session_id":"619beee9c0aee2f9df46b19a","condition":"full-information","relevant_dimensions":["pattern","legs"],"bee_group":{"antennae":"X","wings":"X","pattern":"S","legs":"M"},"action":"harvest","summary":"good-harvest","bonus":1.4000000000000012},{"rt":486.70000000298023,"stimulus":"\n                    <p><b>Action: <em>harvest</em></b></p>\n                    <p>This is the bee that you just saw.</p>\n                    <img src=\"bees-with-color/bee-A1DM.svg\" width=\"200\">\n                    <p><span class=\"greenText\"><b>Successful harvest!</b></span><br>Your pay has increased by $0.02. Your bonus pay is now $0.36.</p>\n            ","response":0,"trial_type":"html-button-response","trial_index":40,"time_elapsed":214866,"internal_node_id":"0.0-4.0-1.16","subject_id":"5bb511c6689fc5000149c703","study_id":"6197b3f67c2b5cd3b6d9596a","session_id":"619beee9c0aee2f9df46b19a","condition":"full-information","relevant_dimensions":["pattern","legs"],"bee_group":{"antennae":"X","wings":"X","pattern":"S","legs":"M"},"bonus":1.4000000000000012},{"rt":2861.89999999851,"stimulus":"bees-with-color/bee-B1SF.svg","response":0,"trial_type":"image-button-response","trial_index":41,"time_elapsed":217729,"internal_node_id":"0.0-4.0-0.17","subject_id":"5bb511c6689fc5000149c703","study_id":"6197b3f67c2b5cd3b6d9596a","session_id":"619beee9c0aee2f9df46b19a","condition":"full-information","relevant_dimensions":["pattern","legs"],"bee_group":{"antennae":"X","wings":"X","pattern":"S","legs":"M"},"action":"harvest","summary":"good-harvest","bonus":1.4000000000000012},{"rt":966,"stimulus":"\n                    <p><b>Action: <em>harvest</em></b></p>\n                    <p>This is the bee that you just saw.</p>\n                    <img src=\"bees-with-color/bee-B1SF.svg\" width=\"200\">\n                    <p><span class=\"greenText\"><b>Successful harvest!</b></span><br>Your pay has increased by $0.02. Your bonus pay is now $0.38.</p>\n            ","response":0,"trial_type":"html-button-response","trial_index":42,"time_elapsed":218697,"internal_node_id":"0.0-4.0-1.17","subject_id":"5bb511c6689fc5000149c703","study_id":"6197b3f67c2b5cd3b6d9596a","session_id":"619beee9c0aee2f9df46b19a","condition":"full-information","relevant_dimensions":["pattern","legs"],"bee_group":{"antennae":"X","wings":"X","pattern":"S","legs":"M"},"bonus":1.4000000000000012},{"rt":1214.6000000014901,"stimulus":"bees-with-color/bee-A1SF.svg","response":0,"trial_type":"image-button-response","trial_index":43,"time_elapsed":219914,"internal_node_id":"0.0-4.0-0.18","subject_id":"5bb511c6689fc5000149c703","study_id":"6197b3f67c2b5cd3b6d9596a","session_id":"619beee9c0aee2f9df46b19a","condition":"full-information","relevant_dimensions":["pattern","legs"],"bee_group":{"antennae":"X","wings":"X","pattern":"S","legs":"M"},"action":"harvest","summary":"good-harvest","bonus":1.4000000000000012},{"rt":502.1000000014901,"stimulus":"\n                    <p><b>Action: <em>harvest</em></b></p>\n                    <p>This is the bee that you just saw.</p>\n                    <img src=\"bees-with-color/bee-A1SF.svg\" width=\"200\">\n                    <p><span class=\"greenText\"><b>Successful harvest!</b></span><br>Your pay has increased by $0.02. Your bonus pay is now $0.40.</p>\n            ","response":0,"trial_type":"html-button-response","trial_index":44,"time_elapsed":220417,"internal_node_id":"0.0-4.0-1.18","subject_id":"5bb511c6689fc5000149c703","study_id":"6197b3f67c2b5cd3b6d9596a","session_id":"619beee9c0aee2f9df46b19a","condition":"full-information","relevant_dimensions":["pattern","legs"],"bee_group":{"antennae":"X","wings":"X","pattern":"S","legs":"M"},"bonus":1.4000000000000012},{"rt":718.3999999985099,"stimulus":"bees-with-color/bee-A1DF.svg","response":0,"trial_type":"image-button-response","trial_index":45,"time_elapsed":221137,"internal_node_id":"0.0-4.0-0.19","subject_id":"5bb511c6689fc5000149c703","study_id":"6197b3f67c2b5cd3b6d9596a","session_id":"619beee9c0aee2f9df46b19a","condition":"full-information","relevant_dimensions":["pattern","legs"],"bee_group":{"antennae":"X","wings":"X","pattern":"S","legs":"M"},"action":"harvest","summary":"good-harvest","bonus":1.4000000000000012},{"rt":478.3999999985099,"stimulus":"\n                    <p><b>Action: <em>harvest</em></b></p>\n                    <p>This is the bee that you just saw.</p>\n                    <img src=\"bees-with-color/bee-A1DF.svg\" width=\"200\">\n                    <p><span class=\"greenText\"><b>Successful harvest!</b></span><br>Your pay has increased by $0.02. Your bonus pay is now $0.42.</p>\n            ","response":0,"trial_type":"html-button-response","trial_index":46,"time_elapsed":221618,"internal_node_id":"0.0-4.0-1.19","subject_id":"5bb511c6689fc5000149c703","study_id":"6197b3f67c2b5cd3b6d9596a","session_id":"619beee9c0aee2f9df46b19a","condition":"full-information","relevant_dimensions":["pattern","legs"],"bee_group":{"antennae":"X","wings":"X","pattern":"S","legs":"M"},"bonus":1.4000000000000012},{"rt":678.1000000014901,"stimulus":"bees-with-color/bee-B1DF.svg","response":0,"trial_type":"image-button-response","trial_index":47,"time_elapsed":222297,"internal_node_id":"0.0-4.0-0.20","subject_id":"5bb511c6689fc5000149c703","study_id":"6197b3f67c2b5cd3b6d9596a","session_id":"619beee9c0aee2f9df46b19a","condition":"full-information","relevant_dimensions":["pattern","legs"],"bee_group":{"antennae":"X","wings":"X","pattern":"S","legs":"M"},"action":"harvest","summary":"good-harvest","bonus":1.4000000000000012},{"rt":470.6000000014901,"stimulus":"\n                    <p><b>Action: <em>harvest</em></b></p>\n                    <p>This is the bee that you just saw.</p>\n                    <img src=\"bees-with-color/bee-B1DF.svg\" width=\"200\">\n                    <p><span class=\"greenText\"><b>Successful harvest!</b></span><br>Your pay has increased by $0.02. Your bonus pay is now $0.44.</p>\n            ","response":0,"trial_type":"html-button-response","trial_index":48,"time_elapsed":222769,"internal_node_id":"0.0-4.0-1.20","subject_id":"5bb511c6689fc5000149c703","study_id":"6197b3f67c2b5cd3b6d9596a","session_id":"619beee9c0aee2f9df46b19a","condition":"full-information","relevant_dimensions":["pattern","legs"],"bee_group":{"antennae":"X","wings":"X","pattern":"S","legs":"M"},"bonus":1.4000000000000012},{"rt":1126.5,"stimulus":"bees-with-color/bee-A2DF.svg","response":0,"trial_type":"image-button-response","trial_index":49,"time_elapsed":223897,"internal_node_id":"0.0-4.0-0.21","subject_id":"5bb511c6689fc5000149c703","study_id":"6197b3f67c2b5cd3b6d9596a","session_id":"619beee9c0aee2f9df46b19a","condition":"full-information","relevant_dimensions":["pattern","legs"],"bee_group":{"antennae":"X","wings":"X","pattern":"S","legs":"M"},"action":"harvest","summary":"good-harvest","bonus":1.4000000000000012},{"rt":550.5999999940395,"stimulus":"\n                    <p><b>Action: <em>harvest</em></b></p>\n                    <p>This is the bee that you just saw.</p>\n                    <img src=\"bees-with-color/bee-A2DF.svg\" width=\"200\">\n                    <p><span class=\"greenText\"><b>Successful harvest!</b></span><br>Your pay has increased by $0.02. Your bonus pay is now $0.46.</p>\n            ","response":0,"trial_type":"html-button-response","trial_index":50,"time_elapsed":224449,"internal_node_id":"0.0-4.0-1.21","subject_id":"5bb511c6689fc5000149c703","study_id":"6197b3f67c2b5cd3b6d9596a","session_id":"619beee9c0aee2f9df46b19a","condition":"full-information","relevant_dimensions":["pattern","legs"],"bee_group":{"antennae":"X","wings":"X","pattern":"S","legs":"M"},"bonus":1.4000000000000012},{"rt":895,"stimulus":"bees-with-color/bee-B1SM.svg","response":1,"trial_type":"image-button-response","trial_index":51,"time_elapsed":225345,"internal_node_id":"0.0-4.0-0.22","subject_id":"5bb511c6689fc5000149c703","study_id":"6197b3f67c2b5cd3b6d9596a","session_id":"619beee9c0aee2f9df46b19a","condition":"full-information","relevant_dimensions":["pattern","legs"],"bee_group":{"antennae":"X","wings":"X","pattern":"S","legs":"M"},"action":"avoid","summary":"good-avoid","bonus":1.4000000000000012},{"rt":582.3999999985099,"stimulus":"\n                    <p><b>Action: <em>avoid</em></b></p>\n                    <p>This is the bee that you just saw.</p>\n                    <img src=\"bees-with-color/bee-B1SM.svg\" width=\"200\">\n                    <p><span class=\"greenText\">Good choice!</span>  This bee would have stung you.<br>Your bonus pay is unchanged, and remains at $0.46.</p>\n            ","response":0,"trial_type":"html-button-response","trial_index":52,"time_elapsed":225929,"internal_node_id":"0.0-4.0-1.22","subject_id":"5bb511c6689fc5000149c703","study_id":"6197b3f67c2b5cd3b6d9596a","session_id":"619beee9c0aee2f9df46b19a","condition":"full-information","relevant_dimensions":["pattern","legs"],"bee_group":{"antennae":"X","wings":"X","pattern":"S","legs":"M"},"bonus":1.4000000000000012},{"rt":799.0999999940395,"stimulus":"bees-with-color/bee-B2SM.svg","response":1,"trial_type":"image-button-response","trial_index":53,"time_elapsed":226729,"internal_node_id":"0.0-4.0-0.23","subject_id":"5bb511c6689fc5000149c703","study_id":"6197b3f67c2b5cd3b6d9596a","session_id":"619beee9c0aee2f9df46b19a","condition":"full-information","relevant_dimensions":["pattern","legs"],"bee_group":{"antennae":"X","wings":"X","pattern":"S","legs":"M"},"action":"avoid","summary":"good-avoid","bonus":1.4000000000000012},{"rt":478.8999999985099,"stimulus":"\n                    <p><b>Action: <em>avoid</em></b></p>\n                    <p>This is the bee that you just saw.</p>\n                    <img src=\"bees-with-color/bee-B2SM.svg\" width=\"200\">\n                    <p><span class=\"greenText\">Good choice!</span>  This bee would have stung you.<br>Your bonus pay is unchanged, and remains at $0.46.</p>\n            ","response":0,"trial_type":"html-button-response","trial_index":54,"time_elapsed":227209,"internal_node_id":"0.0-4.0-1.23","subject_id":"5bb511c6689fc5000149c703","study_id":"6197b3f67c2b5cd3b6d9596a","session_id":"619beee9c0aee2f9df46b19a","condition":"full-information","relevant_dimensions":["pattern","legs"],"bee_group":{"antennae":"X","wings":"X","pattern":"S","legs":"M"},"bonus":1.4000000000000012},{"rt":702.3999999985099,"stimulus":"bees-with-color/bee-A2SM.svg","response":1,"trial_type":"image-button-response","trial_index":55,"time_elapsed":227913,"internal_node_id":"0.0-4.0-0.24","subject_id":"5bb511c6689fc5000149c703","study_id":"6197b3f67c2b5cd3b6d9596a","session_id":"619beee9c0aee2f9df46b19a","condition":"full-information","relevant_dimensions":["pattern","legs"],"bee_group":{"antennae":"X","wings":"X","pattern":"S","legs":"M"},"action":"avoid","summary":"good-avoid","bonus":1.4000000000000012},{"rt":438.69999999552965,"stimulus":"\n                    <p><b>Action: <em>avoid</em></b></p>\n                    <p>This is the bee that you just saw.</p>\n                    <img src=\"bees-with-color/bee-A2SM.svg\" width=\"200\">\n                    <p><span class=\"greenText\">Good choice!</span>  This bee would have stung you.<br>Your bonus pay is unchanged, and remains at $0.46.</p>\n            ","response":0,"trial_type":"html-button-response","trial_index":56,"time_elapsed":228353,"internal_node_id":"0.0-4.0-1.24","subject_id":"5bb511c6689fc5000149c703","study_id":"6197b3f67c2b5cd3b6d9596a","session_id":"619beee9c0aee2f9df46b19a","condition":"full-information","relevant_dimensions":["pattern","legs"],"bee_group":{"antennae":"X","wings":"X","pattern":"S","legs":"M"},"bonus":1.4000000000000012},{"rt":1102.8999999985099,"stimulus":"bees-with-color/bee-B2SF.svg","response":1,"trial_type":"image-button-response","trial_index":57,"time_elapsed":229457,"internal_node_id":"0.0-4.0-0.25","subject_id":"5bb511c6689fc5000149c703","study_id":"6197b3f67c2b5cd3b6d9596a","session_id":"619beee9c0aee2f9df46b19a","condition":"full-information","relevant_dimensions":["pattern","legs"],"bee_group":{"antennae":"X","wings":"X","pattern":"S","legs":"M"},"action":"avoid","summary":"bad-avoid","bonus":1.4000000000000012},{"rt":510.6000000014901,"stimulus":"\n                    <p><b>Action: <em>avoid</em></b></p>\n                    <p>This is the bee that you just saw.</p>\n                    <img src=\"bees-with-color/bee-B2SF.svg\" width=\"200\">\n                    <p><span class=\"redText\">Bad choice,</span> the bee was friendly.<br>Your bonus pay is unchanged, and remains at $0.46.</p>\n            ","response":0,"trial_type":"html-button-response","trial_index":58,"time_elapsed":229969,"internal_node_id":"0.0-4.0-1.25","subject_id":"5bb511c6689fc5000149c703","study_id":"6197b3f67c2b5cd3b6d9596a","session_id":"619beee9c0aee2f9df46b19a","condition":"full-information","relevant_dimensions":["pattern","legs"],"bee_group":{"antennae":"X","wings":"X","pattern":"S","legs":"M"},"bonus":1.4000000000000012},{"rt":1934.7999999970198,"stimulus":"bees-with-color/bee-A1SM.svg","response":1,"trial_type":"image-button-response","trial_index":59,"time_elapsed":231905,"internal_node_id":"0.0-4.0-0.26","subject_id":"5bb511c6689fc5000149c703","study_id":"6197b3f67c2b5cd3b6d9596a","session_id":"619beee9c0aee2f9df46b19a","condition":"full-information","relevant_dimensions":["pattern","legs"],"bee_group":{"antennae":"X","wings":"X","pattern":"S","legs":"M"},"action":"avoid","summary":"good-avoid","bonus":1.4000000000000012},{"rt":550.5,"stimulus":"\n                    <p><b>Action: <em>avoid</em></b></p>\n                    <p>This is the bee that you just saw.</p>\n                    <img src=\"bees-with-color/bee-A1SM.svg\" width=\"200\">\n                    <p><span class=\"greenText\">Good choice!</span>  This bee would have stung you.<br>Your bonus pay is unchanged, and remains at $0.46.</p>\n            ","response":0,"trial_type":"html-button-response","trial_index":60,"time_elapsed":232457,"internal_node_id":"0.0-4.0-1.26","subject_id":"5bb511c6689fc5000149c703","study_id":"6197b3f67c2b5cd3b6d9596a","session_id":"619beee9c0aee2f9df46b19a","condition":"full-information","relevant_dimensions":["pattern","legs"],"bee_group":{"antennae":"X","wings":"X","pattern":"S","legs":"M"},"bonus":1.4000000000000012},{"rt":966.8000000044703,"stimulus":"bees-with-color/bee-A2DM.svg","response":0,"trial_type":"image-button-response","trial_index":61,"time_elapsed":233426,"internal_node_id":"0.0-4.0-0.27","subject_id":"5bb511c6689fc5000149c703","study_id":"6197b3f67c2b5cd3b6d9596a","session_id":"619beee9c0aee2f9df46b19a","condition":"full-information","relevant_dimensions":["pattern","legs"],"bee_group":{"antennae":"X","wings":"X","pattern":"S","legs":"M"},"action":"harvest","summary":"good-harvest","bonus":1.4000000000000012},{"rt":774.7999999970198,"stimulus":"\n                    <p><b>Action: <em>harvest</em></b></p>\n                    <p>This is the bee that you just saw.</p>\n                    <img src=\"bees-with-color/bee-A2DM.svg\" width=\"200\">\n                    <p><span class=\"greenText\"><b>Successful harvest!</b></span><br>Your pay has increased by $0.02. Your bonus pay is now $0.48.</p>\n            ","response":0,"trial_type":"html-button-response","trial_index":62,"time_elapsed":234202,"internal_node_id":"0.0-4.0-1.27","subject_id":"5bb511c6689fc5000149c703","study_id":"6197b3f67c2b5cd3b6d9596a","session_id":"619beee9c0aee2f9df46b19a","condition":"full-information","relevant_dimensions":["pattern","legs"],"bee_group":{"antennae":"X","wings":"X","pattern":"S","legs":"M"},"bonus":1.4000000000000012},{"rt":910,"stimulus":"bees-with-color/bee-B2DF.svg","response":0,"trial_type":"image-button-response","trial_index":63,"time_elapsed":235113,"internal_node_id":"0.0-4.0-0.28","subject_id":"5bb511c6689fc5000149c703","study_id":"6197b3f67c2b5cd3b6d9596a","session_id":"619beee9c0aee2f9df46b19a","condition":"full-information","relevant_dimensions":["pattern","legs"],"bee_group":{"antennae":"X","wings":"X","pattern":"S","legs":"M"},"action":"harvest","summary":"good-harvest","bonus":1.4000000000000012},{"rt":454.8999999985099,"stimulus":"\n                    <p><b>Action: <em>harvest</em></b></p>\n                    <p>This is the bee that you just saw.</p>\n                    <img src=\"bees-with-color/bee-B2DF.svg\" width=\"200\">\n                    <p><span class=\"greenText\"><b>Successful harvest!</b></span><br>Your pay has increased by $0.02. Your bonus pay is now $0.50.</p>\n            ","response":0,"trial_type":"html-button-response","trial_index":64,"time_elapsed":235569,"internal_node_id":"0.0-4.0-1.28","subject_id":"5bb511c6689fc5000149c703","study_id":"6197b3f67c2b5cd3b6d9596a","session_id":"619beee9c0aee2f9df46b19a","condition":"full-information","relevant_dimensions":["pattern","legs"],"bee_group":{"antennae":"X","wings":"X","pattern":"S","legs":"M"},"bonus":1.4000000000000012},{"rt":1214.6000000014901,"stimulus":"bees-with-color/bee-A2SF.svg","response":0,"trial_type":"image-button-response","trial_index":65,"time_elapsed":236785,"internal_node_id":"0.0-4.0-0.29","subject_id":"5bb511c6689fc5000149c703","study_id":"6197b3f67c2b5cd3b6d9596a","session_id":"619beee9c0aee2f9df46b19a","condition":"full-information","relevant_dimensions":["pattern","legs"],"bee_group":{"antennae":"X","wings":"X","pattern":"S","legs":"M"},"action":"harvest","summary":"good-harvest","bonus":1.4000000000000012},{"rt":510.8999999985099,"stimulus":"\n                    <p><b>Action: <em>harvest</em></b></p>\n                    <p>This is the bee that you just saw.</p>\n                    <img src=\"bees-with-color/bee-A2SF.svg\" width=\"200\">\n                    <p><span class=\"greenText\"><b>Successful harvest!</b></span><br>Your pay has increased by $0.02. Your bonus pay is now $0.52.</p>\n            ","response":0,"trial_type":"html-button-response","trial_index":66,"time_elapsed":237297,"internal_node_id":"0.0-4.0-1.29","subject_id":"5bb511c6689fc5000149c703","study_id":"6197b3f67c2b5cd3b6d9596a","session_id":"619beee9c0aee2f9df46b19a","condition":"full-information","relevant_dimensions":["pattern","legs"],"bee_group":{"antennae":"X","wings":"X","pattern":"S","legs":"M"},"bonus":1.4000000000000012},{"rt":758.8999999985099,"stimulus":"bees-with-color/bee-B1DM.svg","response":0,"trial_type":"image-button-response","trial_index":67,"time_elapsed":238057,"internal_node_id":"0.0-4.0-0.30","subject_id":"5bb511c6689fc5000149c703","study_id":"6197b3f67c2b5cd3b6d9596a","session_id":"619beee9c0aee2f9df46b19a","condition":"full-information","relevant_dimensions":["pattern","legs"],"bee_group":{"antennae":"X","wings":"X","pattern":"S","legs":"M"},"action":"harvest","summary":"good-harvest","bonus":1.4000000000000012},{"rt":478.30000000447035,"stimulus":"\n                    <p><b>Action: <em>harvest</em></b></p>\n                    <p>This is the bee that you just saw.</p>\n                    <img src=\"bees-with-color/bee-B1DM.svg\" width=\"200\">\n                    <p><span class=\"greenText\"><b>Successful harvest!</b></span><br>Your pay has increased by $0.02. Your bonus pay is now $0.54.</p>\n            ","response":0,"trial_type":"html-button-response","trial_index":68,"time_elapsed":238537,"internal_node_id":"0.0-4.0-1.30","subject_id":"5bb511c6689fc5000149c703","study_id":"6197b3f67c2b5cd3b6d9596a","session_id":"619beee9c0aee2f9df46b19a","condition":"full-information","relevant_dimensions":["pattern","legs"],"bee_group":{"antennae":"X","wings":"X","pattern":"S","legs":"M"},"bonus":1.4000000000000012},{"rt":862.8999999985099,"stimulus":"bees-with-color/bee-B2DM.svg","response":0,"trial_type":"image-button-response","trial_index":69,"time_elapsed":239401,"internal_node_id":"0.0-4.0-0.31","subject_id":"5bb511c6689fc5000149c703","study_id":"6197b3f67c2b5cd3b6d9596a","session_id":"619beee9c0aee2f9df46b19a","condition":"full-information","relevant_dimensions":["pattern","legs"],"bee_group":{"antennae":"X","wings":"X","pattern":"S","legs":"M"},"action":"harvest","summary":"good-harvest","bonus":1.4000000000000012},{"rt":438.5,"stimulus":"\n                    <p><b>Action: <em>harvest</em></b></p>\n                    <p>This is the bee that you just saw.</p>\n                    <img src=\"bees-with-color/bee-B2DM.svg\" width=\"200\">\n                    <p><span class=\"greenText\"><b>Successful harvest!</b></span><br>Your pay has increased by $0.02. Your bonus pay is now $0.56.</p>\n            ","response":0,"trial_type":"html-button-response","trial_index":70,"time_elapsed":239841,"internal_node_id":"0.0-4.0-1.31","subject_id":"5bb511c6689fc5000149c703","study_id":"6197b3f67c2b5cd3b6d9596a","session_id":"619beee9c0aee2f9df46b19a","condition":"full-information","relevant_dimensions":["pattern","legs"],"bee_group":{"antennae":"X","wings":"X","pattern":"S","legs":"M"},"bonus":1.4000000000000012},{"rt":1246.8999999985099,"stimulus":"bees-with-color/bee-A2SM.svg","response":1,"trial_type":"image-button-response","trial_index":71,"time_elapsed":241089,"internal_node_id":"0.0-4.0-0.32","subject_id":"5bb511c6689fc5000149c703","study_id":"6197b3f67c2b5cd3b6d9596a","session_id":"619beee9c0aee2f9df46b19a","condition":"full-information","relevant_dimensions":["pattern","legs"],"bee_group":{"antennae":"X","wings":"X","pattern":"S","legs":"M"},"action":"avoid","summary":"good-avoid","bonus":1.4000000000000012},{"rt":558.6000000014901,"stimulus":"\n                    <p><b>Action: <em>avoid</em></b></p>\n                    <p>This is the bee that you just saw.</p>\n                    <img src=\"bees-with-color/bee-A2SM.svg\" width=\"200\">\n                    <p><span class=\"greenText\">Good choice!</span>  This bee would have stung you.<br>Your bonus pay is unchanged, and remains at $0.56.</p>\n            ","response":0,"trial_type":"html-button-response","trial_index":72,"time_elapsed":241649,"internal_node_id":"0.0-4.0-1.32","subject_id":"5bb511c6689fc5000149c703","study_id":"6197b3f67c2b5cd3b6d9596a","session_id":"619beee9c0aee2f9df46b19a","condition":"full-information","relevant_dimensions":["pattern","legs"],"bee_group":{"antennae":"X","wings":"X","pattern":"S","legs":"M"},"bonus":1.4000000000000012},{"rt":1526.3000000044703,"stimulus":"bees-with-color/bee-B1SM.svg","response":1,"trial_type":"image-button-response","trial_index":73,"time_elapsed":243177,"internal_node_id":"0.0-4.0-0.33","subject_id":"5bb511c6689fc5000149c703","study_id":"6197b3f67c2b5cd3b6d9596a","session_id":"619beee9c0aee2f9df46b19a","condition":"full-information","relevant_dimensions":["pattern","legs"],"bee_group":{"antennae":"X","wings":"X","pattern":"S","legs":"M"},"action":"avoid","summary":"good-avoid","bonus":1.4000000000000012},{"rt":518.6999999955297,"stimulus":"\n                    <p><b>Action: <em>avoid</em></b></p>\n                    <p>This is the bee that you just saw.</p>\n                    <img src=\"bees-with-color/bee-B1SM.svg\" width=\"200\">\n                    <p><span class=\"greenText\">Good choice!</span>  This bee would have stung you.<br>Your bonus pay is unchanged, and remains at $0.56.</p>\n            ","response":0,"trial_type":"html-button-response","trial_index":74,"time_elapsed":243697,"internal_node_id":"0.0-4.0-1.33","subject_id":"5bb511c6689fc5000149c703","study_id":"6197b3f67c2b5cd3b6d9596a","session_id":"619beee9c0aee2f9df46b19a","condition":"full-information","relevant_dimensions":["pattern","legs"],"bee_group":{"antennae":"X","wings":"X","pattern":"S","legs":"M"},"bonus":1.4000000000000012},{"rt":678.7999999970198,"stimulus":"bees-with-color/bee-B2DF.svg","response":0,"trial_type":"image-button-response","trial_index":75,"time_elapsed":244377,"internal_node_id":"0.0-4.0-0.34","subject_id":"5bb511c6689fc5000149c703","study_id":"6197b3f67c2b5cd3b6d9596a","session_id":"619beee9c0aee2f9df46b19a","condition":"full-information","relevant_dimensions":["pattern","legs"],"bee_group":{"antennae":"X","wings":"X","pattern":"S","legs":"M"},"action":"harvest","summary":"good-harvest","bonus":1.4000000000000012},{"rt":526.3999999985099,"stimulus":"\n                    <p><b>Action: <em>harvest</em></b></p>\n                    <p>This is the bee that you just saw.</p>\n                    <img src=\"bees-with-color/bee-B2DF.svg\" width=\"200\">\n                    <p><span class=\"greenText\"><b>Successful harvest!</b></span><br>Your pay has increased by $0.02. Your bonus pay is now $0.58.</p>\n            ","response":0,"trial_type":"html-button-response","trial_index":76,"time_elapsed":244905,"internal_node_id":"0.0-4.0-1.34","subject_id":"5bb511c6689fc5000149c703","study_id":"6197b3f67c2b5cd3b6d9596a","session_id":"619beee9c0aee2f9df46b19a","condition":"full-information","relevant_dimensions":["pattern","legs"],"bee_group":{"antennae":"X","wings":"X","pattern":"S","legs":"M"},"bonus":1.4000000000000012},{"rt":758.4000000059605,"stimulus":"bees-with-color/bee-A1DM.svg","response":0,"trial_type":"image-button-response","trial_index":77,"time_elapsed":245665,"internal_node_id":"0.0-4.0-0.35","subject_id":"5bb511c6689fc5000149c703","study_id":"6197b3f67c2b5cd3b6d9596a","session_id":"619beee9c0aee2f9df46b19a","condition":"full-information","relevant_dimensions":["pattern","legs"],"bee_group":{"antennae":"X","wings":"X","pattern":"S","legs":"M"},"action":"harvest","summary":"good-harvest","bonus":1.4000000000000012},{"rt":462.5,"stimulus":"\n                    <p><b>Action: <em>harvest</em></b></p>\n                    <p>This is the bee that you just saw.</p>\n                    <img src=\"bees-with-color/bee-A1DM.svg\" width=\"200\">\n                    <p><span class=\"greenText\"><b>Successful harvest!</b></span><br>Your pay has increased by $0.02. Your bonus pay is now $0.60.</p>\n            ","response":0,"trial_type":"html-button-response","trial_index":78,"time_elapsed":246130,"internal_node_id":"0.0-4.0-1.35","subject_id":"5bb511c6689fc5000149c703","study_id":"6197b3f67c2b5cd3b6d9596a","session_id":"619beee9c0aee2f9df46b19a","condition":"full-information","relevant_dimensions":["pattern","legs"],"bee_group":{"antennae":"X","wings":"X","pattern":"S","legs":"M"},"bonus":1.4000000000000012},{"rt":702.3000000044703,"stimulus":"bees-with-color/bee-A2DF.svg","response":0,"trial_type":"image-button-response","trial_index":79,"time_elapsed":246833,"internal_node_id":"0.0-4.0-0.36","subject_id":"5bb511c6689fc5000149c703","study_id":"6197b3f67c2b5cd3b6d9596a","session_id":"619beee9c0aee2f9df46b19a","condition":"full-information","relevant_dimensions":["pattern","legs"],"bee_group":{"antennae":"X","wings":"X","pattern":"S","legs":"M"},"action":"harvest","summary":"good-harvest","bonus":1.4000000000000012},{"rt":622.6000000014901,"stimulus":"\n                    <p><b>Action: <em>harvest</em></b></p>\n                    <p>This is the bee that you just saw.</p>\n                    <img src=\"bees-with-color/bee-A2DF.svg\" width=\"200\">\n                    <p><span class=\"greenText\"><b>Successful harvest!</b></span><br>Your pay has increased by $0.02. Your bonus pay is now $0.62.</p>\n            ","response":0,"trial_type":"html-button-response","trial_index":80,"time_elapsed":247457,"internal_node_id":"0.0-4.0-1.36","subject_id":"5bb511c6689fc5000149c703","study_id":"6197b3f67c2b5cd3b6d9596a","session_id":"619beee9c0aee2f9df46b19a","condition":"full-information","relevant_dimensions":["pattern","legs"],"bee_group":{"antennae":"X","wings":"X","pattern":"S","legs":"M"},"bonus":1.4000000000000012},{"rt":1622.5,"stimulus":"bees-with-color/bee-B2DM.svg","response":0,"trial_type":"image-button-response","trial_index":81,"time_elapsed":249081,"internal_node_id":"0.0-4.0-0.37","subject_id":"5bb511c6689fc5000149c703","study_id":"6197b3f67c2b5cd3b6d9596a","session_id":"619beee9c0aee2f9df46b19a","condition":"full-information","relevant_dimensions":["pattern","legs"],"bee_group":{"antennae":"X","wings":"X","pattern":"S","legs":"M"},"action":"harvest","summary":"good-harvest","bonus":1.4000000000000012},{"rt":542.6000000014901,"stimulus":"\n                    <p><b>Action: <em>harvest</em></b></p>\n                    <p>This is the bee that you just saw.</p>\n                    <img src=\"bees-with-color/bee-B2DM.svg\" width=\"200\">\n                    <p><span class=\"greenText\"><b>Successful harvest!</b></span><br>Your pay has increased by $0.02. Your bonus pay is now $0.64.</p>\n            ","response":0,"trial_type":"html-button-response","trial_index":82,"time_elapsed":249625,"internal_node_id":"0.0-4.0-1.37","subject_id":"5bb511c6689fc5000149c703","study_id":"6197b3f67c2b5cd3b6d9596a","session_id":"619beee9c0aee2f9df46b19a","condition":"full-information","relevant_dimensions":["pattern","legs"],"bee_group":{"antennae":"X","wings":"X","pattern":"S","legs":"M"},"bonus":1.4000000000000012},{"rt":670.6000000014901,"stimulus":"bees-with-color/bee-A1DF.svg","response":0,"trial_type":"image-button-response","trial_index":83,"time_elapsed":250298,"internal_node_id":"0.0-4.0-0.38","subject_id":"5bb511c6689fc5000149c703","study_id":"6197b3f67c2b5cd3b6d9596a","session_id":"619beee9c0aee2f9df46b19a","condition":"full-information","relevant_dimensions":["pattern","legs"],"bee_group":{"antennae":"X","wings":"X","pattern":"S","legs":"M"},"action":"harvest","summary":"good-harvest","bonus":1.4000000000000012},{"rt":518.2999999970198,"stimulus":"\n                    <p><b>Action: <em>harvest</em></b></p>\n                    <p>This is the bee that you just saw.</p>\n                    <img src=\"bees-with-color/bee-A1DF.svg\" width=\"200\">\n                    <p><span class=\"greenText\"><b>Successful harvest!</b></span><br>Your pay has increased by $0.02. Your bonus pay is now $0.66.</p>\n            ","response":0,"trial_type":"html-button-response","trial_index":84,"time_elapsed":250817,"internal_node_id":"0.0-4.0-1.38","subject_id":"5bb511c6689fc5000149c703","study_id":"6197b3f67c2b5cd3b6d9596a","session_id":"619beee9c0aee2f9df46b19a","condition":"full-information","relevant_dimensions":["pattern","legs"],"bee_group":{"antennae":"X","wings":"X","pattern":"S","legs":"M"},"bonus":1.4000000000000012},{"rt":1086.2000000029802,"stimulus":"bees-with-color/bee-A2DM.svg","response":0,"trial_type":"image-button-response","trial_index":85,"time_elapsed":251905,"internal_node_id":"0.0-4.0-0.39","subject_id":"5bb511c6689fc5000149c703","study_id":"6197b3f67c2b5cd3b6d9596a","session_id":"619beee9c0aee2f9df46b19a","condition":"full-information","relevant_dimensions":["pattern","legs"],"bee_group":{"antennae":"X","wings":"X","pattern":"S","legs":"M"},"action":"harvest","summary":"good-harvest","bonus":1.4000000000000012},{"rt":502.79999999701977,"stimulus":"\n                    <p><b>Action: <em>harvest</em></b></p>\n                    <p>This is the bee that you just saw.</p>\n                    <img src=\"bees-with-color/bee-A2DM.svg\" width=\"200\">\n                    <p><span class=\"greenText\"><b>Successful harvest!</b></span><br>Your pay has increased by $0.02. Your bonus pay is now $0.68.</p>\n            ","response":0,"trial_type":"html-button-response","trial_index":86,"time_elapsed":252409,"internal_node_id":"0.0-4.0-1.39","subject_id":"5bb511c6689fc5000149c703","study_id":"6197b3f67c2b5cd3b6d9596a","session_id":"619beee9c0aee2f9df46b19a","condition":"full-information","relevant_dimensions":["pattern","legs"],"bee_group":{"antennae":"X","wings":"X","pattern":"S","legs":"M"},"bonus":1.4000000000000012},{"rt":1390.8000000044703,"stimulus":"bees-with-color/bee-A2SF.svg","response":0,"trial_type":"image-button-response","trial_index":87,"time_elapsed":253802,"internal_node_id":"0.0-4.0-0.40","subject_id":"5bb511c6689fc5000149c703","study_id":"6197b3f67c2b5cd3b6d9596a","session_id":"619beee9c0aee2f9df46b19a","condition":"full-information","relevant_dimensions":["pattern","legs"],"bee_group":{"antennae":"X","wings":"X","pattern":"S","legs":"M"},"action":"harvest","summary":"good-harvest","bonus":1.4000000000000012},{"rt":406,"stimulus":"\n                    <p><b>Action: <em>harvest</em></b></p>\n                    <p>This is the bee that you just saw.</p>\n                    <img src=\"bees-with-color/bee-A2SF.svg\" width=\"200\">\n                    <p><span class=\"greenText\"><b>Successful harvest!</b></span><br>Your pay has increased by $0.02. Your bonus pay is now $0.70.</p>\n            ","response":0,"trial_type":"html-button-response","trial_index":88,"time_elapsed":254209,"internal_node_id":"0.0-4.0-1.40","subject_id":"5bb511c6689fc5000149c703","study_id":"6197b3f67c2b5cd3b6d9596a","session_id":"619beee9c0aee2f9df46b19a","condition":"full-information","relevant_dimensions":["pattern","legs"],"bee_group":{"antennae":"X","wings":"X","pattern":"S","legs":"M"},"bonus":1.4000000000000012},{"rt":910.5,"stimulus":"bees-with-color/bee-A1SM.svg","response":1,"trial_type":"image-button-response","trial_index":89,"time_elapsed":255121,"internal_node_id":"0.0-4.0-0.41","subject_id":"5bb511c6689fc5000149c703","study_id":"6197b3f67c2b5cd3b6d9596a","session_id":"619beee9c0aee2f9df46b19a","condition":"full-information","relevant_dimensions":["pattern","legs"],"bee_group":{"antennae":"X","wings":"X","pattern":"S","legs":"M"},"action":"avoid","summary":"good-avoid","bonus":1.4000000000000012},{"rt":494.3999999985099,"stimulus":"\n                    <p><b>Action: <em>avoid</em></b></p>\n                    <p>This is the bee that you just saw.</p>\n                    <img src=\"bees-with-color/bee-A1SM.svg\" width=\"200\">\n                    <p><span class=\"greenText\">Good choice!</span>  This bee would have stung you.<br>Your bonus pay is unchanged, and remains at $0.70.</p>\n            ","response":0,"trial_type":"html-button-response","trial_index":90,"time_elapsed":255617,"internal_node_id":"0.0-4.0-1.41","subject_id":"5bb511c6689fc5000149c703","study_id":"6197b3f67c2b5cd3b6d9596a","session_id":"619beee9c0aee2f9df46b19a","condition":"full-information","relevant_dimensions":["pattern","legs"],"bee_group":{"antennae":"X","wings":"X","pattern":"S","legs":"M"},"bonus":1.4000000000000012},{"rt":718.2999999970198,"stimulus":"bees-with-color/bee-B2SM.svg","response":1,"trial_type":"image-button-response","trial_index":91,"time_elapsed":256337,"internal_node_id":"0.0-4.0-0.42","subject_id":"5bb511c6689fc5000149c703","study_id":"6197b3f67c2b5cd3b6d9596a","session_id":"619beee9c0aee2f9df46b19a","condition":"full-information","relevant_dimensions":["pattern","legs"],"bee_group":{"antennae":"X","wings":"X","pattern":"S","legs":"M"},"action":"avoid","summary":"good-avoid","bonus":1.4000000000000012},{"rt":502.29999999701977,"stimulus":"\n                    <p><b>Action: <em>avoid</em></b></p>\n                    <p>This is the bee that you just saw.</p>\n                    <img src=\"bees-with-color/bee-B2SM.svg\" width=\"200\">\n                    <p><span class=\"greenText\">Good choice!</span>  This bee would have stung you.<br>Your bonus pay is unchanged, and remains at $0.70.</p>\n            ","response":0,"trial_type":"html-button-response","trial_index":92,"time_elapsed":256841,"internal_node_id":"0.0-4.0-1.42","subject_id":"5bb511c6689fc5000149c703","study_id":"6197b3f67c2b5cd3b6d9596a","session_id":"619beee9c0aee2f9df46b19a","condition":"full-information","relevant_dimensions":["pattern","legs"],"bee_group":{"antennae":"X","wings":"X","pattern":"S","legs":"M"},"bonus":1.4000000000000012},{"rt":742.3000000044703,"stimulus":"bees-with-color/bee-B1DM.svg","response":0,"trial_type":"image-button-response","trial_index":93,"time_elapsed":257585,"internal_node_id":"0.0-4.0-0.43","subject_id":"5bb511c6689fc5000149c703","study_id":"6197b3f67c2b5cd3b6d9596a","session_id":"619beee9c0aee2f9df46b19a","condition":"full-information","relevant_dimensions":["pattern","legs"],"bee_group":{"antennae":"X","wings":"X","pattern":"S","legs":"M"},"action":"harvest","summary":"good-harvest","bonus":1.4000000000000012},{"rt":478.80000000447035,"stimulus":"\n                    <p><b>Action: <em>harvest</em></b></p>\n                    <p>This is the bee that you just saw.</p>\n                    <img src=\"bees-with-color/bee-B1DM.svg\" width=\"200\">\n                    <p><span class=\"greenText\"><b>Successful harvest!</b></span><br>Your pay has increased by $0.02. Your bonus pay is now $0.72.</p>\n            ","response":0,"trial_type":"html-button-response","trial_index":94,"time_elapsed":258065,"internal_node_id":"0.0-4.0-1.43","subject_id":"5bb511c6689fc5000149c703","study_id":"6197b3f67c2b5cd3b6d9596a","session_id":"619beee9c0aee2f9df46b19a","condition":"full-information","relevant_dimensions":["pattern","legs"],"bee_group":{"antennae":"X","wings":"X","pattern":"S","legs":"M"},"bonus":1.4000000000000012},{"rt":430.8999999985099,"stimulus":"bees-with-color/bee-A1SF.svg","response":0,"trial_type":"image-button-response","trial_index":95,"time_elapsed":258497,"internal_node_id":"0.0-4.0-0.44","subject_id":"5bb511c6689fc5000149c703","study_id":"6197b3f67c2b5cd3b6d9596a","session_id":"619beee9c0aee2f9df46b19a","condition":"full-information","relevant_dimensions":["pattern","legs"],"bee_group":{"antennae":"X","wings":"X","pattern":"S","legs":"M"},"action":"harvest","summary":"good-harvest","bonus":1.4000000000000012},{"rt":830.7999999970198,"stimulus":"\n                    <p><b>Action: <em>harvest</em></b></p>\n                    <p>This is the bee that you just saw.</p>\n                    <img src=\"bees-with-color/bee-A1SF.svg\" width=\"200\">\n                    <p><span class=\"greenText\"><b>Successful harvest!</b></span><br>Your pay has increased by $0.02. Your bonus pay is now $0.74.</p>\n            ","response":0,"trial_type":"html-button-response","trial_index":96,"time_elapsed":259329,"internal_node_id":"0.0-4.0-1.44","subject_id":"5bb511c6689fc5000149c703","study_id":"6197b3f67c2b5cd3b6d9596a","session_id":"619beee9c0aee2f9df46b19a","condition":"full-information","relevant_dimensions":["pattern","legs"],"bee_group":{"antennae":"X","wings":"X","pattern":"S","legs":"M"},"bonus":1.4000000000000012},{"rt":934.7999999970198,"stimulus":"bees-with-color/bee-B1DF.svg","response":0,"trial_type":"image-button-response","trial_index":97,"time_elapsed":260265,"internal_node_id":"0.0-4.0-0.45","subject_id":"5bb511c6689fc5000149c703","study_id":"6197b3f67c2b5cd3b6d9596a","session_id":"619beee9c0aee2f9df46b19a","condition":"full-information","relevant_dimensions":["pattern","legs"],"bee_group":{"antennae":"X","wings":"X","pattern":"S","legs":"M"},"action":"harvest","summary":"good-harvest","bonus":1.4000000000000012},{"rt":470.6000000014901,"stimulus":"\n                    <p><b>Action: <em>harvest</em></b></p>\n                    <p>This is the bee that you just saw.</p>\n                    <img src=\"bees-with-color/bee-B1DF.svg\" width=\"200\">\n                    <p><span class=\"greenText\"><b>Successful harvest!</b></span><br>Your pay has increased by $0.02. Your bonus pay is now $0.76.</p>\n            ","response":0,"trial_type":"html-button-response","trial_index":98,"time_elapsed":260737,"internal_node_id":"0.0-4.0-1.45","subject_id":"5bb511c6689fc5000149c703","study_id":"6197b3f67c2b5cd3b6d9596a","session_id":"619beee9c0aee2f9df46b19a","condition":"full-information","relevant_dimensions":["pattern","legs"],"bee_group":{"antennae":"X","wings":"X","pattern":"S","legs":"M"},"bonus":1.4000000000000012},{"rt":2358.7999999970198,"stimulus":"bees-with-color/bee-B2SF.svg","response":0,"trial_type":"image-button-response","trial_index":99,"time_elapsed":263097,"internal_node_id":"0.0-4.0-0.46","subject_id":"5bb511c6689fc5000149c703","study_id":"6197b3f67c2b5cd3b6d9596a","session_id":"619beee9c0aee2f9df46b19a","condition":"full-information","relevant_dimensions":["pattern","legs"],"bee_group":{"antennae":"X","wings":"X","pattern":"S","legs":"M"},"action":"harvest","summary":"good-harvest","bonus":1.4000000000000012},{"rt":406.29999999701977,"stimulus":"\n                    <p><b>Action: <em>harvest</em></b></p>\n                    <p>This is the bee that you just saw.</p>\n                    <img src=\"bees-with-color/bee-B2SF.svg\" width=\"200\">\n                    <p><span class=\"greenText\"><b>Successful harvest!</b></span><br>Your pay has increased by $0.02. Your bonus pay is now $0.78.</p>\n            ","response":0,"trial_type":"html-button-response","trial_index":100,"time_elapsed":263505,"internal_node_id":"0.0-4.0-1.46","subject_id":"5bb511c6689fc5000149c703","study_id":"6197b3f67c2b5cd3b6d9596a","session_id":"619beee9c0aee2f9df46b19a","condition":"full-information","relevant_dimensions":["pattern","legs"],"bee_group":{"antennae":"X","wings":"X","pattern":"S","legs":"M"},"bonus":1.4000000000000012},{"rt":1094.3000000044703,"stimulus":"bees-with-color/bee-B1SF.svg","response":0,"trial_type":"image-button-response","trial_index":101,"time_elapsed":264601,"internal_node_id":"0.0-4.0-0.47","subject_id":"5bb511c6689fc5000149c703","study_id":"6197b3f67c2b5cd3b6d9596a","session_id":"619beee9c0aee2f9df46b19a","condition":"full-information","relevant_dimensions":["pattern","legs"],"bee_group":{"antennae":"X","wings":"X","pattern":"S","legs":"M"},"action":"harvest","summary":"good-harvest","bonus":1.4000000000000012},{"rt":446.6000000014901,"stimulus":"\n                    <p><b>Action: <em>harvest</em></b></p>\n                    <p>This is the bee that you just saw.</p>\n                    <img src=\"bees-with-color/bee-B1SF.svg\" width=\"200\">\n                    <p><span class=\"greenText\"><b>Successful harvest!</b></span><br>Your pay has increased by $0.02. Your bonus pay is now $0.80.</p>\n            ","response":0,"trial_type":"html-button-response","trial_index":102,"time_elapsed":265049,"internal_node_id":"0.0-4.0-1.47","subject_id":"5bb511c6689fc5000149c703","study_id":"6197b3f67c2b5cd3b6d9596a","session_id":"619beee9c0aee2f9df46b19a","condition":"full-information","relevant_dimensions":["pattern","legs"],"bee_group":{"antennae":"X","wings":"X","pattern":"S","legs":"M"},"bonus":1.4000000000000012},{"rt":1431.1000000014901,"stimulus":"bees-with-color/bee-B2SF.svg","response":0,"trial_type":"image-button-response","trial_index":103,"time_elapsed":266481,"internal_node_id":"0.0-4.0-0.48","subject_id":"5bb511c6689fc5000149c703","study_id":"6197b3f67c2b5cd3b6d9596a","session_id":"619beee9c0aee2f9df46b19a","condition":"full-information","relevant_dimensions":["pattern","legs"],"bee_group":{"antennae":"X","wings":"X","pattern":"S","legs":"M"},"action":"harvest","summary":"good-harvest","bonus":1.4000000000000012},{"rt":406.69999999552965,"stimulus":"\n                    <p><b>Action: <em>harvest</em></b></p>\n                    <p>This is the bee that you just saw.</p>\n                    <img src=\"bees-with-color/bee-B2SF.svg\" width=\"200\">\n                    <p><span class=\"greenText\"><b>Successful harvest!</b></span><br>Your pay has increased by $0.02. Your bonus pay is now $0.82.</p>\n            ","response":0,"trial_type":"html-button-response","trial_index":104,"time_elapsed":266889,"internal_node_id":"0.0-4.0-1.48","subject_id":"5bb511c6689fc5000149c703","study_id":"6197b3f67c2b5cd3b6d9596a","session_id":"619beee9c0aee2f9df46b19a","condition":"full-information","relevant_dimensions":["pattern","legs"],"bee_group":{"antennae":"X","wings":"X","pattern":"S","legs":"M"},"bonus":1.4000000000000012},{"rt":662.7999999970198,"stimulus":"bees-with-color/bee-B2DF.svg","response":0,"trial_type":"image-button-response","trial_index":105,"time_elapsed":267553,"internal_node_id":"0.0-4.0-0.49","subject_id":"5bb511c6689fc5000149c703","study_id":"6197b3f67c2b5cd3b6d9596a","session_id":"619beee9c0aee2f9df46b19a","condition":"full-information","relevant_dimensions":["pattern","legs"],"bee_group":{"antennae":"X","wings":"X","pattern":"S","legs":"M"},"action":"harvest","summary":"good-harvest","bonus":1.4000000000000012},{"rt":726.6000000014901,"stimulus":"\n                    <p><b>Action: <em>harvest</em></b></p>\n                    <p>This is the bee that you just saw.</p>\n                    <img src=\"bees-with-color/bee-B2DF.svg\" width=\"200\">\n                    <p><span class=\"greenText\"><b>Successful harvest!</b></span><br>Your pay has increased by $0.02. Your bonus pay is now $0.84.</p>\n            ","response":0,"trial_type":"html-button-response","trial_index":106,"time_elapsed":268281,"internal_node_id":"0.0-4.0-1.49","subject_id":"5bb511c6689fc5000149c703","study_id":"6197b3f67c2b5cd3b6d9596a","session_id":"619beee9c0aee2f9df46b19a","condition":"full-information","relevant_dimensions":["pattern","legs"],"bee_group":{"antennae":"X","wings":"X","pattern":"S","legs":"M"},"bonus":1.4000000000000012},{"rt":758.8999999985099,"stimulus":"bees-with-color/bee-A1DF.svg","response":0,"trial_type":"image-button-response","trial_index":107,"time_elapsed":269041,"internal_node_id":"0.0-4.0-0.50","subject_id":"5bb511c6689fc5000149c703","study_id":"6197b3f67c2b5cd3b6d9596a","session_id":"619beee9c0aee2f9df46b19a","condition":"full-information","relevant_dimensions":["pattern","legs"],"bee_group":{"antennae":"X","wings":"X","pattern":"S","legs":"M"},"action":"harvest","summary":"good-harvest","bonus":1.4000000000000012},{"rt":446.3999999985099,"stimulus":"\n                    <p><b>Action: <em>harvest</em></b></p>\n                    <p>This is the bee that you just saw.</p>\n                    <img src=\"bees-with-color/bee-A1DF.svg\" width=\"200\">\n                    <p><span class=\"greenText\"><b>Successful harvest!</b></span><br>Your pay has increased by $0.02. Your bonus pay is now $0.86.</p>\n            ","response":0,"trial_type":"html-button-response","trial_index":108,"time_elapsed":269489,"internal_node_id":"0.0-4.0-1.50","subject_id":"5bb511c6689fc5000149c703","study_id":"6197b3f67c2b5cd3b6d9596a","session_id":"619beee9c0aee2f9df46b19a","condition":"full-information","relevant_dimensions":["pattern","legs"],"bee_group":{"antennae":"X","wings":"X","pattern":"S","legs":"M"},"bonus":1.4000000000000012},{"rt":967.1000000014901,"stimulus":"bees-with-color/bee-A2SM.svg","response":1,"trial_type":"image-button-response","trial_index":109,"time_elapsed":270458,"internal_node_id":"0.0-4.0-0.51","subject_id":"5bb511c6689fc5000149c703","study_id":"6197b3f67c2b5cd3b6d9596a","session_id":"619beee9c0aee2f9df46b19a","condition":"full-information","relevant_dimensions":["pattern","legs"],"bee_group":{"antennae":"X","wings":"X","pattern":"S","legs":"M"},"action":"avoid","summary":"good-avoid","bonus":1.4000000000000012},{"rt":430.5,"stimulus":"\n                    <p><b>Action: <em>avoid</em></b></p>\n                    <p>This is the bee that you just saw.</p>\n                    <img src=\"bees-with-color/bee-A2SM.svg\" width=\"200\">\n                    <p><span class=\"greenText\">Good choice!</span>  This bee would have stung you.<br>Your bonus pay is unchanged, and remains at $0.86.</p>\n            ","response":0,"trial_type":"html-button-response","trial_index":110,"time_elapsed":270889,"internal_node_id":"0.0-4.0-1.51","subject_id":"5bb511c6689fc5000149c703","study_id":"6197b3f67c2b5cd3b6d9596a","session_id":"619beee9c0aee2f9df46b19a","condition":"full-information","relevant_dimensions":["pattern","legs"],"bee_group":{"antennae":"X","wings":"X","pattern":"S","legs":"M"},"bonus":1.4000000000000012},{"rt":990.6999999955297,"stimulus":"bees-with-color/bee-A1DM.svg","response":0,"trial_type":"image-button-response","trial_index":111,"time_elapsed":271881,"internal_node_id":"0.0-4.0-0.52","subject_id":"5bb511c6689fc5000149c703","study_id":"6197b3f67c2b5cd3b6d9596a","session_id":"619beee9c0aee2f9df46b19a","condition":"full-information","relevant_dimensions":["pattern","legs"],"bee_group":{"antennae":"X","wings":"X","pattern":"S","legs":"M"},"action":"harvest","summary":"good-harvest","bonus":1.4000000000000012},{"rt":382.3999999985099,"stimulus":"\n                    <p><b>Action: <em>harvest</em></b></p>\n                    <p>This is the bee that you just saw.</p>\n                    <img src=\"bees-with-color/bee-A1DM.svg\" width=\"200\">\n                    <p><span class=\"greenText\"><b>Successful harvest!</b></span><br>Your pay has increased by $0.02. Your bonus pay is now $0.88.</p>\n            ","response":0,"trial_type":"html-button-response","trial_index":112,"time_elapsed":272265,"internal_node_id":"0.0-4.0-1.52","subject_id":"5bb511c6689fc5000149c703","study_id":"6197b3f67c2b5cd3b6d9596a","session_id":"619beee9c0aee2f9df46b19a","condition":"full-information","relevant_dimensions":["pattern","legs"],"bee_group":{"antennae":"X","wings":"X","pattern":"S","legs":"M"},"bonus":1.4000000000000012},{"rt":1142.7000000029802,"stimulus":"bees-with-color/bee-B1SM.svg","response":1,"trial_type":"image-button-response","trial_index":113,"time_elapsed":273409,"internal_node_id":"0.0-4.0-0.53","subject_id":"5bb511c6689fc5000149c703","study_id":"6197b3f67c2b5cd3b6d9596a","session_id":"619beee9c0aee2f9df46b19a","condition":"full-information","relevant_dimensions":["pattern","legs"],"bee_group":{"antennae":"X","wings":"X","pattern":"S","legs":"M"},"action":"avoid","summary":"good-avoid","bonus":1.4000000000000012},{"rt":510.59999999403954,"stimulus":"\n                    <p><b>Action: <em>avoid</em></b></p>\n                    <p>This is the bee that you just saw.</p>\n                    <img src=\"bees-with-color/bee-B1SM.svg\" width=\"200\">\n                    <p><span class=\"greenText\">Good choice!</span>  This bee would have stung you.<br>Your bonus pay is unchanged, and remains at $0.88.</p>\n            ","response":0,"trial_type":"html-button-response","trial_index":114,"time_elapsed":273921,"internal_node_id":"0.0-4.0-1.53","subject_id":"5bb511c6689fc5000149c703","study_id":"6197b3f67c2b5cd3b6d9596a","session_id":"619beee9c0aee2f9df46b19a","condition":"full-information","relevant_dimensions":["pattern","legs"],"bee_group":{"antennae":"X","wings":"X","pattern":"S","legs":"M"},"bonus":1.4000000000000012},{"rt":702.6999999955297,"stimulus":"bees-with-color/bee-B1DF.svg","response":0,"trial_type":"image-button-response","trial_index":115,"time_elapsed":274625,"internal_node_id":"0.0-4.0-0.54","subject_id":"5bb511c6689fc5000149c703","study_id":"6197b3f67c2b5cd3b6d9596a","session_id":"619beee9c0aee2f9df46b19a","condition":"full-information","relevant_dimensions":["pattern","legs"],"bee_group":{"antennae":"X","wings":"X","pattern":"S","legs":"M"},"action":"harvest","summary":"good-harvest","bonus":1.4000000000000012},{"rt":446.5,"stimulus":"\n                    <p><b>Action: <em>harvest</em></b></p>\n                    <p>This is the bee that you just saw.</p>\n                    <img src=\"bees-with-color/bee-B1DF.svg\" width=\"200\">\n                    <p><span class=\"greenText\"><b>Successful harvest!</b></span><br>Your pay has increased by $0.02. Your bonus pay is now $0.90.</p>\n            ","response":0,"trial_type":"html-button-response","trial_index":116,"time_elapsed":275073,"internal_node_id":"0.0-4.0-1.54","subject_id":"5bb511c6689fc5000149c703","study_id":"6197b3f67c2b5cd3b6d9596a","session_id":"619beee9c0aee2f9df46b19a","condition":"full-information","relevant_dimensions":["pattern","legs"],"bee_group":{"antennae":"X","wings":"X","pattern":"S","legs":"M"},"bonus":1.4000000000000012},{"rt":1974.6999999955297,"stimulus":"bees-with-color/bee-A2DM.svg","response":0,"trial_type":"image-button-response","trial_index":117,"time_elapsed":277049,"internal_node_id":"0.0-4.0-0.55","subject_id":"5bb511c6689fc5000149c703","study_id":"6197b3f67c2b5cd3b6d9596a","session_id":"619beee9c0aee2f9df46b19a","condition":"full-information","relevant_dimensions":["pattern","legs"],"bee_group":{"antennae":"X","wings":"X","pattern":"S","legs":"M"},"action":"harvest","summary":"good-harvest","bonus":1.4000000000000012},{"rt":662.4000000059605,"stimulus":"\n                    <p><b>Action: <em>harvest</em></b></p>\n                    <p>This is the bee that you just saw.</p>\n                    <img src=\"bees-with-color/bee-A2DM.svg\" width=\"200\">\n                    <p><span class=\"greenText\"><b>Successful harvest!</b></span><br>Your pay has increased by $0.02. Your bonus pay is now $0.92.</p>\n            ","response":0,"trial_type":"html-button-response","trial_index":118,"time_elapsed":277713,"internal_node_id":"0.0-4.0-1.55","subject_id":"5bb511c6689fc5000149c703","study_id":"6197b3f67c2b5cd3b6d9596a","session_id":"619beee9c0aee2f9df46b19a","condition":"full-information","relevant_dimensions":["pattern","legs"],"bee_group":{"antennae":"X","wings":"X","pattern":"S","legs":"M"},"bonus":1.4000000000000012},{"rt":751,"stimulus":"bees-with-color/bee-A2DF.svg","response":0,"trial_type":"image-button-response","trial_index":119,"time_elapsed":278466,"internal_node_id":"0.0-4.0-0.56","subject_id":"5bb511c6689fc5000149c703","study_id":"6197b3f67c2b5cd3b6d9596a","session_id":"619beee9c0aee2f9df46b19a","condition":"full-information","relevant_dimensions":["pattern","legs"],"bee_group":{"antennae":"X","wings":"X","pattern":"S","legs":"M"},"action":"harvest","summary":"good-harvest","bonus":1.4000000000000012},{"rt":477.8999999985099,"stimulus":"\n                    <p><b>Action: <em>harvest</em></b></p>\n                    <p>This is the bee that you just saw.</p>\n                    <img src=\"bees-with-color/bee-A2DF.svg\" width=\"200\">\n                    <p><span class=\"greenText\"><b>Successful harvest!</b></span><br>Your pay has increased by $0.02. Your bonus pay is now $0.94.</p>\n            ","response":0,"trial_type":"html-button-response","trial_index":120,"time_elapsed":278945,"internal_node_id":"0.0-4.0-1.56","subject_id":"5bb511c6689fc5000149c703","study_id":"6197b3f67c2b5cd3b6d9596a","session_id":"619beee9c0aee2f9df46b19a","condition":"full-information","relevant_dimensions":["pattern","legs"],"bee_group":{"antennae":"X","wings":"X","pattern":"S","legs":"M"},"bonus":1.4000000000000012},{"rt":1391,"stimulus":"bees-with-color/bee-B2SM.svg","response":1,"trial_type":"image-button-response","trial_index":121,"time_elapsed":280337,"internal_node_id":"0.0-4.0-0.57","subject_id":"5bb511c6689fc5000149c703","study_id":"6197b3f67c2b5cd3b6d9596a","session_id":"619beee9c0aee2f9df46b19a","condition":"full-information","relevant_dimensions":["pattern","legs"],"bee_group":{"antennae":"X","wings":"X","pattern":"S","legs":"M"},"action":"avoid","summary":"good-avoid","bonus":1.4000000000000012},{"rt":622.3000000044703,"stimulus":"\n                    <p><b>Action: <em>avoid</em></b></p>\n                    <p>This is the bee that you just saw.</p>\n                    <img src=\"bees-with-color/bee-B2SM.svg\" width=\"200\">\n                    <p><span class=\"greenText\">Good choice!</span>  This bee would have stung you.<br>Your bonus pay is unchanged, and remains at $0.94.</p>\n            ","response":0,"trial_type":"html-button-response","trial_index":122,"time_elapsed":280961,"internal_node_id":"0.0-4.0-1.57","subject_id":"5bb511c6689fc5000149c703","study_id":"6197b3f67c2b5cd3b6d9596a","session_id":"619beee9c0aee2f9df46b19a","condition":"full-information","relevant_dimensions":["pattern","legs"],"bee_group":{"antennae":"X","wings":"X","pattern":"S","legs":"M"},"bonus":1.4000000000000012},{"rt":966.8000000044703,"stimulus":"bees-with-color/bee-A1SF.svg","response":0,"trial_type":"image-button-response","trial_index":123,"time_elapsed":281929,"internal_node_id":"0.0-4.0-0.58","subject_id":"5bb511c6689fc5000149c703","study_id":"6197b3f67c2b5cd3b6d9596a","session_id":"619beee9c0aee2f9df46b19a","condition":"full-information","relevant_dimensions":["pattern","legs"],"bee_group":{"antennae":"X","wings":"X","pattern":"S","legs":"M"},"action":"harvest","summary":"good-harvest","bonus":1.4000000000000012},{"rt":702.6999999955297,"stimulus":"\n                    <p><b>Action: <em>harvest</em></b></p>\n                    <p>This is the bee that you just saw.</p>\n                    <img src=\"bees-with-color/bee-A1SF.svg\" width=\"200\">\n                    <p><span class=\"greenText\"><b>Successful harvest!</b></span><br>Your pay has increased by $0.02. Your bonus pay is now $0.96.</p>\n            ","response":0,"trial_type":"html-button-response","trial_index":124,"time_elapsed":282633,"internal_node_id":"0.0-4.0-1.58","subject_id":"5bb511c6689fc5000149c703","study_id":"6197b3f67c2b5cd3b6d9596a","session_id":"619beee9c0aee2f9df46b19a","condition":"full-information","relevant_dimensions":["pattern","legs"],"bee_group":{"antennae":"X","wings":"X","pattern":"S","legs":"M"},"bonus":1.4000000000000012},{"rt":934.5999999940395,"stimulus":"bees-with-color/bee-A2SF.svg","response":0,"trial_type":"image-button-response","trial_index":125,"time_elapsed":283569,"internal_node_id":"0.0-4.0-0.59","subject_id":"5bb511c6689fc5000149c703","study_id":"6197b3f67c2b5cd3b6d9596a","session_id":"619beee9c0aee2f9df46b19a","condition":"full-information","relevant_dimensions":["pattern","legs"],"bee_group":{"antennae":"X","wings":"X","pattern":"S","legs":"M"},"action":"harvest","summary":"good-harvest","bonus":1.4000000000000012},{"rt":462.5,"stimulus":"\n                    <p><b>Action: <em>harvest</em></b></p>\n                    <p>This is the bee that you just saw.</p>\n                    <img src=\"bees-with-color/bee-A2SF.svg\" width=\"200\">\n                    <p><span class=\"greenText\"><b>Successful harvest!</b></span><br>Your pay has increased by $0.02. Your bonus pay is now $0.98.</p>\n            ","response":0,"trial_type":"html-button-response","trial_index":126,"time_elapsed":284033,"internal_node_id":"0.0-4.0-1.59","subject_id":"5bb511c6689fc5000149c703","study_id":"6197b3f67c2b5cd3b6d9596a","session_id":"619beee9c0aee2f9df46b19a","condition":"full-information","relevant_dimensions":["pattern","legs"],"bee_group":{"antennae":"X","wings":"X","pattern":"S","legs":"M"},"bonus":1.4000000000000012},{"rt":1798.5999999940395,"stimulus":"bees-with-color/bee-A1SM.svg","response":0,"trial_type":"image-button-response","trial_index":127,"time_elapsed":285833,"internal_node_id":"0.0-4.0-0.60","subject_id":"5bb511c6689fc5000149c703","study_id":"6197b3f67c2b5cd3b6d9596a","session_id":"619beee9c0aee2f9df46b19a","condition":"full-information","relevant_dimensions":["pattern","legs"],"bee_group":{"antennae":"X","wings":"X","pattern":"S","legs":"M"},"action":"harvest","summary":"bad-harvest","bonus":1.4000000000000012},{"rt":3622.4000000059605,"stimulus":"\n                    <p><b>Action: <em>harvest</em></b></p>\n                    <p>This is the bee that you just saw.</p>\n                    <img src=\"bees-with-color/bee-A1SM.svg\" width=\"200\">\n                    <p><span class=\"redText\">Bad choice, the bee was angry.</span><br><b>You have been stung!</b><br>Your pay has been decreased by $0.10. Your bonus pay is now $0.88.</p>\n            ","response":0,"trial_type":"html-button-response","trial_index":128,"time_elapsed":289457,"internal_node_id":"0.0-4.0-1.60","subject_id":"5bb511c6689fc5000149c703","study_id":"6197b3f67c2b5cd3b6d9596a","session_id":"619beee9c0aee2f9df46b19a","condition":"full-information","relevant_dimensions":["pattern","legs"],"bee_group":{"antennae":"X","wings":"X","pattern":"S","legs":"M"},"bonus":1.4000000000000012},{"rt":950.1000000014901,"stimulus":"bees-with-color/bee-B1SF.svg","response":0,"trial_type":"image-button-response","trial_index":129,"time_elapsed":290409,"internal_node_id":"0.0-4.0-0.61","subject_id":"5bb511c6689fc5000149c703","study_id":"6197b3f67c2b5cd3b6d9596a","session_id":"619beee9c0aee2f9df46b19a","condition":"full-information","relevant_dimensions":["pattern","legs"],"bee_group":{"antennae":"X","wings":"X","pattern":"S","legs":"M"},"action":"harvest","summary":"good-harvest","bonus":1.4000000000000012},{"rt":430.8999999985099,"stimulus":"\n                    <p><b>Action: <em>harvest</em></b></p>\n                    <p>This is the bee that you just saw.</p>\n                    <img src=\"bees-with-color/bee-B1SF.svg\" width=\"200\">\n                    <p><span class=\"greenText\"><b>Successful harvest!</b></span><br>Your pay has increased by $0.02. Your bonus pay is now $0.90.</p>\n            ","response":0,"trial_type":"html-button-response","trial_index":130,"time_elapsed":290842,"internal_node_id":"0.0-4.0-1.61","subject_id":"5bb511c6689fc5000149c703","study_id":"6197b3f67c2b5cd3b6d9596a","session_id":"619beee9c0aee2f9df46b19a","condition":"full-information","relevant_dimensions":["pattern","legs"],"bee_group":{"antennae":"X","wings":"X","pattern":"S","legs":"M"},"bonus":1.4000000000000012},{"rt":830.5,"stimulus":"bees-with-color/bee-B2DM.svg","response":0,"trial_type":"image-button-response","trial_index":131,"time_elapsed":291673,"internal_node_id":"0.0-4.0-0.62","subject_id":"5bb511c6689fc5000149c703","study_id":"6197b3f67c2b5cd3b6d9596a","session_id":"619beee9c0aee2f9df46b19a","condition":"full-information","relevant_dimensions":["pattern","legs"],"bee_group":{"antennae":"X","wings":"X","pattern":"S","legs":"M"},"action":"harvest","summary":"good-harvest","bonus":1.4000000000000012},{"rt":478.3999999985099,"stimulus":"\n                    <p><b>Action: <em>harvest</em></b></p>\n                    <p>This is the bee that you just saw.</p>\n                    <img src=\"bees-with-color/bee-B2DM.svg\" width=\"200\">\n                    <p><span class=\"greenText\"><b>Successful harvest!</b></span><br>Your pay has increased by $0.02. Your bonus pay is now $0.92.</p>\n            ","response":0,"trial_type":"html-button-response","trial_index":132,"time_elapsed":292153,"internal_node_id":"0.0-4.0-1.62","subject_id":"5bb511c6689fc5000149c703","study_id":"6197b3f67c2b5cd3b6d9596a","session_id":"619beee9c0aee2f9df46b19a","condition":"full-information","relevant_dimensions":["pattern","legs"],"bee_group":{"antennae":"X","wings":"X","pattern":"S","legs":"M"},"bonus":1.4000000000000012},{"rt":822.6000000014901,"stimulus":"bees-with-color/bee-B1DM.svg","response":0,"trial_type":"image-button-response","trial_index":133,"time_elapsed":292977,"internal_node_id":"0.0-4.0-0.63","subject_id":"5bb511c6689fc5000149c703","study_id":"6197b3f67c2b5cd3b6d9596a","session_id":"619beee9c0aee2f9df46b19a","condition":"full-information","relevant_dimensions":["pattern","legs"],"bee_group":{"antennae":"X","wings":"X","pattern":"S","legs":"M"},"action":"harvest","summary":"good-harvest","bonus":1.4000000000000012},{"rt":358.19999999552965,"stimulus":"\n                    <p><b>Action: <em>harvest</em></b></p>\n                    <p>This is the bee that you just saw.</p>\n                    <img src=\"bees-with-color/bee-B1DM.svg\" width=\"200\">\n                    <p><span class=\"greenText\"><b>Successful harvest!</b></span><br>Your pay has increased by $0.02. Your bonus pay is now $0.94.</p>\n            ","response":0,"trial_type":"html-button-response","trial_index":134,"time_elapsed":293337,"internal_node_id":"0.0-4.0-1.63","subject_id":"5bb511c6689fc5000149c703","study_id":"6197b3f67c2b5cd3b6d9596a","session_id":"619beee9c0aee2f9df46b19a","condition":"full-information","relevant_dimensions":["pattern","legs"],"bee_group":{"antennae":"X","wings":"X","pattern":"S","legs":"M"},"bonus":1.4000000000000012},{"rt":3685,"stimulus":"You have completed the first part of this experiment.<br><br>You will now begin a shorter second part, in which you will receive no feedback.<br>The same rules regarding bonus pay apply.<br><br>Press any key to begin.","response":" ","trial_type":"html-keyboard-response","trial_index":135,"time_elapsed":297025,"internal_node_id":"0.0-5.0","subject_id":"5bb511c6689fc5000149c703","study_id":"6197b3f67c2b5cd3b6d9596a","session_id":"619beee9c0aee2f9df46b19a","condition":"full-information","relevant_dimensions":["pattern","legs"],"bee_group":{"antennae":"X","wings":"X","pattern":"S","legs":"M"},"bonus":1.4000000000000012},{"rt":1619.3999999985099,"stimulus":"bees-with-color/bee-B2SM.svg","response":1,"trial_type":"image-button-response","trial_index":136,"time_elapsed":298657,"internal_node_id":"0.0-6.0-0.0","subject_id":"5bb511c6689fc5000149c703","study_id":"6197b3f67c2b5cd3b6d9596a","session_id":"619beee9c0aee2f9df46b19a","condition":"full-information","relevant_dimensions":["pattern","legs"],"bee_group":{"antennae":"X","wings":"X","pattern":"S","legs":"M"},"bonus":1.4000000000000012},{"rt":2021.6999999955297,"stimulus":"bees-with-color/bee-B2SF.svg","response":0,"trial_type":"image-button-response","trial_index":137,"time_elapsed":300681,"internal_node_id":"0.0-6.0-0.1","subject_id":"5bb511c6689fc5000149c703","study_id":"6197b3f67c2b5cd3b6d9596a","session_id":"619beee9c0aee2f9df46b19a","condition":"full-information","relevant_dimensions":["pattern","legs"],"bee_group":{"antennae":"X","wings":"X","pattern":"S","legs":"M"},"bonus":1.4000000000000012},{"rt":813.6999999955297,"stimulus":"bees-with-color/bee-B2DF.svg","response":0,"trial_type":"image-button-response","trial_index":138,"time_elapsed":301497,"internal_node_id":"0.0-6.0-0.2","subject_id":"5bb511c6689fc5000149c703","study_id":"6197b3f67c2b5cd3b6d9596a","session_id":"619beee9c0aee2f9df46b19a","condition":"full-information","relevant_dimensions":["pattern","legs"],"bee_group":{"antennae":"X","wings":"X","pattern":"S","legs":"M"},"bonus":1.4000000000000012},{"rt":910,"stimulus":"bees-with-color/bee-B2DM.svg","response":1,"trial_type":"image-button-response","trial_index":139,"time_elapsed":302409,"internal_node_id":"0.0-6.0-0.3","subject_id":"5bb511c6689fc5000149c703","study_id":"6197b3f67c2b5cd3b6d9596a","session_id":"619beee9c0aee2f9df46b19a","condition":"full-information","relevant_dimensions":["pattern","legs"],"bee_group":{"antennae":"X","wings":"X","pattern":"S","legs":"M"},"bonus":1.4000000000000012},{"rt":2766.10000000149,"stimulus":"bees-with-color/bee-A1SM.svg","response":1,"trial_type":"image-button-response","trial_index":140,"time_elapsed":305177,"internal_node_id":"0.0-6.0-0.4","subject_id":"5bb511c6689fc5000149c703","study_id":"6197b3f67c2b5cd3b6d9596a","session_id":"619beee9c0aee2f9df46b19a","condition":"full-information","relevant_dimensions":["pattern","legs"],"bee_group":{"antennae":"X","wings":"X","pattern":"S","legs":"M"},"bonus":1.4000000000000012},{"rt":781.6999999955297,"stimulus":"bees-with-color/bee-A1DF.svg","response":0,"trial_type":"image-button-response","trial_index":141,"time_elapsed":305961,"internal_node_id":"0.0-6.0-0.5","subject_id":"5bb511c6689fc5000149c703","study_id":"6197b3f67c2b5cd3b6d9596a","session_id":"619beee9c0aee2f9df46b19a","condition":"full-information","relevant_dimensions":["pattern","legs"],"bee_group":{"antennae":"X","wings":"X","pattern":"S","legs":"M"},"bonus":1.4000000000000012},{"rt":534.1999999955297,"stimulus":"bees-with-color/bee-B1DF.svg","response":0,"trial_type":"image-button-response","trial_index":142,"time_elapsed":306497,"internal_node_id":"0.0-6.0-0.6","subject_id":"5bb511c6689fc5000149c703","study_id":"6197b3f67c2b5cd3b6d9596a","session_id":"619beee9c0aee2f9df46b19a","condition":"full-information","relevant_dimensions":["pattern","legs"],"bee_group":{"antennae":"X","wings":"X","pattern":"S","legs":"M"},"bonus":1.4000000000000012},{"rt":1134.2000000029802,"stimulus":"bees-with-color/bee-A2DM.svg","response":0,"trial_type":"image-button-response","trial_index":143,"time_elapsed":307633,"internal_node_id":"0.0-6.0-0.7","subject_id":"5bb511c6689fc5000149c703","study_id":"6197b3f67c2b5cd3b6d9596a","session_id":"619beee9c0aee2f9df46b19a","condition":"full-information","relevant_dimensions":["pattern","legs"],"bee_group":{"antennae":"X","wings":"X","pattern":"S","legs":"M"},"bonus":1.4000000000000012},{"rt":1221.6000000014901,"stimulus":"bees-with-color/bee-A1SF.svg","response":0,"trial_type":"image-button-response","trial_index":144,"time_elapsed":308857,"internal_node_id":"0.0-6.0-0.8","subject_id":"5bb511c6689fc5000149c703","study_id":"6197b3f67c2b5cd3b6d9596a","session_id":"619beee9c0aee2f9df46b19a","condition":"full-information","relevant_dimensions":["pattern","legs"],"bee_group":{"antennae":"X","wings":"X","pattern":"S","legs":"M"},"bonus":1.4000000000000012},{"rt":1382.3999999985099,"stimulus":"bees-with-color/bee-B1SM.svg","response":1,"trial_type":"image-button-response","trial_index":145,"time_elapsed":310241,"internal_node_id":"0.0-6.0-0.9","subject_id":"5bb511c6689fc5000149c703","study_id":"6197b3f67c2b5cd3b6d9596a","session_id":"619beee9c0aee2f9df46b19a","condition":"full-information","relevant_dimensions":["pattern","legs"],"bee_group":{"antennae":"X","wings":"X","pattern":"S","legs":"M"},"bonus":1.4000000000000012},{"rt":902,"stimulus":"bees-with-color/bee-B1DM.svg","response":0,"trial_type":"image-button-response","trial_index":146,"time_elapsed":311145,"internal_node_id":"0.0-6.0-0.10","subject_id":"5bb511c6689fc5000149c703","study_id":"6197b3f67c2b5cd3b6d9596a","session_id":"619beee9c0aee2f9df46b19a","condition":"full-information","relevant_dimensions":["pattern","legs"],"bee_group":{"antennae":"X","wings":"X","pattern":"S","legs":"M"},"bonus":1.4000000000000012},{"rt":934.0999999940395,"stimulus":"bees-with-color/bee-A1DM.svg","response":0,"trial_type":"image-button-response","trial_index":147,"time_elapsed":312081,"internal_node_id":"0.0-6.0-0.11","subject_id":"5bb511c6689fc5000149c703","study_id":"6197b3f67c2b5cd3b6d9596a","session_id":"619beee9c0aee2f9df46b19a","condition":"full-information","relevant_dimensions":["pattern","legs"],"bee_group":{"antennae":"X","wings":"X","pattern":"S","legs":"M"},"bonus":1.4000000000000012},{"rt":573.8999999985099,"stimulus":"bees-with-color/bee-A2DF.svg","response":0,"trial_type":"image-button-response","trial_index":148,"time_elapsed":312657,"internal_node_id":"0.0-6.0-0.12","subject_id":"5bb511c6689fc5000149c703","study_id":"6197b3f67c2b5cd3b6d9596a","session_id":"619beee9c0aee2f9df46b19a","condition":"full-information","relevant_dimensions":["pattern","legs"],"bee_group":{"antennae":"X","wings":"X","pattern":"S","legs":"M"},"bonus":1.4000000000000012},{"rt":1214,"stimulus":"bees-with-color/bee-A2SM.svg","response":1,"trial_type":"image-button-response","trial_index":149,"time_elapsed":313873,"internal_node_id":"0.0-6.0-0.13","subject_id":"5bb511c6689fc5000149c703","study_id":"6197b3f67c2b5cd3b6d9596a","session_id":"619beee9c0aee2f9df46b19a","condition":"full-information","relevant_dimensions":["pattern","legs"],"bee_group":{"antennae":"X","wings":"X","pattern":"S","legs":"M"},"bonus":1.4000000000000012},{"rt":2261.89999999851,"stimulus":"bees-with-color/bee-A2SF.svg","response":0,"trial_type":"image-button-response","trial_index":150,"time_elapsed":316137,"internal_node_id":"0.0-6.0-0.14","subject_id":"5bb511c6689fc5000149c703","study_id":"6197b3f67c2b5cd3b6d9596a","session_id":"619beee9c0aee2f9df46b19a","condition":"full-information","relevant_dimensions":["pattern","legs"],"bee_group":{"antennae":"X","wings":"X","pattern":"S","legs":"M"},"bonus":1.4000000000000012},{"rt":1477.5,"stimulus":"bees-with-color/bee-B1SF.svg","response":0,"trial_type":"image-button-response","trial_index":151,"time_elapsed":317617,"internal_node_id":"0.0-6.0-0.15","subject_id":"5bb511c6689fc5000149c703","study_id":"6197b3f67c2b5cd3b6d9596a","session_id":"619beee9c0aee2f9df46b19a","condition":"full-information","relevant_dimensions":["pattern","legs"],"bee_group":{"antennae":"X","wings":"X","pattern":"S","legs":"M"},"bonus":1.4000000000000012},{"rt":583.1999999955297,"stimulus":"bees-with-color/bee-B1SF.svg","response":0,"trial_type":"image-button-response","trial_index":152,"time_elapsed":318201,"internal_node_id":"0.0-6.0-0.16","subject_id":"5bb511c6689fc5000149c703","study_id":"6197b3f67c2b5cd3b6d9596a","session_id":"619beee9c0aee2f9df46b19a","condition":"full-information","relevant_dimensions":["pattern","legs"],"bee_group":{"antennae":"X","wings":"X","pattern":"S","legs":"M"},"bonus":1.4000000000000012},{"rt":846.3000000044703,"stimulus":"bees-with-color/bee-B2SF.svg","response":0,"trial_type":"image-button-response","trial_index":153,"time_elapsed":319049,"internal_node_id":"0.0-6.0-0.17","subject_id":"5bb511c6689fc5000149c703","study_id":"6197b3f67c2b5cd3b6d9596a","session_id":"619beee9c0aee2f9df46b19a","condition":"full-information","relevant_dimensions":["pattern","legs"],"bee_group":{"antennae":"X","wings":"X","pattern":"S","legs":"M"},"bonus":1.4000000000000012},{"rt":1206.3999999985099,"stimulus":"bees-with-color/bee-B1SM.svg","response":1,"trial_type":"image-button-response","trial_index":154,"time_elapsed":320257,"internal_node_id":"0.0-6.0-0.18","subject_id":"5bb511c6689fc5000149c703","study_id":"6197b3f67c2b5cd3b6d9596a","session_id":"619beee9c0aee2f9df46b19a","condition":"full-information","relevant_dimensions":["pattern","legs"],"bee_group":{"antennae":"X","wings":"X","pattern":"S","legs":"M"},"bonus":1.4000000000000012},{"rt":734.5999999940395,"stimulus":"bees-with-color/bee-A2DF.svg","response":0,"trial_type":"image-button-response","trial_index":155,"time_elapsed":320993,"internal_node_id":"0.0-6.0-0.19","subject_id":"5bb511c6689fc5000149c703","study_id":"6197b3f67c2b5cd3b6d9596a","session_id":"619beee9c0aee2f9df46b19a","condition":"full-information","relevant_dimensions":["pattern","legs"],"bee_group":{"antennae":"X","wings":"X","pattern":"S","legs":"M"},"bonus":1.4000000000000012},{"rt":590.1000000014901,"stimulus":"bees-with-color/bee-A1DF.svg","response":0,"trial_type":"image-button-response","trial_index":156,"time_elapsed":321585,"internal_node_id":"0.0-6.0-0.20","subject_id":"5bb511c6689fc5000149c703","st