[{"success":true,"trial_type":"fullscreen","trial_index":0,"time_elapsed":33543,"internal_node_id":"0.0-0.0","subject_id":"605272be8568b6160f582f2e","study_id":"6197b3f67c2b5cd3b6d9596a","session_id":"6197b9f11bd38b1b227deb1d","condition":"contingent","relevant_dimensions":["pattern","legs"],"bee_group":{"antennae":"X","wings":"X","pattern":"S","legs":"M"},"bonus":1.1800000000000008},{"success":true,"timeout":false,"failed_images":[],"failed_audio":[],"failed_video":[],"trial_type":"preload","trial_index":1,"time_elapsed":35154,"internal_node_id":"0.0-1.0","subject_id":"605272be8568b6160f582f2e","study_id":"6197b3f67c2b5cd3b6d9596a","session_id":"6197b9f11bd38b1b227deb1d","condition":"contingent","relevant_dimensions":["pattern","legs"],"bee_group":{"antennae":"X","wings":"X","pattern":"S","legs":"M"},"bonus":1.1800000000000008},{"rt":1740.699999999255,"stimulus":"Welcome! Press any key to begin.","response":" ","trial_type":"html-keyboard-response","trial_index":2,"time_elapsed":36897,"internal_node_id":"0.0-2.0","subject_id":"605272be8568b6160f582f2e","study_id":"6197b3f67c2b5cd3b6d9596a","session_id":"6197b9f11bd38b1b227deb1d","condition":"contingent","relevant_dimensions":["pattern","legs"],"bee_group":{"antennae":"X","wings":"X","pattern":"S","legs":"M"},"bonus":1.1800000000000008},{"view_history":[{"page_index":0,"viewing_time":5303.60000000149},{"page_index":1,"viewing_time":11934.199999999255},{"page_index":2,"viewing_time":16183.599999999627},{"page_index":3,"viewing_time":16055},{"page_index":4,"viewing_time":6168.4000000003725},{"page_index":5,"viewing_time":13048.199999999255},{"page_index":6,"viewing_time":9639.60000000149},{"page_index":7,"viewing_time":3999.39999999851},{"page_index":6,"viewing_time":2739.5},{"page_index":7,"viewing_time":2969.300000000745},{"page_index":8,"viewing_time":3553.800000000745},{"page_index":9,"viewing_time":3965.199999999255},{"page_index":10,"viewing_time":2848.199999999255},{"page_index":11,"viewing_time":13911},{"page_index":12,"viewing_time":7135.700000001118},{"page_index":13,"viewing_time":1516.0999999996275},{"page_index":14,"viewing_time":3325.4000000003725}],"rt":124297.40000000037,"trial_type":"instructions","trial_index":3,"time_elapsed":161196,"internal_node_id":"0.0-3.0-0.0","subject_id":"605272be8568b6160f582f2e","study_id":"6197b3f67c2b5cd3b6d9596a","session_id":"6197b9f11bd38b1b227deb1d","condition":"contingent","relevant_dimensions":["pattern","legs"],"bee_group":{"antennae":"X","wings":"X","pattern":"S","legs":"M"},"bonus":1.1800000000000008},{"rt":12518.799999998882,"response":{"Q0":["Two or six legs","Stripes or spots on body","Single or double wings","Antennae or no antennae"]},"question_order":[0],"trial_type":"survey-multi-select","trial_index":4,"time_elapsed":173726,"internal_node_id":"0.0-3.0-1.0","subject_id":"605272be8568b6160f582f2e","study_id":"6197b3f67c2b5cd3b6d9596a","session_id":"6197b9f11bd38b1b227deb1d","condition":"contingent","relevant_dimensions":["pattern","legs"],"bee_group":{"antennae":"X","wings":"X","pattern":"S","legs":"M"},"correct":true,"bonus":1.1800000000000008},{"rt":22302.799999998882,"response":{"Q1":"No.","Q2":"Based on the four features of the bee.","Q3":"You do not learn if it was friendly or dangerous, and do not alter your bonus."},"question_order":[0,1,2],"trial_type":"survey-multi-choice","trial_index":5,"time_elapsed":196061,"internal_node_id":"0.0-3.0-2.0","subject_id":"605272be8568b6160f582f2e","study_id":"6197b3f67c2b5cd3b6d9596a","session_id":"6197b9f11bd38b1b227deb1d","condition":"contingent","relevant_dimensions":["pattern","legs"],"bee_group":{"antennae":"X","wings":"X","pattern":"S","legs":"M"},"correct":true,"bonus":1.1800000000000008},{"rt":4726.799999998882,"stimulus":"<p>Congrats, you got everything right<br>When you're ready, click the button below to continue to the experiment.</p>","response":0,"trial_type":"html-button-response","trial_index":6,"time_elapsed":200793,"internal_node_id":"0.0-3.0-3.0","subject_id":"605272be8568b6160f582f2e","study_id":"6197b3f67c2b5cd3b6d9596a","session_id":"6197b9f11bd38b1b227deb1d","condition":"contingent","relevant_dimensions":["pattern","legs"],"bee_group":{"antennae":"X","wings":"X","pattern":"S","legs":"M"},"bonus":1.1800000000000008},{"rt":4427.5999999996275,"stimulus":"bees-with-color/bee-B2SF.svg","response":0,"trial_type":"image-button-response","trial_index":7,"time_elapsed":205225,"internal_node_id":"0.0-4.0-0.0","subject_id":"605272be8568b6160f582f2e","study_id":"6197b3f67c2b5cd3b6d9596a","session_id":"6197b9f11bd38b1b227deb1d","condition":"contingent","relevant_dimensions":["pattern","legs"],"bee_group":{"antennae":"X","wings":"X","pattern":"S","legs":"M"},"action":"harvest","summary":"good-harvest","bonus":1.1800000000000008},{"rt":11530.400000000373,"stimulus":"\n                    <p><b>Action: <em>harvest</em></b></p>\n                    <p>This is the bee that you just saw.</p>\n                    <img src=\"bees-with-color/bee-B2SF.svg\" width=\"200\">\n                    <p><span class=\"greenText\"><b>Successful harvest!</b></span><br>Your pay has increased by $0.02. Your bonus pay is now $0.56.</p>\n            ","response":0,"trial_type":"html-button-response","trial_index":8,"time_elapsed":216795,"internal_node_id":"0.0-4.0-1.0","subject_id":"605272be8568b6160f582f2e","study_id":"6197b3f67c2b5cd3b6d9596a","session_id":"6197b9f11bd38b1b227deb1d","condition":"contingent","relevant_dimensions":["pattern","legs"],"bee_group":{"antennae":"X","wings":"X","pattern":"S","legs":"M"},"bonus":1.1800000000000008},{"rt":2412.2000000011176,"stimulus":"bees-with-color/bee-A1SM.svg","response":1,"trial_type":"image-button-response","trial_index":9,"time_elapsed":219213,"internal_node_id":"0.0-4.0-0.1","subject_id":"605272be8568b6160f582f2e","study_id":"6197b3f67c2b5cd3b6d9596a","session_id":"6197b9f11bd38b1b227deb1d","condition":"contingent","relevant_dimensions":["pattern","legs"],"bee_group":{"antennae":"X","wings":"X","pattern":"S","legs":"M"},"action":"avoid","summary":"good-avoid","bonus":1.1800000000000008},{"rt":4508.5,"stimulus":"\n                    <p><b>Action: <em>avoid</em></b></p>\n                    <p>This is the bee that you just saw.</p>\n                    <img src=\"bees-with-color/bee-A1SM.svg\" width=\"200\">\n                    <p><br>Your bonus pay is unchanged, and remains at $0.56.</p>\n            ","response":0,"trial_type":"html-button-response","trial_index":10,"time_elapsed":223730,"internal_node_id":"0.0-4.0-1.1","subject_id":"605272be8568b6160f582f2e","study_id":"6197b3f67c2b5cd3b6d9596a","session_id":"6197b9f11bd38b1b227deb1d","condition":"contingent","relevant_dimensions":["pattern","legs"],"bee_group":{"antennae":"X","wings":"X","pattern":"S","legs":"M"},"bonus":1.1800000000000008},{"rt":1805,"stimulus":"bees-with-color/bee-B1DF.svg","response":0,"trial_type":"image-button-response","trial_index":11,"time_elapsed":225544,"internal_node_id":"0.0-4.0-0.2","subject_id":"605272be8568b6160f582f2e","study_id":"6197b3f67c2b5cd3b6d9596a","session_id":"6197b9f11bd38b1b227deb1d","condition":"contingent","relevant_dimensions":["pattern","legs"],"bee_group":{"antennae":"X","wings":"X","pattern":"S","legs":"M"},"action":"harvest","summary":"good-harvest","bonus":1.1800000000000008},{"rt":6991.4000000003725,"stimulus":"\n                    <p><b>Action: <em>harvest</em></b></p>\n                    <p>This is the bee that you just saw.</p>\n                    <img src=\"bees-with-color/bee-B1DF.svg\" width=\"200\">\n                    <p><span class=\"greenText\"><b>Successful harvest!</b></span><br>Your pay has increased by $0.02. Your bonus pay is now $0.58.</p>\n            ","response":0,"trial_type":"html-button-response","trial_index":12,"time_elapsed":232541,"internal_node_id":"0.0-4.0-1.2","subject_id":"605272be8568b6160f582f2e","study_id":"6197b3f67c2b5cd3b6d9596a","session_id":"6197b9f11bd38b1b227deb1d","condition":"contingent","relevant_dimensions":["pattern","legs"],"bee_group":{"antennae":"X","wings":"X","pattern":"S","legs":"M"},"bonus":1.1800000000000008},{"rt":1834.5,"stimulus":"bees-with-color/bee-B2SM.svg","response":0,"trial_type":"image-button-response","trial_index":13,"time_elapsed":234382,"internal_node_id":"0.0-4.0-0.3","subject_id":"605272be8568b6160f582f2e","study_id":"6197b3f67c2b5cd3b6d9596a","session_id":"6197b9f11bd38b1b227deb1d","condition":"contingent","relevant_dimensions":["pattern","legs"],"bee_group":{"antennae":"X","wings":"X","pattern":"S","legs":"M"},"action":"harvest","summary":"bad-harvest","bonus":1.1800000000000008},{"rt":5714.0999999996275,"stimulus":"\n                    <p><b>Action: <em>harvest</em></b></p>\n                    <p>This is the bee that you just saw.</p>\n                    <img src=\"bees-with-color/bee-B2SM.svg\" width=\"200\">\n                    <p><span class=\"redText\">Bad choice, the bee was angry.</span><br><b>You have been stung!</b><br>Your pay has been decreased by $0.10. Your bonus pay is now $0.48.</p>\n            ","response":0,"trial_type":"html-button-response","trial_index":14,"time_elapsed":240099,"internal_node_id":"0.0-4.0-1.3","subject_id":"605272be8568b6160f582f2e","study_id":"6197b3f67c2b5cd3b6d9596a","session_id":"6197b9f11bd38b1b227deb1d","condition":"contingent","relevant_dimensions":["pattern","legs"],"bee_group":{"antennae":"X","wings":"X","pattern":"S","legs":"M"},"bonus":1.1800000000000008},{"rt":4328.0999999996275,"stimulus":"bees-with-color/bee-A1SF.svg","response":1,"trial_type":"image-button-response","trial_index":15,"time_elapsed":244432,"internal_node_id":"0.0-4.0-0.4","subject_id":"605272be8568b6160f582f2e","study_id":"6197b3f67c2b5cd3b6d9596a","session_id":"6197b9f11bd38b1b227deb1d","condition":"contingent","relevant_dimensions":["pattern","legs"],"bee_group":{"antennae":"X","wings":"X","pattern":"S","legs":"M"},"action":"avoid","summary":"bad-avoid","bonus":1.1800000000000008},{"rt":1169.800000000745,"stimulus":"\n                    <p><b>Action: <em>avoid</em></b></p>\n                    <p>This is the bee that you just saw.</p>\n                    <img src=\"bees-with-color/bee-A1SF.svg\" width=\"200\">\n                    <p><br>Your bonus pay is unchanged, and remains at $0.48.</p>\n            ","response":0,"trial_type":"html-button-response","trial_index":16,"time_elapsed":245605,"internal_node_id":"0.0-4.0-1.4","subject_id":"605272be8568b6160f582f2e","study_id":"6197b3f67c2b5cd3b6d9596a","session_id":"6197b9f11bd38b1b227deb1d","condition":"contingent","relevant_dimensions":["pattern","legs"],"bee_group":{"antennae":"X","wings":"X","pattern":"S","legs":"M"},"bonus":1.1800000000000008},{"rt":1839.0999999996275,"stimulus":"bees-with-color/bee-B1SF.svg","response":1,"trial_type":"image-button-response","trial_index":17,"time_elapsed":247449,"internal_node_id":"0.0-4.0-0.5","subject_id":"605272be8568b6160f582f2e","study_id":"6197b3f67c2b5cd3b6d9596a","session_id":"6197b9f11bd38b1b227deb1d","condition":"contingent","relevant_dimensions":["pattern","legs"],"bee_group":{"antennae":"X","wings":"X","pattern":"S","legs":"M"},"action":"avoid","summary":"bad-avoid","bonus":1.1800000000000008},{"rt":1688.7000000011176,"stimulus":"\n                    <p><b>Action: <em>avoid</em></b></p>\n                    <p>This is the bee that you just saw.</p>\n                    <img src=\"bees-with-color/bee-B1SF.svg\" width=\"200\">\n                    <p><br>Your bonus pay is unchanged, and remains at $0.48.</p>\n            ","response":0,"trial_type":"html-button-response","trial_index":18,"time_elapsed":249139,"internal_node_id":"0.0-4.0-1.5","subject_id":"605272be8568b6160f582f2e","study_id":"6197b3f67c2b5cd3b6d9596a","session_id":"6197b9f11bd38b1b227deb1d","condition":"contingent","relevant_dimensions":["pattern","legs"],"bee_group":{"antennae":"X","wings":"X","pattern":"S","legs":"M"},"bonus":1.1800000000000008},{"rt":3353.300000000745,"stimulus":"bees-with-color/bee-A2DM.svg","response":1,"trial_type":"image-button-response","trial_index":19,"time_elapsed":252496,"internal_node_id":"0.0-4.0-0.6","subject_id":"605272be8568b6160f582f2e","study_id":"6197b3f67c2b5cd3b6d9596a","session_id":"6197b9f11bd38b1b227deb1d","condition":"contingent","relevant_dimensions":["pattern","legs"],"bee_group":{"antennae":"X","wings":"X","pattern":"S","legs":"M"},"action":"avoid","summary":"bad-avoid","bonus":1.1800000000000008},{"rt":904.4000000003725,"stimulus":"\n                    <p><b>Action: <em>avoid</em></b></p>\n                    <p>This is the bee that you just saw.</p>\n                    <img src=\"bees-with-color/bee-A2DM.svg\" width=\"200\">\n                    <p><br>Your bonus pay is unchanged, and remains at $0.48.</p>\n            ","response":0,"trial_type":"html-button-response","trial_index":20,"time_elapsed":253403,"internal_node_id":"0.0-4.0-1.6","subject_id":"605272be8568b6160f582f2e","study_id":"6197b3f67c2b5cd3b6d9596a","session_id":"6197b9f11bd38b1b227deb1d","condition":"contingent","relevant_dimensions":["pattern","legs"],"bee_group":{"antennae":"X","wings":"X","pattern":"S","legs":"M"},"bonus":1.1800000000000008},{"rt":1991.7000000011176,"stimulus":"bees-with-color/bee-B2DM.svg","response":1,"trial_type":"image-button-response","trial_index":21,"time_elapsed":255399,"internal_node_id":"0.0-4.0-0.7","subject_id":"605272be8568b6160f582f2e","study_id":"6197b3f67c2b5cd3b6d9596a","session_id":"6197b9f11bd38b1b227deb1d","condition":"contingent","relevant_dimensions":["pattern","legs"],"bee_group":{"antennae":"X","wings":"X","pattern":"S","legs":"M"},"action":"avoid","summary":"bad-avoid","bonus":1.1800000000000008},{"rt":1135.7999999988824,"stimulus":"\n                    <p><b>Action: <em>avoid</em></b></p>\n                    <p>This is the bee that you just saw.</p>\n                    <img src=\"bees-with-color/bee-B2DM.svg\" width=\"200\">\n                    <p><br>Your bonus pay is unchanged, and remains at $0.48.</p>\n            ","response":0,"trial_type":"html-button-response","trial_index":22,"time_elapsed":256538,"internal_node_id":"0.0-4.0-1.7","subject_id":"605272be8568b6160f582f2e","study_id":"6197b3f67c2b5cd3b6d9596a","session_id":"6197b9f11bd38b1b227deb1d","condition":"contingent","relevant_dimensions":["pattern","legs"],"bee_group":{"antennae":"X","wings":"X","pattern":"S","legs":"M"},"bonus":1.1800000000000008},{"rt":1365.9000000003725,"stimulus":"bees-with-color/bee-B1DM.svg","response":1,"trial_type":"image-button-response","trial_index":23,"time_elapsed":257909,"internal_node_id":"0.0-4.0-0.8","subject_id":"605272be8568b6160f582f2e","study_id":"6197b3f67c2b5cd3b6d9596a","session_id":"6197b9f11bd38b1b227deb1d","condition":"contingent","relevant_dimensions":["pattern","legs"],"bee_group":{"antennae":"X","wings":"X","pattern":"S","legs":"M"},"action":"avoid","summary":"bad-avoid","bonus":1.1800000000000008},{"rt":916.3000000007451,"stimulus":"\n                    <p><b>Action: <em>avoid</em></b></p>\n                    <p>This is the bee that you just saw.</p>\n                    <img src=\"bees-with-color/bee-B1DM.svg\" width=\"200\">\n                    <p><br>Your bonus pay is unchanged, and remains at $0.48.</p>\n            ","response":0,"trial_type":"html-button-response","trial_index":24,"time_elapsed":258829,"internal_node_id":"0.0-4.0-1.8","subject_id":"605272be8568b6160f582f2e","study_id":"6197b3f67c2b5cd3b6d9596a","session_id":"6197b9f11bd38b1b227deb1d","condition":"contingent","relevant_dimensions":["pattern","legs"],"bee_group":{"antennae":"X","wings":"X","pattern":"S","legs":"M"},"bonus":1.1800000000000008},{"rt":1774.9000000003725,"stimulus":"bees-with-color/bee-A1DM.svg","response":1,"trial_type":"image-button-response","trial_index":25,"time_elapsed":260609,"internal_node_id":"0.0-4.0-0.9","subject_id":"605272be8568b6160f582f2e","study_id":"6197b3f67c2b5cd3b6d9596a","session_id":"6197b9f11bd38b1b227deb1d","condition":"contingent","relevant_dimensions":["pattern","legs"],"bee_group":{"antennae":"X","wings":"X","pattern":"S","legs":"M"},"action":"avoid","summary":"bad-avoid","bonus":1.1800000000000008},{"rt":1368.5999999996275,"stimulus":"\n                    <p><b>Action: <em>avoid</em></b></p>\n                    <p>This is the bee that you just saw.</p>\n                    <img src=\"bees-with-color/bee-A1DM.svg\" width=\"200\">\n                    <p><br>Your bonus pay is unchanged, and remains at $0.48.</p>\n            ","response":0,"trial_type":"html-button-response","trial_index":26,"time_elapsed":261983,"internal_node_id":"0.0-4.0-1.9","subject_id":"605272be8568b6160f582f2e","study_id":"6197b3f67c2b5cd3b6d9596a","session_id":"6197b9f11bd38b1b227deb1d","condition":"contingent","relevant_dimensions":["pattern","legs"],"bee_group":{"antennae":"X","wings":"X","pattern":"S","legs":"M"},"bonus":1.1800000000000008},{"rt":3420.300000000745,"stimulus":"bees-with-color/bee-A2SF.svg","response":1,"trial_type":"image-button-response","trial_index":27,"time_elapsed":265406,"internal_node_id":"0.0-4.0-0.10","subject_id":"605272be8568b6160f582f2e","study_id":"6197b3f67c2b5cd3b6d9596a","session_id":"6197b9f11bd38b1b227deb1d","condition":"contingent","relevant_dimensions":["pattern","legs"],"bee_group":{"antennae":"X","wings":"X","pattern":"S","legs":"M"},"action":"avoid","summary":"bad-avoid","bonus":1.1800000000000008},{"rt":814.0999999996275,"stimulus":"\n                    <p><b>Action: <em>avoid</em></b></p>\n                    <p>This is the bee that you just saw.</p>\n                    <img src=\"bees-with-color/bee-A2SF.svg\" width=\"200\">\n                    <p><br>Your bonus pay is unchanged, and remains at $0.48.</p>\n            ","response":0,"trial_type":"html-button-response","trial_index":28,"time_elapsed":266223,"internal_node_id":"0.0-4.0-1.10","subject_id":"605272be8568b6160f582f2e","study_id":"6197b3f67c2b5cd3b6d9596a","session_id":"6197b9f11bd38b1b227deb1d","condition":"contingent","relevant_dimensions":["pattern","legs"],"bee_group":{"antennae":"X","wings":"X","pattern":"S","legs":"M"},"bonus":1.1800000000000008},{"rt":1817.6000000014901,"stimulus":"bees-with-color/bee-B2DF.svg","response":0,"trial_type":"image-button-response","trial_index":29,"time_elapsed":268044,"internal_node_id":"0.0-4.0-0.11","subject_id":"605272be8568b6160f582f2e","study_id":"6197b3f67c2b5cd3b6d9596a","session_id":"6197b9f11bd38b1b227deb1d","condition":"contingent","relevant_dimensions":["pattern","legs"],"bee_group":{"antennae":"X","wings":"X","pattern":"S","legs":"M"},"action":"harvest","summary":"good-harvest","bonus":1.1800000000000008},{"rt":1136.0999999996275,"stimulus":"\n                    <p><b>Action: <em>harvest</em></b></p>\n                    <p>This is the bee that you just saw.</p>\n                    <img src=\"bees-with-color/bee-B2DF.svg\" width=\"200\">\n                    <p><span class=\"greenText\"><b>Successful harvest!</b></span><br>Your pay has increased by $0.02. Your bonus pay is now $0.50.</p>\n            ","response":0,"trial_type":"html-button-response","trial_index":30,"time_elapsed":269185,"internal_node_id":"0.0-4.0-1.11","subject_id":"605272be8568b6160f582f2e","study_id":"6197b3f67c2b5cd3b6d9596a","session_id":"6197b9f11bd38b1b227deb1d","condition":"contingent","relevant_dimensions":["pattern","legs"],"bee_group":{"antennae":"X","wings":"X","pattern":"S","legs":"M"},"bonus":1.1800000000000008},{"rt":1852.8999999985099,"stimulus":"bees-with-color/bee-A2SM.svg","response":0,"trial_type":"image-button-response","trial_index":31,"time_elapsed":271045,"internal_node_id":"0.0-4.0-0.12","subject_id":"605272be8568b6160f582f2e","study_id":"6197b3f67c2b5cd3b6d9596a","session_id":"6197b9f11bd38b1b227deb1d","condition":"contingent","relevant_dimensions":["pattern","legs"],"bee_group":{"antennae":"X","wings":"X","pattern":"S","legs":"M"},"action":"harvest","summary":"bad-harvest","bonus":1.1800000000000008},{"rt":1181.5999999996275,"stimulus":"\n                    <p><b>Action: <em>harvest</em></b></p>\n                    <p>This is the bee that you just saw.</p>\n                    <img src=\"bees-with-color/bee-A2SM.svg\" width=\"200\">\n                    <p><span class=\"redText\">Bad choice, the bee was angry.</span><br><b>You have been stung!</b><br>Your pay has been decreased by $0.10. Your bonus pay is now $0.40.</p>\n            ","response":0,"trial_type":"html-button-response","trial_index":32,"time_elapsed":272231,"internal_node_id":"0.0-4.0-1.12","subject_id":"605272be8568b6160f582f2e","study_id":"6197b3f67c2b5cd3b6d9596a","session_id":"6197b9f11bd38b1b227deb1d","condition":"contingent","relevant_dimensions":["pattern","legs"],"bee_group":{"antennae":"X","wings":"X","pattern":"S","legs":"M"},"bonus":1.1800000000000008},{"rt":2871.5,"stimulus":"bees-with-color/bee-A1DF.svg","response":1,"trial_type":"image-button-response","trial_index":33,"time_elapsed":275109,"internal_node_id":"0.0-4.0-0.13","subject_id":"605272be8568b6160f582f2e","study_id":"6197b3f67c2b5cd3b6d9596a","session_id":"6197b9f11bd38b1b227deb1d","condition":"contingent","relevant_dimensions":["pattern","legs"],"bee_group":{"antennae":"X","wings":"X","pattern":"S","legs":"M"},"action":"avoid","summary":"bad-avoid","bonus":1.1800000000000008},{"rt":823.9000000003725,"stimulus":"\n                    <p><b>Action: <em>avoid</em></b></p>\n                    <p>This is the bee that you just saw.</p>\n                    <img src=\"bees-with-color/bee-A1DF.svg\" width=\"200\">\n                    <p><br>Your bonus pay is unchanged, and remains at $0.40.</p>\n            ","response":0,"trial_type":"html-button-response","trial_index":34,"time_elapsed":275937,"internal_node_id":"0.0-4.0-1.13","subject_id":"605272be8568b6160f582f2e","study_id":"6197b3f67c2b5cd3b6d9596a","session_id":"6197b9f11bd38b1b227deb1d","condition":"contingent","relevant_dimensions":["pattern","legs"],"bee_group":{"antennae":"X","wings":"X","pattern":"S","legs":"M"},"bonus":1.1800000000000008},{"rt":1011.9000000003725,"stimulus":"bees-with-color/bee-A2DF.svg","response":1,"trial_type":"image-button-response","trial_index":35,"time_elapsed":276952,"internal_node_id":"0.0-4.0-0.14","subject_id":"605272be8568b6160f582f2e","study_id":"6197b3f67c2b5cd3b6d9596a","session_id":"6197b9f11bd38b1b227deb1d","condition":"contingent","relevant_dimensions":["pattern","legs"],"bee_group":{"antennae":"X","wings":"X","pattern":"S","legs":"M"},"action":"avoid","summary":"bad-avoid","bonus":1.1800000000000008},{"rt":795,"stimulus":"\n                    <p><b>Action: <em>avoid</em></b></p>\n                    <p>This is the bee that you just saw.</p>\n                    <img src=\"bees-with-color/bee-A2DF.svg\" width=\"200\">\n                    <p><br>Your bonus pay is unchanged, and remains at $0.40.</p>\n            ","response":0,"trial_type":"html-button-response","trial_index":36,"time_elapsed":277750,"internal_node_id":"0.0-4.0-1.14","subject_id":"605272be8568b6160f582f2e","study_id":"6197b3f67c2b5cd3b6d9596a","session_id":"6197b9f11bd38b1b227deb1d","condition":"contingent","relevant_dimensions":["pattern","legs"],"bee_group":{"antennae":"X","wings":"X","pattern":"S","legs":"M"},"bonus":1.1800000000000008},{"rt":1335.5,"stimulus":"bees-with-color/bee-B1SM.svg","response":1,"trial_type":"image-button-response","trial_index":37,"time_elapsed":279089,"internal_node_id":"0.0-4.0-0.15","subject_id":"605272be8568b6160f582f2e","study_id":"6197b3f67c2b5cd3b6d9596a","session_id":"6197b9f11bd38b1b227deb1d","condition":"contingent","relevant_dimensions":["pattern","legs"],"bee_group":{"antennae":"X","wings":"X","pattern":"S","legs":"M"},"action":"avoid","summary":"good-avoid","bonus":1.1800000000000008},{"rt":856.2999999988824,"stimulus":"\n                    <p><b>Action: <em>avoid</em></b></p>\n                    <p>This is the bee that you just saw.</p>\n                    <img src=\"bees-with-color/bee-B1SM.svg\" width=\"200\">\n                    <p><br>Your bonus pay is unchanged, and remains at $0.40.</p>\n            ","response":0,"trial_type":"html-button-response","trial_index":38,"time_elapsed":279947,"internal_node_id":"0.0-4.0-1.15","subject_id":"605272be8568b6160f582f2e","study_id":"6197b3f67c2b5cd3b6d9596a","session_id":"6197b9f11bd38b1b227deb1d","condition":"contingent","relevant_dimensions":["pattern","legs"],"bee_group":{"antennae":"X","wings":"X","pattern":"S","legs":"M"},"bonus":1.1800000000000008},{"rt":1776.7000000011176,"stimulus":"bees-with-color/bee-B2DF.svg","response":1,"trial_type":"image-button-response","trial_index":39,"time_elapsed":281728,"internal_node_id":"0.0-4.0-0.16","subject_id":"605272be8568b6160f582f2e","study_id":"6197b3f67c2b5cd3b6d9596a","session_id":"6197b9f11bd38b1b227deb1d","condition":"contingent","relevant_dimensions":["pattern","legs"],"bee_group":{"antennae":"X","wings":"X","pattern":"S","legs":"M"},"action":"avoid","summary":"bad-avoid","bonus":1.1800000000000008},{"rt":3883.60000000149,"stimulus":"\n                    <p><b>Action: <em>avoid</em></b></p>\n                    <p>This is the bee that you just saw.</p>\n                    <img src=\"bees-with-color/bee-B2DF.svg\" width=\"200\">\n                    <p><br>Your bonus pay is unchanged, and remains at $0.40.</p>\n            ","response":0,"trial_type":"html-button-response","trial_index":40,"time_elapsed":285616,"internal_node_id":"0.0-4.0-1.16","subject_id":"605272be8568b6160f582f2e","study_id":"6197b3f67c2b5cd3b6d9596a","session_id":"6197b9f11bd38b1b227deb1d","condition":"contingent","relevant_dimensions":["pattern","legs"],"bee_group":{"antennae":"X","wings":"X","pattern":"S","legs":"M"},"bonus":1.1800000000000008},{"rt":1426.2000000011176,"stimulus":"bees-with-color/bee-A1SM.svg","response":1,"trial_type":"image-button-response","trial_index":41,"time_elapsed":287047,"internal_node_id":"0.0-4.0-0.17","subject_id":"605272be8568b6160f582f2e","study_id":"6197b3f67c2b5cd3b6d9596a","session_id":"6197b9f11bd38b1b227deb1d","condition":"contingent","relevant_dimensions":["pattern","legs"],"bee_group":{"antennae":"X","wings":"X","pattern":"S","legs":"M"},"action":"avoid","summary":"good-avoid","bonus":1.1800000000000008},{"rt":2767.5,"stimulus":"\n                    <p><b>Action: <em>avoid</em></b></p>\n                    <p>This is the bee that you just saw.</p>\n                    <img src=\"bees-with-color/bee-A1SM.svg\" width=\"200\">\n                    <p><br>Your bonus pay is unchanged, and remains at $0.40.</p>\n            ","response":0,"trial_type":"html-button-response","trial_index":42,"time_elapsed":289819,"internal_node_id":"0.0-4.0-1.17","subject_id":"605272be8568b6160f582f2e","study_id":"6197b3f67c2b5cd3b6d9596a","session_id":"6197b9f11bd38b1b227deb1d","condition":"contingent","relevant_dimensions":["pattern","legs"],"bee_group":{"antennae":"X","wings":"X","pattern":"S","legs":"M"},"bonus":1.1800000000000008},{"rt":2410.4000000003725,"stimulus":"bees-with-color/bee-B2DM.svg","response":0,"trial_type":"image-button-response","trial_index":43,"time_elapsed":292235,"internal_node_id":"0.0-4.0-0.18","subject_id":"605272be8568b6160f582f2e","study_id":"6197b3f67c2b5cd3b6d9596a","session_id":"6197b9f11bd38b1b227deb1d","condition":"contingent","relevant_dimensions":["pattern","legs"],"bee_group":{"antennae":"X","wings":"X","pattern":"S","legs":"M"},"action":"harvest","summary":"good-harvest","bonus":1.1800000000000008},{"rt":7414.89999999851,"stimulus":"\n                    <p><b>Action: <em>harvest</em></b></p>\n                    <p>This is the bee that you just saw.</p>\n                    <img src=\"bees-with-color/bee-B2DM.svg\" width=\"200\">\n                    <p><span class=\"greenText\"><b>Successful harvest!</b></span><br>Your pay has increased by $0.02. Your bonus pay is now $0.42.</p>\n            ","response":0,"trial_type":"html-button-response","trial_index":44,"time_elapsed":299656,"internal_node_id":"0.0-4.0-1.18","subject_id":"605272be8568b6160f582f2e","study_id":"6197b3f67c2b5cd3b6d9596a","session_id":"6197b9f11bd38b1b227deb1d","condition":"contingent","relevant_dimensions":["pattern","legs"],"bee_group":{"antennae":"X","wings":"X","pattern":"S","legs":"M"},"bonus":1.1800000000000008},{"rt":2477.2000000011176,"stimulus":"bees-with-color/bee-B2SF.svg","response":0,"trial_type":"image-button-response","trial_index":45,"time_elapsed":302142,"internal_node_id":"0.0-4.0-0.19","subject_id":"605272be8568b6160f582f2e","study_id":"6197b3f67c2b5cd3b6d9596a","session_id":"6197b9f11bd38b1b227deb1d","condition":"contingent","relevant_dimensions":["pattern","legs"],"bee_group":{"antennae":"X","wings":"X","pattern":"S","legs":"M"},"action":"harvest","summary":"good-harvest","bonus":1.1800000000000008},{"rt":2026.5999999996275,"stimulus":"\n                    <p><b>Action: <em>harvest</em></b></p>\n                    <p>This is the bee that you just saw.</p>\n                    <img src=\"bees-with-color/bee-B2SF.svg\" width=\"200\">\n                    <p><span class=\"greenText\"><b>Successful harvest!</b></span><br>Your pay has increased by $0.02. Your bonus pay is now $0.44.</p>\n            ","response":0,"trial_type":"html-button-response","trial_index":46,"time_elapsed":304170,"internal_node_id":"0.0-4.0-1.19","subject_id":"605272be8568b6160f582f2e","study_id":"6197b3f67c2b5cd3b6d9596a","session_id":"6197b9f11bd38b1b227deb1d","condition":"contingent","relevant_dimensions":["pattern","legs"],"bee_group":{"antennae":"X","wings":"X","pattern":"S","legs":"M"},"bonus":1.1800000000000008},{"rt":3625.9000000003725,"stimulus":"bees-with-color/bee-A2SF.svg","response":1,"trial_type":"image-button-response","trial_index":47,"time_elapsed":307799,"internal_node_id":"0.0-4.0-0.20","subject_id":"605272be8568b6160f582f2e","study_id":"6197b3f67c2b5cd3b6d9596a","session_id":"6197b9f11bd38b1b227deb1d","condition":"contingent","relevant_dimensions":["pattern","legs"],"bee_group":{"antennae":"X","wings":"X","pattern":"S","legs":"M"},"action":"avoid","summary":"bad-avoid","bonus":1.1800000000000008},{"rt":1047.4000000003725,"stimulus":"\n                    <p><b>Action: <em>avoid</em></b></p>\n                    <p>This is the bee that you just saw.</p>\n                    <img src=\"bees-with-color/bee-A2SF.svg\" width=\"200\">\n                    <p><br>Your bonus pay is unchanged, and remains at $0.44.</p>\n            ","response":0,"trial_type":"html-button-response","trial_index":48,"time_elapsed":308850,"internal_node_id":"0.0-4.0-1.20","subject_id":"605272be8568b6160f582f2e","study_id":"6197b3f67c2b5cd3b6d9596a","session_id":"6197b9f11bd38b1b227deb1d","condition":"contingent","relevant_dimensions":["pattern","legs"],"bee_group":{"antennae":"X","wings":"X","pattern":"S","legs":"M"},"bonus":1.1800000000000008},{"rt":2811.89999999851,"stimulus":"bees-with-color/bee-A1SF.svg","response":0,"trial_type":"image-button-response","trial_index":49,"time_elapsed":311666,"internal_node_id":"0.0-4.0-0.21","subject_id":"605272be8568b6160f582f2e","study_id":"6197b3f67c2b5cd3b6d9596a","session_id":"6197b9f11bd38b1b227deb1d","condition":"contingent","relevant_dimensions":["pattern","legs"],"bee_group":{"antennae":"X","wings":"X","pattern":"S","legs":"M"},"action":"harvest","summary":"good-harvest","bonus":1.1800000000000008},{"rt":5294.9000000003725,"stimulus":"\n                    <p><b>Action: <em>harvest</em></b></p>\n                    <p>This is the bee that you just saw.</p>\n                    <img src=\"bees-with-color/bee-A1SF.svg\" width=\"200\">\n                    <p><span class=\"greenText\"><b>Successful harvest!</b></span><br>Your pay has increased by $0.02. Your bonus pay is now $0.46.</p>\n            ","response":0,"trial_type":"html-button-response","trial_index":50,"time_elapsed":316966,"internal_node_id":"0.0-4.0-1.21","subject_id":"605272be8568b6160f582f2e","study_id":"6197b3f67c2b5cd3b6d9596a","session_id":"6197b9f11bd38b1b227deb1d","condition":"contingent","relevant_dimensions":["pattern","legs"],"bee_group":{"antennae":"X","wings":"X","pattern":"S","legs":"M"},"bonus":1.1800000000000008},{"rt":3723.699999999255,"stimulus":"bees-with-color/bee-B1DM.svg","response":1,"trial_type":"image-button-response","trial_index":51,"time_elapsed":320697,"internal_node_id":"0.0-4.0-0.22","subject_id":"605272be8568b6160f582f2e","study_id":"6197b3f67c2b5cd3b6d9596a","session_id":"6197b9f11bd38b1b227deb1d","condition":"contingent","relevant_dimensions":["pattern","legs"],"bee_group":{"antennae":"X","wings":"X","pattern":"S","legs":"M"},"action":"avoid","summary":"bad-avoid","bonus":1.1800000000000008},{"rt":933.1999999992549,"stimulus":"\n                    <p><b>Action: <em>avoid</em></b></p>\n                    <p>This is the bee that you just saw.</p>\n                    <img src=\"bees-with-color/bee-B1DM.svg\" width=\"200\">\n                    <p><br>Your bonus pay is unchanged, and remains at $0.46.</p>\n            ","response":0,"trial_type":"html-button-response","trial_index":52,"time_elapsed":321632,"internal_node_id":"0.0-4.0-1.22","subject_id":"605272be8568b6160f582f2e","study_id":"6197b3f67c2b5cd3b6d9596a","session_id":"6197b9f11bd38b1b227deb1d","condition":"contingent","relevant_dimensions":["pattern","legs"],"bee_group":{"antennae":"X","wings":"X","pattern":"S","legs":"M"},"bonus":1.1800000000000008},{"rt":1617.4000000003725,"stimulus":"bees-with-color/bee-B1SM.svg","response":1,"trial_type":"image-button-response","trial_index":53,"time_elapsed":323253,"internal_node_id":"0.0-4.0-0.23","subject_id":"605272be8568b6160f582f2e","study_id":"6197b3f67c2b5cd3b6d9596a","session_id":"6197b9f11bd38b1b227deb1d","condition":"contingent","relevant_dimensions":["pattern","legs"],"bee_group":{"antennae":"X","wings":"X","pattern":"S","legs":"M"},"action":"avoid","summary":"good-avoid","bonus":1.1800000000000008},{"rt":930.6999999992549,"stimulus":"\n                    <p><b>Action: <em>avoid</em></b></p>\n                    <p>This is the bee that you just saw.</p>\n                    <img src=\"bees-with-color/bee-B1SM.svg\" width=\"200\">\n                    <p><br>Your bonus pay is unchanged, and remains at $0.46.</p>\n            ","response":0,"trial_type":"html-button-response","trial_index":54,"time_elapsed":324187,"internal_node_id":"0.0-4.0-1.23","subject_id":"605272be8568b6160f582f2e","study_id":"6197b3f67c2b5cd3b6d9596a","session_id":"6197b9f11bd38b1b227deb1d","condition":"contingent","relevant_dimensions":["pattern","legs"],"bee_group":{"antennae":"X","wings":"X","pattern":"S","legs":"M"},"bonus":1.1800000000000008},{"rt":1936.4000000003725,"stimulus":"bees-with-color/bee-B1SF.svg","response":0,"trial_type":"image-button-response","trial_index":55,"time_elapsed":326127,"internal_node_id":"0.0-4.0-0.24","subject_id":"605272be8568b6160f582f2e","study_id":"6197b3f67c2b5cd3b6d9596a","session_id":"6197b9f11bd38b1b227deb1d","condition":"contingent","relevant_dimensions":["pattern","legs"],"bee_group":{"antennae":"X","wings":"X","pattern":"S","legs":"M"},"action":"harvest","summary":"good-harvest","bonus":1.1800000000000008},{"rt":1088.7999999988824,"stimulus":"\n                    <p><b>Action: <em>harvest</em></b></p>\n                    <p>This is the bee that you just saw.</p>\n                    <img src=\"bees-with-color/bee-B1SF.svg\" width=\"200\">\n                    <p><span class=\"greenText\"><b>Successful harvest!</b></span><br>Your pay has increased by $0.02. Your bonus pay is now $0.48.</p>\n            ","response":0,"trial_type":"html-button-response","trial_index":56,"time_elapsed":327220,"internal_node_id":"0.0-4.0-1.24","subject_id":"605272be8568b6160f582f2e","study_id":"6197b3f67c2b5cd3b6d9596a","session_id":"6197b9f11bd38b1b227deb1d","condition":"contingent","relevant_dimensions":["pattern","legs"],"bee_group":{"antennae":"X","wings":"X","pattern":"S","legs":"M"},"bonus":1.1800000000000008},{"rt":1524.0999999996275,"stimulus":"bees-with-color/bee-B2SM.svg","response":1,"trial_type":"image-button-response","trial_index":57,"time_elapsed":328748,"internal_node_id":"0.0-4.0-0.25","subject_id":"605272be8568b6160f582f2e","study_id":"6197b3f67c2b5cd3b6d9596a","session_id":"6197b9f11bd38b1b227deb1d","condition":"contingent","relevant_dimensions":["pattern","legs"],"bee_group":{"antennae":"X","wings":"X","pattern":"S","legs":"M"},"action":"avoid","summary":"good-avoid","bonus":1.1800000000000008},{"rt":859.6999999992549,"stimulus":"\n                    <p><b>Action: <em>avoid</em></b></p>\n                    <p>This is the bee that you just saw.</p>\n                    <img src=\"bees-with-color/bee-B2SM.svg\" width=\"200\">\n                    <p><br>Your bonus pay is unchanged, and remains at $0.48.</p>\n            ","response":0,"trial_type":"html-button-response","trial_index":58,"time_elapsed":329610,"internal_node_id":"0.0-4.0-1.25","subject_id":"605272be8568b6160f582f2e","study_id":"6197b3f67c2b5cd3b6d9596a","session_id":"6197b9f11bd38b1b227deb1d","condition":"contingent","relevant_dimensions":["pattern","legs"],"bee_group":{"antennae":"X","wings":"X","pattern":"S","legs":"M"},"bonus":1.1800000000000008},{"rt":1354.9000000003725,"stimulus":"bees-with-color/bee-A2DM.svg","response":1,"trial_type":"image-button-response","trial_index":59,"time_elapsed":330968,"internal_node_id":"0.0-4.0-0.26","subject_id":"605272be8568b6160f582f2e","study_id":"6197b3f67c2b5cd3b6d9596a","session_id":"6197b9f11bd38b1b227deb1d","condition":"contingent","relevant_dimensions":["pattern","legs"],"bee_group":{"antennae":"X","wings":"X","pattern":"S","legs":"M"},"action":"avoid","summary":"bad-avoid","bonus":1.1800000000000008},{"rt":822.5999999996275,"stimulus":"\n                    <p><b>Action: <em>avoid</em></b></p>\n                    <p>This is the bee that you just saw.</p>\n                    <img src=\"bees-with-color/bee-A2DM.svg\" width=\"200\">\n                    <p><br>Your bonus pay is unchanged, and remains at $0.48.</p>\n            ","response":0,"trial_type":"html-button-response","trial_index":60,"time_elapsed":331794,"internal_node_id":"0.0-4.0-1.26","subject_id":"605272be8568b6160f582f2e","study_id":"6197b3f67c2b5cd3b6d9596a","session_id":"6197b9f11bd38b1b227deb1d","condition":"contingent","relevant_dimensions":["pattern","legs"],"bee_group":{"antennae":"X","wings":"X","pattern":"S","legs":"M"},"bonus":1.1800000000000008},{"rt":1289.5,"stimulus":"bees-with-color/bee-A2SM.svg","response":1,"trial_type":"image-button-response","trial_index":61,"time_elapsed":333086,"internal_node_id":"0.0-4.0-0.27","subject_id":"605272be8568b6160f582f2e","study_id":"6197b3f67c2b5cd3b6d9596a","session_id":"6197b9f11bd38b1b227deb1d","condition":"contingent","relevant_dimensions":["pattern","legs"],"bee_group":{"antennae":"X","wings":"X","pattern":"S","legs":"M"},"action":"avoid","summary":"good-avoid","bonus":1.1800000000000008},{"rt":746,"stimulus":"\n                    <p><b>Action: <em>avoid</em></b></p>\n                    <p>This is the bee that you just saw.</p>\n                    <img src=\"bees-with-color/bee-A2SM.svg\" width=\"200\">\n                    <p><br>Your bonus pay is unchanged, and remains at $0.48.</p>\n            ","response":0,"trial_type":"html-button-response","trial_index":62,"time_elapsed":333836,"internal_node_id":"0.0-4.0-1.27","subject_id":"605272be8568b6160f582f2e","study_id":"6197b3f67c2b5cd3b6d9596a","session_id":"6197b9f11bd38b1b227deb1d","condition":"contingent","relevant_dimensions":["pattern","legs"],"bee_group":{"antennae":"X","wings":"X","pattern":"S","legs":"M"},"bonus":1.1800000000000008},{"rt":3389.300000000745,"stimulus":"bees-with-color/bee-B1DF.svg","response":0,"trial_type":"image-button-response","trial_index":63,"time_elapsed":337230,"internal_node_id":"0.0-4.0-0.28","subject_id":"605272be8568b6160f582f2e","study_id":"6197b3f67c2b5cd3b6d9596a","session_id":"6197b9f11bd38b1b227deb1d","condition":"contingent","relevant_dimensions":["pattern","legs"],"bee_group":{"antennae":"X","wings":"X","pattern":"S","legs":"M"},"action":"harvest","summary":"good-harvest","bonus":1.1800000000000008},{"rt":1613.0999999996275,"stimulus":"\n                    <p><b>Action: <em>harvest</em></b></p>\n                    <p>This is the bee that you just saw.</p>\n                    <img src=\"bees-with-color/bee-B1DF.svg\" width=\"200\">\n                    <p><span class=\"greenText\"><b>Successful harvest!</b></span><br>Your pay has increased by $0.02. Your bonus pay is now $0.50.</p>\n            ","response":0,"trial_type":"html-button-response","trial_index":64,"time_elapsed":338847,"internal_node_id":"0.0-4.0-1.28","subject_id":"605272be8568b6160f582f2e","study_id":"6197b3f67c2b5cd3b6d9596a","session_id":"6197b9f11bd38b1b227deb1d","condition":"contingent","relevant_dimensions":["pattern","legs"],"bee_group":{"antennae":"X","wings":"X","pattern":"S","legs":"M"},"bonus":1.1800000000000008},{"rt":3366,"stimulus":"bees-with-color/bee-A2DF.svg","response":0,"trial_type":"image-button-response","trial_index":65,"time_elapsed":342217,"internal_node_id":"0.0-4.0-0.29","subject_id":"605272be8568b6160f582f2e","study_id":"6197b3f67c2b5cd3b6d9596a","session_id":"6197b9f11bd38b1b227deb1d","condition":"contingent","relevant_dimensions":["pattern","legs"],"bee_group":{"antennae":"X","wings":"X","pattern":"S","legs":"M"},"action":"harvest","summary":"good-harvest","bonus":1.1800000000000008},{"rt":3227,"stimulus":"\n                    <p><b>Action: <em>harvest</em></b></p>\n                    <p>This is the bee that you just saw.</p>\n                    <img src=\"bees-with-color/bee-A2DF.svg\" width=\"200\">\n                    <p><span class=\"greenText\"><b>Successful harvest!</b></span><br>Your pay has increased by $0.02. Your bonus pay is now $0.52.</p>\n            ","response":0,"trial_type":"html-button-response","trial_index":66,"time_elapsed":345449,"internal_node_id":"0.0-4.0-1.29","subject_id":"605272be8568b6160f582f2e","study_id":"6197b3f67c2b5cd3b6d9596a","session_id":"6197b9f11bd38b1b227deb1d","condition":"contingent","relevant_dimensions":["pattern","legs"],"bee_group":{"antennae":"X","wings":"X","pattern":"S","legs":"M"},"bonus":1.1800000000000008},{"rt":2719.800000000745,"stimulus":"bees-with-color/bee-A1DM.svg","response":1,"trial_type":"image-button-response","trial_index":67,"time_elapsed":348174,"internal_node_id":"0.0-4.0-0.30","subject_id":"605272be8568b6160f582f2e","study_id":"6197b3f67c2b5cd3b6d9596a","session_id":"6197b9f11bd38b1b227deb1d","condition":"contingent","relevant_dimensions":["pattern","legs"],"bee_group":{"antennae":"X","wings":"X","pattern":"S","legs":"M"},"action":"avoid","summary":"bad-avoid","bonus":1.1800000000000008},{"rt":824.5,"stimulus":"\n                    <p><b>Action: <em>avoid</em></b></p>\n                    <p>This is the bee that you just saw.</p>\n                    <img src=\"bees-with-color/bee-A1DM.svg\" width=\"200\">\n                    <p><br>Your bonus pay is unchanged, and remains at $0.52.</p>\n            ","response":0,"trial_type":"html-button-response","trial_index":68,"time_elapsed":349006,"internal_node_id":"0.0-4.0-1.30","subject_id":"605272be8568b6160f582f2e","study_id":"6197b3f67c2b5cd3b6d9596a","session_id":"6197b9f11bd38b1b227deb1d","condition":"contingent","relevant_dimensions":["pattern","legs"],"bee_group":{"antennae":"X","wings":"X","pattern":"S","legs":"M"},"bonus":1.1800000000000008},{"rt":2356.5999999996275,"stimulus":"bees-with-color/bee-A1DF.svg","response":0,"trial_type":"image-button-response","trial_index":69,"time_elapsed":351369,"internal_node_id":"0.0-4.0-0.31","subject_id":"605272be8568b6160f582f2e","study_id":"6197b3f67c2b5cd3b6d9596a","session_id":"6197b9f11bd38b1b227deb1d","condition":"contingent","relevant_dimensions":["pattern","legs"],"bee_group":{"antennae":"X","wings":"X","pattern":"S","legs":"M"},"action":"harvest","summary":"good-harvest","bonus":1.1800000000000008},{"rt":1747.5,"stimulus":"\n                    <p><b>Action: <em>harvest</em></b></p>\n                    <p>This is the bee that you just saw.</p>\n                    <img src=\"bees-with-color/bee-A1DF.svg\" width=\"200\">\n                    <p><span class=\"greenText\"><b>Successful harvest!</b></span><br>Your pay has increased by $0.02. Your bonus pay is now $0.54.</p>\n            ","response":0,"trial_type":"html-button-response","trial_index":70,"time_elapsed":353119,"internal_node_id":"0.0-4.0-1.31","subject_id":"605272be8568b6160f582f2e","study_id":"6197b3f67c2b5cd3b6d9596a","session_id":"6197b9f11bd38b1b227deb1d","condition":"contingent","relevant_dimensions":["pattern","legs"],"bee_group":{"antennae":"X","wings":"X","pattern":"S","legs":"M"},"bonus":1.1800000000000008},{"rt":1911.0999999996275,"stimulus":"bees-with-color/bee-A1DF.svg","response":0,"trial_type":"image-button-response","trial_index":71,"time_elapsed":355036,"internal_node_id":"0.0-4.0-0.32","subject_id":"605272be8568b6160f582f2e","study_id":"6197b3f67c2b5cd3b6d9596a","session_id":"6197b9f11bd38b1b227deb1d","condition":"contingent","relevant_dimensions":["pattern","legs"],"bee_group":{"antennae":"X","wings":"X","pattern":"S","legs":"M"},"action":"harvest","summary":"good-harvest","bonus":1.1800000000000008},{"rt":1102.800000000745,"stimulus":"\n                    <p><b>Action: <em>harvest</em></b></p>\n                    <p>This is the bee that you just saw.</p>\n                    <img src=\"bees-with-color/bee-A1DF.svg\" width=\"200\">\n                    <p><span class=\"greenText\"><b>Successful harvest!</b></span><br>Your pay has increased by $0.02. Your bonus pay is now $0.56.</p>\n            ","response":0,"trial_type":"html-button-response","trial_index":72,"time_elapsed":356143,"internal_node_id":"0.0-4.0-1.32","subject_id":"605272be8568b6160f582f2e","study_id":"6197b3f67c2b5cd3b6d9596a","session_id":"6197b9f11bd38b1b227deb1d","condition":"contingent","relevant_dimensions":["pattern","legs"],"bee_group":{"antennae":"X","wings":"X","pattern":"S","legs":"M"},"bonus":1.1800000000000008},{"rt":1910,"stimulus":"bees-with-color/bee-B1SM.svg","response":1,"trial_type":"image-button-response","trial_index":73,"time_elapsed":358056,"internal_node_id":"0.0-4.0-0.33","subject_id":"605272be8568b6160f582f2e","study_id":"6197b3f67c2b5cd3b6d9596a","session_id":"6197b9f11bd38b1b227deb1d","condition":"contingent","relevant_dimensions":["pattern","legs"],"bee_group":{"antennae":"X","wings":"X","pattern":"S","legs":"M"},"action":"avoid","summary":"good-avoid","bonus":1.1800000000000008},{"rt":1425.5,"stimulus":"\n                    <p><b>Action: <em>avoid</em></b></p>\n                    <p>This is the bee that you just saw.</p>\n                    <img src=\"bees-with-color/bee-B1SM.svg\" width=\"200\">\n                    <p><br>Your bonus pay is unchanged, and remains at $0.56.</p>\n            ","response":0,"trial_type":"html-button-response","trial_index":74,"time_elapsed":359485,"internal_node_id":"0.0-4.0-1.33","subject_id":"605272be8568b6160f582f2e","study_id":"6197b3f67c2b5cd3b6d9596a","session_id":"6197b9f11bd38b1b227deb1d","condition":"contingent","relevant_dimensions":["pattern","legs"],"bee_group":{"antennae":"X","wings":"X","pattern":"S","legs":"M"},"bonus":1.1800000000000008},{"rt":2495.699999999255,"stimulus":"bees-with-color/bee-A2DF.svg","response":0,"trial_type":"image-button-response","trial_index":75,"time_elapsed":361984,"internal_node_id":"0.0-4.0-0.34","subject_id":"605272be8568b6160f582f2e","study_id":"6197b3f67c2b5cd3b6d9596a","session_id":"6197b9f11bd38b1b227deb1d","condition":"contingent","relevant_dimensions":["pattern","legs"],"bee_group":{"antennae":"X","wings":"X","pattern":"S","legs":"M"},"action":"harvest","summary":"good-harvest","bonus":1.1800000000000008},{"rt":1199.4000000003725,"stimulus":"\n                    <p><b>Action: <em>harvest</em></b></p>\n                    <p>This is the bee that you just saw.</p>\n                    <img src=\"bees-with-color/bee-A2DF.svg\" width=\"200\">\n                    <p><span class=\"greenText\"><b>Successful harvest!</b></span><br>Your pay has increased by $0.02. Your bonus pay is now $0.58.</p>\n            ","response":0,"trial_type":"html-button-response","trial_index":76,"time_elapsed":363186,"internal_node_id":"0.0-4.0-1.34","subject_id":"605272be8568b6160f582f2e","study_id":"6197b3f67c2b5cd3b6d9596a","session_id":"6197b9f11bd38b1b227deb1d","condition":"contingent","relevant_dimensions":["pattern","legs"],"bee_group":{"antennae":"X","wings":"X","pattern":"S","legs":"M"},"bonus":1.1800000000000008},{"rt":1697.800000000745,"stimulus":"bees-with-color/bee-B1SF.svg","response":0,"trial_type":"image-button-response","trial_index":77,"time_elapsed":364890,"internal_node_id":"0.0-4.0-0.35","subject_id":"605272be8568b6160f582f2e","study_id":"6197b3f67c2b5cd3b6d9596a","session_id":"6197b9f11bd38b1b227deb1d","condition":"contingent","relevant_dimensions":["pattern","legs"],"bee_group":{"antennae":"X","wings":"X","pattern":"S","legs":"M"},"action":"harvest","summary":"good-harvest","bonus":1.1800000000000008},{"rt":1340,"stimulus":"\n                    <p><b>Action: <em>harvest</em></b></p>\n                    <p>This is the bee that you just saw.</p>\n                    <img src=\"bees-with-color/bee-B1SF.svg\" width=\"200\">\n                    <p><span class=\"greenText\"><b>Successful harvest!</b></span><br>Your pay has increased by $0.02. Your bonus pay is now $0.60.</p>\n            ","response":0,"trial_type":"html-button-response","trial_index":78,"time_elapsed":366234,"internal_node_id":"0.0-4.0-1.35","subject_id":"605272be8568b6160f582f2e","study_id":"6197b3f67c2b5cd3b6d9596a","session_id":"6197b9f11bd38b1b227deb1d","condition":"contingent","relevant_dimensions":["pattern","legs"],"bee_group":{"antennae":"X","wings":"X","pattern":"S","legs":"M"},"bonus":1.1800000000000008},{"rt":1717.0999999996275,"stimulus":"bees-with-color/bee-B1DF.svg","response":0,"trial_type":"image-button-response","trial_index":79,"time_elapsed":367957,"internal_node_id":"0.0-4.0-0.36","subject_id":"605272be8568b6160f582f2e","study_id":"6197b3f67c2b5cd3b6d9596a","session_id":"6197b9f11bd38b1b227deb1d","condition":"contingent","relevant_dimensions":["pattern","legs"],"bee_group":{"antennae":"X","wings":"X","pattern":"S","legs":"M"},"action":"harvest","summary":"good-harvest","bonus":1.1800000000000008},{"rt":1195.5,"stimulus":"\n                    <p><b>Action: <em>harvest</em></b></p>\n                    <p>This is the bee that you just saw.</p>\n                    <img src=\"bees-with-color/bee-B1DF.svg\" width=\"200\">\n                    <p><span class=\"greenText\"><b>Successful harvest!</b></span><br>Your pay has increased by $0.02. Your bonus pay is now $0.62.</p>\n            ","response":0,"trial_type":"html-button-response","trial_index":80,"time_elapsed":369158,"internal_node_id":"0.0-4.0-1.36","subject_id":"605272be8568b6160f582f2e","study_id":"6197b3f67c2b5cd3b6d9596a","session_id":"6197b9f11bd38b1b227deb1d","condition":"contingent","relevant_dimensions":["pattern","legs"],"bee_group":{"antennae":"X","wings":"X","pattern":"S","legs":"M"},"bonus":1.1800000000000008},{"rt":1598.5999999996275,"stimulus":"bees-with-color/bee-B2SM.svg","response":1,"trial_type":"image-button-response","trial_index":81,"time_elapsed":370766,"internal_node_id":"0.0-4.0-0.37","subject_id":"605272be8568b6160f582f2e","study_id":"6197b3f67c2b5cd3b6d9596a","session_id":"6197b9f11bd38b1b227deb1d","condition":"contingent","relevant_dimensions":["pattern","legs"],"bee_group":{"antennae":"X","wings":"X","pattern":"S","legs":"M"},"action":"avoid","summary":"good-avoid","bonus":1.1800000000000008},{"rt":1218.300000000745,"stimulus":"\n                    <p><b>Action: <em>avoid</em></b></p>\n                    <p>This is the bee that you just saw.</p>\n                    <img src=\"bees-with-color/bee-B2SM.svg\" width=\"200\">\n                    <p><br>Your bonus pay is unchanged, and remains at $0.62.</p>\n            ","response":0,"trial_type":"html-button-response","trial_index":82,"time_elapsed":371988,"internal_node_id":"0.0-4.0-1.37","subject_id":"605272be8568b6160f582f2e","study_id":"6197b3f67c2b5cd3b6d9596a","session_id":"6197b9f11bd38b1b227deb1d","condition":"contingent","relevant_dimensions":["pattern","legs"],"bee_group":{"antennae":"X","wings":"X","pattern":"S","legs":"M"},"bonus":1.1800000000000008},{"rt":1353.5,"stimulus":"bees-with-color/bee-A2DM.svg","response":1,"trial_type":"image-button-response","trial_index":83,"time_elapsed":373346,"internal_node_id":"0.0-4.0-0.38","subject_id":"605272be8568b6160f582f2e","study_id":"6197b3f67c2b5cd3b6d9596a","session_id":"6197b9f11bd38b1b227deb1d","condition":"contingent","relevant_dimensions":["pattern","legs"],"bee_group":{"antennae":"X","wings":"X","pattern":"S","legs":"M"},"action":"avoid","summary":"bad-avoid","bonus":1.1800000000000008},{"rt":807,"stimulus":"\n                    <p><b>Action: <em>avoid</em></b></p>\n                    <p>This is the bee that you just saw.</p>\n                    <img src=\"bees-with-color/bee-A2DM.svg\" width=\"200\">\n                    <p><br>Your bonus pay is unchanged, and remains at $0.62.</p>\n            ","response":0,"trial_type":"html-button-response","trial_index":84,"time_elapsed":374157,"internal_node_id":"0.0-4.0-1.38","subject_id":"605272be8568b6160f582f2e","study_id":"6197b3f67c2b5cd3b6d9596a","session_id":"6197b9f11bd38b1b227deb1d","condition":"contingent","relevant_dimensions":["pattern","legs"],"bee_group":{"antennae":"X","wings":"X","pattern":"S","legs":"M"},"bonus":1.1800000000000008},{"rt":1353.7000000011176,"stimulus":"bees-with-color/bee-B2SF.svg","response":0,"trial_type":"image-button-response","trial_index":85,"time_elapsed":375515,"internal_node_id":"0.0-4.0-0.39","subject_id":"605272be8568b6160f582f2e","study_id":"6197b3f67c2b5cd3b6d9596a","session_id":"6197b9f11bd38b1b227deb1d","condition":"contingent","relevant_dimensions":["pattern","legs"],"bee_group":{"antennae":"X","wings":"X","pattern":"S","legs":"M"},"action":"harvest","summary":"good-harvest","bonus":1.1800000000000008},{"rt":981.4000000003725,"stimulus":"\n                    <p><b>Action: <em>harvest</em></b></p>\n                    <p>This is the bee that you just saw.</p>\n                    <img src=\"bees-with-color/bee-B2SF.svg\" width=\"200\">\n                    <p><span class=\"greenText\"><b>Successful harvest!</b></span><br>Your pay has increased by $0.02. Your bonus pay is now $0.64.</p>\n            ","response":0,"trial_type":"html-button-response","trial_index":86,"time_elapsed":376500,"internal_node_id":"0.0-4.0-1.39","subject_id":"605272be8568b6160f582f2e","study_id":"6197b3f67c2b5cd3b6d9596a","session_id":"6197b9f11bd38b1b227deb1d","condition":"contingent","relevant_dimensions":["pattern","legs"],"bee_group":{"antennae":"X","wings":"X","pattern":"S","legs":"M"},"bonus":1.1800000000000008},{"rt":1622.7999999988824,"stimulus":"bees-with-color/bee-A1SF.svg","response":0,"trial_type":"image-button-response","trial_index":87,"time_elapsed":378127,"internal_node_id":"0.0-4.0-0.40","subject_id":"605272be8568b6160f582f2e","study_id":"6197b3f67c2b5cd3b6d9596a","session_id":"6197b9f11bd38b1b227deb1d","condition":"contingent","relevant_dimensions":["pattern","legs"],"bee_group":{"antennae":"X","wings":"X","pattern":"S","legs":"M"},"action":"harvest","summary":"good-harvest","bonus":1.1800000000000008},{"rt":777.3999999985099,"stimulus":"\n                    <p><b>Action: <em>harvest</em></b></p>\n                    <p>This is the bee that you just saw.</p>\n                    <img src=\"bees-with-color/bee-A1SF.svg\" width=\"200\">\n                    <p><span class=\"greenText\"><b>Successful harvest!</b></span><br>Your pay has increased by $0.02. Your bonus pay is now $0.66.</p>\n            ","response":0,"trial_type":"html-button-response","trial_index":88,"time_elapsed":378907,"internal_node_id":"0.0-4.0-1.40","subject_id":"605272be8568b6160f582f2e","study_id":"6197b3f67c2b5cd3b6d9596a","session_id":"6197b9f11bd38b1b227deb1d","condition":"contingent","relevant_dimensions":["pattern","legs"],"bee_group":{"antennae":"X","wings":"X","pattern":"S","legs":"M"},"bonus":1.1800000000000008},{"rt":2076.7999999988824,"stimulus":"bees-with-color/bee-B1DM.svg","response":1,"trial_type":"image-button-response","trial_index":89,"time_elapsed":380990,"internal_node_id":"0.0-4.0-0.41","subject_id":"605272be8568b6160f582f2e","study_id":"6197b3f67c2b5cd3b6d9596a","session_id":"6197b9f11bd38b1b227deb1d","condition":"contingent","relevant_dimensions":["pattern","legs"],"bee_group":{"antennae":"X","wings":"X","pattern":"S","legs":"M"},"action":"avoid","summary":"bad-avoid","bonus":1.1800000000000008},{"rt":1293.7000000011176,"stimulus":"\n                    <p><b>Action: <em>avoid</em></b></p>\n                    <p>This is the bee that you just saw.</p>\n                    <img src=\"bees-with-color/bee-B1DM.svg\" width=\"200\">\n                    <p><br>Your bonus pay is unchanged, and remains at $0.66.</p>\n            ","response":0,"trial_type":"html-button-response","trial_index":90,"time_elapsed":382288,"internal_node_id":"0.0-4.0-1.41","subject_id":"605272be8568b6160f582f2e","study_id":"6197b3f67c2b5cd3b6d9596a","session_id":"6197b9f11bd38b1b227deb1d","condition":"contingent","relevant_dimensions":["pattern","legs"],"bee_group":{"antennae":"X","wings":"X","pattern":"S","legs":"M"},"bonus":1.1800000000000008},{"rt":1478.5,"stimulus":"bees-with-color/bee-A1DM.svg","response":1,"trial_type":"image-button-response","trial_index":91,"time_elapsed":383772,"internal_node_id":"0.0-4.0-0.42","subject_id":"605272be8568b6160f582f2e","study_id":"6197b3f67c2b5cd3b6d9596a","session_id":"6197b9f11bd38b1b227deb1d","condition":"contingent","relevant_dimensions":["pattern","legs"],"bee_group":{"antennae":"X","wings":"X","pattern":"S","legs":"M"},"action":"avoid","summary":"bad-avoid","bonus":1.1800000000000008},{"rt":836.9000000003725,"stimulus":"\n                    <p><b>Action: <em>avoid</em></b></p>\n                    <p>This is the bee that you just saw.</p>\n                    <img src=\"bees-with-color/bee-A1DM.svg\" width=\"200\">\n                    <p><br>Your bonus pay is unchanged, and remains at $0.66.</p>\n            ","response":0,"trial_type":"html-button-response","trial_index":92,"time_elapsed":384615,"internal_node_id":"0.0-4.0-1.42","subject_id":"605272be8568b6160f582f2e","study_id":"6197b3f67c2b5cd3b6d9596a","session_id":"6197b9f11bd38b1b227deb1d","condition":"contingent","relevant_dimensions":["pattern","legs"],"bee_group":{"antennae":"X","wings":"X","pattern":"S","legs":"M"},"bonus":1.1800000000000008},{"rt":1154.1000000014901,"stimulus":"bees-with-color/bee-A1SM.svg","response":1,"trial_type":"image-button-response","trial_index":93,"time_elapsed":385772,"internal_node_id":"0.0-4.0-0.43","subject_id":"605272be8568b6160f582f2e","study_id":"6197b3f67c2b5cd3b6d9596a","session_id":"6197b9f11bd38b1b227deb1d","condition":"contingent","relevant_dimensions":["pattern","legs"],"bee_group":{"antennae":"X","wings":"X","pattern":"S","legs":"M"},"action":"avoid","summary":"good-avoid","bonus":1.1800000000000008},{"rt":758.6999999992549,"stimulus":"\n                    <p><b>Action: <em>avoid</em></b></p>\n                    <p>This is the bee that you just saw.</p>\n                    <img src=\"bees-with-color/bee-A1SM.svg\" width=\"200\">\n                    <p><br>Your bonus pay is unchanged, and remains at $0.66.</p>\n            ","response":0,"trial_type":"html-button-response","trial_index":94,"time_elapsed":386535,"internal_node_id":"0.0-4.0-1.43","subject_id":"605272be8568b6160f582f2e","study_id":"6197b3f67c2b5cd3b6d9596a","session_id":"6197b9f11bd38b1b227deb1d","condition":"contingent","relevant_dimensions":["pattern","legs"],"bee_group":{"antennae":"X","wings":"X","pattern":"S","legs":"M"},"bonus":1.1800000000000008},{"rt":8536.900000000373,"stimulus":"bees-with-color/bee-B2DF.svg","response":0,"trial_type":"image-button-response","trial_index":95,"time_elapsed":395077,"internal_node_id":"0.0-4.0-0.44","subject_id":"605272be8568b6160f582f2e","study_id":"6197b3f67c2b5cd3b6d9596a","session_id":"6197b9f11bd38b1b227deb1d","condition":"contingent","relevant_dimensions":["pattern","legs"],"bee_group":{"antennae":"X","wings":"X","pattern":"S","legs":"M"},"action":"harvest","summary":"good-harvest","bonus":1.1800000000000008},{"rt":3052.800000000745,"stimulus":"\n                    <p><b>Action: <em>harvest</em></b></p>\n                    <p>This is the bee that you just saw.</p>\n                    <img src=\"bees-with-color/bee-B2DF.svg\" width=\"200\">\n                    <p><span class=\"greenText\"><b>Successful harvest!</b></span><br>Your pay has increased by $0.02. Your bonus pay is now $0.68.</p>\n            ","response":0,"trial_type":"html-button-response","trial_index":96,"time_elapsed":398135,"internal_node_id":"0.0-4.0-1.44","subject_id":"605272be8568b6160f582f2e","study_id":"6197b3f67c2b5cd3b6d9596a","session_id":"6197b9f11bd38b1b227deb1d","condition":"contingent","relevant_dimensions":["pattern","legs"],"bee_group":{"antennae":"X","wings":"X","pattern":"S","legs":"M"},"bonus":1.1800000000000008},{"rt":963.5999999996275,"stimulus":"bees-with-color/bee-A2SM.svg","response":1,"trial_type":"image-button-response","trial_index":97,"time_elapsed":399102,"internal_node_id":"0.0-4.0-0.45","subject_id":"605272be8568b6160f582f2e","study_id":"6197b3f67c2b5cd3b6d9596a","session_id":"6197b9f11bd38b1b227deb1d","condition":"contingent","relevant_dimensions":["pattern","legs"],"bee_group":{"antennae":"X","wings":"X","pattern":"S","legs":"M"},"action":"avoid","summary":"good-avoid","bonus":1.1800000000000008},{"rt":934.4000000003725,"stimulus":"\n                    <p><b>Action: <em>avoid</em></b></p>\n                    <p>This is the bee that you just saw.</p>\n                    <img src=\"bees-with-color/bee-A2SM.svg\" width=\"200\">\n                    <p><br>Your bonus pay is unchanged, and remains at $0.68.</p>\n            ","response":0,"trial_type":"html-button-response","trial_index":98,"time_elapsed":400043,"internal_node_id":"0.0-4.0-1.45","subject_id":"605272be8568b6160f582f2e","study_id":"6197b3f67c2b5cd3b6d9596a","session_id":"6197b9f11bd38b1b227deb1d","condition":"contingent","relevant_dimensions":["pattern","legs"],"bee_group":{"antennae":"X","wings":"X","pattern":"S","legs":"M"},"bonus":1.1800000000000008},{"rt":857.5,"stimulus":"bees-with-color/bee-B2DM.svg","response":1,"trial_type":"image-button-response","trial_index":99,"time_elapsed":400903,"internal_node_id":"0.0-4.0-0.46","subject_id":"605272be8568b6160f582f2e","study_id":"6197b3f67c2b5cd3b6d9596a","session_id":"6197b9f11bd38b1b227deb1d","condition":"contingent","relevant_dimensions":["pattern","legs"],"bee_group":{"antennae":"X","wings":"X","pattern":"S","legs":"M"},"action":"avoid","summary":"bad-avoid","bonus":1.1800000000000008},{"rt":1154.0999999996275,"stimulus":"\n                    <p><b>Action: <em>avoid</em></b></p>\n                    <p>This is the bee that you just saw.</p>\n                    <img src=\"bees-with-color/bee-B2DM.svg\" width=\"200\">\n                    <p><br>Your bonus pay is unchanged, and remains at $0.68.</p>\n            ","response":0,"trial_type":"html-button-response","trial_index":100,"time_elapsed":402061,"internal_node_id":"0.0-4.0-1.46","subject_id":"605272be8568b6160f582f2e","study_id":"6197b3f67c2b5cd3b6d9596a","session_id":"6197b9f11bd38b1b227deb1d","condition":"contingent","relevant_dimensions":["pattern","legs"],"bee_group":{"antennae":"X","wings":"X","pattern":"S","legs":"M"},"bonus":1.1800000000000008},{"rt":1904.699999999255,"stimulus":"bees-with-color/bee-A2SF.svg","response":0,"trial_type":"image-button-response","trial_index":101,"time_elapsed":403970,"internal_node_id":"0.0-4.0-0.47","subject_id":"605272be8568b6160f582f2e","study_id":"6197b3f67c2b5cd3b6d9596a","session_id":"6197b9f11bd38b1b227deb1d","condition":"contingent","relevant_dimensions":["pattern","legs"],"bee_group":{"antennae":"X","wings":"X","pattern":"S","legs":"M"},"action":"harvest","summary":"good-harvest","bonus":1.1800000000000008},{"rt":1196,"stimulus":"\n                    <p><b>Action: <em>harvest</em></b></p>\n                    <p>This is the bee that you just saw.</p>\n                    <img src=\"bees-with-color/bee-A2SF.svg\" width=\"200\">\n                    <p><span class=\"greenText\"><b>Successful harvest!</b></span><br>Your pay has increased by $0.02. Your bonus pay is now $0.70.</p>\n            ","response":0,"trial_type":"html-button-response","trial_index":102,"time_elapsed":405169,"internal_node_id":"0.0-4.0-1.47","subject_id":"605272be8568b6160f582f2e","study_id":"6197b3f67c2b5cd3b6d9596a","session_id":"6197b9f11bd38b1b227deb1d","condition":"contingent","relevant_dimensions":["pattern","legs"],"bee_group":{"antennae":"X","wings":"X","pattern":"S","legs":"M"},"bonus":1.1800000000000008},{"rt":1746,"stimulus":"bees-with-color/bee-B2DM.svg","response":1,"trial_type":"image-button-response","trial_index":103,"time_elapsed":406922,"internal_node_id":"0.0-4.0-0.48","subject_id":"605272be8568b6160f582f2e","study_id":"6197b3f67c2b5cd3b6d9596a","session_id":"6197b9f11bd38b1b227deb1d","condition":"contingent","relevant_dimensions":["pattern","legs"],"bee_group":{"antennae":"X","wings":"X","pattern":"S","legs":"M"},"action":"avoid","summary":"bad-avoid","bonus":1.1800000000000008},{"rt":1323,"stimulus":"\n                    <p><b>Action: <em>avoid</em></b></p>\n                    <p>This is the bee that you just saw.</p>\n                    <img src=\"bees-with-color/bee-B2DM.svg\" width=\"200\">\n                    <p><br>Your bonus pay is unchanged, and remains at $0.70.</p>\n            ","response":0,"trial_type":"html-button-response","trial_index":104,"time_elapsed":408250,"internal_node_id":"0.0-4.0-1.48","subject_id":"605272be8568b6160f582f2e","study_id":"6197b3f67c2b5cd3b6d9596a","session_id":"6197b9f11bd38b1b227deb1d","condition":"contingent","relevant_dimensions":["pattern","legs"],"bee_group":{"antennae":"X","wings":"X","pattern":"S","legs":"M"},"bonus":1.1800000000000008},{"rt":1547.0999999996275,"stimulus":"bees-with-color/bee-A2DF.svg","response":0,"trial_type":"image-button-response","trial_index":105,"time_elapsed":409801,"internal_node_id":"0.0-4.0-0.49","subject_id":"605272be8568b6160f582f2e","study_id":"6197b3f67c2b5cd3b6d9596a","session_id":"6197b9f11bd38b1b227deb1d","condition":"contingent","relevant_dimensions":["pattern","legs"],"bee_group":{"antennae":"X","wings":"X","pattern":"S","legs":"M"},"action":"harvest","summary":"good-harvest","bonus":1.1800000000000008},{"rt":901.5,"stimulus":"\n                    <p><b>Action: <em>harvest</em></b></p>\n                    <p>This is the bee that you just saw.</p>\n                    <img src=\"bees-with-color/bee-A2DF.svg\" width=\"200\">\n                    <p><span class=\"greenText\"><b>Successful harvest!</b></span><br>Your pay has increased by $0.02. Your bonus pay is now $0.72.</p>\n            ","response":0,"trial_type":"html-button-response","trial_index":106,"time_elapsed":410709,"internal_node_id":"0.0-4.0-1.49","subject_id":"605272be8568b6160f582f2e","study_id":"6197b3f67c2b5cd3b6d9596a","session_id":"6197b9f11bd38b1b227deb1d","condition":"contingent","relevant_dimensions":["pattern","legs"],"bee_group":{"antennae":"X","wings":"X","pattern":"S","legs":"M"},"bonus":1.1800000000000008},{"rt":1225.4000000003725,"stimulus":"bees-with-color/bee-A1SF.svg","response":0,"trial_type":"image-button-response","trial_index":107,"time_elapsed":411937,"internal_node_id":"0.0-4.0-0.50","subject_id":"605272be8568b6160f582f2e","study_id":"6197b3f67c2b5cd3b6d9596a","session_id":"6197b9f11bd38b1b227deb1d","condition":"contingent","relevant_dimensions":["pattern","legs"],"bee_group":{"antennae":"X","wings":"X","pattern":"S","legs":"M"},"action":"harvest","summary":"good-harvest","bonus":1.1800000000000008},{"rt":891.0999999996275,"stimulus":"\n                    <p><b>Action: <em>harvest</em></b></p>\n                    <p>This is the bee that you just saw.</p>\n                    <img src=\"bees-with-color/bee-A1SF.svg\" width=\"200\">\n                    <p><span class=\"greenText\"><b>Successful harvest!</b></span><br>Your pay has increased by $0.02. Your bonus pay is now $0.74.</p>\n            ","response":0,"trial_type":"html-button-response","trial_index":108,"time_elapsed":412831,"internal_node_id":"0.0-4.0-1.50","subject_id":"605272be8568b6160f582f2e","study_id":"6197b3f67c2b5cd3b6d9596a","session_id":"6197b9f11bd38b1b227deb1d","condition":"contingent","relevant_dimensions":["pattern","legs"],"bee_group":{"antennae":"X","wings":"X","pattern":"S","legs":"M"},"bonus":1.1800000000000008},{"rt":1043.800000000745,"stimulus":"bees-with-color/bee-A2DM.svg","response":1,"trial_type":"image-button-response","trial_index":109,"time_elapsed":413879,"internal_node_id":"0.0-4.0-0.51","subject_id":"605272be8568b6160f582f2e","study_id":"6197b3f67c2b5cd3b6d9596a","session_id":"6197b9f11bd38b1b227deb1d","condition":"contingent","relevant_dimensions":["pattern","legs"],"bee_group":{"antennae":"X","wings":"X","pattern":"S","legs":"M"},"action":"avoid","summary":"bad-avoid","bonus":1.1800000000000008},{"rt":1632.7999999988824,"stimulus":"\n                    <p><b>Action: <em>avoid</em></b></p>\n                    <p>This is the bee that you just saw.</p>\n                    <img src=\"bees-with-color/bee-A2DM.svg\" width=\"200\">\n                    <p><br>Your bonus pay is unchanged, and remains at $0.74.</p>\n            ","response":0,"trial_type":"html-button-response","trial_index":110,"time_elapsed":415517,"internal_node_id":"0.0-4.0-1.51","subject_id":"605272be8568b6160f582f2e","study_id":"6197b3f67c2b5cd3b6d9596a","session_id":"6197b9f11bd38b1b227deb1d","condition":"contingent","relevant_dimensions":["pattern","legs"],"bee_group":{"antennae":"X","wings":"X","pattern":"S","legs":"M"},"bonus":1.1800000000000008},{"rt":1110.800000000745,"stimulus":"bees-with-color/bee-A2SF.svg","response":0,"trial_type":"image-button-response","trial_index":111,"time_elapsed":416632,"internal_node_id":"0.0-4.0-0.52","subject_id":"605272be8568b6160f582f2e","study_id":"6197b3f67c2b5cd3b6d9596a","session_id":"6197b9f11bd38b1b227deb1d","condition":"contingent","relevant_dimensions":["pattern","legs"],"bee_group":{"antennae":"X","wings":"X","pattern":"S","legs":"M"},"action":"harvest","summary":"good-harvest","bonus":1.1800000000000008},{"rt":826.0999999996275,"stimulus":"\n                    <p><b>Action: <em>harvest</em></b></p>\n                    <p>This is the bee that you just saw.</p>\n                    <img src=\"bees-with-color/bee-A2SF.svg\" width=\"200\">\n                    <p><span class=\"greenText\"><b>Successful harvest!</b></span><br>Your pay has increased by $0.02. Your bonus pay is now $0.76.</p>\n            ","response":0,"trial_type":"html-button-response","trial_index":112,"time_elapsed":417460,"internal_node_id":"0.0-4.0-1.52","subject_id":"605272be8568b6160f582f2e","study_id":"6197b3f67c2b5cd3b6d9596a","session_id":"6197b9f11bd38b1b227deb1d","condition":"contingent","relevant_dimensions":["pattern","legs"],"bee_group":{"antennae":"X","wings":"X","pattern":"S","legs":"M"},"bonus":1.1800000000000008},{"rt":888.0999999996275,"stimulus":"bees-with-color/bee-A1SM.svg","response":1,"trial_type":"image-button-response","trial_index":113,"time_elapsed":418354,"internal_node_id":"0.0-4.0-0.53","subject_id":"605272be8568b6160f582f2e","study_id":"6197b3f67c2b5cd3b6d9596a","session_id":"6197b9f11bd38b1b227deb1d","condition":"contingent","relevant_dimensions":["pattern","legs"],"bee_group":{"antennae":"X","wings":"X","pattern":"S","legs":"M"},"action":"avoid","summary":"good-avoid","bonus":1.1800000000000008},{"rt":898.0999999996275,"stimulus":"\n                    <p><b>Action: <em>avoid</em></b></p>\n                    <p>This is the bee that you just saw.</p>\n                    <img src=\"bees-with-color/bee-A1SM.svg\" width=\"200\">\n                    <p><br>Your bonus pay is unchanged, and remains at $0.76.</p>\n            ","response":0,"trial_type":"html-button-response","trial_index":114,"time_elapsed":419260,"internal_node_id":"0.0-4.0-1.53","subject_id":"605272be8568b6160f582f2e","study_id":"6197b3f67c2b5cd3b6d9596a","session_id":"6197b9f11bd38b1b227deb1d","condition":"contingent","relevant_dimensions":["pattern","legs"],"bee_group":{"antennae":"X","wings":"X","pattern":"S","legs":"M"},"bonus":1.1800000000000008},{"rt":937,"stimulus":"bees-with-color/bee-B2SF.svg","response":0,"trial_type":"image-button-response","trial_index":115,"time_elapsed":420202,"internal_node_id":"0.0-4.0-0.54","subject_id":"605272be8568b6160f582f2e","study_id":"6197b3f67c2b5cd3b6d9596a","session_id":"6197b9f11bd38b1b227deb1d","condition":"contingent","relevant_dimensions":["pattern","legs"],"bee_group":{"antennae":"X","wings":"X","pattern":"S","legs":"M"},"action":"harvest","summary":"good-harvest","bonus":1.1800000000000008},{"rt":806.5,"stimulus":"\n                    <p><b>Action: <em>harvest</em></b></p>\n                    <p>This is the bee that you just saw.</p>\n                    <img src=\"bees-with-color/bee-B2SF.svg\" width=\"200\">\n                    <p><span class=\"greenText\"><b>Successful harvest!</b></span><br>Your pay has increased by $0.02. Your bonus pay is now $0.78.</p>\n            ","response":0,"trial_type":"html-button-response","trial_index":116,"time_elapsed":421014,"internal_node_id":"0.0-4.0-1.54","subject_id":"605272be8568b6160f582f2e","study_id":"6197b3f67c2b5cd3b6d9596a","session_id":"6197b9f11bd38b1b227deb1d","condition":"contingent","relevant_dimensions":["pattern","legs"],"bee_group":{"antennae":"X","wings":"X","pattern":"S","legs":"M"},"bonus":1.1800000000000008},{"rt":1211.4000000003725,"stimulus":"bees-with-color/bee-B2SM.svg","response":1,"trial_type":"image-button-response","trial_index":117,"time_elapsed":422231,"internal_node_id":"0.0-4.0-0.55","subject_id":"605272be8568b6160f582f2e","study_id":"6197b3f67c2b5cd3b6d9596a","session_id":"6197b9f11bd38b1b227deb1d","condition":"contingent","relevant_dimensions":["pattern","legs"],"bee_group":{"antennae":"X","wings":"X","pattern":"S","legs":"M"},"action":"avoid","summary":"good-avoid","bonus":1.1800000000000008},{"rt":1117.2999999988824,"stimulus":"\n                    <p><b>Action: <em>avoid</em></b></p>\n                    <p>This is the bee that you just saw.</p>\n                    <img src=\"bees-with-color/bee-B2SM.svg\" width=\"200\">\n                    <p><br>Your bonus pay is unchanged, and remains at $0.78.</p>\n            ","response":0,"trial_type":"html-button-response","trial_index":118,"time_elapsed":423352,"internal_node_id":"0.0-4.0-1.55","subject_id":"605272be8568b6160f582f2e","study_id":"6197b3f67c2b5cd3b6d9596a","session_id":"6197b9f11bd38b1b227deb1d","condition":"contingent","relevant_dimensions":["pattern","legs"],"bee_group":{"antennae":"X","wings":"X","pattern":"S","legs":"M"},"bonus":1.1800000000000008},{"rt":914.9000000003725,"stimulus":"bees-with-color/bee-B1SF.svg","response":0,"trial_type":"image-button-response","trial_index":119,"time_elapsed":424273,"internal_node_id":"0.0-4.0-0.56","subject_id":"605272be8568b6160f582f2e","study_id":"6197b3f67c2b5cd3b6d9596a","session_id":"6197b9f11bd38b1b227deb1d","condition":"contingent","relevant_dimensions":["pattern","legs"],"bee_group":{"antennae":"X","wings":"X","pattern":"S","legs":"M"},"action":"harvest","summary":"good-harvest","bonus":1.1800000000000008},{"rt":823.7000000011176,"stimulus":"\n                    <p><b>Action: <em>harvest</em></b></p>\n                    <p>This is the bee that you just saw.</p>\n                    <img src=\"bees-with-color/bee-B1SF.svg\" width=\"200\">\n                    <p><span class=\"greenText\"><b>Successful harvest!</b></span><br>Your pay has increased by $0.02. Your bonus pay is now $0.80.</p>\n            ","response":0,"trial_type":"html-button-response","trial_index":120,"time_elapsed":425100,"internal_node_id":"0.0-4.0-1.56","subject_id":"605272be8568b6160f582f2e","study_id":"6197b3f67c2b5cd3b6d9596a","session_id":"6197b9f11bd38b1b227deb1d","condition":"contingent","relevant_dimensions":["pattern","legs"],"bee_group":{"antennae":"X","wings":"X","pattern":"S","legs":"M"},"bonus":1.1800000000000008},{"rt":1134.5,"stimulus":"bees-with-color/bee-A1DF.svg","response":0,"trial_type":"image-button-response","trial_index":121,"time_elapsed":426241,"internal_node_id":"0.0-4.0-0.57","subject_id":"605272be8568b6160f582f2e","study_id":"6197b3f67c2b5cd3b6d9596a","session_id":"6197b9f11bd38b1b227deb1d","condition":"contingent","relevant_dimensions":["pattern","legs"],"bee_group":{"antennae":"X","wings":"X","pattern":"S","legs":"M"},"action":"harvest","summary":"good-harvest","bonus":1.1800000000000008},{"rt":894.8000000007451,"stimulus":"\n                    <p><b>Action: <em>harvest</em></b></p>\n                    <p>This is the bee that you just saw.</p>\n                    <img src=\"bees-with-color/bee-A1DF.svg\" width=\"200\">\n                    <p><span class=\"greenText\"><b>Successful harvest!</b></span><br>Your pay has increased by $0.02. Your bonus pay is now $0.82.</p>\n            ","response":0,"trial_type":"html-button-response","trial_index":122,"time_elapsed":427141,"internal_node_id":"0.0-4.0-1.57","subject_id":"605272be8568b6160f582f2e","study_id":"6197b3f67c2b5cd3b6d9596a","session_id":"6197b9f11bd38b1b227deb1d","condition":"contingent","relevant_dimensions":["pattern","legs"],"bee_group":{"antennae":"X","wings":"X","pattern":"S","legs":"M"},"bonus":1.1800000000000008},{"rt":1423.7000000011176,"stimulus":"bees-with-color/bee-B1DM.svg","response":1,"trial_type":"image-button-response","trial_index":123,"time_elapsed":428568,"internal_node_id":"0.0-4.0-0.58","subject_id":"605272be8568b6160f582f2e","study_id":"6197b3f67c2b5cd3b6d9596a","session_id":"6197b9f11bd38b1b227deb1d","condition":"contingent","relevant_dimensions":["pattern","legs"],"bee_group":{"antennae":"X","wings":"X","pattern":"S","legs":"M"},"action":"avoid","summary":"bad-avoid","bonus":1.1800000000000008},{"rt":1058.2999999988824,"stimulus":"\n                    <p><b>Action: <em>avoid</em></b></p>\n                    <p>This is the bee that you just saw.</p>\n                    <img src=\"bees-with-color/bee-B1DM.svg\" width=\"200\">\n                    <p><br>Your bonus pay is unchanged, and remains at $0.82.</p>\n            ","response":0,"trial_type":"html-button-response","trial_index":124,"time_elapsed":429629,"internal_node_id":"0.0-4.0-1.58","subject_id":"605272be8568b6160f582f2e","study_id":"6197b3f67c2b5cd3b6d9596a","session_id":"6197b9f11bd38b1b227deb1d","condition":"contingent","relevant_dimensions":["pattern","legs"],"bee_group":{"antennae":"X","wings":"X","pattern":"S","legs":"M"},"bonus":1.1800000000000008},{"rt":873.1999999992549,"stimulus":"bees-with-color/bee-A1DM.svg","response":1,"trial_type":"image-button-response","trial_index":125,"time_elapsed":430508,"internal_node_id":"0.0-4.0-0.59","subject_id":"605272be8568b6160f582f2e","study_id":"6197b3f67c2b5cd3b6d9596a","session_id":"6197b9f11bd38b1b227deb1d","condition":"contingent","relevant_dimensions":["pattern","legs"],"bee_group":{"antennae":"X","wings":"X","pattern":"S","legs":"M"},"action":"avoid","summary":"bad-avoid","bonus":1.1800000000000008},{"rt":839.9000000003725,"stimulus":"\n                    <p><b>Action: <em>avoid</em></b></p>\n                    <p>This is the bee that you just saw.</p>\n                    <img src=\"bees-with-color/bee-A1DM.svg\" width=\"200\">\n                    <p><br>Your bonus pay is unchanged, and remains at $0.82.</p>\n            ","response":0,"trial_type":"html-button-response","trial_index":126,"time_elapsed":431351,"internal_node_id":"0.0-4.0-1.59","subject_id":"605272be8568b6160f582f2e","study_id":"6197b3f67c2b5cd3b6d9596a","session_id":"6197b9f11bd38b1b227deb1d","condition":"contingent","relevant_dimensions":["pattern","legs"],"bee_group":{"antennae":"X","wings":"X","pattern":"S","legs":"M"},"bonus":1.1800000000000008},{"rt":1484.0999999996275,"stimulus":"bees-with-color/bee-B1DF.svg","response":0,"trial_type":"image-button-response","trial_index":127,"time_elapsed":432840,"internal_node_id":"0.0-4.0-0.60","subject_id":"605272be8568b6160f582f2e","study_id":"6197b3f67c2b5cd3b6d9596a","session_id":"6197b9f11bd38b1b227deb1d","condition":"contingent","relevant_dimensions":["pattern","legs"],"bee_group":{"antennae":"X","wings":"X","pattern":"S","legs":"M"},"action":"harvest","summary":"good-harvest","bonus":1.1800000000000008},{"rt":1250.5,"stimulus":"\n                    <p><b>Action: <em>harvest</em></b></p>\n                    <p>This is the bee that you just saw.</p>\n                    <img src=\"bees-with-color/bee-B1DF.svg\" width=\"200\">\n                    <p><span class=\"greenText\"><b>Successful harvest!</b></span><br>Your pay has increased by $0.02. Your bonus pay is now $0.84.</p>\n            ","response":0,"trial_type":"html-button-response","trial_index":128,"time_elapsed":434094,"internal_node_id":"0.0-4.0-1.60","subject_id":"605272be8568b6160f582f2e","study_id":"6197b3f67c2b5cd3b6d9596a","session_id":"6197b9f11bd38b1b227deb1d","condition":"contingent","relevant_dimensions":["pattern","legs"],"bee_group":{"antennae":"X","wings":"X","pattern":"S","legs":"M"},"bonus":1.1800000000000008},{"rt":1049.2999999988824,"stimulus":"bees-with-color/bee-B1SM.svg","response":1,"trial_type":"image-button-response","trial_index":129,"time_elapsed":435147,"internal_node_id":"0.0-4.0-0.61","subject_id":"605272be8568b6160f582f2e","study_id":"6197b3f67c2b5cd3b6d9596a","session_id":"6197b9f11bd38b1b227deb1d","condition":"contingent","relevant_dimensions":["pattern","legs"],"bee_group":{"antennae":"X","wings":"X","pattern":"S","legs":"M"},"action":"avoid","summary":"good-avoid","bonus":1.1800000000000008},{"rt":883.1000000014901,"stimulus":"\n                    <p><b>Action: <em>avoid</em></b></p>\n                    <p>This is the bee that you just saw.</p>\n                    <img src=\"bees-with-color/bee-B1SM.svg\" width=\"200\">\n                    <p><br>Your bonus pay is unchanged, and remains at $0.84.</p>\n            ","response":0,"trial_type":"html-button-response","trial_index":130,"time_elapsed":436036,"internal_node_id":"0.0-4.0-1.61","subject_id":"605272be8568b6160f582f2e","study_id":"6197b3f67c2b5cd3b6d9596a","session_id":"6197b9f11bd38b1b227deb1d","condition":"contingent","relevant_dimensions":["pattern","legs"],"bee_group":{"antennae":"X","wings":"X","pattern":"S","legs":"M"},"bonus":1.1800000000000008},{"rt":869.8000000007451,"stimulus":"bees-with-color/bee-B2DF.svg","response":0,"trial_type":"image-button-response","trial_index":131,"time_elapsed":436913,"internal_node_id":"0.0-4.0-0.62","subject_id":"605272be8568b6160f582f2e","study_id":"6197b3f67c2b5cd3b6d9596a","session_id":"6197b9f11bd38b1b227deb1d","condition":"contingent","relevant_dimensions":["pattern","legs"],"bee_group":{"antennae":"X","wings":"X","pattern":"S","legs":"M"},"action":"harvest","summary":"good-harvest","bonus":1.1800000000000008},{"rt":1018.1000000014901,"stimulus":"\n                    <p><b>Action: <em>harvest</em></b></p>\n                    <p>This is the bee that you just saw.</p>\n                    <img src=\"bees-with-color/bee-B2DF.svg\" width=\"200\">\n                    <p><span class=\"greenText\"><b>Successful harvest!</b></span><br>Your pay has increased by $0.02. Your bonus pay is now $0.86.</p>\n            ","response":0,"trial_type":"html-button-response","trial_index":132,"time_elapsed":437936,"internal_node_id":"0.0-4.0-1.62","subject_id":"605272be8568b6160f582f2e","study_id":"6197b3f67c2b5cd3b6d9596a","session_id":"6197b9f11bd38b1b227deb1d","condition":"contingent","relevant_dimensions":["pattern","legs"],"bee_group":{"antennae":"X","wings":"X","pattern":"S","legs":"M"},"bonus":1.1800000000000008},{"rt":1283.699999999255,"stimulus":"bees-with-color/bee-A2SM.svg","response":1,"trial_type":"image-button-response","trial_index":133,"time_elapsed":439223,"internal_node_id":"0.0-4.0-0.63","subject_id":"605272be8568b6160f582f2e","study_id":"6197b3f67c2b5cd3b6d9596a","session_id":"6197b9f11bd38b1b227deb1d","condition":"contingent","relevant_dimensions":["pattern","legs"],"bee_group":{"antennae":"X","wings":"X","pattern":"S","legs":"M"},"action":"avoid","summary":"good-avoid","bonus":1.1800000000000008},{"rt":939.6999999992549,"stimulus":"\n                    <p><b>Action: <em>avoid</em></b></p>\n                    <p>This is the bee that you just saw.</p>\n                    <img src=\"bees-with-color/bee-A2SM.svg\" width=\"200\">\n                    <p><br>Your bonus pay is unchanged, and remains at $0.86.</p>\n            ","response":0,"trial_type":"html-button-response","trial_index":134,"time_elapsed":440167,"internal_node_id":"0.0-4.0-1.63","subject_id":"605272be8568b6160f582f2e","study_id":"6197b3f67c2b5cd3b6d9596a","session_id":"6197b9f11bd38b1b227deb1d","condition":"contingent","relevant_dimensions":["pattern","legs"],"bee_group":{"antennae":"X","wings":"X","pattern":"S","legs":"M"},"bonus":1.1800000000000008},{"rt":10543.5,"stimulus":"You have completed the first part of this experiment.<br><br>You will now begin a shorter second part, in which you will receive no feedback.<br>The same rules regarding bonus pay apply.<br><br>Press any key to begin.","response":" ","trial_type":"html-keyboard-response","trial_index":135,"time_elapsed":450713,"internal_node_id":"0.0-5.0","subject_id":"605272be8568b6160f582f2e","study_id":"6197b3f67c2b5cd3b6d9596a","session_id":"6197b9f11bd38b1b227deb1d","condition":"contingent","relevant_dimensions":["pattern","legs"],"bee_group":{"antennae":"X","wings":"X","pattern":"S","legs":"M"},"bonus":1.1800000000000008},{"rt":2239.5,"stimulus":"bees-with-color/bee-A1SM.svg","response":1,"trial_type":"image-button-response","trial_index":136,"time_elapsed":453014,"internal_node_id":"0.0-6.0-0.0","subject_id":"605272be8568b6160f582f2e","study_id":"6197b3f67c2b5cd3b6d9596a","session_id":"6197b9f11bd38b1b227deb1d","condition":"contingent","relevant_dimensions":["pattern","legs"],"bee_group":{"antennae":"X","wings":"X","pattern":"S","legs":"M"},"bonus":1.1800000000000008},{"rt":1322.7000000011176,"stimulus":"bees-with-color/bee-A1DM.svg","response":1,"trial_type":"image-button-response","trial_index":137,"time_elapsed":454341,"internal_node_id":"0.0-6.0-0.1","subject_id":"605272be8568b6160f582f2e","study_id":"6197b3f67c2b5cd3b6d9596a","session_id":"6197b9f11bd38b1b227deb1d","condition":"contingent","relevant_dimensions":["pattern","legs"],"bee_group":{"antennae":"X","wings":"X","pattern":"S","legs":"M"},"bonus":1.1800000000000008},{"rt":1464.1000000014901,"stimulus":"bees-with-color/bee-B1DF.svg","response":0,"trial_type":"image-button-response","trial_index":138,"time_elapsed":455809,"internal_node_id":"0.0-6.0-0.2","subject_id":"605272be8568b6160f582f2e","study_id":"6197b3f67c2b5cd3b6d9596a","session_id":"6197b9f11bd38b1b227deb1d","condition":"contingent","relevant_dimensions":["pattern","legs"],"bee_group":{"antennae":"X","wings":"X","pattern":"S","legs":"M"},"bonus":1.1800000000000008},{"rt":839.8999999985099,"stimulus":"bees-with-color/bee-B1DM.svg","response":1,"trial_type":"image-button-response","trial_index":139,"time_elapsed":456654,"internal_node_id":"0.0-6.0-0.3","subject_id":"605272be8568b6160f582f2e","study_id":"6197b3f67c2b5cd3b6d9596a","session_id":"6197b9f11bd38b1b227deb1d","condition":"contingent","relevant_dimensions":["pattern","legs"],"bee_group":{"antennae":"X","wings":"X","pattern":"S","legs":"M"},"bonus":1.1800000000000008},{"rt":3632,"stimulus":"bees-with-color/bee-A2SF.svg","response":0,"trial_type":"image-button-response","trial_index":140,"time_elapsed":460290,"internal_node_id":"0.0-6.0-0.4","subject_id":"605272be8568b6160f582f2e","study_id":"6197b3f67c2b5cd3b6d9596a","session_id":"6197b9f11bd38b1b227deb1d","condition":"contingent","relevant_dimensions":["pattern","legs"],"bee_group":{"antennae":"X","wings":"X","pattern":"S","legs":"M"},"bonus":1.1800000000000008},{"rt":1118.2000000011176,"stimulus":"bees-with-color/bee-A1SF.svg","response":0,"trial_type":"image-button-response","trial_index":141,"time_elapsed":461412,"internal_node_id":"0.0-6.0-0.5","subject_id":"605272be8568b6160f582f2e","study_id":"6197b3f67c2b5cd3b6d9596a","session_id":"6197b9f11bd38b1b227deb1d","condition":"contingent","relevant_dimensions":["pattern","legs"],"bee_group":{"antennae":"X","wings":"X","pattern":"S","legs":"M"},"bonus":1.1800000000000008},{"rt":1572.9000000003725,"stimulus":"bees-with-color/bee-B1SM.svg","response":1,"trial_type":"image-button-response","trial_index":142,"time_elapsed":462990,"internal_node_id":"0.0-6.0-0.6","subject_id":"605272be8568b6160f582f2e","study_id":"6197b3f67c2b5cd3b6d9596a","session_id":"6197b9f11bd38b1b227deb1d","condition":"contingent","relevant_dimensions":["pattern","legs"],"bee_group":{"antennae":"X","wings":"X","pattern":"S","legs":"M"},"bonus":1.1800000000000008},{"rt":839.0999999996275,"stimulus":"bees-with-color/bee-B1SF.svg","response":0,"trial_type":"image-button-response","trial_index":143,"time_elapsed":463832,"internal_node_id":"0.0-6.0-0.7","subject_id":"605272be8568b6160f582f2e","study_id":"6197b3f67c2b5cd3b6d9596a","session_id":"6197b9f11bd38b1b227deb1d","condition":"contingent","relevant_dimensions":["pattern","legs"],"bee_group":{"antennae":"X","wings":"X","pattern":"S","legs":"M"},"bonus":1.1800000000000008},{"rt":852.0999999996275,"stimulus":"bees-with-color/bee-A2SM.svg","response":1,"trial_type":"image-button-response","trial_index":144,"time_elapsed":464690,"internal_node_id":"0.0-6.0-0.8","subject_id":"605272be8568b6160f582f2e","study_id":"6197b3f67c2b5cd3b6d9596a","session_id":"6197b9f11bd38b1b227deb1d","condition":"contingent","relevant_dimensions":["pattern","legs"],"bee_group":{"antennae":"X","wings":"X","pattern":"S","legs":"M"},"bonus":1.1800000000000008},{"rt":980.3000000007451,"stimulus":"bees-with-color/bee-B2SF.svg","response":0,"trial_type":"image-button-response","trial_index":145,"time_elapsed":465675,"internal_node_id":"0.0-6.0-0.9","subject_id":"605272be8568b6160f582f2e","study_id":"6197b3f67c2b5cd3b6d9596a","session_id":"6197b9f11bd38b1b227deb1d","condition":"contingent","relevant_dimensions":["pattern","legs"],"bee_group":{"antennae":"X","wings":"X","pattern":"S","legs":"M"},"bonus":1.1800000000000008},{"rt":1165.5999999996275,"stimulus":"bees-with-color/bee-A2DF.svg","response":0,"trial_type":"image-button-response","trial_index":146,"time_elapsed":466846,"internal_node_id":"0.0-6.0-0.10","subject_id":"605272be8568b6160f582f2e","study_id":"6197b3f67c2b5cd3b6d9596a","session_id":"6197b9f11bd38b1b227deb1d","condition":"contingent","relevant_dimensions":["pattern","legs"],"bee_group":{"antennae":"X","wings":"X","pattern":"S","legs":"M"},"bonus":1.1800000000000008},{"rt":1632.5999999996275,"stimulus":"bees-with-color/bee-A1DF.svg","response":0,"trial_type":"image-button-response","trial_index":147,"time_elapsed":468483,"internal_node_id":"0.0-6.0-0.11","subject_id":"605272be8568b6160f582f2e","study_id":"6197b3f67c2b5cd3b6d9596a","session_id":"6197b9f11bd38b1b227deb1d","condition":"contingent","relevant_dimensions":["pattern","legs"],"bee_group":{"antennae":"X","wings":"X","pattern":"S","legs":"M"},"bonus":1.1800000000000008},{"rt":896,"stimulus":"bees-with-color/bee-B2DM.svg","response":1,"trial_type":"image-button-response","trial_index":148,"time_elapsed":469383,"internal_node_id":"0.0-6.0-0.12","subject_id":"605272be8568b6160f582f2e","study_id":"6197b3f67c2b5cd3b6d9596a","session_id":"6197b9f11bd38b1b227deb1d","condition":"contingent","relevant_dimensions":["pattern","legs"],"bee_group":{"antennae":"X","wings":"X","pattern":"S","legs":"M"},"bonus":1.1800000000000008},{"rt":1094.5,"stimulus":"bees-with-color/bee-B2DF.svg","response":0,"trial_type":"image-button-response","trial_index":149,"time_elapsed":470483,"internal_node_id":"0.0-6.0-0.13","subject_id":"605272be8568b6160f582f2e","study_id":"6197b3f67c2b5cd3b6d9596a","session_id":"6197b9f11bd38b1b227deb1d","condition":"contingent","relevant_dimensions":["pattern","legs"],"bee_group":{"antennae":"X","wings":"X","pattern":"S","legs":"M"},"bonus":1.1800000000000008},{"rt":898.4000000003725,"stimulus":"bees-with-color/bee-A2DM.svg","response":1,"trial_type":"image-button-response","trial_index":150,"time_elapsed":471388,"internal_node_id":"0.0-6.0-0.14","subject_id":"605272be8568b6160f582f2e","study_id":"6197b3f67c2b5cd3b6d9596a","session_id":"6197b9f11bd38b1b227deb1d","condition":"contingent","relevant_dimensions":["pattern","legs"],"bee_group":{"antennae":"X","wings":"X","pattern":"S","legs":"M"},"bonus":1.1800000000000008},{"rt":1076.800000000745,"stimulus":"bees-with-color/bee-B2SM.svg","response":1,"trial_type":"image-button-response","trial_index":151,"time_elapsed":472468,"internal_node_id":"0.0-6.0-0.15","subject_id":"605272be8568b6160f582f2e","study_id":"6197b3f67c2b5cd3b6d9596a","session_id":"6197b9f11bd38b1b227deb1d","condition":"contingent","relevant_dimensions":["pattern","legs"],"bee_group":{"antennae":"X","wings":"X","pattern":"S","legs":"M"},"bonus":1.1800000000000008},{"rt":715.5,"stimulus":"bees-with-color/bee-A2DM.svg","response":1,"trial_type":"image-button-response","trial_index":152,"time_elapsed":473191,"internal_node_id":"0.0-6.0-0.16","subject_id":"605272be8568b6160f582f2e","study_id":"6197b3f67c2b5cd3b6d9596a","session_id":"6197b9f11bd38b1b227deb1d","condition":"contingent","relevant_dimensions":["pattern","legs"],"bee_group":{"antennae":"X","wings":"X","pattern":"S","legs":"M"},"bonus":1.1800000000000008},{"rt":888.3000000007451,"stimulus":"bees-with-color/bee-B2SM.svg","response":1,"trial_type":"image-button-response","trial_index":153,"time_elapsed":474084,"internal_node_id":"0.0-6.0-0.17","subject_id":"605272be8568b6160f582f2e","study_id":"6197b3f67c2b5cd3b6d9596a","session_id":"6197b9f11bd38b1b227deb1d","condition":"contingent","relevant_dimensions":["pattern","legs"],"bee_group":{"antennae":"X","wings":"X","pattern":"S","legs":"M"},"bonus":1.1800000000000008},{"rt":682.8999999985099,"stimulus":"bees-with-color/bee-A2SM.svg","response":1,"trial_type":"image-button-response","trial_index":154,"time_elapsed":474770,"internal_node_id":"0.0-6.0-0.18","subject_id":"605272be8568b6160f582f2e","study_id":"6197b3f67c2b5cd3b6d9596a","session_id":"6197b9f11bd38b1b227deb1d","condition":"contingent","relevant_dimensions":["pattern","legs"],"bee_group":{"antennae":"X","wings":"X","pattern":"S","legs":"M"},"bonus":1.1800000000000008},{"rt":1046.5999999996275,"stimulus":"bees-with-color/bee-A1DF.svg","response":0,"trial_type":"image-button-response","trial_index":155,"time_elapsed":475821,"internal_node_id":"0.0-6.0-0.19","subject_id":"605272be8568b6160f582f2e","study_id":"6197b3f67c2b5cd3b6d9596a","session_id":"6197b9f11bd38b1b227deb1d","condition":"contingent","relevant_dimensions":["pattern","legs"],"bee_group":{"antennae":"X","wings":"X","pattern":"S","legs":"M"},"bonus":1.1800000000000008},{"rt":1264.4000000003725,"stimulus":"bees-with-color/bee-A1DM.svg","response":1,"trial_type":"image-button-response","trial_index":156,"time_elapsed":477088,"internal_node_id":"0.0-6.0-0.20","subject_id":"605272be8568b6160f582f2e","study_id":"6197b3f67c2b5cd3b6d9596a","session_id":"6197b9f11bd38b1b227deb1d","condition":"contingent","relevant_dimensions":["pattern","legs"],"bee_group":{"antennae":"X","wings":"X","pattern":"S","legs":"M"},"bonus":1.1800000000000008},{"rt":1812.5,"stimulus":"bees-with-color/bee-A2SF.svg","response":0,"trial_type":"image-button-response","trial_index":157,"time_elapsed":478905,"internal_node_id":"0.0-6.0-0.21","subject_id":"605272be8568b6160f582f2e","study_id":"6197b3f67c2b5cd3b6d9596a","session_id":"6197b9f11bd38b1b227deb1d","condition":"contingent","relevant_dimensions":["pattern","legs"],"bee_group":{"antennae":"X","wings":"X","pattern":"S","legs":"M"},"bonus":1.1800000000000008},{"rt":1246.3999999985099,"stimulus":"bees-with-color/bee-A2DF.svg","response":0,"trial_type":"image-button-response","trial_index":158,"time_elapsed":480156,"internal_node_id":"0.0-6.0-0.22","subject_id":"605272be8568b6160f582f2e","study_id":"6197b3f67c2b5cd3b6d9596a","session_id":"6197b9f11bd38b1b227deb1d","condition":"contingent","relevant_dimensions":["pattern","legs"],"bee_group":{"antennae":"X","wings":"X","pattern":"S","legs":"M"},"bonus":1.1800000000000008},{"rt":1227.0999999996275,"stimulus":"bees-with-color/bee-A1SF.svg","response":0,"trial_type":"image-button-response","trial_index":159,"time_elapsed":481389,"internal_node_id":"0.0-6.0-0.23","subject_id":"605272be8568b6160f582f2e","study_id":"6197b3f67c2b5cd3b6d9596a","session_id":"6197b9f11bd38b1b227deb1d","condition":"contingent","relevant_dimensions":["pattern","legs"],"bee_group":{"antennae":"X","wings":"X","pattern":"S","legs":"M"},"bonus":1.1800000000000008},{"rt":715.2000000011176,"stimulus":"bees-with-color/bee-B1SF.svg","response":0,"trial_type":"image-button-response","trial_index":160,"time_elapsed":482110,"internal_node_id":"0.0-6.0-0.24","subject_id":"605272be8568b6160f582f2e","study_id":"6197b3f67c2b5cd3b6d9596a","session_id":"6197b9f11bd38b1b227deb1d","condition":"contingent","relevant_dimensions":["pattern","legs"],"bee_group":{"antennae":"X","wings":"X","pattern":"S","legs":"M"},"bonus":1.1800000000000008},{"rt":1498.5,"stimulus":"bees-with-color/bee-B1DF.svg","response":0,"trial_type":"image-button-response","trial_index":161,"time_elapsed":483611,"internal_node_id":"0.0-6.0-0.25","subject_id":"605272be8568b6160f582f2e","study_id":"6197b3f67c2b5cd3b6d9596a","session_id":"6197b9f11bd38b1b227deb1d","condition":"contingent","relevant_dimensions":["pattern","legs"],"bee_group":{"antennae":"X","wings":"X","pattern":"S","legs":"M"},"bonus":1.1800000000000008},{"rt":1055.2999999988824,"stimulus":"bees-with-color/bee-B2DM.svg","response":1,"trial_type":"image-button-response","trial_index":162,"time_elapsed":484672,"internal_node_id":"0.0-6.0-0.26","subject_id":"605272be8568b6160f582f2e","study_id":"6197b3f67c2b5cd3b6d9596a","session_id":"6197b9f11bd38b1b227deb1d","condition":"contingent","relevant_dimensions":["pattern","legs"],"bee_group":{"antennae":"X","wings":"X","pattern":"S","legs":"M"},"bonus":1.1800000000000008},{"rt":3362.2000000011176,"stimulus":"bees-with-color/bee-B2DF.svg","response":0,"trial_type":"image-button-response","trial_index":163,"time_elapsed":488040,"internal_node_id":"0.0-6.0-0.27","subject_id":"605272be8568b6160f582f2e","study_id":"6197b3f67c2b5cd3b6d9596a","session_id":"6197b9f11bd38b1b227deb1d","condition":"contingent","relevant_dimensions":["pattern","legs"],"bee_group":{"antennae":"X","wings":"X","pattern":"S","legs":"M"},"bonus":1.1800000000000008},{"rt":1340.5999999996275,"stimulus":"bees-with-color/bee-B2SF.svg","response":0,"trial_type":"image-button-response","trial_index":164,"time_elapsed":489384,"internal_node_id":"0.0-6.0-0.28","subject_id":"605272be8568b6160f582f2e","study_id":"6197b3f67c2b5cd3b6d9596a","session_id":"6197b9f11bd38b1b227deb1d","condition":"contingent","relevant_dimensions":["pattern","legs"],"bee_group":{"antennae":"X","wings":"X","pattern":"S","legs":"M"},"bonus":1.1800000000000008},{"rt":1197.7999999988824,"stimulus":"bees-with-color/bee-B1SM.svg","response":1,"trial_type":"image-button-response","trial_index":165,"time_elapsed":490588,"internal_node_id":"0.0-6.0-0.29","subject_id":"605272be8568b6160f582f2e","study_id":"6197b3f67c2b5cd3b6d9596a","session_i