[{"success":true,"trial_type":"fullscreen","trial_index":0,"time_elapsed":4552,"internal_node_id":"0.0-0.0","subject_id":"614de064c8a4991213499b1c","study_id":"6197b3f67c2b5cd3b6d9596a","session_id":"6197b88de344d93202ad887c","condition":"contingent","relevant_dimensions":["wings","pattern"],"bee_group":{"antennae":"X","wings":"2","pattern":"D","legs":"X"},"bonus":1.2600000000000007},{"success":true,"timeout":false,"failed_images":[],"failed_audio":[],"failed_video":[],"trial_type":"preload","trial_index":1,"time_elapsed":25489,"internal_node_id":"0.0-1.0","subject_id":"614de064c8a4991213499b1c","study_id":"6197b3f67c2b5cd3b6d9596a","session_id":"6197b88de344d93202ad887c","condition":"contingent","relevant_dimensions":["wings","pattern"],"bee_group":{"antennae":"X","wings":"2","pattern":"D","legs":"X"},"bonus":1.2600000000000007},{"rt":7465.60000000149,"stimulus":"Welcome! Press any key to begin.","response":"g","trial_type":"html-keyboard-response","trial_index":2,"time_elapsed":32959,"internal_node_id":"0.0-2.0","subject_id":"614de064c8a4991213499b1c","study_id":"6197b3f67c2b5cd3b6d9596a","session_id":"6197b88de344d93202ad887c","condition":"contingent","relevant_dimensions":["wings","pattern"],"bee_group":{"antennae":"X","wings":"2","pattern":"D","legs":"X"},"bonus":1.2600000000000007},{"view_history":[{"page_index":0,"viewing_time":10929.60000000149},{"page_index":1,"viewing_time":13936.39999999851},{"page_index":2,"viewing_time":13600.10000000149},{"page_index":3,"viewing_time":14361.19999999553},{"page_index":4,"viewing_time":12391.40000000596},{"page_index":5,"viewing_time":6719.79999999702},{"page_index":6,"viewing_time":7632.60000000149},{"page_index":7,"viewing_time":4698.79999999702},{"page_index":6,"viewing_time":7494.70000000298},{"page_index":7,"viewing_time":6376.79999999702},{"page_index":8,"viewing_time":7136.89999999851},{"page_index":9,"viewing_time":2318.60000000149},{"page_index":10,"viewing_time":2326.39999999851},{"page_index":11,"viewing_time":7354.10000000149},{"page_index":12,"viewing_time":20144},{"page_index":13,"viewing_time":2665.7000000029802},{"page_index":14,"viewing_time":2861.39999999851}],"rt":142950.6000000015,"trial_type":"instructions","trial_index":3,"time_elapsed":175915,"internal_node_id":"0.0-3.0-0.0","subject_id":"614de064c8a4991213499b1c","study_id":"6197b3f67c2b5cd3b6d9596a","session_id":"6197b88de344d93202ad887c","condition":"contingent","relevant_dimensions":["wings","pattern"],"bee_group":{"antennae":"X","wings":"2","pattern":"D","legs":"X"},"bonus":1.2600000000000007},{"rt":30653.20000000298,"response":{"Q0":["Two or six legs","Stripes or spots on body","Single or double wings","Antennae or no antennae"]},"question_order":[0],"trial_type":"survey-multi-select","trial_index":4,"time_elapsed":206609,"internal_node_id":"0.0-3.0-1.0","subject_id":"614de064c8a4991213499b1c","study_id":"6197b3f67c2b5cd3b6d9596a","session_id":"6197b88de344d93202ad887c","condition":"contingent","relevant_dimensions":["wings","pattern"],"bee_group":{"antennae":"X","wings":"2","pattern":"D","legs":"X"},"correct":true,"bonus":1.2600000000000007},{"rt":54832.40000000596,"response":{"Q1":"Yes.","Q2":"Based on the color of the bee.","Q3":"You do not learn if it was friendly or dangerous, and do not alter your bonus."},"question_order":[0,1,2],"trial_type":"survey-multi-choice","trial_index":5,"time_elapsed":261459,"internal_node_id":"0.0-3.0-2.0","subject_id":"614de064c8a4991213499b1c","study_id":"6197b3f67c2b5cd3b6d9596a","session_id":"6197b88de344d93202ad887c","condition":"contingent","relevant_dimensions":["wings","pattern"],"bee_group":{"antennae":"X","wings":"2","pattern":"D","legs":"X"},"correct":false,"bonus":1.2600000000000007},{"rt":4574.79999999702,"stimulus":"<p>You did not answer all comprehension questions correctly.<br>Press <b>continue</b> to review the instructions again.</p>","response":0,"trial_type":"html-button-response","trial_index":6,"time_elapsed":266046,"internal_node_id":"0.0-3.0-3.0","subject_id":"614de064c8a4991213499b1c","study_id":"6197b3f67c2b5cd3b6d9596a","session_id":"6197b88de344d93202ad887c","condition":"contingent","relevant_dimensions":["wings","pattern"],"bee_group":{"antennae":"X","wings":"2","pattern":"D","legs":"X"},"bonus":1.2600000000000007},{"view_history":[{"page_index":0,"viewing_time":1704.8999999985099},{"page_index":1,"viewing_time":31280.70000000298},{"page_index":2,"viewing_time":7607.69999999553},{"page_index":3,"viewing_time":14120.10000000149},{"page_index":4,"viewing_time":6304.39999999851},{"page_index":5,"viewing_time":3615.7000000029802},{"page_index":6,"viewing_time":5240.19999999553},{"page_index":7,"viewing_time":2369},{"page_index":8,"viewing_time":1296.6000000014901},{"page_index":9,"viewing_time":2727.2000000029802},{"page_index":10,"viewing_time":2129.2999999970198},{"page_index":11,"viewing_time":2950.3000000044703},{"page_index":12,"viewing_time":2952.89999999851},{"page_index":11,"viewing_time":17840.19999999553},{"page_index":12,"viewing_time":5977.5},{"page_index":13,"viewing_time":2175},{"page_index":14,"viewing_time":808.6000000014901}],"rt":111103.5,"trial_type":"instructions","trial_index":7,"time_elapsed":377158,"internal_node_id":"0.0-3.0-4.0-0.0","subject_id":"614de064c8a4991213499b1c","study_id":"6197b3f67c2b5cd3b6d9596a","session_id":"6197b88de344d93202ad887c","condition":"contingent","relevant_dimensions":["wings","pattern"],"bee_group":{"antennae":"X","wings":"2","pattern":"D","legs":"X"},"bonus":1.2600000000000007},{"rt":8756.90000000596,"response":{"Q0":["Two or six legs","Stripes or spots on body","Single or double wings","Antennae or no antennae"]},"question_order":[0],"trial_type":"survey-multi-select","trial_index":8,"time_elapsed":385939,"internal_node_id":"0.0-3.0-4.0-1.0","subject_id":"614de064c8a4991213499b1c","study_id":"6197b3f67c2b5cd3b6d9596a","session_id":"6197b88de344d93202ad887c","condition":"contingent","relevant_dimensions":["wings","pattern"],"bee_group":{"antennae":"X","wings":"2","pattern":"D","legs":"X"},"correct":true,"bonus":1.2600000000000007},{"rt":24967,"response":{"Q1":"No.","Q2":"Based on the four features of the bee.","Q3":"You do not learn if it was friendly or dangerous, and do not alter your bonus."},"question_order":[0,1,2],"trial_type":"survey-multi-choice","trial_index":9,"time_elapsed":410919,"internal_node_id":"0.0-3.0-4.0-2.0","subject_id":"614de064c8a4991213499b1c","study_id":"6197b3f67c2b5cd3b6d9596a","session_id":"6197b88de344d93202ad887c","condition":"contingent","relevant_dimensions":["wings","pattern"],"bee_group":{"antennae":"X","wings":"2","pattern":"D","legs":"X"},"correct":true,"bonus":1.2600000000000007},{"rt":5201.39999999851,"stimulus":"<p>Congrats, you got everything right<br>When you're ready, click the button below to continue to the experiment.</p>","response":0,"trial_type":"html-button-response","trial_index":10,"time_elapsed":416131,"internal_node_id":"0.0-3.0-4.0-3.0","subject_id":"614de064c8a4991213499b1c","study_id":"6197b3f67c2b5cd3b6d9596a","session_id":"6197b88de344d93202ad887c","condition":"contingent","relevant_dimensions":["wings","pattern"],"bee_group":{"antennae":"X","wings":"2","pattern":"D","legs":"X"},"bonus":1.2600000000000007},{"rt":6629.39999999851,"stimulus":"bees-with-color/bee-A1SM.svg","response":1,"trial_type":"image-button-response","trial_index":11,"time_elapsed":422780,"internal_node_id":"0.0-4.0-0.0","subject_id":"614de064c8a4991213499b1c","study_id":"6197b3f67c2b5cd3b6d9596a","session_id":"6197b88de344d93202ad887c","condition":"contingent","relevant_dimensions":["wings","pattern"],"bee_group":{"antennae":"X","wings":"2","pattern":"D","legs":"X"},"action":"avoid","summary":"bad-avoid","bonus":1.2600000000000007},{"rt":7011.60000000149,"stimulus":"\n                    <p><b>Action: <em>avoid</em></b></p>\n                    <p>This is the bee that you just saw.</p>\n                    <img src=\"bees-with-color/bee-A1SM.svg\" width=\"200\">\n                    <p><br>Your bonus pay is unchanged, and remains at $0.54.</p>\n            ","response":0,"trial_type":"html-button-response","trial_index":12,"time_elapsed":429810,"internal_node_id":"0.0-4.0-1.0","subject_id":"614de064c8a4991213499b1c","study_id":"6197b3f67c2b5cd3b6d9596a","session_id":"6197b88de344d93202ad887c","condition":"contingent","relevant_dimensions":["wings","pattern"],"bee_group":{"antennae":"X","wings":"2","pattern":"D","legs":"X"},"bonus":1.2600000000000007},{"rt":5535.5,"stimulus":"bees-with-color/bee-A2DF.svg","response":0,"trial_type":"image-button-response","trial_index":13,"time_elapsed":435354,"internal_node_id":"0.0-4.0-0.1","subject_id":"614de064c8a4991213499b1c","study_id":"6197b3f67c2b5cd3b6d9596a","session_id":"6197b88de344d93202ad887c","condition":"contingent","relevant_dimensions":["wings","pattern"],"bee_group":{"antennae":"X","wings":"2","pattern":"D","legs":"X"},"action":"harvest","summary":"bad-harvest","bonus":1.2600000000000007},{"rt":3961,"stimulus":"\n                    <p><b>Action: <em>harvest</em></b></p>\n                    <p>This is the bee that you just saw.</p>\n                    <img src=\"bees-with-color/bee-A2DF.svg\" width=\"200\">\n                    <p><span class=\"redText\">Bad choice, the bee was angry.</span><br><b>You have been stung!</b><br>Your pay has been decreased by $0.10. Your bonus pay is now $0.44.</p>\n            ","response":0,"trial_type":"html-button-response","trial_index":14,"time_elapsed":439323,"internal_node_id":"0.0-4.0-1.1","subject_id":"614de064c8a4991213499b1c","study_id":"6197b3f67c2b5cd3b6d9596a","session_id":"6197b88de344d93202ad887c","condition":"contingent","relevant_dimensions":["wings","pattern"],"bee_group":{"antennae":"X","wings":"2","pattern":"D","legs":"X"},"bonus":1.2600000000000007},{"rt":2222.10000000149,"stimulus":"bees-with-color/bee-B2SF.svg","response":0,"trial_type":"image-button-response","trial_index":15,"time_elapsed":441555,"internal_node_id":"0.0-4.0-0.2","subject_id":"614de064c8a4991213499b1c","study_id":"6197b3f67c2b5cd3b6d9596a","session_id":"6197b88de344d93202ad887c","condition":"contingent","relevant_dimensions":["wings","pattern"],"bee_group":{"antennae":"X","wings":"2","pattern":"D","legs":"X"},"action":"harvest","summary":"good-harvest","bonus":1.2600000000000007},{"rt":1887.7999999970198,"stimulus":"\n                    <p><b>Action: <em>harvest</em></b></p>\n                    <p>This is the bee that you just saw.</p>\n                    <img src=\"bees-with-color/bee-B2SF.svg\" width=\"200\">\n                    <p><span class=\"greenText\"><b>Successful harvest!</b></span><br>Your pay has increased by $0.02. Your bonus pay is now $0.46.</p>\n            ","response":0,"trial_type":"html-button-response","trial_index":16,"time_elapsed":443451,"internal_node_id":"0.0-4.0-1.2","subject_id":"614de064c8a4991213499b1c","study_id":"6197b3f67c2b5cd3b6d9596a","session_id":"6197b88de344d93202ad887c","condition":"contingent","relevant_dimensions":["wings","pattern"],"bee_group":{"antennae":"X","wings":"2","pattern":"D","legs":"X"},"bonus":1.2600000000000007},{"rt":3839.5,"stimulus":"bees-with-color/bee-B1DM.svg","response":1,"trial_type":"image-button-response","trial_index":17,"time_elapsed":447298,"internal_node_id":"0.0-4.0-0.3","subject_id":"614de064c8a4991213499b1c","study_id":"6197b3f67c2b5cd3b6d9596a","session_id":"6197b88de344d93202ad887c","condition":"contingent","relevant_dimensions":["wings","pattern"],"bee_group":{"antennae":"X","wings":"2","pattern":"D","legs":"X"},"action":"avoid","summary":"bad-avoid","bonus":1.2600000000000007},{"rt":2298.60000000149,"stimulus":"\n                    <p><b>Action: <em>avoid</em></b></p>\n                    <p>This is the bee that you just saw.</p>\n                    <img src=\"bees-with-color/bee-B1DM.svg\" width=\"200\">\n                    <p><br>Your bonus pay is unchanged, and remains at $0.46.</p>\n            ","response":0,"trial_type":"html-button-response","trial_index":18,"time_elapsed":449603,"internal_node_id":"0.0-4.0-1.3","subject_id":"614de064c8a4991213499b1c","study_id":"6197b3f67c2b5cd3b6d9596a","session_id":"6197b88de344d93202ad887c","condition":"contingent","relevant_dimensions":["wings","pattern"],"bee_group":{"antennae":"X","wings":"2","pattern":"D","legs":"X"},"bonus":1.2600000000000007},{"rt":3262.2999999970198,"stimulus":"bees-with-color/bee-A1DF.svg","response":1,"trial_type":"image-button-response","trial_index":19,"time_elapsed":452875,"internal_node_id":"0.0-4.0-0.4","subject_id":"614de064c8a4991213499b1c","study_id":"6197b3f67c2b5cd3b6d9596a","session_id":"6197b88de344d93202ad887c","condition":"contingent","relevant_dimensions":["wings","pattern"],"bee_group":{"antennae":"X","wings":"2","pattern":"D","legs":"X"},"action":"avoid","summary":"bad-avoid","bonus":1.2600000000000007},{"rt":2775.7000000029802,"stimulus":"\n                    <p><b>Action: <em>avoid</em></b></p>\n                    <p>This is the bee that you just saw.</p>\n                    <img src=\"bees-with-color/bee-A1DF.svg\" width=\"200\">\n                    <p><br>Your bonus pay is unchanged, and remains at $0.46.</p>\n            ","response":0,"trial_type":"html-button-response","trial_index":20,"time_elapsed":455660,"internal_node_id":"0.0-4.0-1.4","subject_id":"614de064c8a4991213499b1c","study_id":"6197b3f67c2b5cd3b6d9596a","session_id":"6197b88de344d93202ad887c","condition":"contingent","relevant_dimensions":["wings","pattern"],"bee_group":{"antennae":"X","wings":"2","pattern":"D","legs":"X"},"bonus":1.2600000000000007},{"rt":3886.7000000029802,"stimulus":"bees-with-color/bee-B2DF.svg","response":1,"trial_type":"image-button-response","trial_index":21,"time_elapsed":459555,"internal_node_id":"0.0-4.0-0.5","subject_id":"614de064c8a4991213499b1c","study_id":"6197b3f67c2b5cd3b6d9596a","session_id":"6197b88de344d93202ad887c","condition":"contingent","relevant_dimensions":["wings","pattern"],"bee_group":{"antennae":"X","wings":"2","pattern":"D","legs":"X"},"action":"avoid","summary":"good-avoid","bonus":1.2600000000000007},{"rt":2023.7999999970198,"stimulus":"\n                    <p><b>Action: <em>avoid</em></b></p>\n                    <p>This is the bee that you just saw.</p>\n                    <img src=\"bees-with-color/bee-B2DF.svg\" width=\"200\">\n                    <p><br>Your bonus pay is unchanged, and remains at $0.46.</p>\n            ","response":0,"trial_type":"html-button-response","trial_index":22,"time_elapsed":461586,"internal_node_id":"0.0-4.0-1.5","subject_id":"614de064c8a4991213499b1c","study_id":"6197b3f67c2b5cd3b6d9596a","session_id":"6197b88de344d93202ad887c","condition":"contingent","relevant_dimensions":["wings","pattern"],"bee_group":{"antennae":"X","wings":"2","pattern":"D","legs":"X"},"bonus":1.2600000000000007},{"rt":4532.60000000149,"stimulus":"bees-with-color/bee-B1SM.svg","response":0,"trial_type":"image-button-response","trial_index":23,"time_elapsed":466130,"internal_node_id":"0.0-4.0-0.6","subject_id":"614de064c8a4991213499b1c","study_id":"6197b3f67c2b5cd3b6d9596a","session_id":"6197b88de344d93202ad887c","condition":"contingent","relevant_dimensions":["wings","pattern"],"bee_group":{"antennae":"X","wings":"2","pattern":"D","legs":"X"},"action":"harvest","summary":"good-harvest","bonus":1.2600000000000007},{"rt":1450.3999999985099,"stimulus":"\n                    <p><b>Action: <em>harvest</em></b></p>\n                    <p>This is the bee that you just saw.</p>\n                    <img src=\"bees-with-color/bee-B1SM.svg\" width=\"200\">\n                    <p><span class=\"greenText\"><b>Successful harvest!</b></span><br>Your pay has increased by $0.02. Your bonus pay is now $0.48.</p>\n            ","response":0,"trial_type":"html-button-response","trial_index":24,"time_elapsed":467587,"internal_node_id":"0.0-4.0-1.6","subject_id":"614de064c8a4991213499b1c","study_id":"6197b3f67c2b5cd3b6d9596a","session_id":"6197b88de344d93202ad887c","condition":"contingent","relevant_dimensions":["wings","pattern"],"bee_group":{"antennae":"X","wings":"2","pattern":"D","legs":"X"},"bonus":1.2600000000000007},{"rt":1944.6000000014901,"stimulus":"bees-with-color/bee-A1DM.svg","response":1,"trial_type":"image-button-response","trial_index":25,"time_elapsed":469538,"internal_node_id":"0.0-4.0-0.7","subject_id":"614de064c8a4991213499b1c","study_id":"6197b3f67c2b5cd3b6d9596a","session_id":"6197b88de344d93202ad887c","condition":"contingent","relevant_dimensions":["wings","pattern"],"bee_group":{"antennae":"X","wings":"2","pattern":"D","legs":"X"},"action":"avoid","summary":"bad-avoid","bonus":1.2600000000000007},{"rt":1379,"stimulus":"\n                    <p><b>Action: <em>avoid</em></b></p>\n                    <p>This is the bee that you just saw.</p>\n                    <img src=\"bees-with-color/bee-A1DM.svg\" width=\"200\">\n                    <p><br>Your bonus pay is unchanged, and remains at $0.48.</p>\n            ","response":0,"trial_type":"html-button-response","trial_index":26,"time_elapsed":470924,"internal_node_id":"0.0-4.0-1.7","subject_id":"614de064c8a4991213499b1c","study_id":"6197b3f67c2b5cd3b6d9596a","session_id":"6197b88de344d93202ad887c","condition":"contingent","relevant_dimensions":["wings","pattern"],"bee_group":{"antennae":"X","wings":"2","pattern":"D","legs":"X"},"bonus":1.2600000000000007},{"rt":3161,"stimulus":"bees-with-color/bee-A2SM.svg","response":0,"trial_type":"image-button-response","trial_index":27,"time_elapsed":474091,"internal_node_id":"0.0-4.0-0.8","subject_id":"614de064c8a4991213499b1c","study_id":"6197b3f67c2b5cd3b6d9596a","session_id":"6197b88de344d93202ad887c","condition":"contingent","relevant_dimensions":["wings","pattern"],"bee_group":{"antennae":"X","wings":"2","pattern":"D","legs":"X"},"action":"harvest","summary":"good-harvest","bonus":1.2600000000000007},{"rt":1996,"stimulus":"\n                    <p><b>Action: <em>harvest</em></b></p>\n                    <p>This is the bee that you just saw.</p>\n                    <img src=\"bees-with-color/bee-A2SM.svg\" width=\"200\">\n                    <p><span class=\"greenText\"><b>Successful harvest!</b></span><br>Your pay has increased by $0.02. Your bonus pay is now $0.50.</p>\n            ","response":0,"trial_type":"html-button-response","trial_index":28,"time_elapsed":476092,"internal_node_id":"0.0-4.0-1.8","subject_id":"614de064c8a4991213499b1c","study_id":"6197b3f67c2b5cd3b6d9596a","session_id":"6197b88de344d93202ad887c","condition":"contingent","relevant_dimensions":["wings","pattern"],"bee_group":{"antennae":"X","wings":"2","pattern":"D","legs":"X"},"bonus":1.2600000000000007},{"rt":1857.5,"stimulus":"bees-with-color/bee-A2DM.svg","response":1,"trial_type":"image-button-response","trial_index":29,"time_elapsed":477957,"internal_node_id":"0.0-4.0-0.9","subject_id":"614de064c8a4991213499b1c","study_id":"6197b3f67c2b5cd3b6d9596a","session_id":"6197b88de344d93202ad887c","condition":"contingent","relevant_dimensions":["wings","pattern"],"bee_group":{"antennae":"X","wings":"2","pattern":"D","legs":"X"},"action":"avoid","summary":"good-avoid","bonus":1.2600000000000007},{"rt":1424.4000000059605,"stimulus":"\n                    <p><b>Action: <em>avoid</em></b></p>\n                    <p>This is the bee that you just saw.</p>\n                    <img src=\"bees-with-color/bee-A2DM.svg\" width=\"200\">\n                    <p><br>Your bonus pay is unchanged, and remains at $0.50.</p>\n            ","response":0,"trial_type":"html-button-response","trial_index":30,"time_elapsed":479387,"internal_node_id":"0.0-4.0-1.9","subject_id":"614de064c8a4991213499b1c","study_id":"6197b3f67c2b5cd3b6d9596a","session_id":"6197b88de344d93202ad887c","condition":"contingent","relevant_dimensions":["wings","pattern"],"bee_group":{"antennae":"X","wings":"2","pattern":"D","legs":"X"},"bonus":1.2600000000000007},{"rt":1731.3999999985099,"stimulus":"bees-with-color/bee-B2DM.svg","response":1,"trial_type":"image-button-response","trial_index":31,"time_elapsed":481124,"internal_node_id":"0.0-4.0-0.10","subject_id":"614de064c8a4991213499b1c","study_id":"6197b3f67c2b5cd3b6d9596a","session_id":"6197b88de344d93202ad887c","condition":"contingent","relevant_dimensions":["wings","pattern"],"bee_group":{"antennae":"X","wings":"2","pattern":"D","legs":"X"},"action":"avoid","summary":"good-avoid","bonus":1.2600000000000007},{"rt":1242.2999999970198,"stimulus":"\n                    <p><b>Action: <em>avoid</em></b></p>\n                    <p>This is the bee that you just saw.</p>\n                    <img src=\"bees-with-color/bee-B2DM.svg\" width=\"200\">\n                    <p><br>Your bonus pay is unchanged, and remains at $0.50.</p>\n            ","response":0,"trial_type":"html-button-response","trial_index":32,"time_elapsed":482371,"internal_node_id":"0.0-4.0-1.10","subject_id":"614de064c8a4991213499b1c","study_id":"6197b3f67c2b5cd3b6d9596a","session_id":"6197b88de344d93202ad887c","condition":"contingent","relevant_dimensions":["wings","pattern"],"bee_group":{"antennae":"X","wings":"2","pattern":"D","legs":"X"},"bonus":1.2600000000000007},{"rt":3611.7999999970198,"stimulus":"bees-with-color/bee-A1SF.svg","response":1,"trial_type":"image-button-response","trial_index":33,"time_elapsed":485990,"internal_node_id":"0.0-4.0-0.11","subject_id":"614de064c8a4991213499b1c","study_id":"6197b3f67c2b5cd3b6d9596a","session_id":"6197b88de344d93202ad887c","condition":"contingent","relevant_dimensions":["wings","pattern"],"bee_group":{"antennae":"X","wings":"2","pattern":"D","legs":"X"},"action":"avoid","summary":"bad-avoid","bonus":1.2600000000000007},{"rt":1064.2999999970198,"stimulus":"\n                    <p><b>Action: <em>avoid</em></b></p>\n                    <p>This is the bee that you just saw.</p>\n                    <img src=\"bees-with-color/bee-A1SF.svg\" width=\"200\">\n                    <p><br>Your bonus pay is unchanged, and remains at $0.50.</p>\n            ","response":0,"trial_type":"html-button-response","trial_index":34,"time_elapsed":487059,"internal_node_id":"0.0-4.0-1.11","subject_id":"614de064c8a4991213499b1c","study_id":"6197b3f67c2b5cd3b6d9596a","session_id":"6197b88de344d93202ad887c","condition":"contingent","relevant_dimensions":["wings","pattern"],"bee_group":{"antennae":"X","wings":"2","pattern":"D","legs":"X"},"bonus":1.2600000000000007},{"rt":1994.3000000044703,"stimulus":"bees-with-color/bee-B2SM.svg","response":0,"trial_type":"image-button-response","trial_index":35,"time_elapsed":489059,"internal_node_id":"0.0-4.0-0.12","subject_id":"614de064c8a4991213499b1c","study_id":"6197b3f67c2b5cd3b6d9596a","session_id":"6197b88de344d93202ad887c","condition":"contingent","relevant_dimensions":["wings","pattern"],"bee_group":{"antennae":"X","wings":"2","pattern":"D","legs":"X"},"action":"harvest","summary":"good-harvest","bonus":1.2600000000000007},{"rt":2027.1000000014901,"stimulus":"\n                    <p><b>Action: <em>harvest</em></b></p>\n                    <p>This is the bee that you just saw.</p>\n                    <img src=\"bees-with-color/bee-B2SM.svg\" width=\"200\">\n                    <p><span class=\"greenText\"><b>Successful harvest!</b></span><br>Your pay has increased by $0.02. Your bonus pay is now $0.52.</p>\n            ","response":0,"trial_type":"html-button-response","trial_index":36,"time_elapsed":491092,"internal_node_id":"0.0-4.0-1.12","subject_id":"614de064c8a4991213499b1c","study_id":"6197b3f67c2b5cd3b6d9596a","session_id":"6197b88de344d93202ad887c","condition":"contingent","relevant_dimensions":["wings","pattern"],"bee_group":{"antennae":"X","wings":"2","pattern":"D","legs":"X"},"bonus":1.2600000000000007},{"rt":1657.6000000014901,"stimulus":"bees-with-color/bee-B1DF.svg","response":1,"trial_type":"image-button-response","trial_index":37,"time_elapsed":492755,"internal_node_id":"0.0-4.0-0.13","subject_id":"614de064c8a4991213499b1c","study_id":"6197b3f67c2b5cd3b6d9596a","session_id":"6197b88de344d93202ad887c","condition":"contingent","relevant_dimensions":["wings","pattern"],"bee_group":{"antennae":"X","wings":"2","pattern":"D","legs":"X"},"action":"avoid","summary":"bad-avoid","bonus":1.2600000000000007},{"rt":1411,"stimulus":"\n                    <p><b>Action: <em>avoid</em></b></p>\n                    <p>This is the bee that you just saw.</p>\n                    <img src=\"bees-with-color/bee-B1DF.svg\" width=\"200\">\n                    <p><br>Your bonus pay is unchanged, and remains at $0.52.</p>\n            ","response":0,"trial_type":"html-button-response","trial_index":38,"time_elapsed":494172,"internal_node_id":"0.0-4.0-1.13","subject_id":"614de064c8a4991213499b1c","study_id":"6197b3f67c2b5cd3b6d9596a","session_id":"6197b88de344d93202ad887c","condition":"contingent","relevant_dimensions":["wings","pattern"],"bee_group":{"antennae":"X","wings":"2","pattern":"D","legs":"X"},"bonus":1.2600000000000007},{"rt":2090.10000000149,"stimulus":"bees-with-color/bee-A2SF.svg","response":0,"trial_type":"image-button-response","trial_index":39,"time_elapsed":496269,"internal_node_id":"0.0-4.0-0.14","subject_id":"614de064c8a4991213499b1c","study_id":"6197b3f67c2b5cd3b6d9596a","session_id":"6197b88de344d93202ad887c","condition":"contingent","relevant_dimensions":["wings","pattern"],"bee_group":{"antennae":"X","wings":"2","pattern":"D","legs":"X"},"action":"harvest","summary":"good-harvest","bonus":1.2600000000000007},{"rt":1602.5,"stimulus":"\n                    <p><b>Action: <em>harvest</em></b></p>\n                    <p>This is the bee that you just saw.</p>\n                    <img src=\"bees-with-color/bee-A2SF.svg\" width=\"200\">\n                    <p><span class=\"greenText\"><b>Successful harvest!</b></span><br>Your pay has increased by $0.02. Your bonus pay is now $0.54.</p>\n            ","response":0,"trial_type":"html-button-response","trial_index":40,"time_elapsed":497876,"internal_node_id":"0.0-4.0-1.14","subject_id":"614de064c8a4991213499b1c","study_id":"6197b3f67c2b5cd3b6d9596a","session_id":"6197b88de344d93202ad887c","condition":"contingent","relevant_dimensions":["wings","pattern"],"bee_group":{"antennae":"X","wings":"2","pattern":"D","legs":"X"},"bonus":1.2600000000000007},{"rt":2560.7999999970198,"stimulus":"bees-with-color/bee-B1SF.svg","response":1,"trial_type":"image-button-response","trial_index":41,"time_elapsed":500443,"internal_node_id":"0.0-4.0-0.15","subject_id":"614de064c8a4991213499b1c","study_id":"6197b3f67c2b5cd3b6d9596a","session_id":"6197b88de344d93202ad887c","condition":"contingent","relevant_dimensions":["wings","pattern"],"bee_group":{"antennae":"X","wings":"2","pattern":"D","legs":"X"},"action":"avoid","summary":"bad-avoid","bonus":1.2600000000000007},{"rt":1077,"stimulus":"\n                    <p><b>Action: <em>avoid</em></b></p>\n                    <p>This is the bee that you just saw.</p>\n                    <img src=\"bees-with-color/bee-B1SF.svg\" width=\"200\">\n                    <p><br>Your bonus pay is unchanged, and remains at $0.54.</p>\n            ","response":0,"trial_type":"html-button-response","trial_index":42,"time_elapsed":501525,"internal_node_id":"0.0-4.0-1.15","subject_id":"614de064c8a4991213499b1c","study_id":"6197b3f67c2b5cd3b6d9596a","session_id":"6197b88de344d93202ad887c","condition":"contingent","relevant_dimensions":["wings","pattern"],"bee_group":{"antennae":"X","wings":"2","pattern":"D","legs":"X"},"bonus":1.2600000000000007},{"rt":1409.6000000014901,"stimulus":"bees-with-color/bee-B2DF.svg","response":1,"trial_type":"image-button-response","trial_index":43,"time_elapsed":502941,"internal_node_id":"0.0-4.0-0.16","subject_id":"614de064c8a4991213499b1c","study_id":"6197b3f67c2b5cd3b6d9596a","session_id":"6197b88de344d93202ad887c","condition":"contingent","relevant_dimensions":["wings","pattern"],"bee_group":{"antennae":"X","wings":"2","pattern":"D","legs":"X"},"action":"avoid","summary":"good-avoid","bonus":1.2600000000000007},{"rt":1554.6000000014901,"stimulus":"\n                    <p><b>Action: <em>avoid</em></b></p>\n                    <p>This is the bee that you just saw.</p>\n                    <img src=\"bees-with-color/bee-B2DF.svg\" width=\"200\">\n                    <p><br>Your bonus pay is unchanged, and remains at $0.54.</p>\n            ","response":0,"trial_type":"html-button-response","trial_index":44,"time_elapsed":504501,"internal_node_id":"0.0-4.0-1.16","subject_id":"614de064c8a4991213499b1c","study_id":"6197b3f67c2b5cd3b6d9596a","session_id":"6197b88de344d93202ad887c","condition":"contingent","relevant_dimensions":["wings","pattern"],"bee_group":{"antennae":"X","wings":"2","pattern":"D","legs":"X"},"bonus":1.2600000000000007},{"rt":2488.89999999851,"stimulus":"bees-with-color/bee-A2DM.svg","response":1,"trial_type":"image-button-response","trial_index":45,"time_elapsed":506996,"internal_node_id":"0.0-4.0-0.17","subject_id":"614de064c8a4991213499b1c","study_id":"6197b3f67c2b5cd3b6d9596a","session_id":"6197b88de344d93202ad887c","condition":"contingent","relevant_dimensions":["wings","pattern"],"bee_group":{"antennae":"X","wings":"2","pattern":"D","legs":"X"},"action":"avoid","summary":"good-avoid","bonus":1.2600000000000007},{"rt":1195.3999999985099,"stimulus":"\n                    <p><b>Action: <em>avoid</em></b></p>\n                    <p>This is the bee that you just saw.</p>\n                    <img src=\"bees-with-color/bee-A2DM.svg\" width=\"200\">\n                    <p><br>Your bonus pay is unchanged, and remains at $0.54.</p>\n            ","response":0,"trial_type":"html-button-response","trial_index":46,"time_elapsed":508197,"internal_node_id":"0.0-4.0-1.17","subject_id":"614de064c8a4991213499b1c","study_id":"6197b3f67c2b5cd3b6d9596a","session_id":"6197b88de344d93202ad887c","condition":"contingent","relevant_dimensions":["wings","pattern"],"bee_group":{"antennae":"X","wings":"2","pattern":"D","legs":"X"},"bonus":1.2600000000000007},{"rt":1441.8000000044703,"stimulus":"bees-with-color/bee-A2SF.svg","response":0,"trial_type":"image-button-response","trial_index":47,"time_elapsed":509645,"internal_node_id":"0.0-4.0-0.18","subject_id":"614de064c8a4991213499b1c","study_id":"6197b3f67c2b5cd3b6d9596a","session_id":"6197b88de344d93202ad887c","condition":"contingent","relevant_dimensions":["wings","pattern"],"bee_group":{"antennae":"X","wings":"2","pattern":"D","legs":"X"},"action":"harvest","summary":"good-harvest","bonus":1.2600000000000007},{"rt":2097.89999999851,"stimulus":"\n                    <p><b>Action: <em>harvest</em></b></p>\n                    <p>This is the bee that you just saw.</p>\n                    <img src=\"bees-with-color/bee-A2SF.svg\" width=\"200\">\n                    <p><span class=\"greenText\"><b>Successful harvest!</b></span><br>Your pay has increased by $0.02. Your bonus pay is now $0.56.</p>\n            ","response":0,"trial_type":"html-button-response","trial_index":48,"time_elapsed":511749,"internal_node_id":"0.0-4.0-1.18","subject_id":"614de064c8a4991213499b1c","study_id":"6197b3f67c2b5cd3b6d9596a","session_id":"6197b88de344d93202ad887c","condition":"contingent","relevant_dimensions":["wings","pattern"],"bee_group":{"antennae":"X","wings":"2","pattern":"D","legs":"X"},"bonus":1.2600000000000007},{"rt":1777.9000000059605,"stimulus":"bees-with-color/bee-A1DF.svg","response":1,"trial_type":"image-button-response","trial_index":49,"time_elapsed":513533,"internal_node_id":"0.0-4.0-0.19","subject_id":"614de064c8a4991213499b1c","study_id":"6197b3f67c2b5cd3b6d9596a","session_id":"6197b88de344d93202ad887c","condition":"contingent","relevant_dimensions":["wings","pattern"],"bee_group":{"antennae":"X","wings":"2","pattern":"D","legs":"X"},"action":"avoid","summary":"bad-avoid","bonus":1.2600000000000007},{"rt":1073.8000000044703,"stimulus":"\n                    <p><b>Action: <em>avoid</em></b></p>\n                    <p>This is the bee that you just saw.</p>\n                    <img src=\"bees-with-color/bee-A1DF.svg\" width=\"200\">\n                    <p><br>Your bonus pay is unchanged, and remains at $0.56.</p>\n            ","response":0,"trial_type":"html-button-response","trial_index":50,"time_elapsed":514613,"internal_node_id":"0.0-4.0-1.19","subject_id":"614de064c8a4991213499b1c","study_id":"6197b3f67c2b5cd3b6d9596a","session_id":"6197b88de344d93202ad887c","condition":"contingent","relevant_dimensions":["wings","pattern"],"bee_group":{"antennae":"X","wings":"2","pattern":"D","legs":"X"},"bonus":1.2600000000000007},{"rt":1393.1000000014901,"stimulus":"bees-with-color/bee-A1DM.svg","response":1,"trial_type":"image-button-response","trial_index":51,"time_elapsed":516011,"internal_node_id":"0.0-4.0-0.20","subject_id":"614de064c8a4991213499b1c","study_id":"6197b3f67c2b5cd3b6d9596a","session_id":"6197b88de344d93202ad887c","condition":"contingent","relevant_dimensions":["wings","pattern"],"bee_group":{"antennae":"X","wings":"2","pattern":"D","legs":"X"},"action":"avoid","summary":"bad-avoid","bonus":1.2600000000000007},{"rt":1010.7999999970198,"stimulus":"\n                    <p><b>Action: <em>avoid</em></b></p>\n                    <p>This is the bee that you just saw.</p>\n                    <img src=\"bees-with-color/bee-A1DM.svg\" width=\"200\">\n                    <p><br>Your bonus pay is unchanged, and remains at $0.56.</p>\n            ","response":0,"trial_type":"html-button-response","trial_index":52,"time_elapsed":517028,"internal_node_id":"0.0-4.0-1.20","subject_id":"614de064c8a4991213499b1c","study_id":"6197b3f67c2b5cd3b6d9596a","session_id":"6197b88de344d93202ad887c","condition":"contingent","relevant_dimensions":["wings","pattern"],"bee_group":{"antennae":"X","wings":"2","pattern":"D","legs":"X"},"bonus":1.2600000000000007},{"rt":2147.5,"stimulus":"bees-with-color/bee-A1SF.svg","response":1,"trial_type":"image-button-response","trial_index":53,"time_elapsed":519181,"internal_node_id":"0.0-4.0-0.21","subject_id":"614de064c8a4991213499b1c","study_id":"6197b3f67c2b5cd3b6d9596a","session_id":"6197b88de344d93202ad887c","condition":"contingent","relevant_dimensions":["wings","pattern"],"bee_group":{"antennae":"X","wings":"2","pattern":"D","legs":"X"},"action":"avoid","summary":"bad-avoid","bonus":1.2600000000000007},{"rt":1216.7000000029802,"stimulus":"\n                    <p><b>Action: <em>avoid</em></b></p>\n                    <p>This is the bee that you just saw.</p>\n                    <img src=\"bees-with-color/bee-A1SF.svg\" width=\"200\">\n                    <p><br>Your bonus pay is unchanged, and remains at $0.56.</p>\n            ","response":0,"trial_type":"html-button-response","trial_index":54,"time_elapsed":520404,"internal_node_id":"0.0-4.0-1.21","subject_id":"614de064c8a4991213499b1c","study_id":"6197b3f67c2b5cd3b6d9596a","session_id":"6197b88de344d93202ad887c","condition":"contingent","relevant_dimensions":["wings","pattern"],"bee_group":{"antennae":"X","wings":"2","pattern":"D","legs":"X"},"bonus":1.2600000000000007},{"rt":1594.2999999970198,"stimulus":"bees-with-color/bee-B1SM.svg","response":1,"trial_type":"image-button-response","trial_index":55,"time_elapsed":522006,"internal_node_id":"0.0-4.0-0.22","subject_id":"614de064c8a4991213499b1c","study_id":"6197b3f67c2b5cd3b6d9596a","session_id":"6197b88de344d93202ad887c","condition":"contingent","relevant_dimensions":["wings","pattern"],"bee_group":{"antennae":"X","wings":"2","pattern":"D","legs":"X"},"action":"avoid","summary":"bad-avoid","bonus":1.2600000000000007},{"rt":1119.3999999985099,"stimulus":"\n                    <p><b>Action: <em>avoid</em></b></p>\n                    <p>This is the bee that you just saw.</p>\n                    <img src=\"bees-with-color/bee-B1SM.svg\" width=\"200\">\n                    <p><br>Your bonus pay is unchanged, and remains at $0.56.</p>\n            ","response":0,"trial_type":"html-button-response","trial_index":56,"time_elapsed":523132,"internal_node_id":"0.0-4.0-1.22","subject_id":"614de064c8a4991213499b1c","study_id":"6197b3f67c2b5cd3b6d9596a","session_id":"6197b88de344d93202ad887c","condition":"contingent","relevant_dimensions":["wings","pattern"],"bee_group":{"antennae":"X","wings":"2","pattern":"D","legs":"X"},"bonus":1.2600000000000007},{"rt":1298.7000000029802,"stimulus":"bees-with-color/bee-A1SM.svg","response":1,"trial_type":"image-button-response","trial_index":57,"time_elapsed":524441,"internal_node_id":"0.0-4.0-0.23","subject_id":"614de064c8a4991213499b1c","study_id":"6197b3f67c2b5cd3b6d9596a","session_id":"6197b88de344d93202ad887c","condition":"contingent","relevant_dimensions":["wings","pattern"],"bee_group":{"antennae":"X","wings":"2","pattern":"D","legs":"X"},"action":"avoid","summary":"bad-avoid","bonus":1.2600000000000007},{"rt":2142.5,"stimulus":"\n                    <p><b>Action: <em>avoid</em></b></p>\n                    <p>This is the bee that you just saw.</p>\n                    <img src=\"bees-with-color/bee-A1SM.svg\" width=\"200\">\n                    <p><br>Your bonus pay is unchanged, and remains at $0.56.</p>\n            ","response":0,"trial_type":"html-button-response","trial_index":58,"time_elapsed":526591,"internal_node_id":"0.0-4.0-1.23","subject_id":"614de064c8a4991213499b1c","study_id":"6197b3f67c2b5cd3b6d9596a","session_id":"6197b88de344d93202ad887c","condition":"contingent","relevant_dimensions":["wings","pattern"],"bee_group":{"antennae":"X","wings":"2","pattern":"D","legs":"X"},"bonus":1.2600000000000007},{"rt":2238.7000000029802,"stimulus":"bees-with-color/bee-A2SM.svg","response":0,"trial_type":"image-button-response","trial_index":59,"time_elapsed":528837,"internal_node_id":"0.0-4.0-0.24","subject_id":"614de064c8a4991213499b1c","study_id":"6197b3f67c2b5cd3b6d9596a","session_id":"6197b88de344d93202ad887c","condition":"contingent","relevant_dimensions":["wings","pattern"],"bee_group":{"antennae":"X","wings":"2","pattern":"D","legs":"X"},"action":"harvest","summary":"good-harvest","bonus":1.2600000000000007},{"rt":1272.8000000044703,"stimulus":"\n                    <p><b>Action: <em>harvest</em></b></p>\n                    <p>This is the bee that you just saw.</p>\n                    <img src=\"bees-with-color/bee-A2SM.svg\" width=\"200\">\n                    <p><span class=\"greenText\"><b>Successful harvest!</b></span><br>Your pay has increased by $0.02. Your bonus pay is now $0.58.</p>\n            ","response":0,"trial_type":"html-button-response","trial_index":60,"time_elapsed":530117,"internal_node_id":"0.0-4.0-1.24","subject_id":"614de064c8a4991213499b1c","study_id":"6197b3f67c2b5cd3b6d9596a","session_id":"6197b88de344d93202ad887c","condition":"contingent","relevant_dimensions":["wings","pattern"],"bee_group":{"antennae":"X","wings":"2","pattern":"D","legs":"X"},"bonus":1.2600000000000007},{"rt":1737.3000000044703,"stimulus":"bees-with-color/bee-B1DF.svg","response":1,"trial_type":"image-button-response","trial_index":61,"time_elapsed":531861,"internal_node_id":"0.0-4.0-0.25","subject_id":"614de064c8a4991213499b1c","study_id":"6197b3f67c2b5cd3b6d9596a","session_id":"6197b88de344d93202ad887c","condition":"contingent","relevant_dimensions":["wings","pattern"],"bee_group":{"antennae":"X","wings":"2","pattern":"D","legs":"X"},"action":"avoid","summary":"bad-avoid","bonus":1.2600000000000007},{"rt":1257.6999999955297,"stimulus":"\n                    <p><b>Action: <em>avoid</em></b></p>\n                    <p>This is the bee that you just saw.</p>\n                    <img src=\"bees-with-color/bee-B1DF.svg\" width=\"200\">\n                    <p><br>Your bonus pay is unchanged, and remains at $0.58.</p>\n            ","response":0,"trial_type":"html-button-response","trial_index":62,"time_elapsed":533125,"internal_node_id":"0.0-4.0-1.25","subject_id":"614de064c8a4991213499b1c","study_id":"6197b3f67c2b5cd3b6d9596a","session_id":"6197b88de344d93202ad887c","condition":"contingent","relevant_dimensions":["wings","pattern"],"bee_group":{"antennae":"X","wings":"2","pattern":"D","legs":"X"},"bonus":1.2600000000000007},{"rt":1730.7999999970198,"stimulus":"bees-with-color/bee-B2SM.svg","response":0,"trial_type":"image-button-response","trial_index":63,"time_elapsed":534862,"internal_node_id":"0.0-4.0-0.26","subject_id":"614de064c8a4991213499b1c","study_id":"6197b3f67c2b5cd3b6d9596a","session_id":"6197b88de344d93202ad887c","condition":"contingent","relevant_dimensions":["wings","pattern"],"bee_group":{"antennae":"X","wings":"2","pattern":"D","legs":"X"},"action":"harvest","summary":"good-harvest","bonus":1.2600000000000007},{"rt":1090,"stimulus":"\n                    <p><b>Action: <em>harvest</em></b></p>\n                    <p>This is the bee that you just saw.</p>\n                    <img src=\"bees-with-color/bee-B2SM.svg\" width=\"200\">\n                    <p><span class=\"greenText\"><b>Successful harvest!</b></span><br>Your pay has increased by $0.02. Your bonus pay is now $0.60.</p>\n            ","response":0,"trial_type":"html-button-response","trial_index":64,"time_elapsed":535959,"internal_node_id":"0.0-4.0-1.26","subject_id":"614de064c8a4991213499b1c","study_id":"6197b3f67c2b5cd3b6d9596a","session_id":"6197b88de344d93202ad887c","condition":"contingent","relevant_dimensions":["wings","pattern"],"bee_group":{"antennae":"X","wings":"2","pattern":"D","legs":"X"},"bonus":1.2600000000000007},{"rt":1600,"stimulus":"bees-with-color/bee-B1DM.svg","response":1,"trial_type":"image-button-response","trial_index":65,"time_elapsed":537566,"internal_node_id":"0.0-4.0-0.27","subject_id":"614de064c8a4991213499b1c","study_id":"6197b3f67c2b5cd3b6d9596a","session_id":"6197b88de344d93202ad887c","condition":"contingent","relevant_dimensions":["wings","pattern"],"bee_group":{"antennae":"X","wings":"2","pattern":"D","legs":"X"},"action":"avoid","summary":"bad-avoid","bonus":1.2600000000000007},{"rt":1568.8000000044703,"stimulus":"\n                    <p><b>Action: <em>avoid</em></b></p>\n                    <p>This is the bee that you just saw.</p>\n                    <img src=\"bees-with-color/bee-B1DM.svg\" width=\"200\">\n                    <p><br>Your bonus pay is unchanged, and remains at $0.60.</p>\n            ","response":0,"trial_type":"html-button-response","trial_index":66,"time_elapsed":539141,"internal_node_id":"0.0-4.0-1.27","subject_id":"614de064c8a4991213499b1c","study_id":"6197b3f67c2b5cd3b6d9596a","session_id":"6197b88de344d93202ad887c","condition":"contingent","relevant_dimensions":["wings","pattern"],"bee_group":{"antennae":"X","wings":"2","pattern":"D","legs":"X"},"bonus":1.2600000000000007},{"rt":1706.1000000014901,"stimulus":"bees-with-color/bee-B1SF.svg","response":1,"trial_type":"image-button-response","trial_index":67,"time_elapsed":540853,"internal_node_id":"0.0-4.0-0.28","subject_id":"614de064c8a4991213499b1c","study_id":"6197b3f67c2b5cd3b6d9596a","session_id":"6197b88de344d93202ad887c","condition":"contingent","relevant_dimensions":["wings","pattern"],"bee_group":{"antennae":"X","wings":"2","pattern":"D","legs":"X"},"action":"avoid","summary":"bad-avoid","bonus":1.2600000000000007},{"rt":1498.6000000014901,"stimulus":"\n                    <p><b>Action: <em>avoid</em></b></p>\n                    <p>This is the bee that you just saw.</p>\n                    <img src=\"bees-with-color/bee-B1SF.svg\" width=\"200\">\n                    <p><br>Your bonus pay is unchanged, and remains at $0.60.</p>\n            ","response":0,"trial_type":"html-button-response","trial_index":68,"time_elapsed":542358,"internal_node_id":"0.0-4.0-1.28","subject_id":"614de064c8a4991213499b1c","study_id":"6197b3f67c2b5cd3b6d9596a","session_id":"6197b88de344d93202ad887c","condition":"contingent","relevant_dimensions":["wings","pattern"],"bee_group":{"antennae":"X","wings":"2","pattern":"D","legs":"X"},"bonus":1.2600000000000007},{"rt":1706.2999999970198,"stimulus":"bees-with-color/bee-A2DF.svg","response":1,"trial_type":"image-button-response","trial_index":69,"time_elapsed":544069,"internal_node_id":"0.0-4.0-0.29","subject_id":"614de064c8a4991213499b1c","study_id":"6197b3f67c2b5cd3b6d9596a","session_id":"6197b88de344d93202ad887c","condition":"contingent","relevant_dimensions":["wings","pattern"],"bee_group":{"antennae":"X","wings":"2","pattern":"D","legs":"X"},"action":"avoid","summary":"good-avoid","bonus":1.2600000000000007},{"rt":1162,"stimulus":"\n                    <p><b>Action: <em>avoid</em></b></p>\n                    <p>This is the bee that you just saw.</p>\n                    <img src=\"bees-with-color/bee-A2DF.svg\" width=\"200\">\n                    <p><br>Your bonus pay is unchanged, and remains at $0.60.</p>\n            ","response":0,"trial_type":"html-button-response","trial_index":70,"time_elapsed":545237,"internal_node_id":"0.0-4.0-1.29","subject_id":"614de064c8a4991213499b1c","study_id":"6197b3f67c2b5cd3b6d9596a","session_id":"6197b88de344d93202ad887c","condition":"contingent","relevant_dimensions":["wings","pattern"],"bee_group":{"antennae":"X","wings":"2","pattern":"D","legs":"X"},"bonus":1.2600000000000007},{"rt":1443.5,"stimulus":"bees-with-color/bee-B2DM.svg","response":1,"trial_type":"image-button-response","trial_index":71,"time_elapsed":546686,"internal_node_id":"0.0-4.0-0.30","subject_id":"614de064c8a4991213499b1c","study_id":"6197b3f67c2b5cd3b6d9596a","session_id":"6197b88de344d93202ad887c","condition":"contingent","relevant_dimensions":["wings","pattern"],"bee_group":{"antennae":"X","wings":"2","pattern":"D","legs":"X"},"action":"avoid","summary":"good-avoid","bonus":1.2600000000000007},{"rt":1322.6999999955297,"stimulus":"\n                    <p><b>Action: <em>avoid</em></b></p>\n                    <p>This is the bee that you just saw.</p>\n                    <img src=\"bees-with-color/bee-B2DM.svg\" width=\"200\">\n                    <p><br>Your bonus pay is unchanged, and remains at $0.60.</p>\n            ","response":0,"trial_type":"html-button-response","trial_index":72,"time_elapsed":548013,"internal_node_id":"0.0-4.0-1.30","subject_id":"614de064c8a4991213499b1c","study_id":"6197b3f67c2b5cd3b6d9596a","session_id":"6197b88de344d93202ad887c","condition":"contingent","relevant_dimensions":["wings","pattern"],"bee_group":{"antennae":"X","wings":"2","pattern":"D","legs":"X"},"bonus":1.2600000000000007},{"rt":1465.6999999955297,"stimulus":"bees-with-color/bee-B2SF.svg","response":0,"trial_type":"image-button-response","trial_index":73,"time_elapsed":549484,"internal_node_id":"0.0-4.0-0.31","subject_id":"614de064c8a4991213499b1c","study_id":"6197b3f67c2b5cd3b6d9596a","session_id":"6197b88de344d93202ad887c","condition":"contingent","relevant_dimensions":["wings","pattern"],"bee_group":{"antennae":"X","wings":"2","pattern":"D","legs":"X"},"action":"harvest","summary":"good-harvest","bonus":1.2600000000000007},{"rt":2068.7999999970198,"stimulus":"\n                    <p><b>Action: <em>harvest</em></b></p>\n                    <p>This is the bee that you just saw.</p>\n                    <img src=\"bees-with-color/bee-B2SF.svg\" width=\"200\">\n                    <p><span class=\"greenText\"><b>Successful harvest!</b></span><br>Your pay has increased by $0.02. Your bonus pay is now $0.62.</p>\n            ","response":0,"trial_type":"html-button-response","trial_index":74,"time_elapsed":551558,"internal_node_id":"0.0-4.0-1.31","subject_id":"614de064c8a4991213499b1c","study_id":"6197b3f67c2b5cd3b6d9596a","session_id":"6197b88de344d93202ad887c","condition":"contingent","relevant_dimensions":["wings","pattern"],"bee_group":{"antennae":"X","wings":"2","pattern":"D","legs":"X"},"bonus":1.2600000000000007},{"rt":1746.7000000029802,"stimulus":"bees-with-color/bee-B1DM.svg","response":1,"trial_type":"image-button-response","trial_index":75,"time_elapsed":553310,"internal_node_id":"0.0-4.0-0.32","subject_id":"614de064c8a4991213499b1c","study_id":"6197b3f67c2b5cd3b6d9596a","session_id":"6197b88de344d93202ad887c","condition":"contingent","relevant_dimensions":["wings","pattern"],"bee_group":{"antennae":"X","wings":"2","pattern":"D","legs":"X"},"action":"avoid","summary":"bad-avoid","bonus":1.2600000000000007},{"rt":1346.3000000044703,"stimulus":"\n                    <p><b>Action: <em>avoid</em></b></p>\n                    <p>This is the bee that you just saw.</p>\n                    <img src=\"bees-with-color/bee-B1DM.svg\" width=\"200\">\n                    <p><br>Your bonus pay is unchanged, and remains at $0.62.</p>\n            ","response":0,"trial_type":"html-button-response","trial_index":76,"time_elapsed":554661,"internal_node_id":"0.0-4.0-1.32","subject_id":"614de064c8a4991213499b1c","study_id":"6197b3f67c2b5cd3b6d9596a","session_id":"6197b88de344d93202ad887c","condition":"contingent","relevant_dimensions":["wings","pattern"],"bee_group":{"antennae":"X","wings":"2","pattern":"D","legs":"X"},"bonus":1.2600000000000007},{"rt":1274.5,"stimulus":"bees-with-color/bee-A1DM.svg","response":1,"trial_type":"image-button-response","trial_index":77,"time_elapsed":555941,"internal_node_id":"0.0-4.0-0.33","subject_id":"614de064c8a4991213499b1c","study_id":"6197b3f67c2b5cd3b6d9596a","session_id":"6197b88de344d93202ad887c","condition":"contingent","relevant_dimensions":["wings","pattern"],"bee_group":{"antennae":"X","wings":"2","pattern":"D","legs":"X"},"action":"avoid","summary":"bad-avoid","bonus":1.2600000000000007},{"rt":1219.6000000014901,"stimulus":"\n                    <p><b>Action: <em>avoid</em></b></p>\n                    <p>This is the bee that you just saw.</p>\n                    <img src=\"bees-with-color/bee-A1DM.svg\" width=\"200\">\n                    <p><br>Your bonus pay is unchanged, and remains at $0.62.</p>\n            ","response":0,"trial_type":"html-button-response","trial_index":78,"time_elapsed":557166,"internal_node_id":"0.0-4.0-1.33","subject_id":"614de064c8a4991213499b1c","study_id":"6197b3f67c2b5cd3b6d9596a","session_id":"6197b88de344d93202ad887c","condition":"contingent","relevant_dimensions":["wings","pattern"],"bee_group":{"antennae":"X","wings":"2","pattern":"D","legs":"X"},"bonus":1.2600000000000007},{"rt":1258.2999999970198,"stimulus":"bees-with-color/bee-B2DF.svg","response":1,"trial_type":"image-button-response","trial_index":79,"time_elapsed":558429,"internal_node_id":"0.0-4.0-0.34","subject_id":"614de064c8a4991213499b1c","study_id":"6197b3f67c2b5cd3b6d9596a","session_id":"6197b88de344d93202ad887c","condition":"contingent","relevant_dimensions":["wings","pattern"],"bee_group":{"antennae":"X","wings":"2","pattern":"D","legs":"X"},"action":"avoid","summary":"good-avoid","bonus":1.2600000000000007},{"rt":1036.1000000014901,"stimulus":"\n                    <p><b>Action: <em>avoid</em></b></p>\n                    <p>This is the bee that you just saw.</p>\n                    <img src=\"bees-with-color/bee-B2DF.svg\" width=\"200\">\n                    <p><br>Your bonus pay is unchanged, and remains at $0.62.</p>\n            ","response":0,"trial_type":"html-button-response","trial_index":80,"time_elapsed":559470,"internal_node_id":"0.0-4.0-1.34","subject_id":"614de064c8a4991213499b1c","study_id":"6197b3f67c2b5cd3b6d9596a","session_id":"6197b88de344d93202ad887c","condition":"contingent","relevant_dimensions":["wings","pattern"],"bee_group":{"antennae":"X","wings":"2","pattern":"D","legs":"X"},"bonus":1.2600000000000007},{"rt":1282.6000000014901,"stimulus":"bees-with-color/bee-B2DM.svg","response":1,"trial_type":"image-button-response","trial_index":81,"time_elapsed":560759,"internal_node_id":"0.0-4.0-0.35","subject_id":"614de064c8a4991213499b1c","study_id":"6197b3f67c2b5cd3b6d9596a","session_id":"6197b88de344d93202ad887c","condition":"contingent","relevant_dimensions":["wings","pattern"],"bee_group":{"antennae":"X","wings":"2","pattern":"D","legs":"X"},"action":"avoid","summary":"good-avoid","bonus":1.2600000000000007},{"rt":986.4000000059605,"stimulus":"\n                    <p><b>Action: <em>avoid</em></b></p>\n                    <p>This is the bee that you just saw.</p>\n                    <img src=\"bees-with-color/bee-B2DM.svg\" width=\"200\">\n                    <p><br>Your bonus pay is unchanged, and remains at $0.62.</p>\n            ","response":0,"trial_type":"html-button-response","trial_index":82,"time_elapsed":561750,"internal_node_id":"0.0-4.0-1.35","subject_id":"614de064c8a4991213499b1c","study_id":"6197b3f67c2b5cd3b6d9596a","session_id":"6197b88de344d93202ad887c","condition":"contingent","relevant_dimensions":["wings","pattern"],"bee_group":{"antennae":"X","wings":"2","pattern":"D","legs":"X"},"bonus":1.2600000000000007},{"rt":1747.3000000044703,"stimulus":"bees-with-color/bee-B2SM.svg","response":0,"trial_type":"image-button-response","trial_index":83,"time_elapsed":563502,"internal_node_id":"0.0-4.0-0.36","subject_id":"614de064c8a4991213499b1c","study_id":"6197b3f67c2b5cd3b6d9596a","session_id":"6197b88de344d93202ad887c","condition":"contingent","relevant_dimensions":["wings","pattern"],"bee_group":{"antennae":"X","wings":"2","pattern":"D","legs":"X"},"action":"harvest","summary":"good-harvest","bonus":1.2600000000000007},{"rt":1418.3999999985099,"stimulus":"\n                    <p><b>Action: <em>harvest</em></b></p>\n                    <p>This is the bee that you just saw.</p>\n                    <img src=\"bees-with-color/bee-B2SM.svg\" width=\"200\">\n                    <p><span class=\"greenText\"><b>Successful harvest!</b></span><br>Your pay has increased by $0.02. Your bonus pay is now $0.64.</p>\n            ","response":0,"trial_type":"html-button-response","trial_index":84,"time_elapsed":564927,"internal_node_id":"0.0-4.0-1.36","subject_id":"614de064c8a4991213499b1c","study_id":"6197b3f67c2b5cd3b6d9596a","session_id":"6197b88de344d93202ad887c","condition":"contingent","relevant_dimensions":["wings","pattern"],"bee_group":{"antennae":"X","wings":"2","pattern":"D","legs":"X"},"bonus":1.2600000000000007},{"rt":1384.1000000014901,"stimulus":"bees-with-color/bee-A2SF.svg","response":0,"trial_type":"image-button-response","trial_index":85,"time_elapsed":566317,"internal_node_id":"0.0-4.0-0.37","subject_id":"614de064c8a4991213499b1c","study_id":"6197b3f67c2b5cd3b6d9596a","session_id":"6197b88de344d93202ad887c","condition":"contingent","relevant_dimensions":["wings","pattern"],"bee_group":{"antennae":"X","wings":"2","pattern":"D","legs":"X"},"action":"harvest","summary":"good-harvest","bonus":1.2600000000000007},{"rt":1043.5,"stimulus":"\n                    <p><b>Action: <em>harvest</em></b></p>\n                    <p>This is the bee that you just saw.</p>\n                    <img src=\"bees-with-color/bee-A2SF.svg\" width=\"200\">\n                    <p><span class=\"greenText\"><b>Successful harvest!</b></span><br>Your pay has increased by $0.02. Your bonus pay is now $0.66.</p>\n            ","response":0,"trial_type":"html-button-response","trial_index":86,"time_elapsed":567366,"internal_node_id":"0.0-4.0-1.37","subject_id":"614de064c8a4991213499b1c","study_id":"6197b3f67c2b5cd3b6d9596a","session_id":"6197b88de344d93202ad887c","condition":"contingent","relevant_dimensions":["wings","pattern"],"bee_group":{"antennae":"X","wings":"2","pattern":"D","legs":"X"},"bonus":1.2600000000000007},{"rt":1290.5,"stimulus":"bees-with-color/bee-A1DF.svg","response":1,"trial_type":"image-button-response","trial_index":87,"time_elapsed":568661,"internal_node_id":"0.0-4.0-0.38","subject_id":"614de064c8a4991213499b1c","study_id":"6197b3f67c2b5cd3b6d9596a","session_id":"6197b88de344d93202ad887c","condition":"contingent","relevant_dimensions":["wings","pattern"],"bee_group":{"antennae":"X","wings":"2","pattern":"D","legs":"X"},"action":"avoid","summary":"bad-avoid","bonus":1.2600000000000007},{"rt":1082.8999999985099,"stimulus":"\n                    <p><b>Action: <em>avoid</em></b></p>\n                    <p>This is the bee that you just saw.</p>\n                    <img src=\"bees-with-color/bee-A1DF.svg\" width=\"200\">\n                    <p><br>Your bonus pay is unchanged, and remains at $0.66.</p>\n            ","response":0,"trial_type":"html-button-response","trial_index":88,"time_elapsed":569750,"internal_node_id":"0.0-4.0-1.38","subject_id":"614de064c8a4991213499b1c","study_id":"6197b3f67c2b5cd3b6d9596a","session_id":"6197b88de344d93202ad887c","condition":"contingent","relevant_dimensions":["wings","pattern"],"bee_group":{"antennae":"X","wings":"2","pattern":"D","legs":"X"},"bonus":1.2600000000000007},{"rt":3011.10000000149,"stimulus":"bees-with-color/bee-B1SF.svg","response":0,"trial_type":"image-button-response","trial_index":89,"time_elapsed":572766,"internal_node_id":"0.0-4.0-0.39","subject_id":"614de064c8a4991213499b1c","study_id":"6197b3f67c2b5cd3b6d9596a","session_id":"6197b88de344d93202ad887c","condition":"contingent","relevant_dimensions":["wings","pattern"],"bee_group":{"antennae":"X","wings":"2","pattern":"D","legs":"X"},"action":"harvest","summary":"good-harvest","bonus":1.2600000000000007},{"rt":3539.7999999970198,"stimulus":"\n                    <p><b>Action: <em>harvest</em></b></p>\n                    <p>This is the bee that you just saw.</p>\n                    <img src=\"bees-with-color/bee-B1SF.svg\" width=\"200\">\n                    <p><span class=\"greenText\"><b>Successful harvest!</b></span><br>Your pay has increased by $0.02. Your bonus pay is now $0.68.</p>\n            ","response":0,"trial_type":"html-button-response","trial_index":90,"time_elapsed":576320,"internal_node_id":"0.0-4.0-1.39","subject_id":"614de064c8a4991213499b1c","study_id":"6197b3f67c2b5cd3b6d9596a","session_id":"6197b88de344d93202ad887c","condition":"contingent","relevant_dimensions":["wings","pattern"],"bee_group":{"antennae":"X","wings":"2","pattern":"D","legs":"X"},"bonus":1.2600000000000007},{"rt":1727.8999999985099,"stimulus":"bees-with-color/bee-B1SM.svg","response":0,"trial_type":"image-button-response","trial_index":91,"time_elapsed":578056,"internal_node_id":"0.0-4.0-0.40","subject_id":"614de064c8a4991213499b1c","study_id":"6197b3f67c2b5cd3b6d9596a","session_id":"6197b88de344d93202ad887c","condition":"contingent","relevant_dimensions":["wings","pattern"],"bee_group":{"antennae":"X","wings":"2","pattern":"D","legs":"X"},"action":"harvest","summary":"good-harvest","bonus":1.2600000000000007},{"rt":2105,"stimulus":"\n                    <p><b>Action: <em>harvest</em></b></p>\n                    <p>This is the bee that you just saw.</p>\n                    <img src=\"bees-with-color/bee-B1SM.svg\" width=\"200\">\n                    <p><span class=\"greenText\"><b>Successful harvest!</b></span><br>Your pay has increased by $0.02. Your bonus pay is now $0.70.</p>\n            ","response":0,"trial_type":"html-button-response","trial_index":92,"time_elapsed":580166,"internal_node_id":"0.0-4.0-1.40","subject_id":"614de064c8a4991213499b1c","study_id":"6197b3f67c2b5cd3b6d9596a","session_id":"6197b88de344d93202ad887c","condition":"contingent","relevant_dimensions":["wings","pattern"],"bee_group":{"antennae":"X","wings":"2","pattern":"D","legs":"X"},"bonus":1.2600000000000007},{"rt":1610.1000000014901,"stimulus":"bees-with-color/bee-A2DM.svg","response":1,"trial_type":"image-button-response","trial_index":93,"time_elapsed":581783,"internal_node_id":"0.0-4.0-0.41","subject_id":"614de064c8a4991213499b1c","study_id":"6197b3f67c2b5cd3b6d9596a","session_id":"6197b88de344d93202ad887c","condition":"contingent","relevant_dimensions":["wings","pattern"],"bee_group":{"antennae":"X","wings":"2","pattern":"D","legs":"X"},"action":"avoid","summary":"good-avoid","bonus":1.2600000000000007},{"rt":1282,"stimulus":"\n                    <p><b>Action: <em>avoid</em></b></p>\n                    <p>This is the bee that you just saw.</p>\n                    <img src=\"bees-with-color/bee-A2DM.svg\" width=\"200\">\n                    <p><br>Your bonus pay is unchanged, and remains at $0.70.</p>\n            ","response":0,"trial_type":"html-button-response","trial_index":94,"time_elapsed":583070,"internal_node_id":"0.0-4.0-1.41","subject_id":"614de064c8a4991213499b1c","study_id":"6197b3f67c2b5cd3b6d9596a","session_id":"6197b88de344d93202ad887c","condition":"contingent","relevant_dimensions":["wings","pattern"],"bee_group":{"antennae":"X","wings":"2","pattern":"D","legs":"X"},"bonus":1.2600000000000007},{"rt":1377.8999999985099,"stimulus":"bees-with-color/bee-A1SF.svg","response":0,"trial_type":"image-button-response","trial_index":95,"time_elapsed":584454,"internal_node_id":"0.0-4.0-0.42","subject_id":"614de064c8a4991213499b1c","study_id":"6197b3f67c2b5cd3b6d9596a","session_id":"6197b88de344d93202ad887c","condition":"contingent","relevant_dimensions":["wings","pattern"],"bee_group":{"antennae":"X","wings":"2","pattern":"D","legs":"X"},"action":"harvest","summary":"good-harvest","bonus":1.2600000000000007},{"rt":1161.8999999985099,"stimulus":"\n                    <p><b>Action: <em>harvest</em></b></p>\n                    <p>This is the bee that you just saw.</p>\n                    <img src=\"bees-with-color/bee-A1SF.svg\" width=\"200\">\n                    <p><span class=\"greenText\"><b>Successful harvest!</b></span><br>Your pay has increased by $0.02. Your bonus pay is now $0.72.</p>\n            ","response":0,"trial_type":"html-button-response","trial_index":96,"time_elapsed":585623,"internal_node_id":"0.0-4.0-1.42","subject_id":"614de064c8a4991213499b1c","study_id":"6197b3f67c2b5cd3b6d9596a","session_id":"6197b88de344d93202ad887c","condition":"contingent","relevant_dimensions":["wings","pattern"],"bee_group":{"antennae":"X","wings":"2","pattern":"D","legs":"X"},"bonus":1.2600000000000007},{"rt":1450.6000000014901,"stimulus":"bees-with-color/bee-A2DF.svg","response":1,"trial_type":"image-button-response","trial_index":97,"time_elapsed":587079,"internal_node_id":"0.0-4.0-0.43","subject_id":"614de064c8a4991213499b1c","study_id":"6197b3f67c2b5cd3b6d9596a","session_id":"6197b88de344d93202ad887c","condition":"contingent","relevant_dimensions":["wings","pattern"],"bee_group":{"antennae":"X","wings":"2","pattern":"D","legs":"X"},"action":"avoid","summary":"good-avoid","bonus":1.2600000000000007},{"rt":1074.2000000029802,"stimulus":"\n                    <p><b>Action: <em>avoid</em></b></p>\n                    <p>This is the bee that you just saw.</p>\n                    <img src=\"bees-with-color/bee-A2DF.svg\" width=\"200\">\n                    <p><br>Your bonus pay is unchanged, and remains at $0.72.</p>\n            ","response":0,"trial_type":"html-button-response","trial_index":98,"time_elapsed":588158,"internal_node_id":"0.0-4.0-1.43","subject_id":"614de064c8a4991213499b1c","study_id":"6197b3f67c2b5cd3b6d9596a","session_id":"6197b88de344d93202ad887c","condition":"contingent","relevant_dimensions":["wings","pattern"],"bee_group":{"antennae":"X","wings":"2","pattern":"D","legs":"X"},"bonus":1.2600000000000007},{"rt":1224.5999999940395,"stimulus":"bees-with-color/bee-A2SM.svg","response":0,"trial_type":"image-button-response","trial_index":99,"time_elapsed":589390,"internal_node_id":"0.0-4.0-0.44","subject_id":"614de064c8a4991213499b1c","study_id":"6197b3f67c2b5cd3b6d9596a","session_id":"6197b88de344d93202ad887c","condition":"contingent","relevant_dimensions":["wings","pattern"],"bee_group":{"antennae":"X","wings":"2","pattern":"D","legs":"X"},"action":"harvest","summary":"good-harvest","bonus":1.2600000000000007},{"rt":916.1000000014901,"stimulus":"\n                    <p><b>Action: <em>harvest</em></b></p>\n                    <p>This is the bee that you just saw.</p>\n                    <img src=\"bees-with-color/bee-A2SM.svg\" width=\"200\">\n                    <p><span class=\"greenText\"><b>Successful harvest!</b></span><br>Your pay has increased by $0.02. Your bonus pay is now $0.74.</p>\n            ","response":0,"trial_type":"html-button-response","trial_index":100,"time_elapsed":590311,"internal_node_id":"0.0-4.0-1.44","subject_id":"614de064c8a4991213499b1c","study_id":"6197b3f67c2b5cd3b6d9596a","session_id":"6197b88de344d93202ad887c","condition":"contingent","relevant_dimensions":["wings","pattern"],"bee_group":{"antennae":"X","wings":"2","pattern":"D","legs":"X"},"bonus":1.2600000000000007},{"rt":1186.4000000059605,"stimulus":"bees-with-color/bee-A1SM.svg","response":0,"trial_type":"image-button-response","trial_index":101,"time_elapsed":591504,"internal_node_id":"0.0-4.0-0.45","subject_id":"614de064c8a4991213499b1c","study_id":"6197b3f67c2b5cd3b6d9596a","session_id":"6197b88de344d93202ad887c","condition":"contingent","relevant_dimensions":["wings","pattern"],"bee_group":{"antennae":"X","wings":"2","pattern":"D","legs":"X"},"action":"harvest","summary":"good-harvest","bonus":1.2600000000000007},{"rt":1023.6000000014901,"stimulus":"\n                    <p><b>Action: <em>harvest</em></b></p>\n                    <p>This is the bee that you just saw.</p>\n                    <img src=\"bees-with-color/bee-A1SM.svg\" width=\"200\">\n                    <p><span class=\"greenText\"><b>Successful harvest!</b></span><br>Your pay has increased by $0.02. Your bonus pay is now $0.76.</p>\n            ","response":0,"trial_type":"html-button-response","trial_index":102,"time_elapsed":592534,"internal_node_id":"0.0-4.0-1.45","subject_id":"614de064c8a4991213499b1c","study_id":"6197b3f67c2b5cd3b6d9596a","session_id":"6197b88de344d93202ad887c","condition":"contingent","relevant_dimensions":["wings","pattern"],"bee_group":{"antennae":"X","wings":"2","pattern":"D","legs":"X"},"bonus":1.2600000000000007},{"rt":1202.2000000029802,"stimulus":"bees-with-color/bee-B1DF.svg","response":1,"trial_type":"image-button-response","trial_index":103,"time_elapsed":593743,"internal_node_id":"0.0-4.0-0.46","subject_id":"614de064c8a4991213499b1c","study_id":"6197b3f67c2b5cd3b6d9596a","session_id":"6197b88de344d93202ad887c","condition":"contingent","relevant_dimensions":["wings","pattern"],"bee_group":{"antennae":"X","wings":"2","pattern":"D","legs":"X"},"action":"avoid","summary":"bad-avoid","bonus":1.2600000000000007},{"rt":1145.5,"stimulus":"\n                    <p><b>Action: <em>avoid</em></b></p>\n                    <p>This is the bee that you just saw.</p>\n                    <img src=\"bees-with-color/bee-B1DF.svg\" width=\"200\">\n                    <p><br>Your bonus pay is unchanged, and remains at $0.76.</p>\n            ","response":0,"trial_type":"html-button-response","trial_index":104,"time_elapsed":594894,"internal_node_id":"0.0-4.0-1.46","subject_id":"614de064c8a4991213499b1c","study_id":"6197b3f67c2b5cd3b6d9596a","session_id":"6197b88de344d93202ad887c","condition":"contingent","relevant_dimensions":["wings","pattern"],"bee_group":{"antennae":"X","wings":"2","pattern":"D","legs":"X"},"bonus":1.2600000000000007},{"rt":3155.0999999940395,"stimulus":"bees-with-color/bee-B2SF.svg","response":0,"trial_type":"image-button-response","trial_index":105,"time_elapsed":598056,"internal_node_id":"0.0-4.0-0.47","subject_id":"614de064c8a4991213499b1c","study_id":"6197b3f67c2b5cd3b6d9596a","session_id":"6197b88de344d93202ad887c","condition":"contingent","relevant_dimensions":["wings","pattern"],"bee_group":{"antennae":"X","wings":"2","pattern":"D","legs":"X"},"action":"harvest","summary":"good-harvest","bonus":1.2600000000000007},{"rt":1192.5,"stimulus":"\n                    <p><b>Action: <em>harvest</em></b></p>\n                    <p>This is the bee that you just saw.</p>\n                    <img src=\"bees-with-color/bee-B2SF.svg\" width=\"200\">\n                    <p><span class=\"greenText\"><b>Successful harvest!</b></span><br>Your pay has increased by $0.02. Your bonus pay is now $0.78.</p>\n            ","response":0,"trial_type":"html-button-response","trial_index":106,"time_elapsed":599254,"internal_node_id":"0.0-4.0-1.47","subject_id":"614de064c8a4991213499b1c","study_id":"6197b3f67c2b5cd3b6d9596a","session_id":"6197b88de344d93202ad887c","condition":"contingent","relevant_dimensions":["wings","pattern"],"bee_group":{"antennae":"X","wings":"2","pattern":"D","legs":"X"},"bonus":1.2600000000000007},{"rt":1410,"stimulus":"bees-with-color/bee-B1DM.svg","response":1,"trial_type":"image-button-response","trial_index":107,"time_elapsed":600672,"internal_node_id":"0.0-4.0-0.48","subject_id":"614de064c8a4991213499b1c","study_id":"6197b3f67c2b5cd3b6d9596a","session_id":"6197b88de344d93202ad887c","condition":"contingent","relevant_dimensions":["wings","pattern"],"bee_group":{"antennae":"X","wings":"2","pattern":"D","legs":"X"},"action":"avoid","summary":"bad-avoid","bonus":1.2600000000000007},{"rt":1337,"stimulus":"\n                    <p><b>Action: <em>avoid</em></b></p>\n                    <p>This is the bee that you just saw.</p>\n                    <img src=\"bees-with-color/bee-B1DM.svg\" width=\"200\">\n                    <p><br>Your bonus pay is unchanged, and remains at $0.78.</p>\n            ","response":0,"trial_type":"html-button-response","trial_index":108,"time_elapsed":602015,"internal_node_id":"0.0-4.0-1.48","subject_id":"614de064c8a4991213499b1c","study_id":"6197b3f67c2b5cd3b6d9596a","session_id":"6197b88de344d93202ad887c","condition":"contingent","relevant_dimensions":["wings","pattern"],"bee_group":{"antennae":"X","wings":"2","pattern":"D","legs":"X"},"bonus":1.2600000000000007},{"rt":1552.7000000029802,"stimulus":"bees-with-color/bee-A1DF.svg","response":1,"trial_type":"image-button-response","trial_index":109,"time_elapsed":603575,"internal_node_id":"0.0-4.0-0.49","subject_id":"614de064c8a4991213499b1c","study_id":"6197b3f67c2b5cd3b6d9596a","session_id":"6197b88de344d93202ad887c","condition":"contingent","relevant_dimensions":["wings","pattern"],"bee_group":{"antennae":"X","wings":"2","pattern":"D","legs":"X"},"action":"avoid","summary":"bad-avoid","bonus":1.2600000000000007},{"rt":1050.1000000014901,"stimulus":"\n                    <p><b>Action: <em>avoid</em></b></p>\n                    <p>This is the bee that you just saw.</p>\n                    <img src=\"bees-with-color/bee-A1DF.svg\" width=\"200\">\n                    <p><br>Your bonus pay is unchanged, and remains at $0.78.</p>\n            ","response":0,"trial_type":"html-button-response","trial_index":110,"time_elapsed":604632,"internal_node_id":"0.0-4.0-1.49","subject_id":"614de064c8a4991213499b1c","study_id":"6197b3f67c2b5cd3b6d9596a","session_id":"6197b88de344d93202ad887c","condition":"contingent","relevant_dimensions":["wings","pattern"],"bee_group":{"antennae":"X","wings":"2","pattern":"D","legs":"X"},"bonus":1.2600000000000007},{"rt":2002.8999999985099,"stimulus":"bees-with-color/bee-A2SF.svg","response":0,"trial_type":"image-button-response","trial_index":111,"time_elapsed":606641,"internal_node_id":"0.0-4.0-0.50","subject_id":"614de064c8a4991213499b1c","study_id":"6197b3f67c2b5cd3b6d9596a","session_id":"6197b88de344d93202ad887c","condition":"contingent","relevant_dimensions":["wings","pattern"],"bee_group":{"antennae":"X","wings":"2","pattern":"D","legs":"X"},"action":"harvest","summary":"good-harvest","bonus":1.2600000000000007},{"rt":1337.1000000014901,"stimulus":"\n                    <p><b>Action: <em>harvest</em></b></p>\n                    <p>This is the bee that you just saw.</p>\n                    <img src=\"bees-with-color/bee-A2SF.svg\" width=\"200\">\n                    <p><span class=\"greenText\"><b>Successful harvest!</b></span><br>Your pay has increased by $0.02. Your bonus pay is now $0.80.</p>\n            ","response":0,"trial_type":"html-button-response","trial_index":112,"time_elapsed":607984,"internal_node_id":"0.0-4.0-1.50","subject_id":"614de064c8a4991213499b1c","study_id":"6197b3f67c2b5cd3b6d9596a","session_id":"6197b88de344d93202ad887c","condition":"contingent","relevant_dimensions":["wings","pattern"],"bee_group":{"antennae":"X","wings":"2","pattern":"D","legs":"X"},"bonus":1.2600000000000007},{"rt":1665.7999999970198,"stimulus":"bees-with-color/bee-A1SM.svg","response":0,"trial_type":"image-button-response","trial_index":113,"time_elapsed":609656,"internal_node_id":"0.0-4.0-0.51","subject_id":"614de064c8a4991213499b1c","study_id":"6197b3f67c2b5cd3b6d9596a","session_id":"6197b88de344d93202ad887c","condition":"contingent","relevant_dimensions":["wings","pattern"],"bee_group":{"antennae":"X","wings":"2","pattern":"D","legs":"X"},"action":"harvest","summary":"good-harvest","bonus":1.2600000000000007},{"rt":1098.8000000044703,"stimulus":"\n                    <p><b>Action: <em>harvest</em></b></p>\n                    <p>This is the bee that you just saw.</p>\n                    <img src=\"bees-with-color/bee-A1SM.svg\" width=\"200\">\n                    <p><span class=\"greenText\"><b>Successful harvest!</b></span><br>Your pay has increased by $0.02. Your bonus pay is now $0.82.</p>\n            ","response":0,"trial_type":"html-button-response","trial_index":114,"time_elapsed":610759,"internal_node_id":"0.0-4.0-1.51","subject_id":"614de064c8a4991213499b1c","study_id":"6197b3f67c2b5cd3b6d9596a","session_id":"6197b88de344d93202ad887c","condition":"contingent","relevant_dimensions":["wings","pattern"],"bee_group":{"antennae":"X","wings":"2","pattern":"D","legs":"X"},"bonus":1.2600000000000007},{"rt":1308.6000000014901,"stimulus":"bees-with-color/bee-A2DF.svg","response":1,"trial_type":"image-button-response","trial_index":115,"time_elapsed":612072,"internal_node_id":"0.0-4.0-0.52","subject_id":"614de064c8a4991213499b1c","study_id":"6197b3f67c2b5cd3b6d9596a","session_id":"6197b88de344d93202ad887c","condition":"contingent","relevant_dimensions":["wings","pattern"],"bee_group":{"antennae":"X","wings":"2","pattern":"D","legs":"X"},"action":"avoid","summary":"good-avoid","bonus":1.2600000000000007},{"rt":1506.1999999955297,"stimulus":"\n                    <p><b>Action: <em>avoid</em></b></p>\n                    <p>This is the bee that you just saw.</p>\n                    <img src=\"bees-with-color/bee-A2DF.svg\" width=\"200\">\n                    <p><br>Your bonus pay is unchanged, and remains at $0.82.</p>\n            ","response":0,"trial_type":"html-button-response","trial_index":116,"time_elapsed":613583,"internal_node_id":"0.0-4.0-1.52","subject_id":"614de064c8a4991213499b1c","study_id":"6197b3f67c2b5cd3b6d9596a","session_id":"6197b88de344d93202ad887c","condition":"contingent","relevant_dimensions":["wings","pattern"],"bee_group":{"antennae":"X","wings":"2","pattern":"D","legs":"X"},"bonus":1.2600000000000007},{"rt":1259.9000000059605,"stimulus":"bees-with-color/bee-B2DM.svg","response":1,"trial_type":"image-button-response","trial_index":117,"time_elapsed":614847,"internal_node_id":"0.0-4.0-0.53","subject_id":"614de064c8a4991213499b1c","study_id":"6197b3f67c2b5cd3b6d9596a","session_id":"6197b88de344d93202ad887c","condition":"contingent","relevant_dimensions":["wings","pattern"],"bee_group":{"antennae":"X","wings":"2","pattern":"D","legs":"X"},"action":"avoid","summary":"good-avoid","bonus":1.2600000000000007},{"rt":1003.5,"stimulus":"\n                    <p><b>Action: <em>avoid</em></b></p>\n                    <p>This is the bee that you just saw.</p>\n                    <img src=\"bees-with-color/bee-B2DM.svg\" width=\"200\">\n                    <p><br>Your bonus pay is unchanged, and remains at $0.82.</p>\n            ","response":0,"trial_type":"html-button-response","trial_index":118,"time_elapsed":615856,"internal_node_id":"0.0-4.0-1.53","subject_id":"614de064c8a4991213499b1c","study_id":"6197b3f67c2b5cd3b6d9596a","session_id":"6197b88de344d93202ad887c","condition":"contingent","relevant_dimensions":["wings","pattern"],"bee_group":{"antennae":"X","wings":"2","pattern":"D","legs":"X"},"bonus":1.2600000000000007},{"rt":3034.89999999851,"stimulus":"bees-with-color/bee-A1SF.svg","response":0,"trial_type":"image-button-response","trial_index":119,"time_elapsed":618895,"internal_node_id":"0.0-4.0-0.54","subject_id":"614de064c8a4991213499b1c","study_id":"6197b3f67c2b5cd3b6d9596a","session_id":"6197b88de344d93202ad887c","condition":"contingent","relevant_dimensions":["wings","pattern"],"bee_group":{"antennae":"X","wings":"2","pattern":"D","legs":"X"},"action":"harvest","summary":"good-harvest","bonus":1.2600000000000007},{"rt":1124.7000000029802,"stimulus":"\n                    <p><b>Action: <em>harvest</em></b></p>\n                    <p>This is the bee that you just saw.</p>\n                    <img src=\"bees-with-color/bee-A1SF.svg\" width=\"200\">\n                    <p><span class=\"greenText\"><b>Successful harvest!</b></span><br>Your pay has increased by $0.02. Your bonus pay is now $0.84.</p>\n            ","response":0,"trial_type":"html-button-response","trial_index":120,"time_elapsed":620024,"internal_node_id":"0.0-4.0-1.54","subject_id":"614de064c8a4991213499b1c","study_id":"6197b3f67c2b5cd3b6d9596a","session_id":"6197b88de344d93202ad887c","condition":"contingent","relevant_dimensions":["wings","pattern"],"bee_group":{"antennae":"X","wings":"2","pattern":"D","legs":"X"},"bonus":1.2600000000000007},{"rt":1313.1000000014901,"stimulus":"bees-with-color/bee-B2SF.svg","response":0,"trial_type":"image-button-response","trial_index":121,"time_elapsed":621343,"internal_node_id":"0.0-4.0-0.55","subject_id":"614de064c8a4991213499b1c","study_id":"6197b3f67c2b5cd3b6d9596a","session_id":"6197b88de344d93202ad887c","condition":"contingent","relevant_dimensions":["wings","pattern"],"bee_group":{"antennae":"X","wings":"2","pattern":"D","legs":"X"},"action":"harvest","summary":"good-harvest","bonus":1.2600000000000007},{"rt":1083.1000000014901,"stimulus":"\n                    <p><b>Action: <em>harvest</em></b></p>\n                    <p>This is the bee that you just saw.</p>\n                    <img src=\"bees-with-color/bee-B2SF.svg\" width=\"200\">\n                    <p><span class=\"greenText\"><b>Successful harvest!</b></span><br>Your pay has increased by $0.02. Your bonus pay is now $0.86.</p>\n            ","response":0,"trial_type":"html-button-response","trial_index":122,"time_elapsed":622431,"internal_node_id":"0.0-4.0-1.55","subject_id":"614de064c8a4991213499b1c","study_id":"6197b3f67c2b5cd3b6d9596a","session_id":"6197b88de344d93202ad887c","condition":"contingent","relevant_dimensions":["wings","pattern"],"bee_group":{"antennae":"X","wings":"2","pattern":"D","legs":"X"},"bonus":1.2600000000000007},{"rt":1196.3999999985099,"stimulus":"bees-with-color/bee-B2SM.svg","response":0,"trial_type":"image-button-response","trial_index":123,"time_elapsed":623631,"internal_node_id":"0.0-4.0-0.56","subject_id":"614de064c8a4991213499b1c","study_id":"6197b3f67c2b5cd3b6d9596a","session_id":"6197b88de344d93202ad887c","condition":"contingent","relevant_dimensions":["wings","pattern"],"bee_group":{"antennae":"X","wings":"2","pattern":"D","legs":"X"},"action":"harvest","summary":"good-harvest","bonus":1.2600000000000007},{"rt":938.9000000059605,"stimulus":"\n                    <p><b>Action: <em>harvest</em></b></p>\n                    <p>This is the bee that you just saw.</p>\n                    <img src=\"bees-with-color/bee-B2SM.svg\" width=\"200\">\n                    <p><span class=\"greenText\"><b>Successful harvest!</b></span><br>Your pay has increased by $0.02. Your bonus pay is now $0.88.</p>\n            ","response":0,"trial_type":"html-button-response","trial_index":124,"time_elapsed":624575,"internal_node_id":"0.0-4.0-1.56","subject_id":"614de064c8a4991213499b1c","study_id":"6197b3f67c2b5cd3b6d9596a","session_id":"6197b88de344d93202ad887c","condition":"contingent","relevant_dimensions":["wings","pattern"],"bee_group":{"antennae":"X","wings":"2","pattern":"D","legs":"X"},"bonus":1.2600000000000007},{"rt":1395.8000000044703,"stimulus":"bees-with-color/bee-A1DM.svg","response":1,"trial_type":"image-button-response","trial_index":125,"time_elapsed":625975,"internal_node_id":"0.0-4.0-0.57","subject_id":"614de064c8a4991213499b1c","study_id":"6197b3f67c2b5cd3b6d9596a","session_id":"6197b88de344d93202ad887c","condition":"contingent","relevant_dimensions":["wings","pattern"],"bee_group":{"antennae":"X","wings":"2","pattern":"D","legs":"X"},"action":"avoid","summary":"bad-avoid","bonus":1.2600000000000007},{"rt":1140.2000000029802,"stimulus":"\n                    <p><b>Action: <em>avoid</em></b></p>\n                    <p>This is the bee that you just saw.</p>\n                    <img src=\"bees-with-color/bee-A1DM.svg\" width=\"200\">\n                    <p><br>Your bonus pay is unchanged, and remains at $0.88.</p>\n            ","response":0,"trial_type":"html-button-response","trial_index":126,"time_elapsed":627121,"internal_node_id":"0.0-4.0-1.57","subject_id":"614de064c8a4991213499b1c","study_id":"6197b3f67c2b5cd3b6d9596a","session_id":"6197b88de344d93202ad887c","condition":"contingent","relevant_dimensions":["wings","pattern"],"bee_group":{"antennae":"X","wings":"2","pattern":"D","legs":"X"},"bonus":1.2600000000000007},{"rt":1611.2000000029802,"stimulus":"bees-with-color/bee-B1SF.svg","response":0,"trial_type":"image-button-response","trial_index":127,"time_elapsed":628737,"internal_node_id":"0.0-4.0-0.58","subject_id":"614de064c8a4991213499b1c","study_id":"6197b3f67c2b5cd3b6d9596a","session_id":"6197b88de344d93202ad887c","condition":"contingent","relevant_dimensions":["wings","pattern"],"bee_group":{"antennae":"X","wings":"2","pattern":"D","legs":"X"},"action":"harvest","summary":"good-harvest","bonus":1.2600000000000007},{"rt":1225.5,"stimulus":"\n                    <p><b>Action: <em>harvest</em></b></p>\n                    <p>This is the bee that you just saw.</p>\n                    <img src=\"bees-with-color/bee-B1SF.svg\" width=\"200\">\n                    <p><span class=\"greenText\"><b>Successful harvest!</b></span><br>Your pay has increased by $0.02. Your bonus pay is now $0.90.</p>\n            ","response":0,"trial_type":"html-button-response","trial_index":128,"time_elapsed":629968,"internal_node_id":"0.0-4.0-1.58","subject_id":"614de064c8a4991213499b1c","study_id":"6197b3f67c2b5cd3b6d9596a","session_id":"6197b88de344d93202ad887c","condition":"contingent","relevant_dimensions":["wings","pattern"],"bee_group":{"antennae":"X","wings":"2","pattern":"D","legs":"X"},"bonus":1.2600000000000007},{"rt":1529,"stimulus":"bees-with-color/bee-B2DF.svg","response":1,"trial_type":"image-button-response","trial_index":129,"time_elapsed":631505,"internal_node_id":"0.0-4.0-0.59","subject_id":"614de064c8a4991213499b1c","study_id":"6197b3f67c2b5cd3b6d9596a","session_id":"6197b88de344d93202ad887c","condition":"contingent","relevant_dimensions":["wings","pattern"],"bee_group":{"antennae":"X","wings":"2","pattern":"D","legs":"X"},"action":"avoid","summary":"good-avoid","bonus":1.2600000000000007},{"rt":1296.6000000014901,"stimulus":"\n                    <p><b>Action: <em>avoid</em></b></p>\n                    <p>This is the bee that you just saw.</p>\n                    <img src=\"bees-with-color/bee-B2DF.svg\" width=\"200\">\n                    <p><br>Your bonus pay is unchanged, and remains at $0.90.</p>\n            ","response":0,"trial_type":"html-button-response","trial_index":130,"time_elapsed":632809,"internal_node_id":"0.0-4.0-1.59","subject_id":"614de064c8a4991213499b1c","study_id":"6197b3f67c2b5cd3b6d9596a","session_id":"6197b88de344d93202ad887c","condition":"contingent","relevant_dimensions":["wings","pattern"],"bee_group":{"antennae":"X","wings":"2","pattern":"D","legs":"X"},"bonus":1.2600000000000007},{"rt":1299,"stimulus":"bees-with-color/bee-B1SM.svg","response":0,"trial_type":"image-button-response","trial_index":131,"time_elapsed":634112,"internal_node_id":"0.0-4.0-0.60","subject_id":"614de064c8a4991213499b1c","study_id":"6197b3f67c2b5cd3b6d9596a","session_id":"6197b88de344d93202ad887c","condition":"contingent","relevant_dimensions":["wings","pattern"],"bee_group":{"antennae":"X","wings":"2","pattern":"D","legs":"X"},"action":"harvest","summary":"good-harvest","bonus":1.2600000000000007},{"rt":1209.7000000029802,"stimulus":"\n                    <p><b>Action: <em>harvest</em></b></p>\n                    <p>This is the bee that you just saw.</p>\n                    <img src=\"bees-with-color/bee-B1SM.svg\" width=\"200\">\n                    <p><span class=\"greenText\"><b>Successful harvest!</b></span><br>Your pay has increased by $0.02. Your bonus pay is now $0.92.</p>\n            ","response":0,"trial_type":"html-button-response","trial_index":132,"time_elapsed":635327,"internal_node_id":"0.0-4.0-1.60","subject_id":"614de064c8a4991213499b1c","study_id":"6197b3f67c2b5cd3b6d9596a","session_id":"6197b88de344d93202ad887c","condition":"contingent","relevant_dimensions":["wings","pattern"],"bee_group":{"antennae":"X","wings":"2","pattern":"D","legs":"X"},"bonus":1.2600000000000007},{"rt":1212.5,"stimulus":"bees-with-color/bee-A2SM.svg","response":0,"trial_type":"image-button-response","trial_index":133,"time_elapsed":636545,"internal_node_id":"0.0-4.0-0.61","subject_id":"614de064c8a4991213499b1c","study_id":"6197b3f67c2b5cd3b6d9596a","session_id":"6197b88de344d93202ad887c","condition":"contingent","relevant_dimensions":["wings","pattern"],"bee_group":{"antennae":"X","wings":"2","pattern":"D","legs":"X"},"action":"harvest","summary":"good-harvest","bonus":1.2600000000000007},{"rt":992.8000000044703,"stimulus":"\n                    <p><b>Action: <em>harvest</em></b></p>\n                    <p>This is the bee that you just saw.</p>\n                    <img src=\"bees-with-color/bee-A2SM.svg\" width=\"200\">\n                    <p><span class=\"greenText\"><b>Successful harvest!</b></span><br>Your pay has increased by $0.02. Your bonus pay is now $0.94.</p>\n            ","response":0,"trial_type":"html-button-response","trial_index":134,"time_elapsed":637544,"internal_node_id":"0.0-4.0-1.61","subject_id":"614de064c8a4991213499b1c","study_id":"6197b3f67c2b5cd3b6d9596a","session_id":"6197b88de344d93202ad887c","condition":"contingent","relevant_dimensions":["wings","pattern"],"bee_group":{"antennae":"X","wings":"2","pattern":"D","legs":"X"},"bonus":1.2600000000000007},{"rt":1251.5999999940395,"stimulus":"bees-with-color/bee-A2DM.svg","response":1,"trial_type":"image-button-response","trial_index":135,"time_elapsed":638800,"internal_node_id":"0.0-4.0-0.62","subject_id":"614de064c8a4991213499b1c","study_id":"6197b3f67c2b5cd3b6d9596a","session_id":"6197b88de344d93202ad887c","condition":"contingent","relevant_dimensions":["wings","pattern"],"bee_group":{"antennae":"X","wings":"2","pattern":"D","legs":"X"},"action":"avoid","summary":"good-avoid","bonus":1.2600000000000007},{"rt":1433.3999999985099,"stimulus":"\n                    <p><b>Action: <em>avoid</em></b></p>\n                    <p>This is the bee that you just saw.</p>\n                    <img src=\"bees-with-color/bee-A2DM.svg\" width=\"200\">\n                    <p><br>Your bonus pay is unchanged, and remains at $0.94.</p>\n            ","response":0,"trial_type":"html-button-response","trial_index":136,"time_elapsed":640240,"internal_node_id":"0.0-4.0-1.62","subject_id":"614de064c8a4991213499b1c","study_id":"6197b3f67c2b5cd3b6d9596a","session_id":"6197b88de344d93202ad887c","condition":"contingent","relevant_dimensions":["wings","pattern"],"bee_group":{"antennae":"X","wings":"2","pattern":"D","legs":"X"},"bonus":1.2600000000000007},{"rt":2283,"stimulus":"bees-with-color/bee-B1DF.svg","response":1,"trial_type":"image-button-response","trial_index":137,"time_elapsed":642529,"internal_node_id":"0.0-4.0-0.63","subject_id":"614de064c8a4991213499b1c","study_id":"6197b3f67c2b5cd3b6d9596a","session_id":"6197b88de344d93202ad887c","condition":"contingent","relevant_dimensions":["wings","pattern"],"bee_group":{"antennae":"X","wings":"2","pattern":"D","legs":"X"},"action":"avoid","summary":"bad-avoid","bonus":1.2600000000000007},{"rt":1178.8000000044703,"stimulus":"\n                    <p><b>Action: <em>avoid</em></b></p>\n                    <p>This is the bee that you just saw.</p>\n                    <img src=\"bees-with-color/bee-B1DF.svg\" width=\"200\">\n                    <p><br>Your bonus pay is unchanged, and remains at $0.94.</p>\n            ","response":0,"trial_type":"html-button-response","trial_index":138,"time_elapsed":643713,"internal_node_id":"0.0-4.0-1.63","subject_id":"614de064c8a4991213499b1c","study_id":"6197b3f67c2b5cd3b6d9596a","session_id":"6197b88de344d93202ad887c","condition":"contingent","relevant_dimensions":["wings","pattern"],"bee_group":{"antennae":"X","wings":"2","pattern":"D","legs":"X"},"bonus":1.2600000000000007},{"rt":7637.5,"stimulus":"You have completed the first part of this experiment.<br><br>You will now begin a shorter second part, in which you will receive no feedback.<br>The same rules regarding bonus pay apply.<br><br>Press any key to begin.","response":"j","trial_type":"html-keyboard-response","trial_index":139,"time_elapsed":651359,"internal_node_id":"0.0-5.0","subject_id":"614de064c8a4991213499b1c","study_id":"6197b3f67c2b5cd3b6d9596a","session_id":"6197b88de344d93202ad887c","condition":"contingent","relevant_dimensions":["wings","pattern"],"bee_group":{"antennae":"X","wings":"2","pattern":"D","legs":"X"},"bonus":1.2600000000000007},{"rt":2922.3000000044703,"stimulus":"bees-with-color/bee-B1DM.svg","response":1,"trial_type":"image-button-response","trial_index":140,"time_elapsed":654377,"internal_node_id":"0.0-6.0-0.0","subject_id":"614de064c8a4991213499b1c","study_id":"6197b3f67c2b5cd3b6d9596a","session_id":"6197b88de344d93202ad887c","condition":"contingent","relevant_dimensions":["wings","pattern"],"bee_group":{"antennae":"X","wings":"2","pattern":"D","legs":"X"},"bonus":1.2600000000000007},{"rt":1102.6000000014901,"stimulus":"bees-with-color/bee-B1DF.svg","response":1,"trial_type":"image-button-response","trial_index":141,"time_elapsed":655489,"internal_node_id":"0.0-6.0-0.1","subject_id":"614de064c8a4991213499b1c","study_id":"6197b3f67c2b5cd3b6d9596a","session_id":"6197b88de344d93202ad887c","condition":"contingent","relevant_dimensions":["wings","pattern"],"bee_group":{"antennae":"X","wings":"2","pattern":"D","legs":"X"},"bonus":1.2600000000000007},{"rt":814.7999999970198,"stimulus":"bees-with-color/bee-A1DM.svg","response":1,"trial_type":"image-button-response","trial_index":142,"time_elapsed":656312,"internal_node_id":"0.0-6.0-0.2","subject_id":"614de064c8a4991213499b1c","study_id":"6197b3f67c2b5cd3b6d9596a","session_id":"6197b88de344d93202ad887c","condition":"contingent","relevant_dimensions":["wings","pattern"],"bee_group":{"antennae":"X","wings":"2","pattern":"D","legs":"X"},"bonus":1.2600000000000007},{"rt":784.8999999985099,"stimulus":"bees-with-color/bee-B2DM.svg","response":1,"trial_type":"image-button-response","trial_index":143,"time_elapsed":657107,"internal_node_id":"0.0-6.0-0.3","subject_id":"614de064c8a4991213499b1c","study_id":"6197b3f67c2b5cd3b6d9596a","session_id":"6197b88de344d93202ad887c","condition":"contingent","relevant_dimensions":["wings","pattern"],"bee_group":{"antennae":"X","wings":"2","pattern":"D","legs":"X"},"bonus":1.2600000000000007},{"rt":1358.5,"stimulus":"bees-with-color/bee-A1SM.svg","response":0,"trial_type":"image-button-response","trial_index":144,"time_elapsed":658473,"internal_node_id":"0.0-6.0-0.4","subject_id":"614de064c8a4991213499b1c","study_id":"6197b3f67c2b5cd3b6d9596a","session_id":"6197b88de344d93202ad887c","condition":"contingent","relevant_dimensions":["wings","pattern"],"bee_group":{"antennae":"X","wings":"2","pattern":"D","legs":"X"},"bonus":1.2600000000000007},{"rt":680.5,"stimulus":"bees-with-color/bee-A1SF.svg","response":0,"trial_type":"image-button-response","trial_index":145,"time_elapsed":659162,"internal_node_id":"0.0-6.0-0.5","subject_id":"614de064c8a4991213499b1c","study_id":"6197b3f67c2b5cd3b6d9596a","session_id":"6197b88de344d93202ad887c","condition":"contingent","relevant_dimensions":["wings","pattern"],"bee_group":{"antennae":"X","wings":"2","pattern":"D","legs":"X"},"bonus":1.2600000000000007},{"rt":1575.5,"stimulus":"bees-with-color/bee-A2DM.svg","response":1,"trial_type":"image-button-response","trial_index":146,"time_elapsed":660746,"internal_node_id":"0.0-6.0-0.6","subject_id":"614de064c8a4991213499b1c","study_id":"6197b3f67c2b5cd3b6d9596a","session_id":"6197b88de344d93202ad887c","condition":"contingent","relevant_dimensions":["wings","pattern"],"bee_group":{"antennae":"X","wings":"2","pattern":"D","legs":"X"},"bonus":1.2600000000000007},{"rt":1277.8000000044703,"stimulus":"bees-with-color/bee-A2SM.svg","response":0,"trial_type":"image-button-response","trial_index":147,"time_elapsed":662033,"internal_node_id":"0.0-6.0-0.7","subject_id":"614de064c8a4991213499b1c","study_id":"6197b3f67c2b5cd3b6d9596a","session_id":"6197b88de344d93202ad887c","condition":"contingent","relevant_dimensions":["wings","pattern"],"bee_group":{"antennae":"X","wings":"2","pattern":"D","legs":"X"},"bonus":1.2600000000000007},{"rt":1246.7000000029802,"stimulus":"bees-with-color/bee-A2SF.svg","response":0,"trial_type":"image-button-response","trial_index":148,"time_elapsed":663289,"internal_node_id":"0.0-6.0-0.8","subject_id":"614de064c8a4991213499b1c","study_id":"6197b3f67c2b5cd3b6d9596a","session_id":"6197b88de344d93202ad887c","condition":"contingent","relevant_dimensions":["wings","pattern"],"bee_group":{"antennae":"X","wings":"2","pattern":"D","legs":"X"},"bonus":1.2600000000000007},{"rt":1295.7999999970198,"stimulus":"bees-with-color/bee-A1DF.svg","response":1,"trial_type":"image-button-response","trial_index":149,"time_elapsed":664592,"internal_node_id":"0.0-6.0-0.9","subject_id":"614de064c8a4991213499b1c","study_id":"6197b3f67c2b5cd3b6d9596a","session_id":"6197b88de344d93202ad887c","condition":"contingent","relevant_dimensions":["wings","pattern"],"bee_group":{"antennae":"X","wings":"2","pattern":"D","legs":"X"},"bonus":1.2600000000000007},{"rt":874.3999999985099,"stimulus":"bees-with-color/bee-B2DF.svg","response":1,"trial_type":"image-button-response","trial_index":150,"time_elapsed":665474,"internal_node_id":"0.0-6.0-0.10","subject_id":"614de064c8a4991213499b1c","study_id":"6197b3f67c2b5cd3b6d9596a","session_id":"6197b88de344d93202ad887c","condition":"contingent","relevant_dimensions":["wings","pattern"],"bee_group":{"antennae":"X","wings":"2","pattern":"D","legs":"X"},"bonus":1.2600000000000007},{"rt":1208.1999999955297,"stimulus":"bees-with-color/bee-B2SF.svg","response":0,"trial_type":"image-button-response","trial_index":151,"time_elapsed":666689,"internal_node_id":"0.0-6.0-0.11","subject_id":"614de064c8a4991213499b1c","study_id":"6197b3f67c2b5cd3b6d9596a","session_id":"6197b88de344d93202ad887c","condition":"contingent","relevant_dimensions":["wings","pattern"],"bee_group":{"antennae":"X","wings":"2","pattern":"D","legs":"X"},"bonus":1.2600000000000007},{"rt":728.6999999955297,"stimulus":"bees-with-color/bee-B1SM.svg","response":0,"trial_type":"image-button-response","trial_index":152,"time_elapsed":667425,"internal_node_id":"0.0-6.0-0.12","subject_id":"614de064c8a4991213499b1c","study_id":"6197b3f67c2b5cd3b6d9596a","session_id":"6197b88de344d93202ad887c","condition":"contingent","relevant_dimensions":["wings","pattern"],"bee_group":{"antennae":"X","wings":"2","pattern":"D","legs":"X"},"bonus":1.2600000000000007},{"rt":1424.1000000014901,"stimulus":"bees-with-color/bee-A2DF.svg","response":1,"trial_type":"image-button-response","trial_index":153,"time_elapsed":668857,"internal_node_id":"0.0-6.0-0.13","subject_id":"614de064c8a4991213499b1c","study_id":"6197b3f67c2b5cd3b6d9596a","session_id":"6197b88de344d93202ad887c","condition":"contingent","relevant_dimensions":["wings","pattern"],"bee_group":{"antennae":"X","wings":"2","pattern":"D","legs":"X"},"bonus":1.2600000000000007},{"rt":1295.8000000044703,"stimulus":"bees-with-color/bee-B1SF.svg","response":0,"trial_type":"image-button-response","trial_index":154,"time_elapsed":670160,"internal_node_id":"0.0-6.0-0.14","subject_id":"614de064c8a4991213499b1c","study_id":"6197b3f67c2b5cd3b6d9596a","session_id":"6197b88de344d93202ad887c","condition":"contingent","relevant_dimensions":["wings","pattern"],"bee_group":{"antennae":"X","wings":"2","pattern":"D","legs":"X"},"bonus":1.2600000000000007},{"rt":1162.0999999940395,"stimulus":"bees-with-color/bee-B2SM.svg","response":0,"trial_type":"image-button-response","trial_index":155,"time_elapsed":671329,"internal_node_id":"0.0-6.0-0.15","subject_id":"614de064c8a4991213499b1c","study_id":"6197b3f67c2b5cd3b6d9596a","session_id":"6197b88de344d93202ad887c","condition":"contingent","relevant_dimensions":["wings","pattern"],"bee_group":{"antennae":"X","wings":"2","pattern":"D","legs":"X"},"bonus":1.2600000000000007},{"rt":1258.1000000014901,"stimulus":"bees-with-color/bee-B2DF.svg","response":1,"trial_type":"image-button-response","trial_index":156,"time_elapsed":672593,"internal_node_id":"0.0-6.0-0.16","subject_id":"614de064c8a4991213499b1c","study_id":"6197b3f67c2b5cd3b6d9596a","session_id":"6197b88de344d93202ad887c","condition":"contingent","relevant_dimensions":["wings","pattern"],"bee_group":{"antennae":"X","wings":"2","pattern":"D","legs":"X"},"bonus":1.2600000000000007},{"rt":1177.8000000044703,"stimulus":"bees-with-color/bee-B2SF.svg","response":0,"trial_type":"image-button-response","trial_index":157,"time_elapsed":673776,"internal_node_id":"0.0-6.0-0.17","subject_id":"614de064c8a4991213499b1c","study_id":"6197b3f67c2b5cd3b6d9596a","session_id":"6197b88de344d93202ad887c","condition":"contingent","relevant_dimensions":["wings","pattern"],"bee_group":{"antennae":"X","wings":"2","pattern":"D","legs":"X"},"bonus":1.2600000000000007},{"rt":1114.7999999970198,"stimulus":"bees-with-color/bee-B1DF.svg","response":1,"trial_type":"image-button-response","trial_index":158,"time_elapsed":674897,"internal_node_id":"0.0-6.0-0.18","subject_id":"614de064c8a4991213499b1c","study_id":"6197b3f67c2b5cd3b6d9596a","session_id":"6197b88de344d93202ad887c","condition":"contingent","relevant_dimensions":["wings","pattern"],"bee_group":{"antennae":"X","wings":"2","pattern":"D","legs":"X"},"bonus":1.2600000000000007},{"rt":646.7999999970198,"stimulus":"bees-with-color/bee-B1DM.svg","response":1,"trial_type":"image-button-response","trial_index":159,"time_elapsed":675552,"internal_node_id":"0.0-6.0-0.19","subject_id":"614de064c8a4991213499b1c","study_id":"6197b3f67c2b5cd3b6d9596a","session_id":"6197b88de344d93202ad887c","condition":"contingent","relevant_dimensions":["wings","pattern"],"bee_group":{"antennae":"X","wings":"2","pattern":"D","legs":"X"},"bonus":1.2600000000000007},{"rt":777.5,"stimulus":"bees-with-color/bee-A2DF.svg","response":1,"trial_type":"image-button-response","trial_index":160,"time_elapsed":676336,"internal_node_id":"0.0-6.0-0.20","subject_id":"614de064c8a4991213499b1c","study_id":"6197b3f67c2b5cd3b6d9596a","session_id":"6197b88de344d93202ad887c","condition":"contingent","relevant_dimensions":["wings","pattern"],"bee_group":{"antennae":"X","wings":"2","pattern":"D","legs":"X"},"bonus":1.2600000000000007},{"rt":769.8999999985099,"stimulus":"bees-with-color/bee-A1DF.svg","response":1,"trial_type":"image-button-response","trial_index":161,"time_elapsed":677113,"internal_node_id":"0.0-6.0-0.21","subject_id":"614de064c8a4991213499b1c","study_id":"6197b3f67c2b5cd3b6d9596a","session_id":"6197b88de344d93202ad887c","condition":"contingent","relevant_dimensions":["wings","pattern"],"bee_group":{"antennae":"X","wings":"2","pattern":"D","legs":"X"},"bonus":1.2600000000000007},{"rt":1236.2000000029802,"stimulus":"bees-with-color/bee-B2SM.svg","response":0,"trial_type":"image-button-response","trial_index":162,"time_elapsed":678355,"internal_node_id":"0.0-6.0-0.22","subject_id":"614de064c8a4991213499b1c","study_id":"6197b3f67c2b5cd3b6d9596a","session_id":"6197b88de344d93202ad887c","condition":"contingent","relevant_dimensions":["wings","pattern"],"bee_group":{"antennae":"X","wings":"2","pattern":"D","legs":"X"},"bonus":1.2600000000000007},{"rt":1137.7000000029802,"stimulus":"bees-with-color/bee-A1DM.svg","response":1,"trial_type":"image-button-respons