[{"success":true,"trial_type":"fullscreen","trial_index":0,"time_elapsed":185810,"internal_node_id":"0.0-0.0","subject_id":"5cbbc956a8805b001c8c34f9","study_id":"60edd13110225f80f9f3709b","session_id":"6196c4a87afdd8353abe0cf3","condition":"contingent","relevant_dimensions":["wings","legs"],"bee_group":{"antennae":"X","wings":"2","pattern":"X","legs":"F"},"bonus":0.6400000000000011},{"success":true,"timeout":false,"failed_images":[],"failed_audio":[],"failed_video":[],"trial_type":"preload","trial_index":1,"time_elapsed":187113,"internal_node_id":"0.0-1.0","subject_id":"5cbbc956a8805b001c8c34f9","study_id":"60edd13110225f80f9f3709b","session_id":"6196c4a87afdd8353abe0cf3","condition":"contingent","relevant_dimensions":["wings","legs"],"bee_group":{"antennae":"X","wings":"2","pattern":"X","legs":"F"},"bonus":0.6400000000000011},{"rt":2424.7000000476837,"stimulus":"Welcome! Press any key to begin.","response":" ","trial_type":"html-keyboard-response","trial_index":2,"time_elapsed":189539,"internal_node_id":"0.0-2.0","subject_id":"5cbbc956a8805b001c8c34f9","study_id":"60edd13110225f80f9f3709b","session_id":"6196c4a87afdd8353abe0cf3","condition":"contingent","relevant_dimensions":["wings","legs"],"bee_group":{"antennae":"X","wings":"2","pattern":"X","legs":"F"},"bonus":0.6400000000000011},{"view_history":[{"page_index":0,"viewing_time":2146.5},{"page_index":1,"viewing_time":9648.100000023842},{"page_index":2,"viewing_time":13616.100000023842},{"page_index":3,"viewing_time":12223.299999952316},{"page_index":4,"viewing_time":6152.5},{"page_index":5,"viewing_time":1390.7999999523163},{"page_index":6,"viewing_time":2385.3000000715256},{"page_index":5,"viewing_time":3687.5},{"page_index":6,"viewing_time":8840},{"page_index":7,"viewing_time":5920.199999928474},{"page_index":8,"viewing_time":2848.2000000476837},{"page_index":9,"viewing_time":2735.899999976158},{"page_index":10,"viewing_time":4543.800000071526},{"page_index":11,"viewing_time":5887.799999952316},{"page_index":12,"viewing_time":10456.5},{"page_index":13,"viewing_time":1343.8999999761581},{"page_index":14,"viewing_time":1599.8999999761581}],"rt":95427.20000004768,"trial_type":"instructions","trial_index":3,"time_elapsed":284968,"internal_node_id":"0.0-3.0-0.0","subject_id":"5cbbc956a8805b001c8c34f9","study_id":"60edd13110225f80f9f3709b","session_id":"6196c4a87afdd8353abe0cf3","condition":"contingent","relevant_dimensions":["wings","legs"],"bee_group":{"antennae":"X","wings":"2","pattern":"X","legs":"F"},"bonus":0.6400000000000011},{"rt":12641,"response":{"Q0":["Two or six legs","Stripes or spots on body","Single or double wings","Antennae or no antennae"]},"question_order":[0],"trial_type":"survey-multi-select","trial_index":4,"time_elapsed":297615,"internal_node_id":"0.0-3.0-1.0","subject_id":"5cbbc956a8805b001c8c34f9","study_id":"60edd13110225f80f9f3709b","session_id":"6196c4a87afdd8353abe0cf3","condition":"contingent","relevant_dimensions":["wings","legs"],"bee_group":{"antennae":"X","wings":"2","pattern":"X","legs":"F"},"correct":true,"bonus":0.6400000000000011},{"rt":14432,"response":{"Q1":"No.","Q2":"Based on the four features of the bee.","Q3":"You do not learn if it was friendly or dangerous, and do not alter your bonus."},"question_order":[0,1,2],"trial_type":"survey-multi-choice","trial_index":5,"time_elapsed":312059,"internal_node_id":"0.0-3.0-2.0","subject_id":"5cbbc956a8805b001c8c34f9","study_id":"60edd13110225f80f9f3709b","session_id":"6196c4a87afdd8353abe0cf3","condition":"contingent","relevant_dimensions":["wings","legs"],"bee_group":{"antennae":"X","wings":"2","pattern":"X","legs":"F"},"correct":true,"bonus":0.6400000000000011},{"rt":2223.7000000476837,"stimulus":"<p>Congrats, you got everything right<br>When you're ready, click the button below to continue to the experiment.</p>","response":0,"trial_type":"html-button-response","trial_index":6,"time_elapsed":314297,"internal_node_id":"0.0-3.0-3.0","subject_id":"5cbbc956a8805b001c8c34f9","study_id":"60edd13110225f80f9f3709b","session_id":"6196c4a87afdd8353abe0cf3","condition":"contingent","relevant_dimensions":["wings","legs"],"bee_group":{"antennae":"X","wings":"2","pattern":"X","legs":"F"},"bonus":0.6400000000000011},{"rt":9535.700000047684,"stimulus":"bees-with-color/bee-A1DF.svg","response":1,"trial_type":"image-button-response","trial_index":7,"time_elapsed":323841,"internal_node_id":"0.0-4.0-0.0","subject_id":"5cbbc956a8805b001c8c34f9","study_id":"60edd13110225f80f9f3709b","session_id":"6196c4a87afdd8353abe0cf3","condition":"contingent","relevant_dimensions":["wings","legs"],"bee_group":{"antennae":"X","wings":"2","pattern":"X","legs":"F"},"action":"avoid","summary":"bad-avoid","bonus":0.6400000000000011},{"rt":8276.599999904633,"stimulus":"\n                    <p><b>Action: <em>avoid</em></b></p>\n                    <p>This is the bee that you just saw.</p>\n                    <img src=\"bees-with-color/bee-A1DF.svg\" width=\"200\">\n                    <p><br>Your bonus pay is unchanged, and remains at $0.54.</p>\n            ","response":0,"trial_type":"html-button-response","trial_index":8,"time_elapsed":332126,"internal_node_id":"0.0-4.0-1.0","subject_id":"5cbbc956a8805b001c8c34f9","study_id":"60edd13110225f80f9f3709b","session_id":"6196c4a87afdd8353abe0cf3","condition":"contingent","relevant_dimensions":["wings","legs"],"bee_group":{"antennae":"X","wings":"2","pattern":"X","legs":"F"},"bonus":0.6400000000000011},{"rt":3077.399999976158,"stimulus":"bees-with-color/bee-A2SF.svg","response":0,"trial_type":"image-button-response","trial_index":9,"time_elapsed":335208,"internal_node_id":"0.0-4.0-0.1","subject_id":"5cbbc956a8805b001c8c34f9","study_id":"60edd13110225f80f9f3709b","session_id":"6196c4a87afdd8353abe0cf3","condition":"contingent","relevant_dimensions":["wings","legs"],"bee_group":{"antennae":"X","wings":"2","pattern":"X","legs":"F"},"action":"harvest","summary":"bad-harvest","bonus":0.6400000000000011},{"rt":2881.600000023842,"stimulus":"\n                    <p><b>Action: <em>harvest</em></b></p>\n                    <p>This is the bee that you just saw.</p>\n                    <img src=\"bees-with-color/bee-A2SF.svg\" width=\"200\">\n                    <p><span class=\"redText\">Bad choice, the bee was angry.</span><br><b>You have been stung!</b><br>Your pay has been decreased by $0.10. Your bonus pay is now $0.44.</p>\n            ","response":0,"trial_type":"html-button-response","trial_index":10,"time_elapsed":338095,"internal_node_id":"0.0-4.0-1.1","subject_id":"5cbbc956a8805b001c8c34f9","study_id":"60edd13110225f80f9f3709b","session_id":"6196c4a87afdd8353abe0cf3","condition":"contingent","relevant_dimensions":["wings","legs"],"bee_group":{"antennae":"X","wings":"2","pattern":"X","legs":"F"},"bonus":0.6400000000000011},{"rt":1571.1000000238419,"stimulus":"bees-with-color/bee-B2DM.svg","response":1,"trial_type":"image-button-response","trial_index":11,"time_elapsed":339672,"internal_node_id":"0.0-4.0-0.2","subject_id":"5cbbc956a8805b001c8c34f9","study_id":"60edd13110225f80f9f3709b","session_id":"6196c4a87afdd8353abe0cf3","condition":"contingent","relevant_dimensions":["wings","legs"],"bee_group":{"antennae":"X","wings":"2","pattern":"X","legs":"F"},"action":"avoid","summary":"bad-avoid","bonus":0.6400000000000011},{"rt":1899.1999999284744,"stimulus":"\n                    <p><b>Action: <em>avoid</em></b></p>\n                    <p>This is the bee that you just saw.</p>\n                    <img src=\"bees-with-color/bee-B2DM.svg\" width=\"200\">\n                    <p><br>Your bonus pay is unchanged, and remains at $0.44.</p>\n            ","response":0,"trial_type":"html-button-response","trial_index":12,"time_elapsed":341575,"internal_node_id":"0.0-4.0-1.2","subject_id":"5cbbc956a8805b001c8c34f9","study_id":"60edd13110225f80f9f3709b","session_id":"6196c4a87afdd8353abe0cf3","condition":"contingent","relevant_dimensions":["wings","legs"],"bee_group":{"antennae":"X","wings":"2","pattern":"X","legs":"F"},"bonus":0.6400000000000011},{"rt":4316.5,"stimulus":"bees-with-color/bee-A2DM.svg","response":0,"trial_type":"image-button-response","trial_index":13,"time_elapsed":345895,"internal_node_id":"0.0-4.0-0.3","subject_id":"5cbbc956a8805b001c8c34f9","study_id":"60edd13110225f80f9f3709b","session_id":"6196c4a87afdd8353abe0cf3","condition":"contingent","relevant_dimensions":["wings","legs"],"bee_group":{"antennae":"X","wings":"2","pattern":"X","legs":"F"},"action":"harvest","summary":"good-harvest","bonus":0.6400000000000011},{"rt":4139.600000023842,"stimulus":"\n                    <p><b>Action: <em>harvest</em></b></p>\n                    <p>This is the bee that you just saw.</p>\n                    <img src=\"bees-with-color/bee-A2DM.svg\" width=\"200\">\n                    <p><span class=\"greenText\"><b>Successful harvest!</b></span><br>Your pay has increased by $0.02. Your bonus pay is now $0.46.</p>\n            ","response":0,"trial_type":"html-button-response","trial_index":14,"time_elapsed":350039,"internal_node_id":"0.0-4.0-1.3","subject_id":"5cbbc956a8805b001c8c34f9","study_id":"60edd13110225f80f9f3709b","session_id":"6196c4a87afdd8353abe0cf3","condition":"contingent","relevant_dimensions":["wings","legs"],"bee_group":{"antennae":"X","wings":"2","pattern":"X","legs":"F"},"bonus":0.6400000000000011},{"rt":1969.3999999761581,"stimulus":"bees-with-color/bee-B1SM.svg","response":0,"trial_type":"image-button-response","trial_index":15,"time_elapsed":352015,"internal_node_id":"0.0-4.0-0.4","subject_id":"5cbbc956a8805b001c8c34f9","study_id":"60edd13110225f80f9f3709b","session_id":"6196c4a87afdd8353abe0cf3","condition":"contingent","relevant_dimensions":["wings","legs"],"bee_group":{"antennae":"X","wings":"2","pattern":"X","legs":"F"},"action":"harvest","summary":"good-harvest","bonus":0.6400000000000011},{"rt":4874.600000023842,"stimulus":"\n                    <p><b>Action: <em>harvest</em></b></p>\n                    <p>This is the bee that you just saw.</p>\n                    <img src=\"bees-with-color/bee-B1SM.svg\" width=\"200\">\n                    <p><span class=\"greenText\"><b>Successful harvest!</b></span><br>Your pay has increased by $0.02. Your bonus pay is now $0.48.</p>\n            ","response":0,"trial_type":"html-button-response","trial_index":16,"time_elapsed":356895,"internal_node_id":"0.0-4.0-1.4","subject_id":"5cbbc956a8805b001c8c34f9","study_id":"60edd13110225f80f9f3709b","session_id":"6196c4a87afdd8353abe0cf3","condition":"contingent","relevant_dimensions":["wings","legs"],"bee_group":{"antennae":"X","wings":"2","pattern":"X","legs":"F"},"bonus":0.6400000000000011},{"rt":1698.9000000953674,"stimulus":"bees-with-color/bee-B1SF.svg","response":0,"trial_type":"image-button-response","trial_index":17,"time_elapsed":358600,"internal_node_id":"0.0-4.0-0.5","subject_id":"5cbbc956a8805b001c8c34f9","study_id":"60edd13110225f80f9f3709b","session_id":"6196c4a87afdd8353abe0cf3","condition":"contingent","relevant_dimensions":["wings","legs"],"bee_group":{"antennae":"X","wings":"2","pattern":"X","legs":"F"},"action":"harvest","summary":"good-harvest","bonus":0.6400000000000011},{"rt":1092.1000000238419,"stimulus":"\n                    <p><b>Action: <em>harvest</em></b></p>\n                    <p>This is the bee that you just saw.</p>\n                    <img src=\"bees-with-color/bee-B1SF.svg\" width=\"200\">\n                    <p><span class=\"greenText\"><b>Successful harvest!</b></span><br>Your pay has increased by $0.02. Your bonus pay is now $0.50.</p>\n            ","response":0,"trial_type":"html-button-response","trial_index":18,"time_elapsed":359697,"internal_node_id":"0.0-4.0-1.5","subject_id":"5cbbc956a8805b001c8c34f9","study_id":"60edd13110225f80f9f3709b","session_id":"6196c4a87afdd8353abe0cf3","condition":"contingent","relevant_dimensions":["wings","legs"],"bee_group":{"antennae":"X","wings":"2","pattern":"X","legs":"F"},"bonus":0.6400000000000011},{"rt":3426.600000023842,"stimulus":"bees-with-color/bee-B2DF.svg","response":0,"trial_type":"image-button-response","trial_index":19,"time_elapsed":363128,"internal_node_id":"0.0-4.0-0.6","subject_id":"5cbbc956a8805b001c8c34f9","study_id":"60edd13110225f80f9f3709b","session_id":"6196c4a87afdd8353abe0cf3","condition":"contingent","relevant_dimensions":["wings","legs"],"bee_group":{"antennae":"X","wings":"2","pattern":"X","legs":"F"},"action":"harvest","summary":"bad-harvest","bonus":0.6400000000000011},{"rt":3394.399999976158,"stimulus":"\n                    <p><b>Action: <em>harvest</em></b></p>\n                    <p>This is the bee that you just saw.</p>\n                    <img src=\"bees-with-color/bee-B2DF.svg\" width=\"200\">\n                    <p><span class=\"redText\">Bad choice, the bee was angry.</span><br><b>You have been stung!</b><br>Your pay has been decreased by $0.10. Your bonus pay is now $0.40.</p>\n            ","response":0,"trial_type":"html-button-response","trial_index":20,"time_elapsed":366527,"internal_node_id":"0.0-4.0-1.6","subject_id":"5cbbc956a8805b001c8c34f9","study_id":"60edd13110225f80f9f3709b","session_id":"6196c4a87afdd8353abe0cf3","condition":"contingent","relevant_dimensions":["wings","legs"],"bee_group":{"antennae":"X","wings":"2","pattern":"X","legs":"F"},"bonus":0.6400000000000011},{"rt":1014.5,"stimulus":"bees-with-color/bee-A1SM.svg","response":0,"trial_type":"image-button-response","trial_index":21,"time_elapsed":367543,"internal_node_id":"0.0-4.0-0.7","subject_id":"5cbbc956a8805b001c8c34f9","study_id":"60edd13110225f80f9f3709b","session_id":"6196c4a87afdd8353abe0cf3","condition":"contingent","relevant_dimensions":["wings","legs"],"bee_group":{"antennae":"X","wings":"2","pattern":"X","legs":"F"},"action":"harvest","summary":"good-harvest","bonus":0.6400000000000011},{"rt":797.2999999523163,"stimulus":"\n                    <p><b>Action: <em>harvest</em></b></p>\n                    <p>This is the bee that you just saw.</p>\n                    <img src=\"bees-with-color/bee-A1SM.svg\" width=\"200\">\n                    <p><span class=\"greenText\"><b>Successful harvest!</b></span><br>Your pay has increased by $0.02. Your bonus pay is now $0.42.</p>\n            ","response":0,"trial_type":"html-button-response","trial_index":22,"time_elapsed":368343,"internal_node_id":"0.0-4.0-1.7","subject_id":"5cbbc956a8805b001c8c34f9","study_id":"60edd13110225f80f9f3709b","session_id":"6196c4a87afdd8353abe0cf3","condition":"contingent","relevant_dimensions":["wings","legs"],"bee_group":{"antennae":"X","wings":"2","pattern":"X","legs":"F"},"bonus":0.6400000000000011},{"rt":1637.1000000238419,"stimulus":"bees-with-color/bee-B2SM.svg","response":0,"trial_type":"image-button-response","trial_index":23,"time_elapsed":369983,"internal_node_id":"0.0-4.0-0.8","subject_id":"5cbbc956a8805b001c8c34f9","study_id":"60edd13110225f80f9f3709b","session_id":"6196c4a87afdd8353abe0cf3","condition":"contingent","relevant_dimensions":["wings","legs"],"bee_group":{"antennae":"X","wings":"2","pattern":"X","legs":"F"},"action":"harvest","summary":"good-harvest","bonus":0.6400000000000011},{"rt":1004.6000000238419,"stimulus":"\n                    <p><b>Action: <em>harvest</em></b></p>\n                    <p>This is the bee that you just saw.</p>\n                    <img src=\"bees-with-color/bee-B2SM.svg\" width=\"200\">\n                    <p><span class=\"greenText\"><b>Successful harvest!</b></span><br>Your pay has increased by $0.02. Your bonus pay is now $0.44.</p>\n            ","response":0,"trial_type":"html-button-response","trial_index":24,"time_elapsed":370990,"internal_node_id":"0.0-4.0-1.8","subject_id":"5cbbc956a8805b001c8c34f9","study_id":"60edd13110225f80f9f3709b","session_id":"6196c4a87afdd8353abe0cf3","condition":"contingent","relevant_dimensions":["wings","legs"],"bee_group":{"antennae":"X","wings":"2","pattern":"X","legs":"F"},"bonus":0.6400000000000011},{"rt":1837,"stimulus":"bees-with-color/bee-A2DF.svg","response":1,"trial_type":"image-button-response","trial_index":25,"time_elapsed":372831,"internal_node_id":"0.0-4.0-0.9","subject_id":"5cbbc956a8805b001c8c34f9","study_id":"60edd13110225f80f9f3709b","session_id":"6196c4a87afdd8353abe0cf3","condition":"contingent","relevant_dimensions":["wings","legs"],"bee_group":{"antennae":"X","wings":"2","pattern":"X","legs":"F"},"action":"avoid","summary":"good-avoid","bonus":0.6400000000000011},{"rt":851.7999999523163,"stimulus":"\n                    <p><b>Action: <em>avoid</em></b></p>\n                    <p>This is the bee that you just saw.</p>\n                    <img src=\"bees-with-color/bee-A2DF.svg\" width=\"200\">\n                    <p><br>Your bonus pay is unchanged, and remains at $0.44.</p>\n            ","response":0,"trial_type":"html-button-response","trial_index":26,"time_elapsed":373686,"internal_node_id":"0.0-4.0-1.9","subject_id":"5cbbc956a8805b001c8c34f9","study_id":"60edd13110225f80f9f3709b","session_id":"6196c4a87afdd8353abe0cf3","condition":"contingent","relevant_dimensions":["wings","legs"],"bee_group":{"antennae":"X","wings":"2","pattern":"X","legs":"F"},"bonus":0.6400000000000011},{"rt":6054.299999952316,"stimulus":"bees-with-color/bee-A1SF.svg","response":0,"trial_type":"image-button-response","trial_index":27,"time_elapsed":379744,"internal_node_id":"0.0-4.0-0.10","subject_id":"5cbbc956a8805b001c8c34f9","study_id":"60edd13110225f80f9f3709b","session_id":"6196c4a87afdd8353abe0cf3","condition":"contingent","relevant_dimensions":["wings","legs"],"bee_group":{"antennae":"X","wings":"2","pattern":"X","legs":"F"},"action":"harvest","summary":"good-harvest","bonus":0.6400000000000011},{"rt":898.8000000715256,"stimulus":"\n                    <p><b>Action: <em>harvest</em></b></p>\n                    <p>This is the bee that you just saw.</p>\n                    <img src=\"bees-with-color/bee-A1SF.svg\" width=\"200\">\n                    <p><span class=\"greenText\"><b>Successful harvest!</b></span><br>Your pay has increased by $0.02. Your bonus pay is now $0.46.</p>\n            ","response":0,"trial_type":"html-button-response","trial_index":28,"time_elapsed":380647,"internal_node_id":"0.0-4.0-1.10","subject_id":"5cbbc956a8805b001c8c34f9","study_id":"60edd13110225f80f9f3709b","session_id":"6196c4a87afdd8353abe0cf3","condition":"contingent","relevant_dimensions":["wings","legs"],"bee_group":{"antennae":"X","wings":"2","pattern":"X","legs":"F"},"bonus":0.6400000000000011},{"rt":2259.9000000953674,"stimulus":"bees-with-color/bee-A2SM.svg","response":0,"trial_type":"image-button-response","trial_index":29,"time_elapsed":382911,"internal_node_id":"0.0-4.0-0.11","subject_id":"5cbbc956a8805b001c8c34f9","study_id":"60edd13110225f80f9f3709b","session_id":"6196c4a87afdd8353abe0cf3","condition":"contingent","relevant_dimensions":["wings","legs"],"bee_group":{"antennae":"X","wings":"2","pattern":"X","legs":"F"},"action":"harvest","summary":"good-harvest","bonus":0.6400000000000011},{"rt":867.8999999761581,"stimulus":"\n                    <p><b>Action: <em>harvest</em></b></p>\n                    <p>This is the bee that you just saw.</p>\n                    <img src=\"bees-with-color/bee-A2SM.svg\" width=\"200\">\n                    <p><span class=\"greenText\"><b>Successful harvest!</b></span><br>Your pay has increased by $0.02. Your bonus pay is now $0.48.</p>\n            ","response":0,"trial_type":"html-button-response","trial_index":30,"time_elapsed":383783,"internal_node_id":"0.0-4.0-1.11","subject_id":"5cbbc956a8805b001c8c34f9","study_id":"60edd13110225f80f9f3709b","session_id":"6196c4a87afdd8353abe0cf3","condition":"contingent","relevant_dimensions":["wings","legs"],"bee_group":{"antennae":"X","wings":"2","pattern":"X","legs":"F"},"bonus":0.6400000000000011},{"rt":4052.7000000476837,"stimulus":"bees-with-color/bee-B2SF.svg","response":1,"trial_type":"image-button-response","trial_index":31,"time_elapsed":387839,"internal_node_id":"0.0-4.0-0.12","subject_id":"5cbbc956a8805b001c8c34f9","study_id":"60edd13110225f80f9f3709b","session_id":"6196c4a87afdd8353abe0cf3","condition":"contingent","relevant_dimensions":["wings","legs"],"bee_group":{"antennae":"X","wings":"2","pattern":"X","legs":"F"},"action":"avoid","summary":"good-avoid","bonus":0.6400000000000011},{"rt":845.7999999523163,"stimulus":"\n                    <p><b>Action: <em>avoid</em></b></p>\n                    <p>This is the bee that you just saw.</p>\n                    <img src=\"bees-with-color/bee-B2SF.svg\" width=\"200\">\n                    <p><br>Your bonus pay is unchanged, and remains at $0.48.</p>\n            ","response":0,"trial_type":"html-button-response","trial_index":32,"time_elapsed":388686,"internal_node_id":"0.0-4.0-1.12","subject_id":"5cbbc956a8805b001c8c34f9","study_id":"60edd13110225f80f9f3709b","session_id":"6196c4a87afdd8353abe0cf3","condition":"contingent","relevant_dimensions":["wings","legs"],"bee_group":{"antennae":"X","wings":"2","pattern":"X","legs":"F"},"bonus":0.6400000000000011},{"rt":2077.100000023842,"stimulus":"bees-with-color/bee-A1DM.svg","response":1,"trial_type":"image-button-response","trial_index":33,"time_elapsed":390766,"internal_node_id":"0.0-4.0-0.13","subject_id":"5cbbc956a8805b001c8c34f9","study_id":"60edd13110225f80f9f3709b","session_id":"6196c4a87afdd8353abe0cf3","condition":"contingent","relevant_dimensions":["wings","legs"],"bee_group":{"antennae":"X","wings":"2","pattern":"X","legs":"F"},"action":"avoid","summary":"bad-avoid","bonus":0.6400000000000011},{"rt":630.2999999523163,"stimulus":"\n                    <p><b>Action: <em>avoid</em></b></p>\n                    <p>This is the bee that you just saw.</p>\n                    <img src=\"bees-with-color/bee-A1DM.svg\" width=\"200\">\n                    <p><br>Your bonus pay is unchanged, and remains at $0.48.</p>\n            ","response":0,"trial_type":"html-button-response","trial_index":34,"time_elapsed":391399,"internal_node_id":"0.0-4.0-1.13","subject_id":"5cbbc956a8805b001c8c34f9","study_id":"60edd13110225f80f9f3709b","session_id":"6196c4a87afdd8353abe0cf3","condition":"contingent","relevant_dimensions":["wings","legs"],"bee_group":{"antennae":"X","wings":"2","pattern":"X","legs":"F"},"bonus":0.6400000000000011},{"rt":2716.5,"stimulus":"bees-with-color/bee-B1DF.svg","response":1,"trial_type":"image-button-response","trial_index":35,"time_elapsed":394119,"internal_node_id":"0.0-4.0-0.14","subject_id":"5cbbc956a8805b001c8c34f9","study_id":"60edd13110225f80f9f3709b","session_id":"6196c4a87afdd8353abe0cf3","condition":"contingent","relevant_dimensions":["wings","legs"],"bee_group":{"antennae":"X","wings":"2","pattern":"X","legs":"F"},"action":"avoid","summary":"bad-avoid","bonus":0.6400000000000011},{"rt":675.6999999284744,"stimulus":"\n                    <p><b>Action: <em>avoid</em></b></p>\n                    <p>This is the bee that you just saw.</p>\n                    <img src=\"bees-with-color/bee-B1DF.svg\" width=\"200\">\n                    <p><br>Your bonus pay is unchanged, and remains at $0.48.</p>\n            ","response":0,"trial_type":"html-button-response","trial_index":36,"time_elapsed":394798,"internal_node_id":"0.0-4.0-1.14","subject_id":"5cbbc956a8805b001c8c34f9","study_id":"60edd13110225f80f9f3709b","session_id":"6196c4a87afdd8353abe0cf3","condition":"contingent","relevant_dimensions":["wings","legs"],"bee_group":{"antennae":"X","wings":"2","pattern":"X","legs":"F"},"bonus":0.6400000000000011},{"rt":1230.2000000476837,"stimulus":"bees-with-color/bee-B1DM.svg","response":0,"trial_type":"image-button-response","trial_index":37,"time_elapsed":396032,"internal_node_id":"0.0-4.0-0.15","subject_id":"5cbbc956a8805b001c8c34f9","study_id":"60edd13110225f80f9f3709b","session_id":"6196c4a87afdd8353abe0cf3","condition":"contingent","relevant_dimensions":["wings","legs"],"bee_group":{"antennae":"X","wings":"2","pattern":"X","legs":"F"},"action":"harvest","summary":"good-harvest","bonus":0.6400000000000011},{"rt":1066.8999999761581,"stimulus":"\n                    <p><b>Action: <em>harvest</em></b></p>\n                    <p>This is the bee that you just saw.</p>\n                    <img src=\"bees-with-color/bee-B1DM.svg\" width=\"200\">\n                    <p><span class=\"greenText\"><b>Successful harvest!</b></span><br>Your pay has increased by $0.02. Your bonus pay is now $0.50.</p>\n            ","response":0,"trial_type":"html-button-response","trial_index":38,"time_elapsed":397103,"internal_node_id":"0.0-4.0-1.15","subject_id":"5cbbc956a8805b001c8c34f9","study_id":"60edd13110225f80f9f3709b","session_id":"6196c4a87afdd8353abe0cf3","condition":"contingent","relevant_dimensions":["wings","legs"],"bee_group":{"antennae":"X","wings":"2","pattern":"X","legs":"F"},"bonus":0.6400000000000011},{"rt":1491.6999999284744,"stimulus":"bees-with-color/bee-B1DF.svg","response":0,"trial_type":"image-button-response","trial_index":39,"time_elapsed":398598,"internal_node_id":"0.0-4.0-0.16","subject_id":"5cbbc956a8805b001c8c34f9","study_id":"60edd13110225f80f9f3709b","session_id":"6196c4a87afdd8353abe0cf3","condition":"contingent","relevant_dimensions":["wings","legs"],"bee_group":{"antennae":"X","wings":"2","pattern":"X","legs":"F"},"action":"harvest","summary":"good-harvest","bonus":0.6400000000000011},{"rt":759.2999999523163,"stimulus":"\n                    <p><b>Action: <em>harvest</em></b></p>\n                    <p>This is the bee that you just saw.</p>\n                    <img src=\"bees-with-color/bee-B1DF.svg\" width=\"200\">\n                    <p><span class=\"greenText\"><b>Successful harvest!</b></span><br>Your pay has increased by $0.02. Your bonus pay is now $0.52.</p>\n            ","response":0,"trial_type":"html-button-response","trial_index":40,"time_elapsed":399360,"internal_node_id":"0.0-4.0-1.16","subject_id":"5cbbc956a8805b001c8c34f9","study_id":"60edd13110225f80f9f3709b","session_id":"6196c4a87afdd8353abe0cf3","condition":"contingent","relevant_dimensions":["wings","legs"],"bee_group":{"antennae":"X","wings":"2","pattern":"X","legs":"F"},"bonus":0.6400000000000011},{"rt":1377.8999999761581,"stimulus":"bees-with-color/bee-B1SF.svg","response":0,"trial_type":"image-button-response","trial_index":41,"time_elapsed":400743,"internal_node_id":"0.0-4.0-0.17","subject_id":"5cbbc956a8805b001c8c34f9","study_id":"60edd13110225f80f9f3709b","session_id":"6196c4a87afdd8353abe0cf3","condition":"contingent","relevant_dimensions":["wings","legs"],"bee_group":{"antennae":"X","wings":"2","pattern":"X","legs":"F"},"action":"harvest","summary":"good-harvest","bonus":0.6400000000000011},{"rt":738.8999999761581,"stimulus":"\n                    <p><b>Action: <em>harvest</em></b></p>\n                    <p>This is the bee that you just saw.</p>\n                    <img src=\"bees-with-color/bee-B1SF.svg\" width=\"200\">\n                    <p><span class=\"greenText\"><b>Successful harvest!</b></span><br>Your pay has increased by $0.02. Your bonus pay is now $0.54.</p>\n            ","response":0,"trial_type":"html-button-response","trial_index":42,"time_elapsed":401487,"internal_node_id":"0.0-4.0-1.17","subject_id":"5cbbc956a8805b001c8c34f9","study_id":"60edd13110225f80f9f3709b","session_id":"6196c4a87afdd8353abe0cf3","condition":"contingent","relevant_dimensions":["wings","legs"],"bee_group":{"antennae":"X","wings":"2","pattern":"X","legs":"F"},"bonus":0.6400000000000011},{"rt":2452.399999976158,"stimulus":"bees-with-color/bee-A1SF.svg","response":0,"trial_type":"image-button-response","trial_index":43,"time_elapsed":403943,"internal_node_id":"0.0-4.0-0.18","subject_id":"5cbbc956a8805b001c8c34f9","study_id":"60edd13110225f80f9f3709b","session_id":"6196c4a87afdd8353abe0cf3","condition":"contingent","relevant_dimensions":["wings","legs"],"bee_group":{"antennae":"X","wings":"2","pattern":"X","legs":"F"},"action":"harvest","summary":"good-harvest","bonus":0.6400000000000011},{"rt":731.3999999761581,"stimulus":"\n                    <p><b>Action: <em>harvest</em></b></p>\n                    <p>This is the bee that you just saw.</p>\n                    <img src=\"bees-with-color/bee-A1SF.svg\" width=\"200\">\n                    <p><span class=\"greenText\"><b>Successful harvest!</b></span><br>Your pay has increased by $0.02. Your bonus pay is now $0.56.</p>\n            ","response":0,"trial_type":"html-button-response","trial_index":44,"time_elapsed":404680,"internal_node_id":"0.0-4.0-1.18","subject_id":"5cbbc956a8805b001c8c34f9","study_id":"60edd13110225f80f9f3709b","session_id":"6196c4a87afdd8353abe0cf3","condition":"contingent","relevant_dimensions":["wings","legs"],"bee_group":{"antennae":"X","wings":"2","pattern":"X","legs":"F"},"bonus":0.6400000000000011},{"rt":1132.3999999761581,"stimulus":"bees-with-color/bee-B2DF.svg","response":1,"trial_type":"image-button-response","trial_index":45,"time_elapsed":405815,"internal_node_id":"0.0-4.0-0.19","subject_id":"5cbbc956a8805b001c8c34f9","study_id":"60edd13110225f80f9f3709b","session_id":"6196c4a87afdd8353abe0cf3","condition":"contingent","relevant_dimensions":["wings","legs"],"bee_group":{"antennae":"X","wings":"2","pattern":"X","legs":"F"},"action":"avoid","summary":"good-avoid","bonus":0.6400000000000011},{"rt":796,"stimulus":"\n                    <p><b>Action: <em>avoid</em></b></p>\n                    <p>This is the bee that you just saw.</p>\n                    <img src=\"bees-with-color/bee-B2DF.svg\" width=\"200\">\n                    <p><br>Your bonus pay is unchanged, and remains at $0.56.</p>\n            ","response":0,"trial_type":"html-button-response","trial_index":46,"time_elapsed":406615,"internal_node_id":"0.0-4.0-1.19","subject_id":"5cbbc956a8805b001c8c34f9","study_id":"60edd13110225f80f9f3709b","session_id":"6196c4a87afdd8353abe0cf3","condition":"contingent","relevant_dimensions":["wings","legs"],"bee_group":{"antennae":"X","wings":"2","pattern":"X","legs":"F"},"bonus":0.6400000000000011},{"rt":988.8999999761581,"stimulus":"bees-with-color/bee-B2SM.svg","response":0,"trial_type":"image-button-response","trial_index":47,"time_elapsed":407607,"internal_node_id":"0.0-4.0-0.20","subject_id":"5cbbc956a8805b001c8c34f9","study_id":"60edd13110225f80f9f3709b","session_id":"6196c4a87afdd8353abe0cf3","condition":"contingent","relevant_dimensions":["wings","legs"],"bee_group":{"antennae":"X","wings":"2","pattern":"X","legs":"F"},"action":"harvest","summary":"good-harvest","bonus":0.6400000000000011},{"rt":1099.6000000238419,"stimulus":"\n                    <p><b>Action: <em>harvest</em></b></p>\n                    <p>This is the bee that you just saw.</p>\n                    <img src=\"bees-with-color/bee-B2SM.svg\" width=\"200\">\n                    <p><span class=\"greenText\"><b>Successful harvest!</b></span><br>Your pay has increased by $0.02. Your bonus pay is now $0.58.</p>\n            ","response":0,"trial_type":"html-button-response","trial_index":48,"time_elapsed":408711,"internal_node_id":"0.0-4.0-1.20","subject_id":"5cbbc956a8805b001c8c34f9","study_id":"60edd13110225f80f9f3709b","session_id":"6196c4a87afdd8353abe0cf3","condition":"contingent","relevant_dimensions":["wings","legs"],"bee_group":{"antennae":"X","wings":"2","pattern":"X","legs":"F"},"bonus":0.6400000000000011},{"rt":6523.100000023842,"stimulus":"bees-with-color/bee-B1SM.svg","response":0,"trial_type":"image-button-response","trial_index":49,"time_elapsed":415239,"internal_node_id":"0.0-4.0-0.21","subject_id":"5cbbc956a8805b001c8c34f9","study_id":"60edd13110225f80f9f3709b","session_id":"6196c4a87afdd8353abe0cf3","condition":"contingent","relevant_dimensions":["wings","legs"],"bee_group":{"antennae":"X","wings":"2","pattern":"X","legs":"F"},"action":"harvest","summary":"good-harvest","bonus":0.6400000000000011},{"rt":779.8999999761581,"stimulus":"\n                    <p><b>Action: <em>harvest</em></b></p>\n                    <p>This is the bee that you just saw.</p>\n                    <img src=\"bees-with-color/bee-B1SM.svg\" width=\"200\">\n                    <p><span class=\"greenText\"><b>Successful harvest!</b></span><br>Your pay has increased by $0.02. Your bonus pay is now $0.60.</p>\n            ","response":0,"trial_type":"html-button-response","trial_index":50,"time_elapsed":416024,"internal_node_id":"0.0-4.0-1.21","subject_id":"5cbbc956a8805b001c8c34f9","study_id":"60edd13110225f80f9f3709b","session_id":"6196c4a87afdd8353abe0cf3","condition":"contingent","relevant_dimensions":["wings","legs"],"bee_group":{"antennae":"X","wings":"2","pattern":"X","legs":"F"},"bonus":0.6400000000000011},{"rt":2720.2999999523163,"stimulus":"bees-with-color/bee-A1DM.svg","response":0,"trial_type":"image-button-response","trial_index":51,"time_elapsed":418752,"internal_node_id":"0.0-4.0-0.22","subject_id":"5cbbc956a8805b001c8c34f9","study_id":"60edd13110225f80f9f3709b","session_id":"6196c4a87afdd8353abe0cf3","condition":"contingent","relevant_dimensions":["wings","legs"],"bee_group":{"antennae":"X","wings":"2","pattern":"X","legs":"F"},"action":"harvest","summary":"good-harvest","bonus":0.6400000000000011},{"rt":1171.1999999284744,"stimulus":"\n                    <p><b>Action: <em>harvest</em></b></p>\n                    <p>This is the bee that you just saw.</p>\n                    <img src=\"bees-with-color/bee-A1DM.svg\" width=\"200\">\n                    <p><span class=\"greenText\"><b>Successful harvest!</b></span><br>Your pay has increased by $0.02. Your bonus pay is now $0.62.</p>\n            ","response":0,"trial_type":"html-button-response","trial_index":52,"time_elapsed":419927,"internal_node_id":"0.0-4.0-1.22","subject_id":"5cbbc956a8805b001c8c34f9","study_id":"60edd13110225f80f9f3709b","session_id":"6196c4a87afdd8353abe0cf3","condition":"contingent","relevant_dimensions":["wings","legs"],"bee_group":{"antennae":"X","wings":"2","pattern":"X","legs":"F"},"bonus":0.6400000000000011},{"rt":2401.100000023842,"stimulus":"bees-with-color/bee-A2SF.svg","response":0,"trial_type":"image-button-response","trial_index":53,"time_elapsed":422335,"internal_node_id":"0.0-4.0-0.23","subject_id":"5cbbc956a8805b001c8c34f9","study_id":"60edd13110225f80f9f3709b","session_id":"6196c4a87afdd8353abe0cf3","condition":"contingent","relevant_dimensions":["wings","legs"],"bee_group":{"antennae":"X","wings":"2","pattern":"X","legs":"F"},"action":"harvest","summary":"bad-harvest","bonus":0.6400000000000011},{"rt":1028.2000000476837,"stimulus":"\n                    <p><b>Action: <em>harvest</em></b></p>\n                    <p>This is the bee that you just saw.</p>\n                    <img src=\"bees-with-color/bee-A2SF.svg\" width=\"200\">\n                    <p><span class=\"redText\">Bad choice, the bee was angry.</span><br><b>You have been stung!</b><br>Your pay has been decreased by $0.10. Your bonus pay is now $0.52.</p>\n            ","response":0,"trial_type":"html-button-response","trial_index":54,"time_elapsed":423367,"internal_node_id":"0.0-4.0-1.23","subject_id":"5cbbc956a8805b001c8c34f9","study_id":"60edd13110225f80f9f3709b","session_id":"6196c4a87afdd8353abe0cf3","condition":"contingent","relevant_dimensions":["wings","legs"],"bee_group":{"antennae":"X","wings":"2","pattern":"X","legs":"F"},"bonus":0.6400000000000011},{"rt":3058.7999999523163,"stimulus":"bees-with-color/bee-B1DM.svg","response":1,"trial_type":"image-button-response","trial_index":55,"time_elapsed":426431,"internal_node_id":"0.0-4.0-0.24","subject_id":"5cbbc956a8805b001c8c34f9","study_id":"60edd13110225f80f9f3709b","session_id":"6196c4a87afdd8353abe0cf3","condition":"contingent","relevant_dimensions":["wings","legs"],"bee_group":{"antennae":"X","wings":"2","pattern":"X","legs":"F"},"action":"avoid","summary":"bad-avoid","bonus":0.6400000000000011},{"rt":747.5,"stimulus":"\n                    <p><b>Action: <em>avoid</em></b></p>\n                    <p>This is the bee that you just saw.</p>\n                    <img src=\"bees-with-color/bee-B1DM.svg\" width=\"200\">\n                    <p><br>Your bonus pay is unchanged, and remains at $0.52.</p>\n            ","response":0,"trial_type":"html-button-response","trial_index":56,"time_elapsed":427183,"internal_node_id":"0.0-4.0-1.24","subject_id":"5cbbc956a8805b001c8c34f9","study_id":"60edd13110225f80f9f3709b","session_id":"6196c4a87afdd8353abe0cf3","condition":"contingent","relevant_dimensions":["wings","legs"],"bee_group":{"antennae":"X","wings":"2","pattern":"X","legs":"F"},"bonus":0.6400000000000011},{"rt":686.8999999761581,"stimulus":"bees-with-color/bee-A1SM.svg","response":0,"trial_type":"image-button-response","trial_index":57,"time_elapsed":427872,"internal_node_id":"0.0-4.0-0.25","subject_id":"5cbbc956a8805b001c8c34f9","study_id":"60edd13110225f80f9f3709b","session_id":"6196c4a87afdd8353abe0cf3","condition":"contingent","relevant_dimensions":["wings","legs"],"bee_group":{"antennae":"X","wings":"2","pattern":"X","legs":"F"},"action":"harvest","summary":"good-harvest","bonus":0.6400000000000011},{"rt":690,"stimulus":"\n                    <p><b>Action: <em>harvest</em></b></p>\n                    <p>This is the bee that you just saw.</p>\n                    <img src=\"bees-with-color/bee-A1SM.svg\" width=\"200\">\n                    <p><span class=\"greenText\"><b>Successful harvest!</b></span><br>Your pay has increased by $0.02. Your bonus pay is now $0.54.</p>\n            ","response":0,"trial_type":"html-button-response","trial_index":58,"time_elapsed":428567,"internal_node_id":"0.0-4.0-1.25","subject_id":"5cbbc956a8805b001c8c34f9","study_id":"60edd13110225f80f9f3709b","session_id":"6196c4a87afdd8353abe0cf3","condition":"contingent","relevant_dimensions":["wings","legs"],"bee_group":{"antennae":"X","wings":"2","pattern":"X","legs":"F"},"bonus":0.6400000000000011},{"rt":1140.5,"stimulus":"bees-with-color/bee-A2DM.svg","response":0,"trial_type":"image-button-response","trial_index":59,"time_elapsed":429711,"internal_node_id":"0.0-4.0-0.26","subject_id":"5cbbc956a8805b001c8c34f9","study_id":"60edd13110225f80f9f3709b","session_id":"6196c4a87afdd8353abe0cf3","condition":"contingent","relevant_dimensions":["wings","legs"],"bee_group":{"antennae":"X","wings":"2","pattern":"X","legs":"F"},"action":"harvest","summary":"good-harvest","bonus":0.6400000000000011},{"rt":722.7999999523163,"stimulus":"\n                    <p><b>Action: <em>harvest</em></b></p>\n                    <p>This is the bee that you just saw.</p>\n                    <img src=\"bees-with-color/bee-A2DM.svg\" width=\"200\">\n                    <p><span class=\"greenText\"><b>Successful harvest!</b></span><br>Your pay has increased by $0.02. Your bonus pay is now $0.56.</p>\n            ","response":0,"trial_type":"html-button-response","trial_index":60,"time_elapsed":430440,"internal_node_id":"0.0-4.0-1.26","subject_id":"5cbbc956a8805b001c8c34f9","study_id":"60edd13110225f80f9f3709b","session_id":"6196c4a87afdd8353abe0cf3","condition":"contingent","relevant_dimensions":["wings","legs"],"bee_group":{"antennae":"X","wings":"2","pattern":"X","legs":"F"},"bonus":0.6400000000000011},{"rt":1339,"stimulus":"bees-with-color/bee-B2SF.svg","response":0,"trial_type":"image-button-response","trial_index":61,"time_elapsed":431783,"internal_node_id":"0.0-4.0-0.27","subject_id":"5cbbc956a8805b001c8c34f9","study_id":"60edd13110225f80f9f3709b","session_id":"6196c4a87afdd8353abe0cf3","condition":"contingent","relevant_dimensions":["wings","legs"],"bee_group":{"antennae":"X","wings":"2","pattern":"X","legs":"F"},"action":"harvest","summary":"bad-harvest","bonus":0.6400000000000011},{"rt":1310.6000000238419,"stimulus":"\n                    <p><b>Action: <em>harvest</em></b></p>\n                    <p>This is the bee that you just saw.</p>\n                    <img src=\"bees-with-color/bee-B2SF.svg\" width=\"200\">\n                    <p><span class=\"redText\">Bad choice, the bee was angry.</span><br><b>You have been stung!</b><br>Your pay has been decreased by $0.10. Your bonus pay is now $0.46.</p>\n            ","response":0,"trial_type":"html-button-response","trial_index":62,"time_elapsed":433097,"internal_node_id":"0.0-4.0-1.27","subject_id":"5cbbc956a8805b001c8c34f9","study_id":"60edd13110225f80f9f3709b","session_id":"6196c4a87afdd8353abe0cf3","condition":"contingent","relevant_dimensions":["wings","legs"],"bee_group":{"antennae":"X","wings":"2","pattern":"X","legs":"F"},"bonus":0.6400000000000011},{"rt":1345,"stimulus":"bees-with-color/bee-A2SM.svg","response":0,"trial_type":"image-button-response","trial_index":63,"time_elapsed":434446,"internal_node_id":"0.0-4.0-0.28","subject_id":"5cbbc956a8805b001c8c34f9","study_id":"60edd13110225f80f9f3709b","session_id":"6196c4a87afdd8353abe0cf3","condition":"contingent","relevant_dimensions":["wings","legs"],"bee_group":{"antennae":"X","wings":"2","pattern":"X","legs":"F"},"action":"harvest","summary":"good-harvest","bonus":0.6400000000000011},{"rt":773.8999999761581,"stimulus":"\n                    <p><b>Action: <em>harvest</em></b></p>\n                    <p>This is the bee that you just saw.</p>\n                    <img src=\"bees-with-color/bee-A2SM.svg\" width=\"200\">\n                    <p><span class=\"greenText\"><b>Successful harvest!</b></span><br>Your pay has increased by $0.02. Your bonus pay is now $0.48.</p>\n            ","response":0,"trial_type":"html-button-response","trial_index":64,"time_elapsed":435222,"internal_node_id":"0.0-4.0-1.28","subject_id":"5cbbc956a8805b001c8c34f9","study_id":"60edd13110225f80f9f3709b","session_id":"6196c4a87afdd8353abe0cf3","condition":"contingent","relevant_dimensions":["wings","legs"],"bee_group":{"antennae":"X","wings":"2","pattern":"X","legs":"F"},"bonus":0.6400000000000011},{"rt":1550.2999999523163,"stimulus":"bees-with-color/bee-A2DF.svg","response":1,"trial_type":"image-button-response","trial_index":65,"time_elapsed":436775,"internal_node_id":"0.0-4.0-0.29","subject_id":"5cbbc956a8805b001c8c34f9","study_id":"60edd13110225f80f9f3709b","session_id":"6196c4a87afdd8353abe0cf3","condition":"contingent","relevant_dimensions":["wings","legs"],"bee_group":{"antennae":"X","wings":"2","pattern":"X","legs":"F"},"action":"avoid","summary":"good-avoid","bonus":0.6400000000000011},{"rt":979.7999999523163,"stimulus":"\n                    <p><b>Action: <em>avoid</em></b></p>\n                    <p>This is the bee that you just saw.</p>\n                    <img src=\"bees-with-color/bee-A2DF.svg\" width=\"200\">\n                    <p><br>Your bonus pay is unchanged, and remains at $0.48.</p>\n            ","response":0,"trial_type":"html-button-response","trial_index":66,"time_elapsed":437758,"internal_node_id":"0.0-4.0-1.29","subject_id":"5cbbc956a8805b001c8c34f9","study_id":"60edd13110225f80f9f3709b","session_id":"6196c4a87afdd8353abe0cf3","condition":"contingent","relevant_dimensions":["wings","legs"],"bee_group":{"antennae":"X","wings":"2","pattern":"X","legs":"F"},"bonus":0.6400000000000011},{"rt":2134.7999999523163,"stimulus":"bees-with-color/bee-A1DF.svg","response":1,"trial_type":"image-button-response","trial_index":67,"time_elapsed":439895,"internal_node_id":"0.0-4.0-0.30","subject_id":"5cbbc956a8805b001c8c34f9","study_id":"60edd13110225f80f9f3709b","session_id":"6196c4a87afdd8353abe0cf3","condition":"contingent","relevant_dimensions":["wings","legs"],"bee_group":{"antennae":"X","wings":"2","pattern":"X","legs":"F"},"action":"avoid","summary":"bad-avoid","bonus":0.6400000000000011},{"rt":594.1999999284744,"stimulus":"\n                    <p><b>Action: <em>avoid</em></b></p>\n                    <p>This is the bee that you just saw.</p>\n                    <img src=\"bees-with-color/bee-A1DF.svg\" width=\"200\">\n                    <p><br>Your bonus pay is unchanged, and remains at $0.48.</p>\n            ","response":0,"trial_type":"html-button-response","trial_index":68,"time_elapsed":440494,"internal_node_id":"0.0-4.0-1.30","subject_id":"5cbbc956a8805b001c8c34f9","study_id":"60edd13110225f80f9f3709b","session_id":"6196c4a87afdd8353abe0cf3","condition":"contingent","relevant_dimensions":["wings","legs"],"bee_group":{"antennae":"X","wings":"2","pattern":"X","legs":"F"},"bonus":0.6400000000000011},{"rt":758.2999999523163,"stimulus":"bees-with-color/bee-B2DM.svg","response":0,"trial_type":"image-button-response","trial_index":69,"time_elapsed":441254,"internal_node_id":"0.0-4.0-0.31","subject_id":"5cbbc956a8805b001c8c34f9","study_id":"60edd13110225f80f9f3709b","session_id":"6196c4a87afdd8353abe0cf3","condition":"contingent","relevant_dimensions":["wings","legs"],"bee_group":{"antennae":"X","wings":"2","pattern":"X","legs":"F"},"action":"harvest","summary":"good-harvest","bonus":0.6400000000000011},{"rt":1846,"stimulus":"\n                    <p><b>Action: <em>harvest</em></b></p>\n                    <p>This is the bee that you just saw.</p>\n                    <img src=\"bees-with-color/bee-B2DM.svg\" width=\"200\">\n                    <p><span class=\"greenText\"><b>Successful harvest!</b></span><br>Your pay has increased by $0.02. Your bonus pay is now $0.50.</p>\n            ","response":0,"trial_type":"html-button-response","trial_index":70,"time_elapsed":443102,"internal_node_id":"0.0-4.0-1.31","subject_id":"5cbbc956a8805b001c8c34f9","study_id":"60edd13110225f80f9f3709b","session_id":"6196c4a87afdd8353abe0cf3","condition":"contingent","relevant_dimensions":["wings","legs"],"bee_group":{"antennae":"X","wings":"2","pattern":"X","legs":"F"},"bonus":0.6400000000000011},{"rt":1021.3999999761581,"stimulus":"bees-with-color/bee-A1SM.svg","response":0,"trial_type":"image-button-response","trial_index":71,"time_elapsed":444126,"internal_node_id":"0.0-4.0-0.32","subject_id":"5cbbc956a8805b001c8c34f9","study_id":"60edd13110225f80f9f3709b","session_id":"6196c4a87afdd8353abe0cf3","condition":"contingent","relevant_dimensions":["wings","legs"],"bee_group":{"antennae":"X","wings":"2","pattern":"X","legs":"F"},"action":"harvest","summary":"good-harvest","bonus":0.6400000000000011},{"rt":717.8000000715256,"stimulus":"\n                    <p><b>Action: <em>harvest</em></b></p>\n                    <p>This is the bee that you just saw.</p>\n                    <img src=\"bees-with-color/bee-A1SM.svg\" width=\"200\">\n                    <p><span class=\"greenText\"><b>Successful harvest!</b></span><br>Your pay has increased by $0.02. Your bonus pay is now $0.52.</p>\n            ","response":0,"trial_type":"html-button-response","trial_index":72,"time_elapsed":444846,"internal_node_id":"0.0-4.0-1.32","subject_id":"5cbbc956a8805b001c8c34f9","study_id":"60edd13110225f80f9f3709b","session_id":"6196c4a87afdd8353abe0cf3","condition":"contingent","relevant_dimensions":["wings","legs"],"bee_group":{"antennae":"X","wings":"2","pattern":"X","legs":"F"},"bonus":0.6400000000000011},{"rt":2061.899999976158,"stimulus":"bees-with-color/bee-A2SF.svg","response":0,"trial_type":"image-button-response","trial_index":73,"time_elapsed":446910,"internal_node_id":"0.0-4.0-0.33","subject_id":"5cbbc956a8805b001c8c34f9","study_id":"60edd13110225f80f9f3709b","session_id":"6196c4a87afdd8353abe0cf3","condition":"contingent","relevant_dimensions":["wings","legs"],"bee_group":{"antennae":"X","wings":"2","pattern":"X","legs":"F"},"action":"harvest","summary":"bad-harvest","bonus":0.6400000000000011},{"rt":797.8999999761581,"stimulus":"\n                    <p><b>Action: <em>harvest</em></b></p>\n                    <p>This is the bee that you just saw.</p>\n                    <img src=\"bees-with-color/bee-A2SF.svg\" width=\"200\">\n                    <p><span class=\"redText\">Bad choice, the bee was angry.</span><br><b>You have been stung!</b><br>Your pay has been decreased by $0.10. Your bonus pay is now $0.42.</p>\n            ","response":0,"trial_type":"html-button-response","trial_index":74,"time_elapsed":447710,"internal_node_id":"0.0-4.0-1.33","subject_id":"5cbbc956a8805b001c8c34f9","study_id":"60edd13110225f80f9f3709b","session_id":"6196c4a87afdd8353abe0cf3","condition":"contingent","relevant_dimensions":["wings","legs"],"bee_group":{"antennae":"X","wings":"2","pattern":"X","legs":"F"},"bonus":0.6400000000000011},{"rt":2381.7999999523163,"stimulus":"bees-with-color/bee-B1DM.svg","response":1,"trial_type":"image-button-response","trial_index":75,"time_elapsed":450094,"internal_node_id":"0.0-4.0-0.34","subject_id":"5cbbc956a8805b001c8c34f9","study_id":"60edd13110225f80f9f3709b","session_id":"6196c4a87afdd8353abe0cf3","condition":"contingent","relevant_dimensions":["wings","legs"],"bee_group":{"antennae":"X","wings":"2","pattern":"X","legs":"F"},"action":"avoid","summary":"bad-avoid","bonus":0.6400000000000011},{"rt":605.6000000238419,"stimulus":"\n                    <p><b>Action: <em>avoid</em></b></p>\n                    <p>This is the bee that you just saw.</p>\n                    <img src=\"bees-with-color/bee-B1DM.svg\" width=\"200\">\n                    <p><br>Your bonus pay is unchanged, and remains at $0.42.</p>\n            ","response":0,"trial_type":"html-button-response","trial_index":76,"time_elapsed":450702,"internal_node_id":"0.0-4.0-1.34","subject_id":"5cbbc956a8805b001c8c34f9","study_id":"60edd13110225f80f9f3709b","session_id":"6196c4a87afdd8353abe0cf3","condition":"contingent","relevant_dimensions":["wings","legs"],"bee_group":{"antennae":"X","wings":"2","pattern":"X","legs":"F"},"bonus":0.6400000000000011},{"rt":1246,"stimulus":"bees-with-color/bee-B1DF.svg","response":0,"trial_type":"image-button-response","trial_index":77,"time_elapsed":451950,"internal_node_id":"0.0-4.0-0.35","subject_id":"5cbbc956a8805b001c8c34f9","study_id":"60edd13110225f80f9f3709b","session_id":"6196c4a87afdd8353abe0cf3","condition":"contingent","relevant_dimensions":["wings","legs"],"bee_group":{"antennae":"X","wings":"2","pattern":"X","legs":"F"},"action":"harvest","summary":"good-harvest","bonus":0.6400000000000011},{"rt":637.8999999761581,"stimulus":"\n                    <p><b>Action: <em>harvest</em></b></p>\n                    <p>This is the bee that you just saw.</p>\n                    <img src=\"bees-with-color/bee-B1DF.svg\" width=\"200\">\n                    <p><span class=\"greenText\"><b>Successful harvest!</b></span><br>Your pay has increased by $0.02. Your bonus pay is now $0.44.</p>\n            ","response":0,"trial_type":"html-button-response","trial_index":78,"time_elapsed":452590,"internal_node_id":"0.0-4.0-1.35","subject_id":"5cbbc956a8805b001c8c34f9","study_id":"60edd13110225f80f9f3709b","session_id":"6196c4a87afdd8353abe0cf3","condition":"contingent","relevant_dimensions":["wings","legs"],"bee_group":{"antennae":"X","wings":"2","pattern":"X","legs":"F"},"bonus":0.6400000000000011},{"rt":1702.5,"stimulus":"bees-with-color/bee-B2SF.svg","response":0,"trial_type":"image-button-response","trial_index":79,"time_elapsed":454294,"internal_node_id":"0.0-4.0-0.36","subject_id":"5cbbc956a8805b001c8c34f9","study_id":"60edd13110225f80f9f3709b","session_id":"6196c4a87afdd8353abe0cf3","condition":"contingent","relevant_dimensions":["wings","legs"],"bee_group":{"antennae":"X","wings":"2","pattern":"X","legs":"F"},"action":"harvest","summary":"bad-harvest","bonus":0.6400000000000011},{"rt":877.8999999761581,"stimulus":"\n                    <p><b>Action: <em>harvest</em></b></p>\n                    <p>This is the bee that you just saw.</p>\n                    <img src=\"bees-with-color/bee-B2SF.svg\" width=\"200\">\n                    <p><span class=\"redText\">Bad choice, the bee was angry.</span><br><b>You have been stung!</b><br>Your pay has been decreased by $0.10. Your bonus pay is now $0.34.</p>\n            ","response":0,"trial_type":"html-button-response","trial_index":80,"time_elapsed":455175,"internal_node_id":"0.0-4.0-1.36","subject_id":"5cbbc956a8805b001c8c34f9","study_id":"60edd13110225f80f9f3709b","session_id":"6196c4a87afdd8353abe0cf3","condition":"contingent","relevant_dimensions":["wings","legs"],"bee_group":{"antennae":"X","wings":"2","pattern":"X","legs":"F"},"bonus":0.6400000000000011},{"rt":1083.6000000238419,"stimulus":"bees-with-color/bee-A2SM.svg","response":0,"trial_type":"image-button-response","trial_index":81,"time_elapsed":456263,"internal_node_id":"0.0-4.0-0.37","subject_id":"5cbbc956a8805b001c8c34f9","study_id":"60edd13110225f80f9f3709b","session_id":"6196c4a87afdd8353abe0cf3","condition":"contingent","relevant_dimensions":["wings","legs"],"bee_group":{"antennae":"X","wings":"2","pattern":"X","legs":"F"},"action":"harvest","summary":"good-harvest","bonus":0.6400000000000011},{"rt":629.2999999523163,"stimulus":"\n                    <p><b>Action: <em>harvest</em></b></p>\n                    <p>This is the bee that you just saw.</p>\n                    <img src=\"bees-with-color/bee-A2SM.svg\" width=\"200\">\n                    <p><span class=\"greenText\"><b>Successful harvest!</b></span><br>Your pay has increased by $0.02. Your bonus pay is now $0.36.</p>\n            ","response":0,"trial_type":"html-button-response","trial_index":82,"time_elapsed":456895,"internal_node_id":"0.0-4.0-1.37","subject_id":"5cbbc956a8805b001c8c34f9","study_id":"60edd13110225f80f9f3709b","session_id":"6196c4a87afdd8353abe0cf3","condition":"contingent","relevant_dimensions":["wings","legs"],"bee_group":{"antennae":"X","wings":"2","pattern":"X","legs":"F"},"bonus":0.6400000000000011},{"rt":771,"stimulus":"bees-with-color/bee-A2DM.svg","response":0,"trial_type":"image-button-response","trial_index":83,"time_elapsed":457671,"internal_node_id":"0.0-4.0-0.38","subject_id":"5cbbc956a8805b001c8c34f9","study_id":"60edd13110225f80f9f3709b","session_id":"6196c4a87afdd8353abe0cf3","condition":"contingent","relevant_dimensions":["wings","legs"],"bee_group":{"antennae":"X","wings":"2","pattern":"X","legs":"F"},"action":"harvest","summary":"good-harvest","bonus":0.6400000000000011},{"rt":636.6999999284744,"stimulus":"\n                    <p><b>Action: <em>harvest</em></b></p>\n                    <p>This is the bee that you just saw.</p>\n                    <img src=\"bees-with-color/bee-A2DM.svg\" width=\"200\">\n                    <p><span class=\"greenText\"><b>Successful harvest!</b></span><br>Your pay has increased by $0.02. Your bonus pay is now $0.38.</p>\n            ","response":0,"trial_type":"html-button-response","trial_index":84,"time_elapsed":458311,"internal_node_id":"0.0-4.0-1.38","subject_id":"5cbbc956a8805b001c8c34f9","study_id":"60edd13110225f80f9f3709b","session_id":"6196c4a87afdd8353abe0cf3","condition":"contingent","relevant_dimensions":["wings","legs"],"bee_group":{"antennae":"X","wings":"2","pattern":"X","legs":"F"},"bonus":0.6400000000000011},{"rt":1084.2000000476837,"stimulus":"bees-with-color/bee-B2SM.svg","response":0,"trial_type":"image-button-response","trial_index":85,"time_elapsed":459399,"internal_node_id":"0.0-4.0-0.39","subject_id":"5cbbc956a8805b001c8c34f9","study_id":"60edd13110225f80f9f3709b","session_id":"6196c4a87afdd8353abe0cf3","condition":"contingent","relevant_dimensions":["wings","legs"],"bee_group":{"antennae":"X","wings":"2","pattern":"X","legs":"F"},"action":"harvest","summary":"good-harvest","bonus":0.6400000000000011},{"rt":635.2999999523163,"stimulus":"\n                    <p><b>Action: <em>harvest</em></b></p>\n                    <p>This is the bee that you just saw.</p>\n                    <img src=\"bees-with-color/bee-B2SM.svg\" width=\"200\">\n                    <p><span class=\"greenText\"><b>Successful harvest!</b></span><br>Your pay has increased by $0.02. Your bonus pay is now $0.40.</p>\n            ","response":0,"trial_type":"html-button-response","trial_index":86,"time_elapsed":460038,"internal_node_id":"0.0-4.0-1.39","subject_id":"5cbbc956a8805b001c8c34f9","study_id":"60edd13110225f80f9f3709b","session_id":"6196c4a87afdd8353abe0cf3","condition":"contingent","relevant_dimensions":["wings","legs"],"bee_group":{"antennae":"X","wings":"2","pattern":"X","legs":"F"},"bonus":0.6400000000000011},{"rt":1941.1000000238419,"stimulus":"bees-with-color/bee-A1DM.svg","response":0,"trial_type":"image-button-response","trial_index":87,"time_elapsed":461983,"internal_node_id":"0.0-4.0-0.40","subject_id":"5cbbc956a8805b001c8c34f9","study_id":"60edd13110225f80f9f3709b","session_id":"6196c4a87afdd8353abe0cf3","condition":"contingent","relevant_dimensions":["wings","legs"],"bee_group":{"antennae":"X","wings":"2","pattern":"X","legs":"F"},"action":"harvest","summary":"good-harvest","bonus":0.6400000000000011},{"rt":1731.7999999523163,"stimulus":"\n                    <p><b>Action: <em>harvest</em></b></p>\n                    <p>This is the bee that you just saw.</p>\n                    <img src=\"bees-with-color/bee-A1DM.svg\" width=\"200\">\n                    <p><span class=\"greenText\"><b>Successful harvest!</b></span><br>Your pay has increased by $0.02. Your bonus pay is now $0.42.</p>\n            ","response":0,"trial_type":"html-button-response","trial_index":88,"time_elapsed":463719,"internal_node_id":"0.0-4.0-1.40","subject_id":"5cbbc956a8805b001c8c34f9","study_id":"60edd13110225f80f9f3709b","session_id":"6196c4a87afdd8353abe0cf3","condition":"contingent","relevant_dimensions":["wings","legs"],"bee_group":{"antennae":"X","wings":"2","pattern":"X","legs":"F"},"bonus":0.6400000000000011},{"rt":2395.1999999284744,"stimulus":"bees-with-color/bee-B2DM.svg","response":0,"trial_type":"image-button-response","trial_index":89,"time_elapsed":466118,"internal_node_id":"0.0-4.0-0.41","subject_id":"5cbbc956a8805b001c8c34f9","study_id":"60edd13110225f80f9f3709b","session_id":"6196c4a87afdd8353abe0cf3","condition":"contingent","relevant_dimensions":["wings","legs"],"bee_group":{"antennae":"X","wings":"2","pattern":"X","legs":"F"},"action":"harvest","summary":"good-harvest","bonus":0.6400000000000011},{"rt":702.2000000476837,"stimulus":"\n                    <p><b>Action: <em>harvest</em></b></p>\n                    <p>This is the bee that you just saw.</p>\n                    <img src=\"bees-with-color/bee-B2DM.svg\" width=\"200\">\n                    <p><span class=\"greenText\"><b>Successful harvest!</b></span><br>Your pay has increased by $0.02. Your bonus pay is now $0.44.</p>\n            ","response":0,"trial_type":"html-button-response","trial_index":90,"time_elapsed":466823,"internal_node_id":"0.0-4.0-1.41","subject_id":"5cbbc956a8805b001c8c34f9","study_id":"60edd13110225f80f9f3709b","session_id":"6196c4a87afdd8353abe0cf3","condition":"contingent","relevant_dimensions":["wings","legs"],"bee_group":{"antennae":"X","wings":"2","pattern":"X","legs":"F"},"bonus":0.6400000000000011},{"rt":1957.7999999523163,"stimulus":"bees-with-color/bee-A1DF.svg","response":1,"trial_type":"image-button-response","trial_index":91,"time_elapsed":468784,"internal_node_id":"0.0-4.0-0.42","subject_id":"5cbbc956a8805b001c8c34f9","study_id":"60edd13110225f80f9f3709b","session_id":"6196c4a87afdd8353abe0cf3","condition":"contingent","relevant_dimensions":["wings","legs"],"bee_group":{"antennae":"X","wings":"2","pattern":"X","legs":"F"},"action":"avoid","summary":"bad-avoid","bonus":0.6400000000000011},{"rt":730.5,"stimulus":"\n                    <p><b>Action: <em>avoid</em></b></p>\n                    <p>This is the bee that you just saw.</p>\n                    <img src=\"bees-with-color/bee-A1DF.svg\" width=\"200\">\n                    <p><br>Your bonus pay is unchanged, and remains at $0.44.</p>\n            ","response":0,"trial_type":"html-button-response","trial_index":92,"time_elapsed":469519,"internal_node_id":"0.0-4.0-1.42","subject_id":"5cbbc956a8805b001c8c34f9","study_id":"60edd13110225f80f9f3709b","session_id":"6196c4a87afdd8353abe0cf3","condition":"contingent","relevant_dimensions":["wings","legs"],"bee_group":{"antennae":"X","wings":"2","pattern":"X","legs":"F"},"bonus":0.6400000000000011},{"rt":2396.1999999284744,"stimulus":"bees-with-color/bee-B1SF.svg","response":0,"trial_type":"image-button-response","trial_index":93,"time_elapsed":471919,"internal_node_id":"0.0-4.0-0.43","subject_id":"5cbbc956a8805b001c8c34f9","study_id":"60edd13110225f80f9f3709b","session_id":"6196c4a87afdd8353abe0cf3","condition":"contingent","relevant_dimensions":["wings","legs"],"bee_group":{"antennae":"X","wings":"2","pattern":"X","legs":"F"},"action":"harvest","summary":"good-harvest","bonus":0.6400000000000011},{"rt":692.2999999523163,"stimulus":"\n                    <p><b>Action: <em>harvest</em></b></p>\n                    <p>This is the bee that you just saw.</p>\n                    <img src=\"bees-with-color/bee-B1SF.svg\" width=\"200\">\n                    <p><span class=\"greenText\"><b>Successful harvest!</b></span><br>Your pay has increased by $0.02. Your bonus pay is now $0.46.</p>\n            ","response":0,"trial_type":"html-button-response","trial_index":94,"time_elapsed":472617,"internal_node_id":"0.0-4.0-1.43","subject_id":"5cbbc956a8805b001c8c34f9","study_id":"60edd13110225f80f9f3709b","session_id":"6196c4a87afdd8353abe0cf3","condition":"contingent","relevant_dimensions":["wings","legs"],"bee_group":{"antennae":"X","wings":"2","pattern":"X","legs":"F"},"bonus":0.6400000000000011},{"rt":2002.6000000238419,"stimulus":"bees-with-color/bee-A2DF.svg","response":1,"trial_type":"image-button-response","trial_index":95,"time_elapsed":474624,"internal_node_id":"0.0-4.0-0.44","subject_id":"5cbbc956a8805b001c8c34f9","study_id":"60edd13110225f80f9f3709b","session_id":"6196c4a87afdd8353abe0cf3","condition":"contingent","relevant_dimensions":["wings","legs"],"bee_group":{"antennae":"X","wings":"2","pattern":"X","legs":"F"},"action":"avoid","summary":"good-avoid","bonus":0.6400000000000011},{"rt":562.8999999761581,"stimulus":"\n                    <p><b>Action: <em>avoid</em></b></p>\n                    <p>This is the bee that you just saw.</p>\n                    <img src=\"bees-with-color/bee-A2DF.svg\" width=\"200\">\n                    <p><br>Your bonus pay is unchanged, and remains at $0.46.</p>\n            ","response":0,"trial_type":"html-button-response","trial_index":96,"time_elapsed":475191,"internal_node_id":"0.0-4.0-1.44","subject_id":"5cbbc956a8805b001c8c34f9","study_id":"60edd13110225f80f9f3709b","session_id":"6196c4a87afdd8353abe0cf3","condition":"contingent","relevant_dimensions":["wings","legs"],"bee_group":{"antennae":"X","wings":"2","pattern":"X","legs":"F"},"bonus":0.6400000000000011},{"rt":1627.6000000238419,"stimulus":"bees-with-color/bee-B2DF.svg","response":1,"trial_type":"image-button-response","trial_index":97,"time_elapsed":476823,"internal_node_id":"0.0-4.0-0.45","subject_id":"5cbbc956a8805b001c8c34f9","study_id":"60edd13110225f80f9f3709b","session_id":"6196c4a87afdd8353abe0cf3","condition":"contingent","relevant_dimensions":["wings","legs"],"bee_group":{"antennae":"X","wings":"2","pattern":"X","legs":"F"},"action":"avoid","summary":"good-avoid","bonus":0.6400000000000011},{"rt":541.2999999523163,"stimulus":"\n                    <p><b>Action: <em>avoid</em></b></p>\n                    <p>This is the bee that you just saw.</p>\n                    <img src=\"bees-with-color/bee-B2DF.svg\" width=\"200\">\n                    <p><br>Your bonus pay is unchanged, and remains at $0.46.</p>\n            ","response":0,"trial_type":"html-button-response","trial_index":98,"time_elapsed":477369,"internal_node_id":"0.0-4.0-1.45","subject_id":"5cbbc956a8805b001c8c34f9","study_id":"60edd13110225f80f9f3709b","session_id":"6196c4a87afdd8353abe0cf3","condition":"contingent","relevant_dimensions":["wings","legs"],"bee_group":{"antennae":"X","wings":"2","pattern":"X","legs":"F"},"bonus":0.6400000000000011},{"rt":667.1999999284744,"stimulus":"bees-with-color/bee-A1SF.svg","response":0,"trial_type":"image-button-response","trial_index":99,"time_elapsed":478040,"internal_node_id":"0.0-4.0-0.46","subject_id":"5cbbc956a8805b001c8c34f9","study_id":"60edd13110225f80f9f3709b","session_id":"6196c4a87afdd8353abe0cf3","condition":"contingent","relevant_dimensions":["wings","legs"],"bee_group":{"antennae":"X","wings":"2","pattern":"X","legs":"F"},"action":"harvest","summary":"good-harvest","bonus":0.6400000000000011},{"rt":666.6000000238419,"stimulus":"\n                    <p><b>Action: <em>harvest</em></b></p>\n                    <p>This is the bee that you just saw.</p>\n                    <img src=\"bees-with-color/bee-A1SF.svg\" width=\"200\">\n                    <p><span class=\"greenText\"><b>Successful harvest!</b></span><br>Your pay has increased by $0.02. Your bonus pay is now $0.48.</p>\n            ","response":0,"trial_type":"html-button-response","trial_index":100,"time_elapsed":478710,"internal_node_id":"0.0-4.0-1.46","subject_id":"5cbbc956a8805b001c8c34f9","study_id":"60edd13110225f80f9f3709b","session_id":"6196c4a87afdd8353abe0cf3","condition":"contingent","relevant_dimensions":["wings","legs"],"bee_group":{"antennae":"X","wings":"2","pattern":"X","legs":"F"},"bonus":0.6400000000000011},{"rt":1885.7999999523163,"stimulus":"bees-with-color/bee-B1SM.svg","response":1,"trial_type":"image-button-response","trial_index":101,"time_elapsed":480599,"internal_node_id":"0.0-4.0-0.47","subject_id":"5cbbc956a8805b001c8c34f9","study_id":"60edd13110225f80f9f3709b","session_id":"6196c4a87afdd8353abe0cf3","condition":"contingent","relevant_dimensions":["wings","legs"],"bee_group":{"antennae":"X","wings":"2","pattern":"X","legs":"F"},"action":"avoid","summary":"bad-avoid","bonus":0.6400000000000011},{"rt":574,"stimulus":"\n                    <p><b>Action: <em>avoid</em></b></p>\n                    <p>This is the bee that you just saw.</p>\n                    <img src=\"bees-with-color/bee-B1SM.svg\" width=\"200\">\n                    <p><br>Your bonus pay is unchanged, and remains at $0.48.</p>\n            ","response":0,"trial_type":"html-button-response","trial_index":102,"time_elapsed":481175,"internal_node_id":"0.0-4.0-1.47","subject_id":"5cbbc956a8805b001c8c34f9","study_id":"60edd13110225f80f9f3709b","session_id":"6196c4a87afdd8353abe0cf3","condition":"contingent","relevant_dimensions":["wings","legs"],"bee_group":{"antennae":"X","wings":"2","pattern":"X","legs":"F"},"bonus":0.6400000000000011},{"rt":692.1999999284744,"stimulus":"bees-with-color/bee-A2DM.svg","response":0,"trial_type":"image-button-response","trial_index":103,"time_elapsed":481871,"internal_node_id":"0.0-4.0-0.48","subject_id":"5cbbc956a8805b001c8c34f9","study_id":"60edd13110225f80f9f3709b","session_id":"6196c4a87afdd8353abe0cf3","condition":"contingent","relevant_dimensions":["wings","legs"],"bee_group":{"antennae":"X","wings":"2","pattern":"X","legs":"F"},"action":"harvest","summary":"good-harvest","bonus":0.6400000000000011},{"rt":500.5,"stimulus":"\n                    <p><b>Action: <em>harvest</em></b></p>\n                    <p>This is the bee that you just saw.</p>\n                    <img src=\"bees-with-color/bee-A2DM.svg\" width=\"200\">\n                    <p><span class=\"greenText\"><b>Successful harvest!</b></span><br>Your pay has increased by $0.02. Your bonus pay is now $0.50.</p>\n            ","response":0,"trial_type":"html-button-response","trial_index":104,"time_elapsed":482375,"internal_node_id":"0.0-4.0-1.48","subject_id":"5cbbc956a8805b001c8c34f9","study_id":"60edd13110225f80f9f3709b","session_id":"6196c4a87afdd8353abe0cf3","condition":"contingent","relevant_dimensions":["wings","legs"],"bee_group":{"antennae":"X","wings":"2","pattern":"X","legs":"F"},"bonus":0.6400000000000011},{"rt":909.3999999761581,"stimulus":"bees-with-color/bee-A1SM.svg","response":0,"trial_type":"image-button-response","trial_index":105,"time_elapsed":483287,"internal_node_id":"0.0-4.0-0.49","subject_id":"5cbbc956a8805b001c8c34f9","study_id":"60edd13110225f80f9f3709b","session_id":"6196c4a87afdd8353abe0cf3","condition":"contingent","relevant_dimensions":["wings","legs"],"bee_group":{"antennae":"X","wings":"2","pattern":"X","legs":"F"},"action":"harvest","summary":"good-harvest","bonus":0.6400000000000011},{"rt":540.3999999761581,"stimulus":"\n                    <p><b>Action: <em>harvest</em></b></p>\n                    <p>This is the bee that you just saw.</p>\n                    <img src=\"bees-with-color/bee-A1SM.svg\" width=\"200\">\n                    <p><span class=\"greenText\"><b>Successful harvest!</b></span><br>Your pay has increased by $0.02. Your bonus pay is now $0.52.</p>\n            ","response":0,"trial_type":"html-button-response","trial_index":106,"time_elapsed":483831,"internal_node_id":"0.0-4.0-1.49","subject_id":"5cbbc956a8805b001c8c34f9","study_id":"60edd13110225f80f9f3709b","session_id":"6196c4a87afdd8353abe0cf3","condition":"contingent","relevant_dimensions":["wings","legs"],"bee_group":{"antennae":"X","wings":"2","pattern":"X","legs":"F"},"bonus":0.6400000000000011},{"rt":1795.6000000238419,"stimulus":"bees-with-color/bee-B1SF.svg","response":1,"trial_type":"image-button-response","trial_index":107,"time_elapsed":485631,"internal_node_id":"0.0-4.0-0.50","subject_id":"5cbbc956a8805b001c8c34f9","study_id":"60edd13110225f80f9f3709b","session_id":"6196c4a87afdd8353abe0cf3","condition":"contingent","relevant_dimensions":["wings","legs"],"bee_group":{"antennae":"X","wings":"2","pattern":"X","legs":"F"},"action":"avoid","summary":"bad-avoid","bonus":0.6400000000000011},{"rt":635.6000000238419,"stimulus":"\n                    <p><b>Action: <em>avoid</em></b></p>\n                    <p>This is the bee that you just saw.</p>\n                    <img src=\"bees-with-color/bee-B1SF.svg\" width=\"200\">\n                    <p><br>Your bonus pay is unchanged, and remains at $0.52.</p>\n            ","response":0,"trial_type":"html-button-response","trial_index":108,"time_elapsed":486271,"internal_node_id":"0.0-4.0-1.50","subject_id":"5cbbc956a8805b001c8c34f9","study_id":"60edd13110225f80f9f3709b","session_id":"6196c4a87afdd8353abe0cf3","condition":"contingent","relevant_dimensions":["wings","legs"],"bee_group":{"antennae":"X","wings":"2","pattern":"X","legs":"F"},"bonus":0.6400000000000011},{"rt":516.5999999046326,"stimulus":"bees-with-color/bee-B1DM.svg","response":0,"trial_type":"image-button-response","trial_index":109,"time_elapsed":486790,"internal_node_id":"0.0-4.0-0.51","subject_id":"5cbbc956a8805b001c8c34f9","study_id":"60edd13110225f80f9f3709b","session_id":"6196c4a87afdd8353abe0cf3","condition":"contingent","relevant_dimensions":["wings","legs"],"bee_group":{"antennae":"X","wings":"2","pattern":"X","legs":"F"},"action":"harvest","summary":"good-harvest","bonus":0.6400000000000011},{"rt":4910.199999928474,"stimulus":"\n                    <p><b>Action: <em>harvest</em></b></p>\n                    <p>This is the bee that you just saw.</p>\n                    <img src=\"bees-with-color/bee-B1DM.svg\" width=\"200\">\n                    <p><span class=\"greenText\"><b>Successful harvest!</b></span><br>Your pay has increased by $0.02. Your bonus pay is now $0.54.</p>\n            ","response":0,"trial_type":"html-button-response","trial_index":110,"time_elapsed":491702,"internal_node_id":"0.0-4.0-1.51","subject_id":"5cbbc956a8805b001c8c34f9","study_id":"60edd13110225f80f9f3709b","session_id":"6196c4a87afdd8353abe0cf3","condition":"contingent","relevant_dimensions":["wings","legs"],"bee_group":{"antennae":"X","wings":"2","pattern":"X","legs":"F"},"bonus":0.6400000000000011},{"rt":2021.5,"stimulus":"bees-with-color/bee-A1DF.svg","response":1,"trial_type":"image-button-response","trial_index":111,"time_elapsed":493727,"internal_node_id":"0.0-4.0-0.52","subject_id":"5cbbc956a8805b001c8c34f9","study_id":"60edd13110225f80f9f3709b","session_id":"6196c4a87afdd8353abe0cf3","condition":"contingent","relevant_dimensions":["wings","legs"],"bee_group":{"antennae":"X","wings":"2","pattern":"X","legs":"F"},"action":"avoid","summary":"bad-avoid","bonus":0.6400000000000011},{"rt":820.5999999046326,"stimulus":"\n                    <p><b>Action: <em>avoid</em></b></p>\n                    <p>This is the bee that you just saw.</p>\n                    <img src=\"bees-with-color/bee-A1DF.svg\" width=\"200\">\n                    <p><br>Your bonus pay is unchanged, and remains at $0.54.</p>\n            ","response":0,"trial_type":"html-button-response","trial_index":112,"time_elapsed":494550,"internal_node_id":"0.0-4.0-1.52","subject_id":"5cbbc956a8805b001c8c34f9","study_id":"60edd13110225f80f9f3709b","session_id":"6196c4a87afdd8353abe0cf3","condition":"contingent","relevant_dimensions":["wings","legs"],"bee_group":{"antennae":"X","wings":"2","pattern":"X","legs":"F"},"bonus":0.6400000000000011},{"rt":1078.5,"stimulus":"bees-with-color/bee-A2DF.svg","response":0,"trial_type":"image-button-response","trial_index":113,"time_elapsed":495631,"internal_node_id":"0.0-4.0-0.53","subject_id":"5cbbc956a8805b001c8c34f9","study_id":"60edd13110225f80f9f3709b","session_id":"6196c4a87afdd8353abe0cf3","condition":"contingent","relevant_dimensions":["wings","legs"],"bee_group":{"antennae":"X","wings":"2","pattern":"X","legs":"F"},"action":"harvest","summary":"bad-harvest","bonus":0.6400000000000011},{"rt":971.2999999523163,"stimulus":"\n                    <p><b>Action: <em>harvest</em></b></p>\n                    <p>This is the bee that you just saw.</p>\n                    <img src=\"bees-with-color/bee-A2DF.svg\" width=\"200\">\n                    <p><span class=\"redText\">Bad choice, the bee was angry.</span><br><b>You have been stung!</b><br>Your pay has been decreased by $0.10. Your bonus pay is now $0.44.</p>\n            ","response":0,"trial_type":"html-button-response","trial_index":114,"time_elapsed":496607,"internal_node_id":"0.0-4.0-1.53","subject_id":"5cbbc956a8805b001c8c34f9","study_id":"60edd13110225f80f9f3709b","session_id":"6196c4a87afdd8353abe0cf3","condition":"contingent","relevant_dimensions":["wings","legs"],"bee_group":{"antennae":"X","wings":"2","pattern":"X","legs":"F"},"bonus":0.6400000000000011},{"rt":838.5999999046326,"stimulus":"bees-with-color/bee-A2SF.svg","response":0,"trial_type":"image-button-response","trial_index":115,"time_elapsed":497448,"internal_node_id":"0.0-4.0-0.54","subject_id":"5cbbc956a8805b001c8c34f9","study_id":"60edd13110225f80f9f3709b","session_id":"6196c4a87afdd8353abe0cf3","condition":"contingent","relevant_dimensions":["wings","legs"],"bee_group":{"antennae":"X","wings":"2","pattern":"X","legs":"F"},"action":"harvest","summary":"bad-harvest","bonus":0.6400000000000011},{"rt":1225.7000000476837,"stimulus":"\n                    <p><b>Action: <em>harvest</em></b></p>\n                    <p>This is the bee that you just saw.</p>\n                    <img src=\"bees-with-color/bee-A2SF.svg\" width=\"200\">\n                    <p><span class=\"redText\">Bad choice, the bee was angry.</span><br><b>You have been stung!</b><br>Your pay has been decreased by $0.10. Your bonus pay is now $0.34.</p>\n            ","response":0,"trial_type":"html-button-response","trial_index":116,"time_elapsed":498679,"internal_node_id":"0.0-4.0-1.54","subject_id":"5cbbc956a8805b001c8c34f9","study_id":"60edd13110225f80f9f3709b","session_id":"6196c4a87afdd8353abe0cf3","condition":"contingent","relevant_dimensions":["wings","legs"],"bee_group":{"antennae":"X","wings":"2","pattern":"X","legs":"F"},"bonus":0.6400000000000011},{"rt":964.6000000238419,"stimulus":"bees-with-color/bee-A1DM.svg","response":0,"trial_type":"image-button-response","trial_index":117,"time_elapsed":499647,"internal_node_id":"0.0-4.0-0.55","subject_id":"5cbbc956a8805b001c8c34f9","study_id":"60edd13110225f80f9f3709b","session_id":"6196c4a87afdd8353abe0cf3","condition":"contingent","relevant_dimensions":["wings","legs"],"bee_group":{"antennae":"X","wings":"2","pattern":"X","legs":"F"},"action":"harvest","summary":"good-harvest","bonus":0.6400000000000011},{"rt":725.8999999761581,"stimulus":"\n                    <p><b>Action: <em>harvest</em></b></p>\n                    <p>This is the bee that you just saw.</p>\n                    <img src=\"bees-with-color/bee-A1DM.svg\" width=\"200\">\n                    <p><span class=\"greenText\"><b>Successful harvest!</b></span><br>Your pay has increased by $0.02. Your bonus pay is now $0.36.</p>\n            ","response":0,"trial_type":"html-button-response","trial_index":118,"time_elapsed":500375,"internal_node_id":"0.0-4.0-1.55","subject_id":"5cbbc956a8805b001c8c34f9","study_id":"60edd13110225f80f9f3709b","session_id":"6196c4a87afdd8353abe0cf3","condition":"contingent","relevant_dimensions":["wings","legs"],"bee_group":{"antennae":"X","wings":"2","pattern":"X","legs":"F"},"bonus":0.6400000000000011},{"rt":1078.5,"stimulus":"bees-with-color/bee-B2SM.svg","response":0,"trial_type":"image-button-response","trial_index":119,"time_elapsed":501455,"internal_node_id":"0.0-4.0-0.56","subject_id":"5cbbc956a8805b001c8c34f9","study_id":"60edd13110225f80f9f3709b","session_id":"6196c4a87afdd8353abe0cf3","condition":"contingent","relevant_dimensions":["wings","legs"],"bee_group":{"antennae":"X","wings":"2","pattern":"X","legs":"F"},"action":"harvest","summary":"good-harvest","bonus":0.6400000000000011},{"rt":451.5,"stimulus":"\n                    <p><b>Action: <em>harvest</em></b></p>\n                    <p>This is the bee that you just saw.</p>\n                    <img src=\"bees-with-color/bee-B2SM.svg\" width=\"200\">\n                    <p><span class=\"greenText\"><b>Successful harvest!</b></span><br>Your pay has increased by $0.02. Your bonus pay is now $0.38.</p>\n            ","response":0,"trial_type":"html-button-response","trial_index":120,"time_elapsed":501911,"internal_node_id":"0.0-4.0-1.56","subject_id":"5cbbc956a8805b001c8c34f9","study_id":"60edd13110225f80f9f3709b","session_id":"6196c4a87afdd8353abe0cf3","condition":"contingent","relevant_dimensions":["wings","legs"],"bee_group":{"antennae":"X","wings":"2","pattern":"X","legs":"F"},"bonus":0.6400000000000011},{"rt":525,"stimulus":"bees-with-color/bee-A2SM.svg","response":0,"trial_type":"image-button-response","trial_index":121,"time_elapsed":502439,"internal_node_id":"0.0-4.0-0.57","subject_id":"5cbbc956a8805b001c8c34f9","study_id":"60edd13110225f80f9f3709b","session_id":"6196c4a87afdd8353abe0cf3","condition":"contingent","relevant_dimensions":["wings","legs"],"bee_group":{"antennae":"X","wings":"2","pattern":"X","legs":"F"},"action":"harvest","summary":"good-harvest","bonus":0.6400000000000011},{"rt":532.0999999046326,"stimulus":"\n                    <p><b>Action: <em>harvest</em></b></p>\n                    <p>This is the bee that you just saw.</p>\n                    <img src=\"bees-with-color/bee-A2SM.svg\" width=\"200\">\n                    <p><span class=\"greenText\"><b>Successful harvest!</b></span><br>Your pay has increased by $0.02. Your bonus pay is now $0.40.</p>\n            ","response":0,"trial_type":"html-button-response","trial_index":122,"time_elapsed":502975,"internal_node_id":"0.0-4.0-1.57","subject_id":"5cbbc956a8805b001c8c34f9","study_id":"60edd13110225f80f9f3709b","session_id":"6196c4a87afdd8353abe0cf3","condition":"contingent","relevant_dimensions":["wings","legs"],"bee_group":{"antennae":"X","wings":"2","pattern":"X","legs":"F"},"bonus":0.6400000000000011},{"rt":1005,"stimulus":"bees-with-color/bee-A1SF.svg","response":0,"trial_type":"image-button-response","trial_index":123,"time_elapsed":503985,"internal_node_id":"0.0-4.0-0.58","subject_id":"5cbbc956a8805b001c8c34f9","study_id":"60edd13110225f80f9f3709b","session_id":"6196c4a87afdd8353abe0cf3","condition":"contingent","relevant_dimensions":["wings","legs"],"bee_group":{"antennae":"X","wings":"2","pattern":"X","legs":"F"},"action":"harvest","summary":"good-harvest","bonus":0.6400000000000011},{"rt":627.7000000476837,"stimulus":"\n                    <p><b>Action: <em>harvest</em></b></p>\n                    <p>This is the bee that you just saw.</p>\n                    <img src=\"bees-with-color/bee-A1SF.svg\" width=\"200\">\n                    <p><span class=\"greenText\"><b>Successful harvest!</b></span><br>Your pay has increased by $0.02. Your bonus pay is now $0.42.</p>\n            ","response":0,"trial_type":"html-button-response","trial_index":124,"time_elapsed":504617,"internal_node_id":"0.0-4.0-1.58","subject_id":"5cbbc956a8805b001c8c34f9","study_id":"60edd13110225f80f9f3709b","session_id":"6196c4a87afdd8353abe0cf3","condition":"contingent","relevant_dimensions":["wings","legs"],"bee_group":{"antennae":"X","wings":"2","pattern":"X","legs":"F"},"bonus":0.6400000000000011},{"rt":986.5,"stimulus":"bees-with-color/bee-B2DF.svg","response":1,"trial_type":"image-button-response","trial_index":125,"time_elapsed":505608,"internal_node_id":"0.0-4.0-0.59","subject_id":"5cbbc956a8805b001c8c34f9","study_id":"60edd13110225f80f9f3709b","session_id":"6196c4a87afdd8353abe0cf3","condition":"contingent","relevant_dimensions":["wings","legs"],"bee_group":{"antennae":"X","wings":"2","pattern":"X","legs":"F"},"action":"avoid","summary":"good-avoid","bonus":0.6400000000000011},{"rt":580.5,"stimulus":"\n                    <p><b>Action: <em>avoid</em></b></p>\n                    <p>This is the bee that you just saw.</p>\n                    <img src=\"bees-with-color/bee-B2DF.svg\" width=\"200\">\n                    <p><br>Your bonus pay is unchanged, and remains at $0.42.</p>\n            ","response":0,"trial_type":"html-button-response","trial_index":126,"time_elapsed":506190,"internal_node_id":"0.0-4.0-1.59","subject_id":"5cbbc956a8805b001c8c34f9","study_id":"60edd13110225f80f9f3709b","session_id":"6196c4a87afdd8353abe0cf3","condition":"contingent","relevant_dimensions":["wings","legs"],"bee_group":{"antennae":"X","wings":"2","pattern":"X","legs":"F"},"bonus":0.6400000000000011},{"rt":1422.3999999761581,"stimulus":"bees-with-color/bee-B2SF.svg","response":1,"trial_type":"image-button-response","trial_index":127,"time_elapsed":507615,"internal_node_id":"0.0-4.0-0.60","subject_id":"5cbbc956a8805b001c8c34f9","study_id":"60edd13110225f80f9f3709b","session_id":"6196c4a87afdd8353abe0cf3","condition":"contingent","relevant_dimensions":["wings","legs"],"bee_group":{"antennae":"X","wings":"2","pattern":"X","legs":"F"},"action":"avoid","summary":"good-avoid","bonus":0.6400000000000011},{"rt":509.89999997615814,"stimulus":"\n                    <p><b>Action: <em>avoid</em></b></p>\n                    <p>This is the bee that you just saw.</p>\n                    <img src=\"bees-with-color/bee-B2SF.svg\" width=\"200\">\n                    <p><br>Your bonus pay is unchanged, and remains at $0.42.</p>\n            ","response":0,"trial_type":"html-button-response","trial_index":128,"time_elapsed":508127,"internal_node_id":"0.0-4.0-1.60","subject_id":"5cbbc956a8805b001c8c34f9","study_id":"60edd13110225f80f9f3709b","session_id":"6196c4a87afdd8353abe0cf3","condition":"contingent","relevant_dimensions":["wings","legs"],"bee_group":{"antennae":"X","wings":"2","pattern":"X","legs":"F"},"bonus":0.6400000000000011},{"rt":590.1000000238419,"stimulus":"bees-with-color/bee-B2DM.svg","response":0,"trial_type":"image-button-response","trial_index":129,"time_elapsed":508721,"internal_node_id":"0.0-4.0-0.61","subject_id":"5cbbc956a8805b001c8c34f9","study_id":"60edd13110225f80f9f3709b","session_id":"6196c4a87afdd8353abe0cf3","condition":"contingent","relevant_dimensions":["wings","legs"],"bee_group":{"antennae":"X","wings":"2","pattern":"X","legs":"F"},"action":"harvest","summary":"good-harvest","bonus":0.6400000000000011},{"rt":682.3999999761581,"stimulus":"\n                    <p><b>Action: <em>harvest</em></b></p>\n                    <p>This is the bee that you just saw.</p>\n                    <img src=\"bees-with-color/bee-B2DM.svg\" width=\"200\">\n                    <p><span class=\"greenText\"><b>Successful harvest!</b></span><br>Your pay has increased by $0.02. Your bonus pay is now $0.44.</p>\n            ","response":0,"trial_type":"html-button-response","trial_index":130,"time_elapsed":509408,"internal_node_id":"0.0-4.0-1.61","subject_id":"5cbbc956a8805b001c8c34f9","study_id":"60edd13110225f80f9f3709b","session_id":"6196c4a87afdd8353abe0cf3","condition":"contingent","relevant_dimensions":["wings","legs"],"bee_group":{"antennae":"X","wings":"2","pattern":"X","legs":"F"},"bonus":0.6400000000000011},{"rt":1187.3999999761581,"stimulus":"bees-with-color/bee-B1DF.svg","response":1,"trial_type":"image-button-response","trial_index":131,"time_elapsed":510598,"internal_node_id":"0.0-4.0-0.62","subject_id":"5cbbc956a8805b001c8c34f9","study_id":"60edd13110225f80f9f3709b","session_id":"6196c4a87afdd8353abe0cf3","condition":"contingent","relevant_dimensions":["wings","legs"],"bee_group":{"antennae":"X","wings":"2","pattern":"X","legs":"F"},"action":"avoid","summary":"bad-avoid","bonus":0.6400000000000011},{"rt":766,"stimulus":"\n                    <p><b>Action: <em>avoid</em></b></p>\n                    <p>This is the bee that you just saw.</p>\n                    <img src=\"bees-with-color/bee-B1DF.svg\" width=\"200\">\n                    <p><br>Your bonus pay is unchanged, and remains at $0.44.</p>\n            ","response":0,"trial_type":"html-button-response","trial_index":132,"time_elapsed":511367,"internal_node_id":"0.0-4.0-1.62","subject_id":"5cbbc956a8805b001c8c34f9","study_id":"60edd13110225f80f9f3709b","session_id":"6196c4a87afdd8353abe0cf3","condition":"contingent","relevant_dimensions":["wings","legs"],"bee_group":{"antennae":"X","wings":"2","pattern":"X","legs":"F"},"bonus":0.6400000000000011},{"rt":717.7999999523163,"stimulus":"bees-with-color/bee-B1SM.svg","response":0,"trial_type":"image-button-response","trial_index":133,"time_elapsed":512088,"internal_node_id":"0.0-4.0-0.63","subject_id":"5cbbc956a8805b001c8c34f9","study_id":"60edd13110225f80f9f3709b","session_id":"6196c4a87afdd8353abe0cf3","condition":"contingent","relevant_dimensions":["wings","legs"],"bee_group":{"antennae":"X","wings":"2","pattern":"X","legs":"F"},"action":"harvest","summary":"good-harvest","bonus":0.6400000000000011},{"rt":499.7999999523163,"stimulus":"\n                    <p><b>Action: <em>harvest</em></b></p>\n                    <p>This is the bee that you just saw.</p>\n                    <img src=\"bees-with-color/bee-B1SM.svg\" width=\"200\">\n                    <p><span class=\"greenText\"><b>Successful harvest!</b></span><br>Your pay has increased by $0.02. Your bonus pay is now $0.46.</p>\n            ","response":0,"trial_type":"html-button-response","trial_index":134,"time_elapsed":512592,"internal_node_id":"0.0-4.0-1.63","subject_id":"5cbbc956a8805b001c8c34f9","study_id":"60edd13110225f80f9f3709b","session_id":"6196c4a87afdd8353abe0cf3","condition":"contingent","relevant_dimensions":["wings","legs"],"bee_group":{"antennae":"X","wings":"2","pattern":"X","legs":"F"},"bonus":0.6400000000000011},{"rt":6031.600000023842,"stimulus":"You have completed the first part of this experiment.<br><br>You will now begin a shorter second part, in which you will receive no feedback.<br>The same rules regarding bonus pay apply.<br><br>Press any key to begin.","response":" ","trial_type":"html-keyboard-response","trial_index":135,"time_elapsed":518626,"internal_node_id":"0.0-5.0","subject_id":"5cbbc956a8805b001c8c34f9","study_id":"60edd13110225f80f9f3709b","session_id":"6196c4a87afdd8353abe0cf3","condition":"contingent","relevant_dimensions":["wings","legs"],"bee_group":{"antennae":"X","wings":"2","pattern":"X","legs":"F"},"bonus":0.6400000000000011},{"rt":5456,"stimulus":"bees-with-color/bee-B2DM.svg","response":0,"trial_type":"image-button-response","trial_index":136,"time_elapsed":524095,"internal_node_id":"0.0-6.0-0.0","subject_id":"5cbbc956a8805b001c8c34f9","study_id":"60edd13110225f80f9f3709b","session_id":"6196c4a87afdd8353abe0cf3","condition":"contingent","relevant_dimensions":["wings","legs"],"bee_group":{"antennae":"X","wings":"2","pattern":"X","legs":"F"},"bonus":0.6400000000000011},{"rt":2601.9000000953674,"stimulus":"bees-with-color/bee-A2SM.svg","response":0,"trial_type":"image-button-response","trial_index":137,"time_elapsed":526705,"internal_node_id":"0.0-6.0-0.1","subject_id":"5cbbc956a8805b001c8c34f9","study_id":"60edd13110225f80f9f3709b","session_id":"6196c4a87afdd8353abe0cf3","condition":"contingent","relevant_dimensions":["wings","legs"],"bee_group":{"antennae":"X","wings":"2","pattern":"X","legs":"F"},"bonus":0.6400000000000011},{"rt":1258.6000000238419,"stimulus":"bees-with-color/bee-A1SF.svg","response":0,"trial_type":"image-button-response","trial_index":138,"time_elapsed":527970,"internal_node_id":"0.0-6.0-0.2","subject_id":"5cbbc956a8805b001c8c34f9","study_id":"60edd13110225f80f9f3709b","session_id":"6196c4a87afdd8353abe0cf3","condition":"contingent","relevant_dimensions":["wings","legs"],"bee_group":{"antennae":"X","wings":"2","pattern":"X","legs":"F"},"bonus":0.6400000000000011},{"rt":1438.3000000715256,"stimulus":"bees-with-color/bee-A1DF.svg","response":1,"trial_type":"image-button-response","trial_index":139,"time_elapsed":529415,"internal_node_id":"0.0-6.0-0.3","subject_id":"5cbbc956a8805b001c8c34f9","study_id":"60edd13110225f80f9f3709b","session_id":"6196c4a87afdd8353abe0cf3","condition":"contingent","relevant_dimensions":["wings","legs"],"bee_group":{"antennae":"X","wings":"2","pattern":"X","legs":"F"},"bonus":0.6400000000000011},{"rt":852.8000000715256,"stimulus":"bees-with-color/bee-B1SF.svg","response":1,"trial_type":"image-button-response","trial_index":140,"time_elapsed":530272,"internal_node_id":"0.0-6.0-0.4","subject_id":"5cbbc956a8805b001c8c34f9","study_id":"60edd13110225f80f9f3709b","session_id":"6196c4a87afdd8353abe0cf3","condition":"contingent","relevant_dimensions":["wings","legs"],"bee_group":{"antennae":"X","wings":"2","pattern":"X","legs":"F"},"bonus":0.6400000000000011},{"rt":642.8000000715256,"stimulus":"bees-with-color/bee-B2SF.svg","response":1,"trial_type":"image-button-response","trial_index":141,"time_elapsed":530919,"internal_node_id":"0.0-6.0-0.5","subject_id":"5cbbc956a8805b001c8c34f9","study_id":"60edd13110225f80f9f3709b","session_id":"6196c4a87afdd8353abe0cf3","condition":"contingent","relevant_dimensions":["wings","legs"],"bee_group":{"antennae":"X","wings":"2","pattern":"X","legs":"F"},"bonus":0.6400000000000011},{"rt":1180.7999999523163,"stimulus":"bees-with-color/bee-A2SF.svg","response":1,"trial_type":"image-button-response","trial_index":142,"time_elapsed":532104,"internal_node_id":"0.0-6.0-0.6","subject_id":"5cbbc956a8805b001c8c34f9","study_id":"60edd13110225f80f9f3709b","session_id":"6196c4a87afdd8353abe0cf3","condition":"contingent","relevant_dimensions":["wings","legs"],"bee_group":{"antennae":"X","wings":"2","pattern":"X","legs":"F"},"bonus":0.6400000000000011},{"rt":2056.7000000476837,"stimulus":"bees-with-color/bee-A2DM.svg","response":0,"trial_type":"image-button-response","trial_index":143,"time_elapsed":534167,"internal_node_id":"0.0-6.0-0.7","subject_id":"5cbbc956a8805b001c8c34f9","study_id":"60edd13110225f80f9f3709b","session_id":"6196c4a87afdd8353abe0cf3","condition":"contingent","relevant_dimensions":["wings","legs"],"bee_group":{"antennae":"X","wings":"2","pattern":"X","legs":"F"},"bonus":0.6400000000000011},{"rt":794.3999999761581,"stimulus":"bees-with-color/bee-B1DM.svg","response":0,"trial_type":"image-button-response","trial_index":144,"time_elapsed":534968,"internal_node_id":"0.0-6.0-0.8","subject_id":"5cbbc956a8805b001c8c34f9","study_id":"60edd13110225f80f9f3709b","session_id":"6196c4a87afdd8353abe0cf3","condition":"contingent","relevant_dimensions":["wings","legs"],"bee_group":{"antennae":"X","wings":"2","pattern":"X","legs":"F"},"bonus":0.6400000000000011},{"rt":1163.2999999523163,"stimulus":"bees-with-color/bee-B2SM.svg","response":1,"trial_type":"image-button-response","trial_index":145,"time_elapsed":536138,"internal_node_id":"0.0-6.0-0.9","subject_id":"5cbbc956a8805b001c8c34f9","study_id":"60edd13110225f80f9f3709b","session_id":"6196c4a87afdd8353abe0cf3","condition":"contingent","relevant_dimensions":["wings","legs"],"bee_group":{"antennae":"X","wings":"2","pattern":"X","legs":"F"},"bonus":0.6400000000000011},{"rt":1568.1999999284744,"stimulus":"bees-with-color/bee-B1SM.svg","response":0,"trial_type":"image-button-response","trial_index":146,"time_elapsed":537711,"internal_node_id":"0.0-6.0-0.10","subject_id":"5cbbc956a8805b001c8c34f9","study_id":"60edd13110225f80f9f3709b","session_id":"6196c4a87afdd8353abe0cf3","condition":"contingent","relevant_dimensions":["wings","legs"],"bee_group":{"antennae":"X","wings":"2","pattern":"X","legs":"F"},"bonus":0.6400000000000011},{"rt":612,"stimulus":"bees-with-color/bee-A1SM.svg","response":0,"trial_type":"image-button-response","trial_index":147,"time_elapsed":538328,"internal_node_id":"0.0-6.0-0.11","subject_id":"5cbbc956a8805b001c8c34f9","study_id":"60edd13110225f80f9f3709b","session_id":"6196c4a87afdd8353abe0cf3","condition":"contingent","relevant_dimensions":["wings","legs"],"bee_group":{"antennae":"X","wings":"2","pattern":"X","legs":"F"},"bonus":0.6400000000000011},{"rt":1001.7999999523163,"stimulus":"bees-with-color/bee-B2DF.svg","response":1,"trial_type":"image-button-response","trial_index":148,"time_elapsed":539335,"internal_node_id":"0.0-6.0-0.12","subject_id":"5cbbc956a8805b001c8c34f9","study_id":"60edd13110225f80f9f3709b","session_id":"6196c4a87afdd8353abe0cf3","condition":"contingent","relevant_dimensions":["wings","legs"],"bee_group":{"antennae":"X","wings":"2","pattern":"X","legs":"F"},"bonus":0.6400000000000011},{"rt":1042.3000000715256,"stimulus":"bees-with-color/bee-B1DF.svg","response":1,"trial_type":"image-button-response","trial_index":149,"time_elapsed":540383,"internal_node_id":"0.0-6.0-0.13","subject_id":"5cbbc956a8805b001c8c34f9","study_id":"60edd13110225f80f9f3709b","session_id":"6196c4a87afdd8353abe0cf3","condition":"contingent","relevant_dimensions":["wings","legs"],"bee_group":{"antennae":"X","wings":"2","pattern":"X","legs":"F"},"bonus":0.6400000000000011},{"rt":890.3999999761581,"stimulus":"bees-with-color/bee-A1DM.svg","response":0,"trial_type":"image-button-response","trial_index":150,"time_elapsed":541279,"internal_node_id":"0.0-6.0-0.14","subject_id":"5cbbc956a8805b001c8c34f9","study_id":"60edd13110225f80f9f3709b","session_id":"6196c4a87afdd8353abe0cf3","condition":"contingent","relevant_dimensions":["wings","legs"],"bee_group":{"antennae":"X","wings":"2","pattern":"X","legs":"F"},"bonus":0.6400000000000011},{"rt":1029.3999999761581,"stimulus":"bees-with-color/bee-A2DF.svg","response":1,"trial_type":"image-button-response","trial_index":151,"time_elapsed":542311,"internal_node_id":"0.0-6.0-0.15","subject_id":"5cbbc956a8805b001c8c34f9","study_id":"60edd13110225f80f9f3709b","session_id":"6196c4a87afdd8353abe0cf3","condition":"contingent","relevant_dimensions":["wings","legs"],"bee_group":{"antennae":"X","wings":"2","pattern":"X","legs":"F"},"bonus":0.6400000000000011},{"rt":731.6999999284744,"stimulus":"bees-with-color/bee-A1SM.svg","response":0,"trial_type":"image-button-response","trial_index":152,"time_elapsed":543047,"internal_node_id":"0.0-6.0-0.16","subject_id":"5cbbc956a8805b001c8c34f9","study_id":"60edd13110225f80f9f3709b","session_id":"6196c4a87afdd8353abe0cf3","condition":"contingent","relevant_dimensions":["wings","legs"],"bee_group":{"antennae":"X","wings":"2","pattern":"X","legs":"F"},"bonus":0.6400000000000011},{"rt":1277.1000000238419,"stimulus":"bees-with-color/bee-B2DM.svg","response":1,"trial_type":"image-button-response","trial_index":153,"time_elapsed":544327,"internal_node_id":"0.0-6.0-0.17","subject_id":"5cbbc956a8805b001c8c34f9","study_id":"60edd13110225f80f9f3709b","session_id":"6196c4a87afdd8353abe0cf3","condition":"contingent","relevant_dimensions":["wings","legs"],"bee_group":{"antennae":"X","wings":"2","pattern":"X","legs":"F"},"bonus":0.6400000000000011},{"rt":6956.600000023842,"stimulus":"bees-with-color/bee-B1DF.svg","response":1,"trial_type":"image-button-response","trial_index":154,"time_elapsed":551288,"internal_node_id":"0.0-6.0-0.18","subject_id":"5cbbc956a8805b001c8c34f9","study_id":"60edd13110225f80f9f3709b","session_id":"6196c4a87afdd8353abe0cf3","condition":"contingent","relevant_dimensions":["wings","legs"],"bee_group":{"antennae":"X","wings":"2","pattern":"X","legs":"F"},"bonus":0.6400000000000011},{"rt":761.7000000476837,"stimulus":"bees-with-color/bee-A2DM.svg","response":0,"trial_type":"image-button-response","trial_index":155,"time_elapsed":552055,"internal_node_id":"0.0-6.0-0.19","subject_id":"5cbbc956a8805b001c8c34f9","study_id":"60edd13110225f80f9f3709b","session_id":"6196c4a87afdd8353abe0cf3","condition":"contingent","relevant_dimensions":["wings","legs"],"bee_group":{"antennae":"X","wings":"2","pattern":"X","legs":"F"},"bonus":0.6400000000000011},{"rt":997,"stimulus":"bees-with-color/bee-A1SF.svg","response":0,"trial_type":"image-button-response","trial_index":156,"time_elapsed":553056,"internal_node_id":"0.0-6.0-0.20","subject_id":"5cbbc956a8805b001c8c34f9","study_id":"60edd13110225f80f9f3709b","session_id":"6196c4a87afdd8353abe0cf3","condition":"contingent","relevant_dimensions":["wings","legs"],"bee_group":{"antennae":"X","wings":"2","pattern":"X","legs":"F"},"bonus":0.6400000000000011},{"rt":1907.1999999284744,"stimulus":"bees-with-color/bee-B2SF.svg","response":1,"trial_type":"image-button-response","trial_index":157,"time_elapsed":554967,"internal_node_id":"0.0-6.0-0.21","subject_id":"5cbbc956a8805b001c8c34f9","study_id":"60edd13110225f80f9f3709b","session_id":"6196c4a87afdd8353abe0cf3","condition":"contingent","relevant_dimensions":["wings","legs"],"bee_group":{"antennae":"X","wings":"2","pattern":"X","legs":"F"},"bonus":0.6400000000000011},{"rt":1801.1999999284744,"stimulus":"bees-with-color/bee-B2DF.svg","response":0,"trial_type":"image-button-response","trial_index":158,"time_elapsed":556774,"internal_node_id":"0.0-6.0-0.22","subject_id":"5cbbc956a8805b001c8c34f9","study_id":"60edd13110225f80f9f3709b","session_id":"6196c4a87afdd8353abe0cf3","condition":"contingent","relevant_dimensions":["wings","legs"],"bee_group":{"antennae":"X","wings":"2","pattern":"X","legs":"F"},"bonus":0.6400000000000011},{"rt":1925.3999999761581,"stimulus":"bees-with-color/bee-A1DF.svg","response":0,"trial_type":"image-button-response","trial_index":159,"time_elapsed":558703,"internal_node_id":"0.0-6.0-0.23","subject_id":"5cbbc956a8805b001c8c34f9","study_id":"60edd13110225f80f9f3709b","session_id":"6196c4a87afdd8353abe0cf3","condition":"contingent","relevant_dimensions":["wings","legs"],"bee_group":{"antennae":"X","wings":"2","pattern":"X","legs":"F"},"bonus":0.6400000000000011},{"rt":1914.6999999284744,"stimulus":"bees-with-color/bee-A2SM.svg","response":1,"trial_type":"image-button-response","trial_index":160,"time_elapsed":560622,"internal_node_id":"0.0-6.0-0.24","subject_id":"5cbbc956a8805b001c8c34f9","study_id":"60edd13110225f80f9f3709b","session_id":"6196c4a87afdd8353abe0cf3","condition":"contingent","relevant_dimensions":["wings","legs"],"bee_group":{"antennae":"X","wings":"2","pattern":"X","legs":"F"},"bonus":0.6400000000000011},{"rt":1253.5,"stimulus":"bees-with-color/bee-B1SM.svg","response":0,"trial_type":"image-button-response","trial_index":161,"time_elapsed":561878,"internal_node_id":"0.0-6.0-0.25","subject_id":"5cbbc956a8805b001c8c34f9","study_id":"60edd13110225f80f9f3709b","session_id":"6196c4a87afdd8353abe0cf3","condition":"contingent","relevant_dimensions":["wings","legs"],"bee_group":{"antennae":"X","wings":"2","pattern":"X","legs":"F"},"bonus":0.6400000000000011},{"rt":870.1000000238419,"stimulus":"bees-with-color/bee-B2SM.svg","response":1,"trial_type":"image-button-response","trial_index":162,"time_elapsed":562751,"internal_node_id":"0.0-6.0-0.26","subject_id":"5cbbc956a8805b001c8c34f9","study_id":"60edd13110225f80f9f3709b","session_id":"6196c4a87afdd8353abe0cf3","condition":"contingent","relevant_dimensions":["wings","legs"],"bee_group":{"antennae":"X","wings":"2","pattern":"X","legs":"F"},"bonus":0.6400000000000011},{"rt":1338.3999999761581,"stimulus":"bees-with-color/bee-A2DF.svg","res