[{"success":true,"trial_type":"fullscreen","trial_index":0,"time_elapsed":3601,"internal_node_id":"0.0-0.0","subject_id":"5e7f35ac33f8d4000aede88c","study_id":"60edd13110225f80f9f3709b","session_id":"6196c1f4444ad3255a91359c","condition":"full-information","relevant_dimensions":["antennae","wings"],"bee_group":{"antennae":"A","wings":"1","pattern":"X","legs":"X"},"bonus":0.8600000000000009},{"success":true,"timeout":false,"failed_images":[],"failed_audio":[],"failed_video":[],"trial_type":"preload","trial_index":1,"time_elapsed":6051,"internal_node_id":"0.0-1.0","subject_id":"5e7f35ac33f8d4000aede88c","study_id":"60edd13110225f80f9f3709b","session_id":"6196c1f4444ad3255a91359c","condition":"full-information","relevant_dimensions":["antennae","wings"],"bee_group":{"antennae":"A","wings":"1","pattern":"X","legs":"X"},"bonus":0.8600000000000009},{"rt":2499.399999976158,"stimulus":"Welcome! Press any key to begin.","response":"g","trial_type":"html-keyboard-response","trial_index":2,"time_elapsed":8551,"internal_node_id":"0.0-2.0","subject_id":"5e7f35ac33f8d4000aede88c","study_id":"60edd13110225f80f9f3709b","session_id":"6196c1f4444ad3255a91359c","condition":"full-information","relevant_dimensions":["antennae","wings"],"bee_group":{"antennae":"A","wings":"1","pattern":"X","legs":"X"},"bonus":0.8600000000000009},{"view_history":[{"page_index":0,"viewing_time":5567.5},{"page_index":1,"viewing_time":13761.799999952316},{"page_index":2,"viewing_time":11650.400000095367},{"page_index":3,"viewing_time":18815.799999952316},{"page_index":4,"viewing_time":6380},{"page_index":5,"viewing_time":11464.100000023842},{"page_index":6,"viewing_time":11118.100000023842},{"page_index":7,"viewing_time":2496},{"page_index":6,"viewing_time":5729.899999976158},{"page_index":7,"viewing_time":3904.100000023842},{"page_index":8,"viewing_time":4706.099999904633},{"page_index":7,"viewing_time":1209.9000000953674},{"page_index":8,"viewing_time":898.0999999046326},{"page_index":9,"viewing_time":1809.9000000953674},{"page_index":10,"viewing_time":2956},{"page_index":11,"viewing_time":9664.099999904633},{"page_index":12,"viewing_time":6294},{"page_index":13,"viewing_time":1408},{"page_index":14,"viewing_time":2555.9000000953674}],"rt":122390.29999995232,"trial_type":"instructions","trial_index":3,"time_elapsed":130942,"internal_node_id":"0.0-3.0-0.0","subject_id":"5e7f35ac33f8d4000aede88c","study_id":"60edd13110225f80f9f3709b","session_id":"6196c1f4444ad3255a91359c","condition":"full-information","relevant_dimensions":["antennae","wings"],"bee_group":{"antennae":"A","wings":"1","pattern":"X","legs":"X"},"bonus":0.8600000000000009},{"rt":12480.399999976158,"response":{"Q0":["Two or six legs","Stripes or spots on body","Single or double wings","Antennae or no antennae"]},"question_order":[0],"trial_type":"survey-multi-select","trial_index":4,"time_elapsed":143433,"internal_node_id":"0.0-3.0-1.0","subject_id":"5e7f35ac33f8d4000aede88c","study_id":"60edd13110225f80f9f3709b","session_id":"6196c1f4444ad3255a91359c","condition":"full-information","relevant_dimensions":["antennae","wings"],"bee_group":{"antennae":"A","wings":"1","pattern":"X","legs":"X"},"correct":true,"bonus":0.8600000000000009},{"rt":27575.399999976158,"response":{"Q1":"No.","Q2":"Based on the four features of the bee.","Q3":"You learn if it was friendly or dangerous, but do not alter your bonus."},"question_order":[0,1,2],"trial_type":"survey-multi-choice","trial_index":5,"time_elapsed":171012,"internal_node_id":"0.0-3.0-2.0","subject_id":"5e7f35ac33f8d4000aede88c","study_id":"60edd13110225f80f9f3709b","session_id":"6196c1f4444ad3255a91359c","condition":"full-information","relevant_dimensions":["antennae","wings"],"bee_group":{"antennae":"A","wings":"1","pattern":"X","legs":"X"},"correct":true,"bonus":0.8600000000000009},{"rt":3785.2000000476837,"stimulus":"<p>Congrats, you got everything right<br>When you're ready, click the button below to continue to the experiment.</p>","response":0,"trial_type":"html-button-response","trial_index":6,"time_elapsed":174799,"internal_node_id":"0.0-3.0-3.0","subject_id":"5e7f35ac33f8d4000aede88c","study_id":"60edd13110225f80f9f3709b","session_id":"6196c1f4444ad3255a91359c","condition":"full-information","relevant_dimensions":["antennae","wings"],"bee_group":{"antennae":"A","wings":"1","pattern":"X","legs":"X"},"bonus":0.8600000000000009},{"rt":7642.800000071526,"stimulus":"bees-with-color/bee-B1SF.svg","response":1,"trial_type":"image-button-response","trial_index":7,"time_elapsed":182445,"internal_node_id":"0.0-4.0-0.0","subject_id":"5e7f35ac33f8d4000aede88c","study_id":"60edd13110225f80f9f3709b","session_id":"6196c1f4444ad3255a91359c","condition":"full-information","relevant_dimensions":["antennae","wings"],"bee_group":{"antennae":"A","wings":"1","pattern":"X","legs":"X"},"action":"avoid","summary":"bad-avoid","bonus":0.8600000000000009},{"rt":8473.899999976158,"stimulus":"\n                    <p><b>Action: <em>avoid</em></b></p>\n                    <p>This is the bee that you just saw.</p>\n                    <img src=\"bees-with-color/bee-B1SF.svg\" width=\"200\">\n                    <p><span class=\"redText\">Bad choice,</span> the bee was friendly.<br>Your bonus pay is unchanged, and remains at $0.54.</p>\n            ","response":0,"trial_type":"html-button-response","trial_index":8,"time_elapsed":190923,"internal_node_id":"0.0-4.0-1.0","subject_id":"5e7f35ac33f8d4000aede88c","study_id":"60edd13110225f80f9f3709b","session_id":"6196c1f4444ad3255a91359c","condition":"full-information","relevant_dimensions":["antennae","wings"],"bee_group":{"antennae":"A","wings":"1","pattern":"X","legs":"X"},"bonus":0.8600000000000009},{"rt":3946.2999999523163,"stimulus":"bees-with-color/bee-A2SM.svg","response":1,"trial_type":"image-button-response","trial_index":9,"time_elapsed":194873,"internal_node_id":"0.0-4.0-0.1","subject_id":"5e7f35ac33f8d4000aede88c","study_id":"60edd13110225f80f9f3709b","session_id":"6196c1f4444ad3255a91359c","condition":"full-information","relevant_dimensions":["antennae","wings"],"bee_group":{"antennae":"A","wings":"1","pattern":"X","legs":"X"},"action":"avoid","summary":"bad-avoid","bonus":0.8600000000000009},{"rt":5042.800000071526,"stimulus":"\n                    <p><b>Action: <em>avoid</em></b></p>\n                    <p>This is the bee that you just saw.</p>\n                    <img src=\"bees-with-color/bee-A2SM.svg\" width=\"200\">\n                    <p><span class=\"redText\">Bad choice,</span> the bee was friendly.<br>Your bonus pay is unchanged, and remains at $0.54.</p>\n            ","response":0,"trial_type":"html-button-response","trial_index":10,"time_elapsed":199919,"internal_node_id":"0.0-4.0-1.1","subject_id":"5e7f35ac33f8d4000aede88c","study_id":"60edd13110225f80f9f3709b","session_id":"6196c1f4444ad3255a91359c","condition":"full-information","relevant_dimensions":["antennae","wings"],"bee_group":{"antennae":"A","wings":"1","pattern":"X","legs":"X"},"bonus":0.8600000000000009},{"rt":5047.200000047684,"stimulus":"bees-with-color/bee-A1DF.svg","response":0,"trial_type":"image-button-response","trial_index":11,"time_elapsed":204969,"internal_node_id":"0.0-4.0-0.2","subject_id":"5e7f35ac33f8d4000aede88c","study_id":"60edd13110225f80f9f3709b","session_id":"6196c1f4444ad3255a91359c","condition":"full-information","relevant_dimensions":["antennae","wings"],"bee_group":{"antennae":"A","wings":"1","pattern":"X","legs":"X"},"action":"harvest","summary":"bad-harvest","bonus":0.8600000000000009},{"rt":10181.399999976158,"stimulus":"\n                    <p><b>Action: <em>harvest</em></b></p>\n                    <p>This is the bee that you just saw.</p>\n                    <img src=\"bees-with-color/bee-A1DF.svg\" width=\"200\">\n                    <p><span class=\"redText\">Bad choice, the bee was angry.</span><br><b>You have been stung!</b><br>Your pay has been decreased by $0.10. Your bonus pay is now $0.44.</p>\n            ","response":0,"trial_type":"html-button-response","trial_index":12,"time_elapsed":215153,"internal_node_id":"0.0-4.0-1.2","subject_id":"5e7f35ac33f8d4000aede88c","study_id":"60edd13110225f80f9f3709b","session_id":"6196c1f4444ad3255a91359c","condition":"full-information","relevant_dimensions":["antennae","wings"],"bee_group":{"antennae":"A","wings":"1","pattern":"X","legs":"X"},"bonus":0.8600000000000009},{"rt":3159.600000023842,"stimulus":"bees-with-color/bee-B2SM.svg","response":0,"trial_type":"image-button-response","trial_index":13,"time_elapsed":218315,"internal_node_id":"0.0-4.0-0.3","subject_id":"5e7f35ac33f8d4000aede88c","study_id":"60edd13110225f80f9f3709b","session_id":"6196c1f4444ad3255a91359c","condition":"full-information","relevant_dimensions":["antennae","wings"],"bee_group":{"antennae":"A","wings":"1","pattern":"X","legs":"X"},"action":"harvest","summary":"good-harvest","bonus":0.8600000000000009},{"rt":3549.2999999523163,"stimulus":"\n                    <p><b>Action: <em>harvest</em></b></p>\n                    <p>This is the bee that you just saw.</p>\n                    <img src=\"bees-with-color/bee-B2SM.svg\" width=\"200\">\n                    <p><span class=\"greenText\"><b>Successful harvest!</b></span><br>Your pay has increased by $0.02. Your bonus pay is now $0.46.</p>\n            ","response":0,"trial_type":"html-button-response","trial_index":14,"time_elapsed":221867,"internal_node_id":"0.0-4.0-1.3","subject_id":"5e7f35ac33f8d4000aede88c","study_id":"60edd13110225f80f9f3709b","session_id":"6196c1f4444ad3255a91359c","condition":"full-information","relevant_dimensions":["antennae","wings"],"bee_group":{"antennae":"A","wings":"1","pattern":"X","legs":"X"},"bonus":0.8600000000000009},{"rt":2569.399999976158,"stimulus":"bees-with-color/bee-A1DM.svg","response":1,"trial_type":"image-button-response","trial_index":15,"time_elapsed":224439,"internal_node_id":"0.0-4.0-0.4","subject_id":"5e7f35ac33f8d4000aede88c","study_id":"60edd13110225f80f9f3709b","session_id":"6196c1f4444ad3255a91359c","condition":"full-information","relevant_dimensions":["antennae","wings"],"bee_group":{"antennae":"A","wings":"1","pattern":"X","legs":"X"},"action":"avoid","summary":"good-avoid","bonus":0.8600000000000009},{"rt":6084.900000095367,"stimulus":"\n                    <p><b>Action: <em>avoid</em></b></p>\n                    <p>This is the bee that you just saw.</p>\n                    <img src=\"bees-with-color/bee-A1DM.svg\" width=\"200\">\n                    <p><span class=\"greenText\">Good choice!</span>  This bee would have stung you.<br>Your bonus pay is unchanged, and remains at $0.46.</p>\n            ","response":0,"trial_type":"html-button-response","trial_index":16,"time_elapsed":230527,"internal_node_id":"0.0-4.0-1.4","subject_id":"5e7f35ac33f8d4000aede88c","study_id":"60edd13110225f80f9f3709b","session_id":"6196c1f4444ad3255a91359c","condition":"full-information","relevant_dimensions":["antennae","wings"],"bee_group":{"antennae":"A","wings":"1","pattern":"X","legs":"X"},"bonus":0.8600000000000009},{"rt":4023.5,"stimulus":"bees-with-color/bee-B2DM.svg","response":1,"trial_type":"image-button-response","trial_index":17,"time_elapsed":234553,"internal_node_id":"0.0-4.0-0.5","subject_id":"5e7f35ac33f8d4000aede88c","study_id":"60edd13110225f80f9f3709b","session_id":"6196c1f4444ad3255a91359c","condition":"full-information","relevant_dimensions":["antennae","wings"],"bee_group":{"antennae":"A","wings":"1","pattern":"X","legs":"X"},"action":"avoid","summary":"bad-avoid","bonus":0.8600000000000009},{"rt":6357.5,"stimulus":"\n                    <p><b>Action: <em>avoid</em></b></p>\n                    <p>This is the bee that you just saw.</p>\n                    <img src=\"bees-with-color/bee-B2DM.svg\" width=\"200\">\n                    <p><span class=\"redText\">Bad choice,</span> the bee was friendly.<br>Your bonus pay is unchanged, and remains at $0.46.</p>\n            ","response":0,"trial_type":"html-button-response","trial_index":18,"time_elapsed":240913,"internal_node_id":"0.0-4.0-1.5","subject_id":"5e7f35ac33f8d4000aede88c","study_id":"60edd13110225f80f9f3709b","session_id":"6196c1f4444ad3255a91359c","condition":"full-information","relevant_dimensions":["antennae","wings"],"bee_group":{"antennae":"A","wings":"1","pattern":"X","legs":"X"},"bonus":0.8600000000000009},{"rt":3158.8000000715256,"stimulus":"bees-with-color/bee-B1DM.svg","response":0,"trial_type":"image-button-response","trial_index":19,"time_elapsed":244075,"internal_node_id":"0.0-4.0-0.6","subject_id":"5e7f35ac33f8d4000aede88c","study_id":"60edd13110225f80f9f3709b","session_id":"6196c1f4444ad3255a91359c","condition":"full-information","relevant_dimensions":["antennae","wings"],"bee_group":{"antennae":"A","wings":"1","pattern":"X","legs":"X"},"action":"harvest","summary":"good-harvest","bonus":0.8600000000000009},{"rt":6108.600000023842,"stimulus":"\n                    <p><b>Action: <em>harvest</em></b></p>\n                    <p>This is the bee that you just saw.</p>\n                    <img src=\"bees-with-color/bee-B1DM.svg\" width=\"200\">\n                    <p><span class=\"greenText\"><b>Successful harvest!</b></span><br>Your pay has increased by $0.02. Your bonus pay is now $0.48.</p>\n            ","response":0,"trial_type":"html-button-response","trial_index":20,"time_elapsed":250187,"internal_node_id":"0.0-4.0-1.6","subject_id":"5e7f35ac33f8d4000aede88c","study_id":"60edd13110225f80f9f3709b","session_id":"6196c1f4444ad3255a91359c","condition":"full-information","relevant_dimensions":["antennae","wings"],"bee_group":{"antennae":"A","wings":"1","pattern":"X","legs":"X"},"bonus":0.8600000000000009},{"rt":2711,"stimulus":"bees-with-color/bee-B2DF.svg","response":1,"trial_type":"image-button-response","trial_index":21,"time_elapsed":252901,"internal_node_id":"0.0-4.0-0.7","subject_id":"5e7f35ac33f8d4000aede88c","study_id":"60edd13110225f80f9f3709b","session_id":"6196c1f4444ad3255a91359c","condition":"full-information","relevant_dimensions":["antennae","wings"],"bee_group":{"antennae":"A","wings":"1","pattern":"X","legs":"X"},"action":"avoid","summary":"bad-avoid","bonus":0.8600000000000009},{"rt":2827,"stimulus":"\n                    <p><b>Action: <em>avoid</em></b></p>\n                    <p>This is the bee that you just saw.</p>\n                    <img src=\"bees-with-color/bee-B2DF.svg\" width=\"200\">\n                    <p><span class=\"redText\">Bad choice,</span> the bee was friendly.<br>Your bonus pay is unchanged, and remains at $0.48.</p>\n            ","response":0,"trial_type":"html-button-response","trial_index":22,"time_elapsed":255731,"internal_node_id":"0.0-4.0-1.7","subject_id":"5e7f35ac33f8d4000aede88c","study_id":"60edd13110225f80f9f3709b","session_id":"6196c1f4444ad3255a91359c","condition":"full-information","relevant_dimensions":["antennae","wings"],"bee_group":{"antennae":"A","wings":"1","pattern":"X","legs":"X"},"bonus":0.8600000000000009},{"rt":3375.7999999523163,"stimulus":"bees-with-color/bee-A1SF.svg","response":0,"trial_type":"image-button-response","trial_index":23,"time_elapsed":259111,"internal_node_id":"0.0-4.0-0.8","subject_id":"5e7f35ac33f8d4000aede88c","study_id":"60edd13110225f80f9f3709b","session_id":"6196c1f4444ad3255a91359c","condition":"full-information","relevant_dimensions":["antennae","wings"],"bee_group":{"antennae":"A","wings":"1","pattern":"X","legs":"X"},"action":"harvest","summary":"bad-harvest","bonus":0.8600000000000009},{"rt":9100.799999952316,"stimulus":"\n                    <p><b>Action: <em>harvest</em></b></p>\n                    <p>This is the bee that you just saw.</p>\n                    <img src=\"bees-with-color/bee-A1SF.svg\" width=\"200\">\n                    <p><span class=\"redText\">Bad choice, the bee was angry.</span><br><b>You have been stung!</b><br>Your pay has been decreased by $0.10. Your bonus pay is now $0.38.</p>\n            ","response":0,"trial_type":"html-button-response","trial_index":24,"time_elapsed":268215,"internal_node_id":"0.0-4.0-1.8","subject_id":"5e7f35ac33f8d4000aede88c","study_id":"60edd13110225f80f9f3709b","session_id":"6196c1f4444ad3255a91359c","condition":"full-information","relevant_dimensions":["antennae","wings"],"bee_group":{"antennae":"A","wings":"1","pattern":"X","legs":"X"},"bonus":0.8600000000000009},{"rt":10935.199999928474,"stimulus":"bees-with-color/bee-B2SF.svg","response":0,"trial_type":"image-button-response","trial_index":25,"time_elapsed":279153,"internal_node_id":"0.0-4.0-0.9","subject_id":"5e7f35ac33f8d4000aede88c","study_id":"60edd13110225f80f9f3709b","session_id":"6196c1f4444ad3255a91359c","condition":"full-information","relevant_dimensions":["antennae","wings"],"bee_group":{"antennae":"A","wings":"1","pattern":"X","legs":"X"},"action":"harvest","summary":"good-harvest","bonus":0.8600000000000009},{"rt":1960.6999999284744,"stimulus":"\n                    <p><b>Action: <em>harvest</em></b></p>\n                    <p>This is the bee that you just saw.</p>\n                    <img src=\"bees-with-color/bee-B2SF.svg\" width=\"200\">\n                    <p><span class=\"greenText\"><b>Successful harvest!</b></span><br>Your pay has increased by $0.02. Your bonus pay is now $0.40.</p>\n            ","response":0,"trial_type":"html-button-response","trial_index":26,"time_elapsed":281117,"internal_node_id":"0.0-4.0-1.9","subject_id":"5e7f35ac33f8d4000aede88c","study_id":"60edd13110225f80f9f3709b","session_id":"6196c1f4444ad3255a91359c","condition":"full-information","relevant_dimensions":["antennae","wings"],"bee_group":{"antennae":"A","wings":"1","pattern":"X","legs":"X"},"bonus":0.8600000000000009},{"rt":2582.899999976158,"stimulus":"bees-with-color/bee-A2DM.svg","response":0,"trial_type":"image-button-response","trial_index":27,"time_elapsed":283703,"internal_node_id":"0.0-4.0-0.10","subject_id":"5e7f35ac33f8d4000aede88c","study_id":"60edd13110225f80f9f3709b","session_id":"6196c1f4444ad3255a91359c","condition":"full-information","relevant_dimensions":["antennae","wings"],"bee_group":{"antennae":"A","wings":"1","pattern":"X","legs":"X"},"action":"harvest","summary":"good-harvest","bonus":0.8600000000000009},{"rt":2549,"stimulus":"\n                    <p><b>Action: <em>harvest</em></b></p>\n                    <p>This is the bee that you just saw.</p>\n                    <img src=\"bees-with-color/bee-A2DM.svg\" width=\"200\">\n                    <p><span class=\"greenText\"><b>Successful harvest!</b></span><br>Your pay has increased by $0.02. Your bonus pay is now $0.42.</p>\n            ","response":0,"trial_type":"html-button-response","trial_index":28,"time_elapsed":286255,"internal_node_id":"0.0-4.0-1.10","subject_id":"5e7f35ac33f8d4000aede88c","study_id":"60edd13110225f80f9f3709b","session_id":"6196c1f4444ad3255a91359c","condition":"full-information","relevant_dimensions":["antennae","wings"],"bee_group":{"antennae":"A","wings":"1","pattern":"X","legs":"X"},"bonus":0.8600000000000009},{"rt":3311.1999999284744,"stimulus":"bees-with-color/bee-B1SM.svg","response":0,"trial_type":"image-button-response","trial_index":29,"time_elapsed":289569,"internal_node_id":"0.0-4.0-0.11","subject_id":"5e7f35ac33f8d4000aede88c","study_id":"60edd13110225f80f9f3709b","session_id":"6196c1f4444ad3255a91359c","condition":"full-information","relevant_dimensions":["antennae","wings"],"bee_group":{"antennae":"A","wings":"1","pattern":"X","legs":"X"},"action":"harvest","summary":"good-harvest","bonus":0.8600000000000009},{"rt":2332.899999976158,"stimulus":"\n                    <p><b>Action: <em>harvest</em></b></p>\n                    <p>This is the bee that you just saw.</p>\n                    <img src=\"bees-with-color/bee-B1SM.svg\" width=\"200\">\n                    <p><span class=\"greenText\"><b>Successful harvest!</b></span><br>Your pay has increased by $0.02. Your bonus pay is now $0.44.</p>\n            ","response":0,"trial_type":"html-button-response","trial_index":30,"time_elapsed":291905,"internal_node_id":"0.0-4.0-1.11","subject_id":"5e7f35ac33f8d4000aede88c","study_id":"60edd13110225f80f9f3709b","session_id":"6196c1f4444ad3255a91359c","condition":"full-information","relevant_dimensions":["antennae","wings"],"bee_group":{"antennae":"A","wings":"1","pattern":"X","legs":"X"},"bonus":0.8600000000000009},{"rt":1574.1000000238419,"stimulus":"bees-with-color/bee-A2SF.svg","response":0,"trial_type":"image-button-response","trial_index":31,"time_elapsed":293483,"internal_node_id":"0.0-4.0-0.12","subject_id":"5e7f35ac33f8d4000aede88c","study_id":"60edd13110225f80f9f3709b","session_id":"6196c1f4444ad3255a91359c","condition":"full-information","relevant_dimensions":["antennae","wings"],"bee_group":{"antennae":"A","wings":"1","pattern":"X","legs":"X"},"action":"harvest","summary":"good-harvest","bonus":0.8600000000000009},{"rt":1535.0999999046326,"stimulus":"\n                    <p><b>Action: <em>harvest</em></b></p>\n                    <p>This is the bee that you just saw.</p>\n                    <img src=\"bees-with-color/bee-A2SF.svg\" width=\"200\">\n                    <p><span class=\"greenText\"><b>Successful harvest!</b></span><br>Your pay has increased by $0.02. Your bonus pay is now $0.46.</p>\n            ","response":0,"trial_type":"html-button-response","trial_index":32,"time_elapsed":295021,"internal_node_id":"0.0-4.0-1.12","subject_id":"5e7f35ac33f8d4000aede88c","study_id":"60edd13110225f80f9f3709b","session_id":"6196c1f4444ad3255a91359c","condition":"full-information","relevant_dimensions":["antennae","wings"],"bee_group":{"antennae":"A","wings":"1","pattern":"X","legs":"X"},"bonus":0.8600000000000009},{"rt":2702.2000000476837,"stimulus":"bees-with-color/bee-A1SM.svg","response":1,"trial_type":"image-button-response","trial_index":33,"time_elapsed":297725,"internal_node_id":"0.0-4.0-0.13","subject_id":"5e7f35ac33f8d4000aede88c","study_id":"60edd13110225f80f9f3709b","session_id":"6196c1f4444ad3255a91359c","condition":"full-information","relevant_dimensions":["antennae","wings"],"bee_group":{"antennae":"A","wings":"1","pattern":"X","legs":"X"},"action":"avoid","summary":"good-avoid","bonus":0.8600000000000009},{"rt":2671.600000023842,"stimulus":"\n                    <p><b>Action: <em>avoid</em></b></p>\n                    <p>This is the bee that you just saw.</p>\n                    <img src=\"bees-with-color/bee-A1SM.svg\" width=\"200\">\n                    <p><span class=\"greenText\">Good choice!</span>  This bee would have stung you.<br>Your bonus pay is unchanged, and remains at $0.46.</p>\n            ","response":0,"trial_type":"html-button-response","trial_index":34,"time_elapsed":300399,"internal_node_id":"0.0-4.0-1.13","subject_id":"5e7f35ac33f8d4000aede88c","study_id":"60edd13110225f80f9f3709b","session_id":"6196c1f4444ad3255a91359c","condition":"full-information","relevant_dimensions":["antennae","wings"],"bee_group":{"antennae":"A","wings":"1","pattern":"X","legs":"X"},"bonus":0.8600000000000009},{"rt":3113.600000023842,"stimulus":"bees-with-color/bee-B1DF.svg","response":0,"trial_type":"image-button-response","trial_index":35,"time_elapsed":303515,"internal_node_id":"0.0-4.0-0.14","subject_id":"5e7f35ac33f8d4000aede88c","study_id":"60edd13110225f80f9f3709b","session_id":"6196c1f4444ad3255a91359c","condition":"full-information","relevant_dimensions":["antennae","wings"],"bee_group":{"antennae":"A","wings":"1","pattern":"X","legs":"X"},"action":"harvest","summary":"good-harvest","bonus":0.8600000000000009},{"rt":2071.7000000476837,"stimulus":"\n                    <p><b>Action: <em>harvest</em></b></p>\n                    <p>This is the bee that you just saw.</p>\n                    <img src=\"bees-with-color/bee-B1DF.svg\" width=\"200\">\n                    <p><span class=\"greenText\"><b>Successful harvest!</b></span><br>Your pay has increased by $0.02. Your bonus pay is now $0.48.</p>\n            ","response":0,"trial_type":"html-button-response","trial_index":36,"time_elapsed":305589,"internal_node_id":"0.0-4.0-1.14","subject_id":"5e7f35ac33f8d4000aede88c","study_id":"60edd13110225f80f9f3709b","session_id":"6196c1f4444ad3255a91359c","condition":"full-information","relevant_dimensions":["antennae","wings"],"bee_group":{"antennae":"A","wings":"1","pattern":"X","legs":"X"},"bonus":0.8600000000000009},{"rt":2765.5,"stimulus":"bees-with-color/bee-A2DF.svg","response":1,"trial_type":"image-button-response","trial_index":37,"time_elapsed":308357,"internal_node_id":"0.0-4.0-0.15","subject_id":"5e7f35ac33f8d4000aede88c","study_id":"60edd13110225f80f9f3709b","session_id":"6196c1f4444ad3255a91359c","condition":"full-information","relevant_dimensions":["antennae","wings"],"bee_group":{"antennae":"A","wings":"1","pattern":"X","legs":"X"},"action":"avoid","summary":"bad-avoid","bonus":0.8600000000000009},{"rt":2568.899999976158,"stimulus":"\n                    <p><b>Action: <em>avoid</em></b></p>\n                    <p>This is the bee that you just saw.</p>\n                    <img src=\"bees-with-color/bee-A2DF.svg\" width=\"200\">\n                    <p><span class=\"redText\">Bad choice,</span> the bee was friendly.<br>Your bonus pay is unchanged, and remains at $0.48.</p>\n            ","response":0,"trial_type":"html-button-response","trial_index":38,"time_elapsed":310929,"internal_node_id":"0.0-4.0-1.15","subject_id":"5e7f35ac33f8d4000aede88c","study_id":"60edd13110225f80f9f3709b","session_id":"6196c1f4444ad3255a91359c","condition":"full-information","relevant_dimensions":["antennae","wings"],"bee_group":{"antennae":"A","wings":"1","pattern":"X","legs":"X"},"bonus":0.8600000000000009},{"rt":2636.100000023842,"stimulus":"bees-with-color/bee-A2SM.svg","response":0,"trial_type":"image-button-response","trial_index":39,"time_elapsed":313567,"internal_node_id":"0.0-4.0-0.16","subject_id":"5e7f35ac33f8d4000aede88c","study_id":"60edd13110225f80f9f3709b","session_id":"6196c1f4444ad3255a91359c","condition":"full-information","relevant_dimensions":["antennae","wings"],"bee_group":{"antennae":"A","wings":"1","pattern":"X","legs":"X"},"action":"harvest","summary":"good-harvest","bonus":0.8600000000000009},{"rt":3609.600000023842,"stimulus":"\n                    <p><b>Action: <em>harvest</em></b></p>\n                    <p>This is the bee that you just saw.</p>\n                    <img src=\"bees-with-color/bee-A2SM.svg\" width=\"200\">\n                    <p><span class=\"greenText\"><b>Successful harvest!</b></span><br>Your pay has increased by $0.02. Your bonus pay is now $0.50.</p>\n            ","response":0,"trial_type":"html-button-response","trial_index":40,"time_elapsed":317179,"internal_node_id":"0.0-4.0-1.16","subject_id":"5e7f35ac33f8d4000aede88c","study_id":"60edd13110225f80f9f3709b","session_id":"6196c1f4444ad3255a91359c","condition":"full-information","relevant_dimensions":["antennae","wings"],"bee_group":{"antennae":"A","wings":"1","pattern":"X","legs":"X"},"bonus":0.8600000000000009},{"rt":2857.6999999284744,"stimulus":"bees-with-color/bee-A2DM.svg","response":0,"trial_type":"image-button-response","trial_index":41,"time_elapsed":320039,"internal_node_id":"0.0-4.0-0.17","subject_id":"5e7f35ac33f8d4000aede88c","study_id":"60edd13110225f80f9f3709b","session_id":"6196c1f4444ad3255a91359c","condition":"full-information","relevant_dimensions":["antennae","wings"],"bee_group":{"antennae":"A","wings":"1","pattern":"X","legs":"X"},"action":"harvest","summary":"good-harvest","bonus":0.8600000000000009},{"rt":1509.3999999761581,"stimulus":"\n                    <p><b>Action: <em>harvest</em></b></p>\n                    <p>This is the bee that you just saw.</p>\n                    <img src=\"bees-with-color/bee-A2DM.svg\" width=\"200\">\n                    <p><span class=\"greenText\"><b>Successful harvest!</b></span><br>Your pay has increased by $0.02. Your bonus pay is now $0.52.</p>\n            ","response":0,"trial_type":"html-button-response","trial_index":42,"time_elapsed":321551,"internal_node_id":"0.0-4.0-1.17","subject_id":"5e7f35ac33f8d4000aede88c","study_id":"60edd13110225f80f9f3709b","session_id":"6196c1f4444ad3255a91359c","condition":"full-information","relevant_dimensions":["antennae","wings"],"bee_group":{"antennae":"A","wings":"1","pattern":"X","legs":"X"},"bonus":0.8600000000000009},{"rt":5303.799999952316,"stimulus":"bees-with-color/bee-B2SM.svg","response":1,"trial_type":"image-button-response","trial_index":43,"time_elapsed":326857,"internal_node_id":"0.0-4.0-0.18","subject_id":"5e7f35ac33f8d4000aede88c","study_id":"60edd13110225f80f9f3709b","session_id":"6196c1f4444ad3255a91359c","condition":"full-information","relevant_dimensions":["antennae","wings"],"bee_group":{"antennae":"A","wings":"1","pattern":"X","legs":"X"},"action":"avoid","summary":"bad-avoid","bonus":0.8600000000000009},{"rt":1577.2000000476837,"stimulus":"\n                    <p><b>Action: <em>avoid</em></b></p>\n                    <p>This is the bee that you just saw.</p>\n                    <img src=\"bees-with-color/bee-B2SM.svg\" width=\"200\">\n                    <p><span class=\"redText\">Bad choice,</span> the bee was friendly.<br>Your bonus pay is unchanged, and remains at $0.52.</p>\n            ","response":0,"trial_type":"html-button-response","trial_index":44,"time_elapsed":328437,"internal_node_id":"0.0-4.0-1.18","subject_id":"5e7f35ac33f8d4000aede88c","study_id":"60edd13110225f80f9f3709b","session_id":"6196c1f4444ad3255a91359c","condition":"full-information","relevant_dimensions":["antennae","wings"],"bee_group":{"antennae":"A","wings":"1","pattern":"X","legs":"X"},"bonus":0.8600000000000009},{"rt":1863.3999999761581,"stimulus":"bees-with-color/bee-B2DM.svg","response":1,"trial_type":"image-button-response","trial_index":45,"time_elapsed":330303,"internal_node_id":"0.0-4.0-0.19","subject_id":"5e7f35ac33f8d4000aede88c","study_id":"60edd13110225f80f9f3709b","session_id":"6196c1f4444ad3255a91359c","condition":"full-information","relevant_dimensions":["antennae","wings"],"bee_group":{"antennae":"A","wings":"1","pattern":"X","legs":"X"},"action":"avoid","summary":"bad-avoid","bonus":0.8600000000000009},{"rt":1799.2000000476837,"stimulus":"\n                    <p><b>Action: <em>avoid</em></b></p>\n                    <p>This is the bee that you just saw.</p>\n                    <img src=\"bees-with-color/bee-B2DM.svg\" width=\"200\">\n                    <p><span class=\"redText\">Bad choice,</span> the bee was friendly.<br>Your bonus pay is unchanged, and remains at $0.52.</p>\n            ","response":0,"trial_type":"html-button-response","trial_index":46,"time_elapsed":332105,"internal_node_id":"0.0-4.0-1.19","subject_id":"5e7f35ac33f8d4000aede88c","study_id":"60edd13110225f80f9f3709b","session_id":"6196c1f4444ad3255a91359c","condition":"full-information","relevant_dimensions":["antennae","wings"],"bee_group":{"antennae":"A","wings":"1","pattern":"X","legs":"X"},"bonus":0.8600000000000009},{"rt":3371.7000000476837,"stimulus":"bees-with-color/bee-B1SM.svg","response":1,"trial_type":"image-button-response","trial_index":47,"time_elapsed":335479,"internal_node_id":"0.0-4.0-0.20","subject_id":"5e7f35ac33f8d4000aede88c","study_id":"60edd13110225f80f9f3709b","session_id":"6196c1f4444ad3255a91359c","condition":"full-information","relevant_dimensions":["antennae","wings"],"bee_group":{"antennae":"A","wings":"1","pattern":"X","legs":"X"},"action":"avoid","summary":"bad-avoid","bonus":0.8600000000000009},{"rt":1799.5,"stimulus":"\n                    <p><b>Action: <em>avoid</em></b></p>\n                    <p>This is the bee that you just saw.</p>\n                    <img src=\"bees-with-color/bee-B1SM.svg\" width=\"200\">\n                    <p><span class=\"redText\">Bad choice,</span> the bee was friendly.<br>Your bonus pay is unchanged, and remains at $0.52.</p>\n            ","response":0,"trial_type":"html-button-response","trial_index":48,"time_elapsed":337281,"internal_node_id":"0.0-4.0-1.20","subject_id":"5e7f35ac33f8d4000aede88c","study_id":"60edd13110225f80f9f3709b","session_id":"6196c1f4444ad3255a91359c","condition":"full-information","relevant_dimensions":["antennae","wings"],"bee_group":{"antennae":"A","wings":"1","pattern":"X","legs":"X"},"bonus":0.8600000000000009},{"rt":1811.3999999761581,"stimulus":"bees-with-color/bee-A1DM.svg","response":1,"trial_type":"image-button-response","trial_index":49,"time_elapsed":339095,"internal_node_id":"0.0-4.0-0.21","subject_id":"5e7f35ac33f8d4000aede88c","study_id":"60edd13110225f80f9f3709b","session_id":"6196c1f4444ad3255a91359c","condition":"full-information","relevant_dimensions":["antennae","wings"],"bee_group":{"antennae":"A","wings":"1","pattern":"X","legs":"X"},"action":"avoid","summary":"good-avoid","bonus":0.8600000000000009},{"rt":2983.3000000715256,"stimulus":"\n                    <p><b>Action: <em>avoid</em></b></p>\n                    <p>This is the bee that you just saw.</p>\n                    <img src=\"bees-with-color/bee-A1DM.svg\" width=\"200\">\n                    <p><span class=\"greenText\">Good choice!</span>  This bee would have stung you.<br>Your bonus pay is unchanged, and remains at $0.52.</p>\n            ","response":0,"trial_type":"html-button-response","trial_index":50,"time_elapsed":342081,"internal_node_id":"0.0-4.0-1.21","subject_id":"5e7f35ac33f8d4000aede88c","study_id":"60edd13110225f80f9f3709b","session_id":"6196c1f4444ad3255a91359c","condition":"full-information","relevant_dimensions":["antennae","wings"],"bee_group":{"antennae":"A","wings":"1","pattern":"X","legs":"X"},"bonus":0.8600000000000009},{"rt":2045.2000000476837,"stimulus":"bees-with-color/bee-A1SF.svg","response":1,"trial_type":"image-button-response","trial_index":51,"time_elapsed":344129,"internal_node_id":"0.0-4.0-0.22","subject_id":"5e7f35ac33f8d4000aede88c","study_id":"60edd13110225f80f9f3709b","session_id":"6196c1f4444ad3255a91359c","condition":"full-information","relevant_dimensions":["antennae","wings"],"bee_group":{"antennae":"A","wings":"1","pattern":"X","legs":"X"},"action":"avoid","summary":"good-avoid","bonus":0.8600000000000009},{"rt":1914.8000000715256,"stimulus":"\n                    <p><b>Action: <em>avoid</em></b></p>\n                    <p>This is the bee that you just saw.</p>\n                    <img src=\"bees-with-color/bee-A1SF.svg\" width=\"200\">\n                    <p><span class=\"greenText\">Good choice!</span>  This bee would have stung you.<br>Your bonus pay is unchanged, and remains at $0.52.</p>\n            ","response":0,"trial_type":"html-button-response","trial_index":52,"time_elapsed":346047,"internal_node_id":"0.0-4.0-1.22","subject_id":"5e7f35ac33f8d4000aede88c","study_id":"60edd13110225f80f9f3709b","session_id":"6196c1f4444ad3255a91359c","condition":"full-information","relevant_dimensions":["antennae","wings"],"bee_group":{"antennae":"A","wings":"1","pattern":"X","legs":"X"},"bonus":0.8600000000000009},{"rt":2135,"stimulus":"bees-with-color/bee-B2SF.svg","response":0,"trial_type":"image-button-response","trial_index":53,"time_elapsed":348185,"internal_node_id":"0.0-4.0-0.23","subject_id":"5e7f35ac33f8d4000aede88c","study_id":"60edd13110225f80f9f3709b","session_id":"6196c1f4444ad3255a91359c","condition":"full-information","relevant_dimensions":["antennae","wings"],"bee_group":{"antennae":"A","wings":"1","pattern":"X","legs":"X"},"action":"harvest","summary":"good-harvest","bonus":0.8600000000000009},{"rt":1766.8999999761581,"stimulus":"\n                    <p><b>Action: <em>harvest</em></b></p>\n                    <p>This is the bee that you just saw.</p>\n                    <img src=\"bees-with-color/bee-B2SF.svg\" width=\"200\">\n                    <p><span class=\"greenText\"><b>Successful harvest!</b></span><br>Your pay has increased by $0.02. Your bonus pay is now $0.54.</p>\n            ","response":0,"trial_type":"html-button-response","trial_index":54,"time_elapsed":349955,"internal_node_id":"0.0-4.0-1.23","subject_id":"5e7f35ac33f8d4000aede88c","study_id":"60edd13110225f80f9f3709b","session_id":"6196c1f4444ad3255a91359c","condition":"full-information","relevant_dimensions":["antennae","wings"],"bee_group":{"antennae":"A","wings":"1","pattern":"X","legs":"X"},"bonus":0.8600000000000009},{"rt":3054.7000000476837,"stimulus":"bees-with-color/bee-A1DF.svg","response":1,"trial_type":"image-button-response","trial_index":55,"time_elapsed":353013,"internal_node_id":"0.0-4.0-0.24","subject_id":"5e7f35ac33f8d4000aede88c","study_id":"60edd13110225f80f9f3709b","session_id":"6196c1f4444ad3255a91359c","condition":"full-information","relevant_dimensions":["antennae","wings"],"bee_group":{"antennae":"A","wings":"1","pattern":"X","legs":"X"},"action":"avoid","summary":"good-avoid","bonus":0.8600000000000009},{"rt":2549,"stimulus":"\n                    <p><b>Action: <em>avoid</em></b></p>\n                    <p>This is the bee that you just saw.</p>\n                    <img src=\"bees-with-color/bee-A1DF.svg\" width=\"200\">\n                    <p><span class=\"greenText\">Good choice!</span>  This bee would have stung you.<br>Your bonus pay is unchanged, and remains at $0.54.</p>\n            ","response":0,"trial_type":"html-button-response","trial_index":56,"time_elapsed":355565,"internal_node_id":"0.0-4.0-1.24","subject_id":"5e7f35ac33f8d4000aede88c","study_id":"60edd13110225f80f9f3709b","session_id":"6196c1f4444ad3255a91359c","condition":"full-information","relevant_dimensions":["antennae","wings"],"bee_group":{"antennae":"A","wings":"1","pattern":"X","legs":"X"},"bonus":0.8600000000000009},{"rt":4879.400000095367,"stimulus":"bees-with-color/bee-B1SF.svg","response":0,"trial_type":"image-button-response","trial_index":57,"time_elapsed":360447,"internal_node_id":"0.0-4.0-0.25","subject_id":"5e7f35ac33f8d4000aede88c","study_id":"60edd13110225f80f9f3709b","session_id":"6196c1f4444ad3255a91359c","condition":"full-information","relevant_dimensions":["antennae","wings"],"bee_group":{"antennae":"A","wings":"1","pattern":"X","legs":"X"},"action":"harvest","summary":"good-harvest","bonus":0.8600000000000009},{"rt":1335.2999999523163,"stimulus":"\n                    <p><b>Action: <em>harvest</em></b></p>\n                    <p>This is the bee that you just saw.</p>\n                    <img src=\"bees-with-color/bee-B1SF.svg\" width=\"200\">\n                    <p><span class=\"greenText\"><b>Successful harvest!</b></span><br>Your pay has increased by $0.02. Your bonus pay is now $0.56.</p>\n            ","response":0,"trial_type":"html-button-response","trial_index":58,"time_elapsed":361786,"internal_node_id":"0.0-4.0-1.25","subject_id":"5e7f35ac33f8d4000aede88c","study_id":"60edd13110225f80f9f3709b","session_id":"6196c1f4444ad3255a91359c","condition":"full-information","relevant_dimensions":["antennae","wings"],"bee_group":{"antennae":"A","wings":"1","pattern":"X","legs":"X"},"bonus":0.8600000000000009},{"rt":1127.1999999284744,"stimulus":"bees-with-color/bee-B1DF.svg","response":0,"trial_type":"image-button-response","trial_index":59,"time_elapsed":362916,"internal_node_id":"0.0-4.0-0.26","subject_id":"5e7f35ac33f8d4000aede88c","study_id":"60edd13110225f80f9f3709b","session_id":"6196c1f4444ad3255a91359c","condition":"full-information","relevant_dimensions":["antennae","wings"],"bee_group":{"antennae":"A","wings":"1","pattern":"X","legs":"X"},"action":"harvest","summary":"good-harvest","bonus":0.8600000000000009},{"rt":1160.7000000476837,"stimulus":"\n                    <p><b>Action: <em>harvest</em></b></p>\n                    <p>This is the bee that you just saw.</p>\n                    <img src=\"bees-with-color/bee-B1DF.svg\" width=\"200\">\n                    <p><span class=\"greenText\"><b>Successful harvest!</b></span><br>Your pay has increased by $0.02. Your bonus pay is now $0.58.</p>\n            ","response":0,"trial_type":"html-button-response","trial_index":60,"time_elapsed":364080,"internal_node_id":"0.0-4.0-1.26","subject_id":"5e7f35ac33f8d4000aede88c","study_id":"60edd13110225f80f9f3709b","session_id":"6196c1f4444ad3255a91359c","condition":"full-information","relevant_dimensions":["antennae","wings"],"bee_group":{"antennae":"A","wings":"1","pattern":"X","legs":"X"},"bonus":0.8600000000000009},{"rt":1520.8999999761581,"stimulus":"bees-with-color/bee-A1SM.svg","response":1,"trial_type":"image-button-response","trial_index":61,"time_elapsed":365604,"internal_node_id":"0.0-4.0-0.27","subject_id":"5e7f35ac33f8d4000aede88c","study_id":"60edd13110225f80f9f3709b","session_id":"6196c1f4444ad3255a91359c","condition":"full-information","relevant_dimensions":["antennae","wings"],"bee_group":{"antennae":"A","wings":"1","pattern":"X","legs":"X"},"action":"avoid","summary":"good-avoid","bonus":0.8600000000000009},{"rt":1394.7000000476837,"stimulus":"\n                    <p><b>Action: <em>avoid</em></b></p>\n                    <p>This is the bee that you just saw.</p>\n                    <img src=\"bees-with-color/bee-A1SM.svg\" width=\"200\">\n                    <p><span class=\"greenText\">Good choice!</span>  This bee would have stung you.<br>Your bonus pay is unchanged, and remains at $0.58.</p>\n            ","response":0,"trial_type":"html-button-response","trial_index":62,"time_elapsed":367001,"internal_node_id":"0.0-4.0-1.27","subject_id":"5e7f35ac33f8d4000aede88c","study_id":"60edd13110225f80f9f3709b","session_id":"6196c1f4444ad3255a91359c","condition":"full-information","relevant_dimensions":["antennae","wings"],"bee_group":{"antennae":"A","wings":"1","pattern":"X","legs":"X"},"bonus":0.8600000000000009},{"rt":1914,"stimulus":"bees-with-color/bee-B1DM.svg","response":0,"trial_type":"image-button-response","trial_index":63,"time_elapsed":368918,"internal_node_id":"0.0-4.0-0.28","subject_id":"5e7f35ac33f8d4000aede88c","study_id":"60edd13110225f80f9f3709b","session_id":"6196c1f4444ad3255a91359c","condition":"full-information","relevant_dimensions":["antennae","wings"],"bee_group":{"antennae":"A","wings":"1","pattern":"X","legs":"X"},"action":"harvest","summary":"good-harvest","bonus":0.8600000000000009},{"rt":1136.1000000238419,"stimulus":"\n                    <p><b>Action: <em>harvest</em></b></p>\n                    <p>This is the bee that you just saw.</p>\n                    <img src=\"bees-with-color/bee-B1DM.svg\" width=\"200\">\n                    <p><span class=\"greenText\"><b>Successful harvest!</b></span><br>Your pay has increased by $0.02. Your bonus pay is now $0.60.</p>\n            ","response":0,"trial_type":"html-button-response","trial_index":64,"time_elapsed":370057,"internal_node_id":"0.0-4.0-1.28","subject_id":"5e7f35ac33f8d4000aede88c","study_id":"60edd13110225f80f9f3709b","session_id":"6196c1f4444ad3255a91359c","condition":"full-information","relevant_dimensions":["antennae","wings"],"bee_group":{"antennae":"A","wings":"1","pattern":"X","legs":"X"},"bonus":0.8600000000000009},{"rt":1249.2999999523163,"stimulus":"bees-with-color/bee-B2DF.svg","response":0,"trial_type":"image-button-response","trial_index":65,"time_elapsed":371310,"internal_node_id":"0.0-4.0-0.29","subject_id":"5e7f35ac33f8d4000aede88c","study_id":"60edd13110225f80f9f3709b","session_id":"6196c1f4444ad3255a91359c","condition":"full-information","relevant_dimensions":["antennae","wings"],"bee_group":{"antennae":"A","wings":"1","pattern":"X","legs":"X"},"action":"harvest","summary":"good-harvest","bonus":0.8600000000000009},{"rt":1379.1999999284744,"stimulus":"\n                    <p><b>Action: <em>harvest</em></b></p>\n                    <p>This is the bee that you just saw.</p>\n                    <img src=\"bees-with-color/bee-B2DF.svg\" width=\"200\">\n                    <p><span class=\"greenText\"><b>Successful harvest!</b></span><br>Your pay has increased by $0.02. Your bonus pay is now $0.62.</p>\n            ","response":0,"trial_type":"html-button-response","trial_index":66,"time_elapsed":372691,"internal_node_id":"0.0-4.0-1.29","subject_id":"5e7f35ac33f8d4000aede88c","study_id":"60edd13110225f80f9f3709b","session_id":"6196c1f4444ad3255a91359c","condition":"full-information","relevant_dimensions":["antennae","wings"],"bee_group":{"antennae":"A","wings":"1","pattern":"X","legs":"X"},"bonus":0.8600000000000009},{"rt":1076.2999999523163,"stimulus":"bees-with-color/bee-A2SF.svg","response":1,"trial_type":"image-button-response","trial_index":67,"time_elapsed":373769,"internal_node_id":"0.0-4.0-0.30","subject_id":"5e7f35ac33f8d4000aede88c","study_id":"60edd13110225f80f9f3709b","session_id":"6196c1f4444ad3255a91359c","condition":"full-information","relevant_dimensions":["antennae","wings"],"bee_group":{"antennae":"A","wings":"1","pattern":"X","legs":"X"},"action":"avoid","summary":"bad-avoid","bonus":0.8600000000000009},{"rt":4497.5,"stimulus":"\n                    <p><b>Action: <em>avoid</em></b></p>\n                    <p>This is the bee that you just saw.</p>\n                    <img src=\"bees-with-color/bee-A2SF.svg\" width=\"200\">\n                    <p><span class=\"redText\">Bad choice,</span> the bee was friendly.<br>Your bonus pay is unchanged, and remains at $0.62.</p>\n            ","response":0,"trial_type":"html-button-response","trial_index":68,"time_elapsed":378269,"internal_node_id":"0.0-4.0-1.30","subject_id":"5e7f35ac33f8d4000aede88c","study_id":"60edd13110225f80f9f3709b","session_id":"6196c1f4444ad3255a91359c","condition":"full-information","relevant_dimensions":["antennae","wings"],"bee_group":{"antennae":"A","wings":"1","pattern":"X","legs":"X"},"bonus":0.8600000000000009},{"rt":1646.1000000238419,"stimulus":"bees-with-color/bee-A2DF.svg","response":1,"trial_type":"image-button-response","trial_index":69,"time_elapsed":379917,"internal_node_id":"0.0-4.0-0.31","subject_id":"5e7f35ac33f8d4000aede88c","study_id":"60edd13110225f80f9f3709b","session_id":"6196c1f4444ad3255a91359c","condition":"full-information","relevant_dimensions":["antennae","wings"],"bee_group":{"antennae":"A","wings":"1","pattern":"X","legs":"X"},"action":"avoid","summary":"bad-avoid","bonus":0.8600000000000009},{"rt":2455.3000000715256,"stimulus":"\n                    <p><b>Action: <em>avoid</em></b></p>\n                    <p>This is the bee that you just saw.</p>\n                    <img src=\"bees-with-color/bee-A2DF.svg\" width=\"200\">\n                    <p><span class=\"redText\">Bad choice,</span> the bee was friendly.<br>Your bonus pay is unchanged, and remains at $0.62.</p>\n            ","response":0,"trial_type":"html-button-response","trial_index":70,"time_elapsed":382375,"internal_node_id":"0.0-4.0-1.31","subject_id":"5e7f35ac33f8d4000aede88c","study_id":"60edd13110225f80f9f3709b","session_id":"6196c1f4444ad3255a91359c","condition":"full-information","relevant_dimensions":["antennae","wings"],"bee_group":{"antennae":"A","wings":"1","pattern":"X","legs":"X"},"bonus":0.8600000000000009},{"rt":2311.399999976158,"stimulus":"bees-with-color/bee-A1DF.svg","response":1,"trial_type":"image-button-response","trial_index":71,"time_elapsed":384689,"internal_node_id":"0.0-4.0-0.32","subject_id":"5e7f35ac33f8d4000aede88c","study_id":"60edd13110225f80f9f3709b","session_id":"6196c1f4444ad3255a91359c","condition":"full-information","relevant_dimensions":["antennae","wings"],"bee_group":{"antennae":"A","wings":"1","pattern":"X","legs":"X"},"action":"avoid","summary":"good-avoid","bonus":0.8600000000000009},{"rt":1531.6999999284744,"stimulus":"\n                    <p><b>Action: <em>avoid</em></b></p>\n                    <p>This is the bee that you just saw.</p>\n                    <img src=\"bees-with-color/bee-A1DF.svg\" width=\"200\">\n                    <p><span class=\"greenText\">Good choice!</span>  This bee would have stung you.<br>Your bonus pay is unchanged, and remains at $0.62.</p>\n            ","response":0,"trial_type":"html-button-response","trial_index":72,"time_elapsed":386223,"internal_node_id":"0.0-4.0-1.32","subject_id":"5e7f35ac33f8d4000aede88c","study_id":"60edd13110225f80f9f3709b","session_id":"6196c1f4444ad3255a91359c","condition":"full-information","relevant_dimensions":["antennae","wings"],"bee_group":{"antennae":"A","wings":"1","pattern":"X","legs":"X"},"bonus":0.8600000000000009},{"rt":2302.100000023842,"stimulus":"bees-with-color/bee-B1SM.svg","response":0,"trial_type":"image-button-response","trial_index":73,"time_elapsed":388527,"internal_node_id":"0.0-4.0-0.33","subject_id":"5e7f35ac33f8d4000aede88c","study_id":"60edd13110225f80f9f3709b","session_id":"6196c1f4444ad3255a91359c","condition":"full-information","relevant_dimensions":["antennae","wings"],"bee_group":{"antennae":"A","wings":"1","pattern":"X","legs":"X"},"action":"harvest","summary":"good-harvest","bonus":0.8600000000000009},{"rt":1177,"stimulus":"\n                    <p><b>Action: <em>harvest</em></b></p>\n                    <p>This is the bee that you just saw.</p>\n                    <img src=\"bees-with-color/bee-B1SM.svg\" width=\"200\">\n                    <p><span class=\"greenText\"><b>Successful harvest!</b></span><br>Your pay has increased by $0.02. Your bonus pay is now $0.64.</p>\n            ","response":0,"trial_type":"html-button-response","trial_index":74,"time_elapsed":389707,"internal_node_id":"0.0-4.0-1.33","subject_id":"5e7f35ac33f8d4000aede88c","study_id":"60edd13110225f80f9f3709b","session_id":"6196c1f4444ad3255a91359c","condition":"full-information","relevant_dimensions":["antennae","wings"],"bee_group":{"antennae":"A","wings":"1","pattern":"X","legs":"X"},"bonus":0.8600000000000009},{"rt":946,"stimulus":"bees-with-color/bee-B2DM.svg","response":0,"trial_type":"image-button-response","trial_index":75,"time_elapsed":390655,"internal_node_id":"0.0-4.0-0.34","subject_id":"5e7f35ac33f8d4000aede88c","study_id":"60edd13110225f80f9f3709b","session_id":"6196c1f4444ad3255a91359c","condition":"full-information","relevant_dimensions":["antennae","wings"],"bee_group":{"antennae":"A","wings":"1","pattern":"X","legs":"X"},"action":"harvest","summary":"good-harvest","bonus":0.8600000000000009},{"rt":941.5,"stimulus":"\n                    <p><b>Action: <em>harvest</em></b></p>\n                    <p>This is the bee that you just saw.</p>\n                    <img src=\"bees-with-color/bee-B2DM.svg\" width=\"200\">\n                    <p><span class=\"greenText\"><b>Successful harvest!</b></span><br>Your pay has increased by $0.02. Your bonus pay is now $0.66.</p>\n            ","response":0,"trial_type":"html-button-response","trial_index":76,"time_elapsed":391599,"internal_node_id":"0.0-4.0-1.34","subject_id":"5e7f35ac33f8d4000aede88c","study_id":"60edd13110225f80f9f3709b","session_id":"6196c1f4444ad3255a91359c","condition":"full-information","relevant_dimensions":["antennae","wings"],"bee_group":{"antennae":"A","wings":"1","pattern":"X","legs":"X"},"bonus":0.8600000000000009},{"rt":1692.6000000238419,"stimulus":"bees-with-color/bee-B1DF.svg","response":0,"trial_type":"image-button-response","trial_index":77,"time_elapsed":393293,"internal_node_id":"0.0-4.0-0.35","subject_id":"5e7f35ac33f8d4000aede88c","study_id":"60edd13110225f80f9f3709b","session_id":"6196c1f4444ad3255a91359c","condition":"full-information","relevant_dimensions":["antennae","wings"],"bee_group":{"antennae":"A","wings":"1","pattern":"X","legs":"X"},"action":"harvest","summary":"good-harvest","bonus":0.8600000000000009},{"rt":1202.7999999523163,"stimulus":"\n                    <p><b>Action: <em>harvest</em></b></p>\n                    <p>This is the bee that you just saw.</p>\n                    <img src=\"bees-with-color/bee-B1DF.svg\" width=\"200\">\n                    <p><span class=\"greenText\"><b>Successful harvest!</b></span><br>Your pay has increased by $0.02. Your bonus pay is now $0.68.</p>\n            ","response":0,"trial_type":"html-button-response","trial_index":78,"time_elapsed":394499,"internal_node_id":"0.0-4.0-1.35","subject_id":"5e7f35ac33f8d4000aede88c","study_id":"60edd13110225f80f9f3709b","session_id":"6196c1f4444ad3255a91359c","condition":"full-information","relevant_dimensions":["antennae","wings"],"bee_group":{"antennae":"A","wings":"1","pattern":"X","legs":"X"},"bonus":0.8600000000000009},{"rt":2974.2999999523163,"stimulus":"bees-with-color/bee-A1SF.svg","response":0,"trial_type":"image-button-response","trial_index":79,"time_elapsed":397475,"internal_node_id":"0.0-4.0-0.36","subject_id":"5e7f35ac33f8d4000aede88c","study_id":"60edd13110225f80f9f3709b","session_id":"6196c1f4444ad3255a91359c","condition":"full-information","relevant_dimensions":["antennae","wings"],"bee_group":{"antennae":"A","wings":"1","pattern":"X","legs":"X"},"action":"harvest","summary":"bad-harvest","bonus":0.8600000000000009},{"rt":3884.6999999284744,"stimulus":"\n                    <p><b>Action: <em>harvest</em></b></p>\n                    <p>This is the bee that you just saw.</p>\n                    <img src=\"bees-with-color/bee-A1SF.svg\" width=\"200\">\n                    <p><span class=\"redText\">Bad choice, the bee was angry.</span><br><b>You have been stung!</b><br>Your pay has been decreased by $0.10. Your bonus pay is now $0.58.</p>\n            ","response":0,"trial_type":"html-button-response","trial_index":80,"time_elapsed":401363,"internal_node_id":"0.0-4.0-1.36","subject_id":"5e7f35ac33f8d4000aede88c","study_id":"60edd13110225f80f9f3709b","session_id":"6196c1f4444ad3255a91359c","condition":"full-information","relevant_dimensions":["antennae","wings"],"bee_group":{"antennae":"A","wings":"1","pattern":"X","legs":"X"},"bonus":0.8600000000000009},{"rt":2307.7999999523163,"stimulus":"bees-with-color/bee-B2DF.svg","response":0,"trial_type":"image-button-response","trial_index":81,"time_elapsed":403673,"internal_node_id":"0.0-4.0-0.37","subject_id":"5e7f35ac33f8d4000aede88c","study_id":"60edd13110225f80f9f3709b","session_id":"6196c1f4444ad3255a91359c","condition":"full-information","relevant_dimensions":["antennae","wings"],"bee_group":{"antennae":"A","wings":"1","pattern":"X","legs":"X"},"action":"harvest","summary":"good-harvest","bonus":0.8600000000000009},{"rt":1839.6999999284744,"stimulus":"\n                    <p><b>Action: <em>harvest</em></b></p>\n                    <p>This is the bee that you just saw.</p>\n                    <img src=\"bees-with-color/bee-B2DF.svg\" width=\"200\">\n                    <p><span class=\"greenText\"><b>Successful harvest!</b></span><br>Your pay has increased by $0.02. Your bonus pay is now $0.60.</p>\n            ","response":0,"trial_type":"html-button-response","trial_index":82,"time_elapsed":405515,"internal_node_id":"0.0-4.0-1.37","subject_id":"5e7f35ac33f8d4000aede88c","study_id":"60edd13110225f80f9f3709b","session_id":"6196c1f4444ad3255a91359c","condition":"full-information","relevant_dimensions":["antennae","wings"],"bee_group":{"antennae":"A","wings":"1","pattern":"X","legs":"X"},"bonus":0.8600000000000009},{"rt":1783.8999999761581,"stimulus":"bees-with-color/bee-B2SM.svg","response":0,"trial_type":"image-button-response","trial_index":83,"time_elapsed":407302,"internal_node_id":"0.0-4.0-0.38","subject_id":"5e7f35ac33f8d4000aede88c","study_id":"60edd13110225f80f9f3709b","session_id":"6196c1f4444ad3255a91359c","condition":"full-information","relevant_dimensions":["antennae","wings"],"bee_group":{"antennae":"A","wings":"1","pattern":"X","legs":"X"},"action":"harvest","summary":"good-harvest","bonus":0.8600000000000009},{"rt":1273.5,"stimulus":"\n                    <p><b>Action: <em>harvest</em></b></p>\n                    <p>This is the bee that you just saw.</p>\n                    <img src=\"bees-with-color/bee-B2SM.svg\" width=\"200\">\n                    <p><span class=\"greenText\"><b>Successful harvest!</b></span><br>Your pay has increased by $0.02. Your bonus pay is now $0.62.</p>\n            ","response":0,"trial_type":"html-button-response","trial_index":84,"time_elapsed":408578,"internal_node_id":"0.0-4.0-1.38","subject_id":"5e7f35ac33f8d4000aede88c","study_id":"60edd13110225f80f9f3709b","session_id":"6196c1f4444ad3255a91359c","condition":"full-information","relevant_dimensions":["antennae","wings"],"bee_group":{"antennae":"A","wings":"1","pattern":"X","legs":"X"},"bonus":0.8600000000000009},{"rt":1711.2999999523163,"stimulus":"bees-with-color/bee-A2DM.svg","response":1,"trial_type":"image-button-response","trial_index":85,"time_elapsed":410292,"internal_node_id":"0.0-4.0-0.39","subject_id":"5e7f35ac33f8d4000aede88c","study_id":"60edd13110225f80f9f3709b","session_id":"6196c1f4444ad3255a91359c","condition":"full-information","relevant_dimensions":["antennae","wings"],"bee_group":{"antennae":"A","wings":"1","pattern":"X","legs":"X"},"action":"avoid","summary":"bad-avoid","bonus":0.8600000000000009},{"rt":1156.7999999523163,"stimulus":"\n                    <p><b>Action: <em>avoid</em></b></p>\n                    <p>This is the bee that you just saw.</p>\n                    <img src=\"bees-with-color/bee-A2DM.svg\" width=\"200\">\n                    <p><span class=\"redText\">Bad choice,</span> the bee was friendly.<br>Your bonus pay is unchanged, and remains at $0.62.</p>\n            ","response":0,"trial_type":"html-button-response","trial_index":86,"time_elapsed":411451,"internal_node_id":"0.0-4.0-1.39","subject_id":"5e7f35ac33f8d4000aede88c","study_id":"60edd13110225f80f9f3709b","session_id":"6196c1f4444ad3255a91359c","condition":"full-information","relevant_dimensions":["antennae","wings"],"bee_group":{"antennae":"A","wings":"1","pattern":"X","legs":"X"},"bonus":0.8600000000000009},{"rt":2419.6999999284744,"stimulus":"bees-with-color/bee-A2DF.svg","response":1,"trial_type":"image-button-response","trial_index":87,"time_elapsed":413874,"internal_node_id":"0.0-4.0-0.40","subject_id":"5e7f35ac33f8d4000aede88c","study_id":"60edd13110225f80f9f3709b","session_id":"6196c1f4444ad3255a91359c","condition":"full-information","relevant_dimensions":["antennae","wings"],"bee_group":{"antennae":"A","wings":"1","pattern":"X","legs":"X"},"action":"avoid","summary":"bad-avoid","bonus":0.8600000000000009},{"rt":1034.8999999761581,"stimulus":"\n                    <p><b>Action: <em>avoid</em></b></p>\n                    <p>This is the bee that you just saw.</p>\n                    <img src=\"bees-with-color/bee-A2DF.svg\" width=\"200\">\n                    <p><span class=\"redText\">Bad choice,</span> the bee was friendly.<br>Your bonus pay is unchanged, and remains at $0.62.</p>\n            ","response":0,"trial_type":"html-button-response","trial_index":88,"time_elapsed":414912,"internal_node_id":"0.0-4.0-1.40","subject_id":"5e7f35ac33f8d4000aede88c","study_id":"60edd13110225f80f9f3709b","session_id":"6196c1f4444ad3255a91359c","condition":"full-information","relevant_dimensions":["antennae","wings"],"bee_group":{"antennae":"A","wings":"1","pattern":"X","legs":"X"},"bonus":0.8600000000000009},{"rt":2777.6999999284744,"stimulus":"bees-with-color/bee-A2SF.svg","response":1,"trial_type":"image-button-response","trial_index":89,"time_elapsed":417692,"internal_node_id":"0.0-4.0-0.41","subject_id":"5e7f35ac33f8d4000aede88c","study_id":"60edd13110225f80f9f3709b","session_id":"6196c1f4444ad3255a91359c","condition":"full-information","relevant_dimensions":["antennae","wings"],"bee_group":{"antennae":"A","wings":"1","pattern":"X","legs":"X"},"action":"avoid","summary":"bad-avoid","bonus":0.8600000000000009},{"rt":974.1000000238419,"stimulus":"\n                    <p><b>Action: <em>avoid</em></b></p>\n                    <p>This is the bee that you just saw.</p>\n                    <img src=\"bees-with-color/bee-A2SF.svg\" width=\"200\">\n                    <p><span class=\"redText\">Bad choice,</span> the bee was friendly.<br>Your bonus pay is unchanged, and remains at $0.62.</p>\n            ","response":0,"trial_type":"html-button-response","trial_index":90,"time_elapsed":418670,"internal_node_id":"0.0-4.0-1.41","subject_id":"5e7f35ac33f8d4000aede88c","study_id":"60edd13110225f80f9f3709b","session_id":"6196c1f4444ad3255a91359c","condition":"full-information","relevant_dimensions":["antennae","wings"],"bee_group":{"antennae":"A","wings":"1","pattern":"X","legs":"X"},"bonus":0.8600000000000009},{"rt":1753.3999999761581,"stimulus":"bees-with-color/bee-A2SM.svg","response":1,"trial_type":"image-button-response","trial_index":91,"time_elapsed":420426,"internal_node_id":"0.0-4.0-0.42","subject_id":"5e7f35ac33f8d4000aede88c","study_id":"60edd13110225f80f9f3709b","session_id":"6196c1f4444ad3255a91359c","condition":"full-information","relevant_dimensions":["antennae","wings"],"bee_group":{"antennae":"A","wings":"1","pattern":"X","legs":"X"},"action":"avoid","summary":"bad-avoid","bonus":0.8600000000000009},{"rt":898.7999999523163,"stimulus":"\n                    <p><b>Action: <em>avoid</em></b></p>\n                    <p>This is the bee that you just saw.</p>\n                    <img src=\"bees-with-color/bee-A2SM.svg\" width=\"200\">\n                    <p><span class=\"redText\">Bad choice,</span> the bee was friendly.<br>Your bonus pay is unchanged, and remains at $0.62.</p>\n            ","response":0,"trial_type":"html-button-response","trial_index":92,"time_elapsed":421328,"internal_node_id":"0.0-4.0-1.42","subject_id":"5e7f35ac33f8d4000aede88c","study_id":"60edd13110225f80f9f3709b","session_id":"6196c1f4444ad3255a91359c","condition":"full-information","relevant_dimensions":["antennae","wings"],"bee_group":{"antennae":"A","wings":"1","pattern":"X","legs":"X"},"bonus":0.8600000000000009},{"rt":2650.1999999284744,"stimulus":"bees-with-color/bee-A1DM.svg","response":1,"trial_type":"image-button-response","trial_index":93,"time_elapsed":423980,"internal_node_id":"0.0-4.0-0.43","subject_id":"5e7f35ac33f8d4000aede88c","study_id":"60edd13110225f80f9f3709b","session_id":"6196c1f4444ad3255a91359c","condition":"full-information","relevant_dimensions":["antennae","wings"],"bee_group":{"antennae":"A","wings":"1","pattern":"X","legs":"X"},"action":"avoid","summary":"good-avoid","bonus":0.8600000000000009},{"rt":1113.3999999761581,"stimulus":"\n                    <p><b>Action: <em>avoid</em></b></p>\n                    <p>This is the bee that you just saw.</p>\n                    <img src=\"bees-with-color/bee-A1DM.svg\" width=\"200\">\n                    <p><span class=\"greenText\">Good choice!</span>  This bee would have stung you.<br>Your bonus pay is unchanged, and remains at $0.62.</p>\n            ","response":0,"trial_type":"html-button-response","trial_index":94,"time_elapsed":425096,"internal_node_id":"0.0-4.0-1.43","subject_id":"5e7f35ac33f8d4000aede88c","study_id":"60edd13110225f80f9f3709b","session_id":"6196c1f4444ad3255a91359c","condition":"full-information","relevant_dimensions":["antennae","wings"],"bee_group":{"antennae":"A","wings":"1","pattern":"X","legs":"X"},"bonus":0.8600000000000009},{"rt":2523.5,"stimulus":"bees-with-color/bee-B2SF.svg","response":0,"trial_type":"image-button-response","trial_index":95,"time_elapsed":427622,"internal_node_id":"0.0-4.0-0.44","subject_id":"5e7f35ac33f8d4000aede88c","study_id":"60edd13110225f80f9f3709b","session_id":"6196c1f4444ad3255a91359c","condition":"full-information","relevant_dimensions":["antennae","wings"],"bee_group":{"antennae":"A","wings":"1","pattern":"X","legs":"X"},"action":"harvest","summary":"good-harvest","bonus":0.8600000000000009},{"rt":1909.1999999284744,"stimulus":"\n                    <p><b>Action: <em>harvest</em></b></p>\n                    <p>This is the bee that you just saw.</p>\n                    <img src=\"bees-with-color/bee-B2SF.svg\" width=\"200\">\n                    <p><span class=\"greenText\"><b>Successful harvest!</b></span><br>Your pay has increased by $0.02. Your bonus pay is now $0.64.</p>\n            ","response":0,"trial_type":"html-button-response","trial_index":96,"time_elapsed":429534,"internal_node_id":"0.0-4.0-1.44","subject_id":"5e7f35ac33f8d4000aede88c","study_id":"60edd13110225f80f9f3709b","session_id":"6196c1f4444ad3255a91359c","condition":"full-information","relevant_dimensions":["antennae","wings"],"bee_group":{"antennae":"A","wings":"1","pattern":"X","legs":"X"},"bonus":0.8600000000000009},{"rt":1802.2999999523163,"stimulus":"bees-with-color/bee-B1DM.svg","response":0,"trial_type":"image-button-response","trial_index":97,"time_elapsed":431340,"internal_node_id":"0.0-4.0-0.45","subject_id":"5e7f35ac33f8d4000aede88c","study_id":"60edd13110225f80f9f3709b","session_id":"6196c1f4444ad3255a91359c","condition":"full-information","relevant_dimensions":["antennae","wings"],"bee_group":{"antennae":"A","wings":"1","pattern":"X","legs":"X"},"action":"harvest","summary":"good-harvest","bonus":0.8600000000000009},{"rt":1146.6000000238419,"stimulus":"\n                    <p><b>Action: <em>harvest</em></b></p>\n                    <p>This is the bee that you just saw.</p>\n                    <img src=\"bees-with-color/bee-B1DM.svg\" width=\"200\">\n                    <p><span class=\"greenText\"><b>Successful harvest!</b></span><br>Your pay has increased by $0.02. Your bonus pay is now $0.66.</p>\n            ","response":0,"trial_type":"html-button-response","trial_index":98,"time_elapsed":432490,"internal_node_id":"0.0-4.0-1.45","subject_id":"5e7f35ac33f8d4000aede88c","study_id":"60edd13110225f80f9f3709b","session_id":"6196c1f4444ad3255a91359c","condition":"full-information","relevant_dimensions":["antennae","wings"],"bee_group":{"antennae":"A","wings":"1","pattern":"X","legs":"X"},"bonus":0.8600000000000009},{"rt":1566.2000000476837,"stimulus":"bees-with-color/bee-A1SM.svg","response":1,"trial_type":"image-button-response","trial_index":99,"time_elapsed":434060,"internal_node_id":"0.0-4.0-0.46","subject_id":"5e7f35ac33f8d4000aede88c","study_id":"60edd13110225f80f9f3709b","session_id":"6196c1f4444ad3255a91359c","condition":"full-information","relevant_dimensions":["antennae","wings"],"bee_group":{"antennae":"A","wings":"1","pattern":"X","legs":"X"},"action":"avoid","summary":"good-avoid","bonus":0.8600000000000009},{"rt":1251.6000000238419,"stimulus":"\n                    <p><b>Action: <em>avoid</em></b></p>\n                    <p>This is the bee that you just saw.</p>\n                    <img src=\"bees-with-color/bee-A1SM.svg\" width=\"200\">\n                    <p><span class=\"greenText\">Good choice!</span>  This bee would have stung you.<br>Your bonus pay is unchanged, and remains at $0.66.</p>\n            ","response":0,"trial_type":"html-button-response","trial_index":100,"time_elapsed":435316,"internal_node_id":"0.0-4.0-1.46","subject_id":"5e7f35ac33f8d4000aede88c","study_id":"60edd13110225f80f9f3709b","session_id":"6196c1f4444ad3255a91359c","condition":"full-information","relevant_dimensions":["antennae","wings"],"bee_group":{"antennae":"A","wings":"1","pattern":"X","legs":"X"},"bonus":0.8600000000000009},{"rt":2208.100000023842,"stimulus":"bees-with-color/bee-B1SF.svg","response":1,"trial_type":"image-button-response","trial_index":101,"time_elapsed":437526,"internal_node_id":"0.0-4.0-0.47","subject_id":"5e7f35ac33f8d4000aede88c","study_id":"60edd13110225f80f9f3709b","session_id":"6196c1f4444ad3255a91359c","condition":"full-information","relevant_dimensions":["antennae","wings"],"bee_group":{"antennae":"A","wings":"1","pattern":"X","legs":"X"},"action":"avoid","summary":"bad-avoid","bonus":0.8600000000000009},{"rt":1594.3000000715256,"stimulus":"\n                    <p><b>Action: <em>avoid</em></b></p>\n                    <p>This is the bee that you just saw.</p>\n                    <img src=\"bees-with-color/bee-B1SF.svg\" width=\"200\">\n                    <p><span class=\"redText\">Bad choice,</span> the bee was friendly.<br>Your bonus pay is unchanged, and remains at $0.66.</p>\n            ","response":0,"trial_type":"html-button-response","trial_index":102,"time_elapsed":439124,"internal_node_id":"0.0-4.0-1.47","subject_id":"5e7f35ac33f8d4000aede88c","study_id":"60edd13110225f80f9f3709b","session_id":"6196c1f4444ad3255a91359c","condition":"full-information","relevant_dimensions":["antennae","wings"],"bee_group":{"antennae":"A","wings":"1","pattern":"X","legs":"X"},"bonus":0.8600000000000009},{"rt":3825.2000000476837,"stimulus":"bees-with-color/bee-A2DF.svg","response":0,"trial_type":"image-button-response","trial_index":103,"time_elapsed":442952,"internal_node_id":"0.0-4.0-0.48","subject_id":"5e7f35ac33f8d4000aede88c","study_id":"60edd13110225f80f9f3709b","session_id":"6196c1f4444ad3255a91359c","condition":"full-information","relevant_dimensions":["antennae","wings"],"bee_group":{"antennae":"A","wings":"1","pattern":"X","legs":"X"},"action":"harvest","summary":"good-harvest","bonus":0.8600000000000009},{"rt":1077.5,"stimulus":"\n                    <p><b>Action: <em>harvest</em></b></p>\n                    <p>This is the bee that you just saw.</p>\n                    <img src=\"bees-with-color/bee-A2DF.svg\" width=\"200\">\n                    <p><span class=\"greenText\"><b>Successful harvest!</b></span><br>Your pay has increased by $0.02. Your bonus pay is now $0.68.</p>\n            ","response":0,"trial_type":"html-button-response","trial_index":104,"time_elapsed":444032,"internal_node_id":"0.0-4.0-1.48","subject_id":"5e7f35ac33f8d4000aede88c","study_id":"60edd13110225f80f9f3709b","session_id":"6196c1f4444ad3255a91359c","condition":"full-information","relevant_dimensions":["antennae","wings"],"bee_group":{"antennae":"A","wings":"1","pattern":"X","legs":"X"},"bonus":0.8600000000000009},{"rt":2653.2999999523163,"stimulus":"bees-with-color/bee-A2SM.svg","response":1,"trial_type":"image-button-response","trial_index":105,"time_elapsed":446688,"internal_node_id":"0.0-4.0-0.49","subject_id":"5e7f35ac33f8d4000aede88c","study_id":"60edd13110225f80f9f3709b","session_id":"6196c1f4444ad3255a91359c","condition":"full-information","relevant_dimensions":["antennae","wings"],"bee_group":{"antennae":"A","wings":"1","pattern":"X","legs":"X"},"action":"avoid","summary":"bad-avoid","bonus":0.8600000000000009},{"rt":895.1000000238419,"stimulus":"\n                    <p><b>Action: <em>avoid</em></b></p>\n                    <p>This is the bee that you just saw.</p>\n                    <img src=\"bees-with-color/bee-A2SM.svg\" width=\"200\">\n                    <p><span class=\"redText\">Bad choice,</span> the bee was friendly.<br>Your bonus pay is unchanged, and remains at $0.68.</p>\n            ","response":0,"trial_type":"html-button-response","trial_index":106,"time_elapsed":447586,"internal_node_id":"0.0-4.0-1.49","subject_id":"5e7f35ac33f8d4000aede88c","study_id":"60edd13110225f80f9f3709b","session_id":"6196c1f4444ad3255a91359c","condition":"full-information","relevant_dimensions":["antennae","wings"],"bee_group":{"antennae":"A","wings":"1","pattern":"X","legs":"X"},"bonus":0.8600000000000009},{"rt":1298,"stimulus":"bees-with-color/bee-A1DF.svg","response":1,"trial_type":"image-button-response","trial_index":107,"time_elapsed":448886,"internal_node_id":"0.0-4.0-0.50","subject_id":"5e7f35ac33f8d4000aede88c","study_id":"60edd13110225f80f9f3709b","session_id":"6196c1f4444ad3255a91359c","condition":"full-information","relevant_dimensions":["antennae","wings"],"bee_group":{"antennae":"A","wings":"1","pattern":"X","legs":"X"},"action":"avoid","summary":"good-avoid","bonus":0.8600000000000009},{"rt":841.6000000238419,"stimulus":"\n                    <p><b>Action: <em>avoid</em></b></p>\n                    <p>This is the bee that you just saw.</p>\n                    <img src=\"bees-with-color/bee-A1DF.svg\" width=\"200\">\n                    <p><span class=\"greenText\">Good choice!</span>  This bee would have stung you.<br>Your bonus pay is unchanged, and remains at $0.68.</p>\n            ","response":0,"trial_type":"html-button-response","trial_index":108,"time_elapsed":449730,"internal_node_id":"0.0-4.0-1.50","subject_id":"5e7f35ac33f8d4000aede88c","study_id":"60edd13110225f80f9f3709b","session_id":"6196c1f4444ad3255a91359c","condition":"full-information","relevant_dimensions":["antennae","wings"],"bee_group":{"antennae":"A","wings":"1","pattern":"X","legs":"X"},"bonus":0.8600000000000009},{"rt":1550.3999999761581,"stimulus":"bees-with-color/bee-B1SM.svg","response":0,"trial_type":"image-button-response","trial_index":109,"time_elapsed":451282,"internal_node_id":"0.0-4.0-0.51","subject_id":"5e7f35ac33f8d4000aede88c","study_id":"60edd13110225f80f9f3709b","session_id":"6196c1f4444ad3255a91359c","condition":"full-information","relevant_dimensions":["antennae","wings"],"bee_group":{"antennae":"A","wings":"1","pattern":"X","legs":"X"},"action":"harvest","summary":"good-harvest","bonus":0.8600000000000009},{"rt":931.6000000238419,"stimulus":"\n                    <p><b>Action: <em>harvest</em></b></p>\n                    <p>This is the bee that you just saw.</p>\n                    <img src=\"bees-with-color/bee-B1SM.svg\" width=\"200\">\n                    <p><span class=\"greenText\"><b>Successful harvest!</b></span><br>Your pay has increased by $0.02. Your bonus pay is now $0.70.</p>\n            ","response":0,"trial_type":"html-button-response","trial_index":110,"time_elapsed":452216,"internal_node_id":"0.0-4.0-1.51","subject_id":"5e7f35ac33f8d4000aede88c","study_id":"60edd13110225f80f9f3709b","session_id":"6196c1f4444ad3255a91359c","condition":"full-information","relevant_dimensions":["antennae","wings"],"bee_group":{"antennae":"A","wings":"1","pattern":"X","legs":"X"},"bonus":0.8600000000000009},{"rt":1616.2000000476837,"stimulus":"bees-with-color/bee-A1SM.svg","response":1,"trial_type":"image-button-response","trial_index":111,"time_elapsed":453834,"internal_node_id":"0.0-4.0-0.52","subject_id":"5e7f35ac33f8d4000aede88c","study_id":"60edd13110225f80f9f3709b","session_id":"6196c1f4444ad3255a91359c","condition":"full-information","relevant_dimensions":["antennae","wings"],"bee_group":{"antennae":"A","wings":"1","pattern":"X","legs":"X"},"action":"avoid","summary":"good-avoid","bonus":0.8600000000000009},{"rt":1073.3000000715256,"stimulus":"\n                    <p><b>Action: <em>avoid</em></b></p>\n                    <p>This is the bee that you just saw.</p>\n                    <img src=\"bees-with-color/bee-A1SM.svg\" width=\"200\">\n                    <p><span class=\"greenText\">Good choice!</span>  This bee would have stung you.<br>Your bonus pay is unchanged, and remains at $0.70.</p>\n            ","response":0,"trial_type":"html-button-response","trial_index":112,"time_elapsed":454910,"internal_node_id":"0.0-4.0-1.52","subject_id":"5e7f35ac33f8d4000aede88c","study_id":"60edd13110225f80f9f3709b","session_id":"6196c1f4444ad3255a91359c","condition":"full-information","relevant_dimensions":["antennae","wings"],"bee_group":{"antennae":"A","wings":"1","pattern":"X","legs":"X"},"bonus":0.8600000000000009},{"rt":5464.100000023842,"stimulus":"bees-with-color/bee-B2DF.svg","response":0,"trial_type":"image-button-response","trial_index":113,"time_elapsed":460376,"internal_node_id":"0.0-4.0-0.53","subject_id":"5e7f35ac33f8d4000aede88c","study_id":"60edd13110225f80f9f3709b","session_id":"6196c1f4444ad3255a91359c","condition":"full-information","relevant_dimensions":["antennae","wings"],"bee_group":{"antennae":"A","wings":"1","pattern":"X","legs":"X"},"action":"harvest","summary":"good-harvest","bonus":0.8600000000000009},{"rt":915.8000000715256,"stimulus":"\n                    <p><b>Action: <em>harvest</em></b></p>\n                    <p>This is the bee that you just saw.</p>\n                    <img src=\"bees-with-color/bee-B2DF.svg\" width=\"200\">\n                    <p><span class=\"greenText\"><b>Successful harvest!</b></span><br>Your pay has increased by $0.02. Your bonus pay is now $0.72.</p>\n            ","response":0,"trial_type":"html-button-response","trial_index":114,"time_elapsed":461294,"internal_node_id":"0.0-4.0-1.53","subject_id":"5e7f35ac33f8d4000aede88c","study_id":"60edd13110225f80f9f3709b","session_id":"6196c1f4444ad3255a91359c","condition":"full-information","relevant_dimensions":["antennae","wings"],"bee_group":{"antennae":"A","wings":"1","pattern":"X","legs":"X"},"bonus":0.8600000000000009},{"rt":1143.7999999523163,"stimulus":"bees-with-color/bee-B1DM.svg","response":1,"trial_type":"image-button-response","trial_index":115,"time_elapsed":462440,"internal_node_id":"0.0-4.0-0.54","subject_id":"5e7f35ac33f8d4000aede88c","study_id":"60edd13110225f80f9f3709b","session_id":"6196c1f4444ad3255a91359c","condition":"full-information","relevant_dimensions":["antennae","wings"],"bee_group":{"antennae":"A","wings":"1","pattern":"X","legs":"X"},"action":"avoid","summary":"bad-avoid","bonus":0.8600000000000009},{"rt":1837.2000000476837,"stimulus":"\n                    <p><b>Action: <em>avoid</em></b></p>\n                    <p>This is the bee that you just saw.</p>\n                    <img src=\"bees-with-color/bee-B1DM.svg\" width=\"200\">\n                    <p><span class=\"redText\">Bad choice,</span> the bee was friendly.<br>Your bonus pay is unchanged, and remains at $0.72.</p>\n            ","response":0,"trial_type":"html-button-response","trial_index":116,"time_elapsed":464280,"internal_node_id":"0.0-4.0-1.54","subject_id":"5e7f35ac33f8d4000aede88c","study_id":"60edd13110225f80f9f3709b","session_id":"6196c1f4444ad3255a91359c","condition":"full-information","relevant_dimensions":["antennae","wings"],"bee_group":{"antennae":"A","wings":"1","pattern":"X","legs":"X"},"bonus":0.8600000000000009},{"rt":2327.399999976158,"stimulus":"bees-with-color/bee-B2SF.svg","response":0,"trial_type":"image-button-response","trial_index":117,"time_elapsed":466610,"internal_node_id":"0.0-4.0-0.55","subject_id":"5e7f35ac33f8d4000aede88c","study_id":"60edd13110225f80f9f3709b","session_id":"6196c1f4444ad3255a91359c","condition":"full-information","relevant_dimensions":["antennae","wings"],"bee_group":{"antennae":"A","wings":"1","pattern":"X","legs":"X"},"action":"harvest","summary":"good-harvest","bonus":0.8600000000000009},{"rt":1425.7000000476837,"stimulus":"\n                    <p><b>Action: <em>harvest</em></b></p>\n                    <p>This is the bee that you just saw.</p>\n                    <img src=\"bees-with-color/bee-B2SF.svg\" width=\"200\">\n                    <p><span class=\"greenText\"><b>Successful harvest!</b></span><br>Your pay has increased by $0.02. Your bonus pay is now $0.74.</p>\n            ","response":0,"trial_type":"html-button-response","trial_index":118,"time_elapsed":468038,"internal_node_id":"0.0-4.0-1.55","subject_id":"5e7f35ac33f8d4000aede88c","study_id":"60edd13110225f80f9f3709b","session_id":"6196c1f4444ad3255a91359c","condition":"full-information","relevant_dimensions":["antennae","wings"],"bee_group":{"antennae":"A","wings":"1","pattern":"X","legs":"X"},"bonus":0.8600000000000009},{"rt":1999.3999999761581,"stimulus":"bees-with-color/bee-B1DF.svg","response":1,"trial_type":"image-button-response","trial_index":119,"time_elapsed":470040,"internal_node_id":"0.0-4.0-0.56","subject_id":"5e7f35ac33f8d4000aede88c","study_id":"60edd13110225f80f9f3709b","session_id":"6196c1f4444ad3255a91359c","condition":"full-information","relevant_dimensions":["antennae","wings"],"bee_group":{"antennae":"A","wings":"1","pattern":"X","legs":"X"},"action":"avoid","summary":"bad-avoid","bonus":0.8600000000000009},{"rt":1077.5,"stimulus":"\n                    <p><b>Action: <em>avoid</em></b></p>\n                    <p>This is the bee that you just saw.</p>\n                    <img src=\"bees-with-color/bee-B1DF.svg\" width=\"200\">\n                    <p><span class=\"redText\">Bad choice,</span> the bee was friendly.<br>Your bonus pay is unchanged, and remains at $0.74.</p>\n            ","response":0,"trial_type":"html-button-response","trial_index":120,"time_elapsed":471120,"internal_node_id":"0.0-4.0-1.56","subject_id":"5e7f35ac33f8d4000aede88c","study_id":"60edd13110225f80f9f3709b","session_id":"6196c1f4444ad3255a91359c","condition":"full-information","relevant_dimensions":["antennae","wings"],"bee_group":{"antennae":"A","wings":"1","pattern":"X","legs":"X"},"bonus":0.8600000000000009},{"rt":2045.5,"stimulus":"bees-with-color/bee-A2DM.svg","response":1,"trial_type":"image-button-response","trial_index":121,"time_elapsed":473168,"internal_node_id":"0.0-4.0-0.57","subject_id":"5e7f35ac33f8d4000aede88c","study_id":"60edd13110225f80f9f3709b","session_id":"6196c1f4444ad3255a91359c","condition":"full-information","relevant_dimensions":["antennae","wings"],"bee_group":{"antennae":"A","wings":"1","pattern":"X","legs":"X"},"action":"avoid","summary":"bad-avoid","bonus":0.8600000000000009},{"rt":1287.1000000238419,"stimulus":"\n                    <p><b>Action: <em>avoid</em></b></p>\n                    <p>This is the bee that you just saw.</p>\n                    <img src=\"bees-with-color/bee-A2DM.svg\" width=\"200\">\n                    <p><span class=\"redText\">Bad choice,</span> the bee was friendly.<br>Your bonus pay is unchanged, and remains at $0.74.</p>\n            ","response":0,"trial_type":"html-button-response","trial_index":122,"time_elapsed":474458,"internal_node_id":"0.0-4.0-1.57","subject_id":"5e7f35ac33f8d4000aede88c","study_id":"60edd13110225f80f9f3709b","session_id":"6196c1f4444ad3255a91359c","condition":"full-information","relevant_dimensions":["antennae","wings"],"bee_group":{"antennae":"A","wings":"1","pattern":"X","legs":"X"},"bonus":0.8600000000000009},{"rt":4567.900000095367,"stimulus":"bees-with-color/bee-B1SF.svg","response":0,"trial_type":"image-button-response","trial_index":123,"time_elapsed":479028,"internal_node_id":"0.0-4.0-0.58","subject_id":"5e7f35ac33f8d4000aede88c","study_id":"60edd13110225f80f9f3709b","session_id":"6196c1f4444ad3255a91359c","condition":"full-information","relevant_dimensions":["antennae","wings"],"bee_group":{"antennae":"A","wings":"1","pattern":"X","legs":"X"},"action":"harvest","summary":"good-harvest","bonus":0.8600000000000009},{"rt":951.5999999046326,"stimulus":"\n                    <p><b>Action: <em>harvest</em></b></p>\n                    <p>This is the bee that you just saw.</p>\n                    <img src=\"bees-with-color/bee-B1SF.svg\" width=\"200\">\n                    <p><span class=\"greenText\"><b>Successful harvest!</b></span><br>Your pay has increased by $0.02. Your bonus pay is now $0.76.</p>\n            ","response":0,"trial_type":"html-button-response","trial_index":124,"time_elapsed":479982,"internal_node_id":"0.0-4.0-1.58","subject_id":"5e7f35ac33f8d4000aede88c","study_id":"60edd13110225f80f9f3709b","session_id":"6196c1f4444ad3255a91359c","condition":"full-information","relevant_dimensions":["antennae","wings"],"bee_group":{"antennae":"A","wings":"1","pattern":"X","legs":"X"},"bonus":0.8600000000000009},{"rt":2014.7000000476837,"stimulus":"bees-with-color/bee-B2SM.svg","response":0,"trial_type":"image-button-response","trial_index":125,"time_elapsed":482000,"internal_node_id":"0.0-4.0-0.59","subject_id":"5e7f35ac33f8d4000aede88c","study_id":"60edd13110225f80f9f3709b","session_id":"6196c1f4444ad3255a91359c","condition":"full-information","relevant_dimensions":["antennae","wings"],"bee_group":{"antennae":"A","wings":"1","pattern":"X","legs":"X"},"action":"harvest","summary":"good-harvest","bonus":0.8600000000000009},{"rt":1499.3000000715256,"stimulus":"\n                    <p><b>Action: <em>harvest</em></b></p>\n                    <p>This is the bee that you just saw.</p>\n                    <img src=\"bees-with-color/bee-B2SM.svg\" width=\"200\">\n                    <p><span class=\"greenText\"><b>Successful harvest!</b></span><br>Your pay has increased by $0.02. Your bonus pay is now $0.78.</p>\n            ","response":0,"trial_type":"html-button-response","trial_index":126,"time_elapsed":483502,"internal_node_id":"0.0-4.0-1.59","subject_id":"5e7f35ac33f8d4000aede88c","study_id":"60edd13110225f80f9f3709b","session_id":"6196c1f4444ad3255a91359c","condition":"full-information","relevant_dimensions":["antennae","wings"],"bee_group":{"antennae":"A","wings":"1","pattern":"X","legs":"X"},"bonus":0.8600000000000009},{"rt":2333.9000000953674,"stimulus":"bees-with-color/bee-B2DM.svg","response":1,"trial_type":"image-button-response","trial_index":127,"time_elapsed":485838,"internal_node_id":"0.0-4.0-0.60","subject_id":"5e7f35ac33f8d4000aede88c","study_id":"60edd13110225f80f9f3709b","session_id":"6196c1f4444ad3255a91359c","condition":"full-information","relevant_dimensions":["antennae","wings"],"bee_group":{"antennae":"A","wings":"1","pattern":"X","legs":"X"},"action":"avoid","summary":"bad-avoid","bonus":0.8600000000000009},{"rt":1443.1000000238419,"stimulus":"\n                    <p><b>Action: <em>avoid</em></b></p>\n                    <p>This is the bee that you just saw.</p>\n                    <img src=\"bees-with-color/bee-B2DM.svg\" width=\"200\">\n                    <p><span class=\"redText\">Bad choice,</span> the bee was friendly.<br>Your bonus pay is unchanged, and remains at $0.78.</p>\n            ","response":0,"trial_type":"html-button-response","trial_index":128,"time_elapsed":487284,"internal_node_id":"0.0-4.0-1.60","subject_id":"5e7f35ac33f8d4000aede88c","study_id":"60edd13110225f80f9f3709b","session_id":"6196c1f4444ad3255a91359c","condition":"full-information","relevant_dimensions":["antennae","wings"],"bee_group":{"antennae":"A","wings":"1","pattern":"X","legs":"X"},"bonus":0.8600000000000009},{"rt":2282.100000023842,"stimulus":"bees-with-color/bee-A2SF.svg","response":1,"trial_type":"image-button-response","trial_index":129,"time_elapsed":489570,"internal_node_id":"0.0-4.0-0.61","subject_id":"5e7f35ac33f8d4000aede88c","study_id":"60edd13110225f80f9f3709b","session_id":"6196c1f4444ad3255a91359c","condition":"full-information","relevant_dimensions":["antennae","wings"],"bee_group":{"antennae":"A","wings":"1","pattern":"X","legs":"X"},"action":"avoid","summary":"bad-avoid","bonus":0.8600000000000009},{"rt":885,"stimulus":"\n                    <p><b>Action: <em>avoid</em></b></p>\n                    <p>This is the bee that you just saw.</p>\n                    <img src=\"bees-with-color/bee-A2SF.svg\" width=\"200\">\n                    <p><span class=\"redText\">Bad choice,</span> the bee was friendly.<br>Your bonus pay is unchanged, and remains at $0.78.</p>\n            ","response":0,"trial_type":"html-button-response","trial_index":130,"time_elapsed":490458,"internal_node_id":"0.0-4.0-1.61","subject_id":"5e7f35ac33f8d4000aede88c","study_id":"60edd13110225f80f9f3709b","session_id":"6196c1f4444ad3255a91359c","condition":"full-information","relevant_dimensions":["antennae","wings"],"bee_group":{"antennae":"A","wings":"1","pattern":"X","legs":"X"},"bonus":0.8600000000000009},{"rt":1031.5,"stimulus":"bees-with-color/bee-A1DM.svg","response":1,"trial_type":"image-button-response","trial_index":131,"time_elapsed":491492,"internal_node_id":"0.0-4.0-0.62","subject_id":"5e7f35ac33f8d4000aede88c","study_id":"60edd13110225f80f9f3709b","session_id":"6196c1f4444ad3255a91359c","condition":"full-information","relevant_dimensions":["antennae","wings"],"bee_group":{"antennae":"A","wings":"1","pattern":"X","legs":"X"},"action":"avoid","summary":"good-avoid","bonus":0.8600000000000009},{"rt":1352.1000000238419,"stimulus":"\n                    <p><b>Action: <em>avoid</em></b></p>\n                    <p>This is the bee that you just saw.</p>\n                    <img src=\"bees-with-color/bee-A1DM.svg\" width=\"200\">\n                    <p><span class=\"greenText\">Good choice!</span>  This bee would have stung you.<br>Your bonus pay is unchanged, and remains at $0.78.</p>\n            ","response":0,"trial_type":"html-button-response","trial_index":132,"time_elapsed":492848,"internal_node_id":"0.0-4.0-1.62","subject_id":"5e7f35ac33f8d4000aede88c","study_id":"60edd13110225f80f9f3709b","session_id":"6196c1f4444ad3255a91359c","condition":"full-information","relevant_dimensions":["antennae","wings"],"bee_group":{"antennae":"A","wings":"1","pattern":"X","legs":"X"},"bonus":0.8600000000000009},{"rt":2483.899999976158,"stimulus":"bees-with-color/bee-A1SF.svg","response":1,"trial_type":"image-button-response","trial_index":133,"time_elapsed":495334,"internal_node_id":"0.0-4.0-0.63","subject_id":"5e7f35ac33f8d4000aede88c","study_id":"60edd13110225f80f9f3709b","session_id":"6196c1f4444ad3255a91359c","condition":"full-information","relevant_dimensions":["antennae","wings"],"bee_group":{"antennae":"A","wings":"1","pattern":"X","legs":"X"},"action":"avoid","summary":"good-avoid","bonus":0.8600000000000009},{"rt":1541,"stimulus":"\n                    <p><b>Action: <em>avoid</em></b></p>\n                    <p>This is the bee that you just saw.</p>\n                    <img src=\"bees-with-color/bee-A1SF.svg\" width=\"200\">\n                    <p><span class=\"greenText\">Good choice!</span>  This bee would have stung you.<br>Your bonus pay is unchanged, and remains at $0.78.</p>\n            ","response":0,"trial_type":"html-button-response","trial_index":134,"time_elapsed":496878,"internal_node_id":"0.0-4.0-1.63","subject_id":"5e7f35ac33f8d4000aede88c","study_id":"60edd13110225f80f9f3709b","session_id":"6196c1f4444ad3255a91359c","condition":"full-information","relevant_dimensions":["antennae","wings"],"bee_group":{"antennae":"A","wings":"1","pattern":"X","legs":"X"},"bonus":0.8600000000000009},{"rt":7259.299999952316,"stimulus":"You have completed the first part of this experiment.<br><br>You will now begin a shorter second part, in which you will receive no feedback.<br>The same rules regarding bonus pay apply.<br><br>Press any key to begin.","response":"l","trial_type":"html-keyboard-response","trial_index":135,"time_elapsed":504139,"internal_node_id":"0.0-5.0","subject_id":"5e7f35ac33f8d4000aede88c","study_id":"60edd13110225f80f9f3709b","session_id":"6196c1f4444ad3255a91359c","condition":"full-information","relevant_dimensions":["antennae","wings"],"bee_group":{"antennae":"A","wings":"1","pattern":"X","legs":"X"},"bonus":0.8600000000000009},{"rt":9825.700000047684,"stimulus":"bees-with-color/bee-A1SM.svg","response":1,"trial_type":"image-button-response","trial_index":136,"time_elapsed":513976,"internal_node_id":"0.0-6.0-0.0","subject_id":"5e7f35ac33f8d4000aede88c","study_id":"60edd13110225f80f9f3709b","session_id":"6196c1f4444ad3255a91359c","condition":"full-information","relevant_dimensions":["antennae","wings"],"bee_group":{"antennae":"A","wings":"1","pattern":"X","legs":"X"},"bonus":0.8600000000000009},{"rt":1232.1999999284744,"stimulus":"bees-with-color/bee-B2DM.svg","response":0,"trial_type":"image-button-response","trial_index":137,"time_elapsed":515212,"internal_node_id":"0.0-6.0-0.1","subject_id":"5e7f35ac33f8d4000aede88c","study_id":"60edd13110225f80f9f3709b","session_id":"6196c1f4444ad3255a91359c","condition":"full-information","relevant_dimensions":["antennae","wings"],"bee_group":{"antennae":"A","wings":"1","pattern":"X","legs":"X"},"bonus":0.8600000000000009},{"rt":1262.8999999761581,"stimulus":"bees-with-color/bee-B2DF.svg","response":0,"trial_type":"image-button-response","trial_index":138,"time_elapsed":516478,"internal_node_id":"0.0-6.0-0.2","subject_id":"5e7f35ac33f8d4000aede88c","study_id":"60edd13110225f80f9f3709b","session_id":"6196c1f4444ad3255a91359c","condition":"full-information","relevant_dimensions":["antennae","wings"],"bee_group":{"antennae":"A","wings":"1","pattern":"X","legs":"X"},"bonus":0.8600000000000009},{"rt":1811.5999999046326,"stimulus":"bees-with-color/bee-B1SM.svg","response":0,"trial_type":"image-button-response","trial_index":139,"time_elapsed":518294,"internal_node_id":"0.0-6.0-0.3","subject_id":"5e7f35ac33f8d4000aede88c","study_id":"60edd13110225f80f9f3709b","session_id":"6196c1f4444ad3255a91359c","condition":"full-information","relevant_dimensions":["antennae","wings"],"bee_group":{"antennae":"A","wings":"1","pattern":"X","legs":"X"},"bonus":0.8600000000000009},{"rt":974.7000000476837,"stimulus":"bees-with-color/bee-A2SF.svg","response":1,"trial_type":"image-button-response","trial_index":140,"time_elapsed":519272,"internal_node_id":"0.0-6.0-0.4","subject_id":"5e7f35ac33f8d4000aede88c","study_id":"60edd13110225f80f9f3709b","session_id":"6196c1f4444ad3255a91359c","condition":"full-information","relevant_dimensions":["antennae","wings"],"bee_group":{"antennae":"A","wings":"1","pattern":"X","legs":"X"},"bonus":0.8600000000000009},{"rt":4047,"stimulus":"bees-with-color/bee-B1DM.svg","response":0,"trial_type":"image-button-response","trial_index":141,"time_elapsed":523322,"internal_node_id":"0.0-6.0-0.5","subject_id":"5e7f35ac33f8d4000aede88c","study_id":"60edd13110225f80f9f3709b","session_id":"6196c1f4444ad3255a91359c","condition":"full-information","relevant_dimensions":["antennae","wings"],"bee_group":{"antennae":"A","wings":"1","pattern":"X","legs":"X"},"bonus":0.8600000000000009},{"rt":950.5,"stimulus":"bees-with-color/bee-A1DM.svg","response":1,"trial_type":"image-button-response","trial_index":142,"time_elapsed":524276,"internal_node_id":"0.0-6.0-0.6","subject_id":"5e7f35ac33f8d4000aede88c","study_id":"60edd13110225f80f9f3709b","session_id":"6196c1f4444ad3255a91359c","condition":"full-information","relevant_dimensions":["antennae","wings"],"bee_group":{"antennae":"A","wings":"1","pattern":"X","legs":"X"},"bonus":0.8600000000000009},{"rt":1525.1000000238419,"stimulus":"bees-with-color/bee-A2DF.svg","response":1,"trial_type":"image-button-response","trial_index":143,"time_elapsed":525804,"internal_node_id":"0.0-6.0-0.7","subject_id":"5e7f35ac33f8d4000aede88c","study_id":"60edd13110225f80f9f3709b","session_id":"6196c1f4444ad3255a91359c","condition":"full-information","relevant_dimensions":["antennae","wings"],"bee_group":{"antennae":"A","wings":"1","pattern":"X","legs":"X"},"bonus":0.8600000000000009},{"rt":1378,"stimulus":"bees-with-color/bee-B2SF.svg","response":0,"trial_type":"image-button-response","trial_index":144,"time_elapsed":527186,"internal_node_id":"0.0-6.0-0.8","subject_id":"5e7f35ac33f8d4000aede88c","study_id":"60edd13110225f80f9f3709b","session_id":"6196c1f4444ad3255a91359c","condition":"full-information","relevant_dimensions":["antennae","wings"],"bee_group":{"antennae":"A","wings":"1","pattern":"X","legs":"X"},"bonus":0.8600000000000009},{"rt":2609.600000023842,"stimulus":"bees-with-color/bee-A2DM.svg","response":1,"trial_type":"image-button-response","trial_index":145,"time_elapsed":529798,"internal_node_id":"0.0-6.0-0.9","subject_id":"5e7f35ac33f8d4000aede88c","study_id":"60edd13110225f80f9f3709b","session_id":"6196c1f4444ad3255a91359c","condition":"full-information","relevant_dimensions":["antennae","wings"],"bee_group":{"antennae":"A","wings":"1","pattern":"X","legs":"X"},"bonus":0.8600000000000009},{"rt":1515.6000000238419,"stimulus":"bees-with-color/bee-B1SF.svg","response":0,"trial_type":"image-button-response","trial_index":146,"time_elapsed":531316,"internal_node_id":"0.0-6.0-0.10","subject_id":"5e7f35ac33f8d4000aede88c","study_id":"60edd13110225f80f9f3709b","session_id":"6196c1f4444ad3255a91359c","condition":"full-information","relevant_dimensions":["antennae","wings"],"bee_group":{"antennae":"A","wings":"1","pattern":"X","legs":"X"},"bonus":0.8600000000000009},{"rt":1073.1999999284744,"stimulus":"bees-with-color/bee-B1DF.svg","response":1,"trial_type":"image-button-response","trial_index":147,"time_elapsed":532392,"internal_node_id":"0.0-6.0-0.11","subject_id":"5e7f35ac33f8d4000aede88c","study_id":"60edd13110225f80f9f3709b","session_id":"6196c1f4444ad3255a91359c","condition":"full-information","relevant_dimensions":["antennae","wings"],"bee_group":{"antennae":"A","wings":"1","pattern":"X","legs":"X"},"bonus":0.8600000000000009},{"rt":2009.1999999284744,"stimulus":"bees-with-color/bee-A2SM.svg","response":1,"trial_type":"image-button-response","trial_index":148,"time_elapsed":534404,"internal_node_id":"0.0-6.0-0.12","subject_id":"5e7f35ac33f8d4000aede88c","study_id":"60edd13110225f80f9f3709b","session_id":"6196c1f4444ad3255a91359c","condition":"full-information","relevant_dimensions":["antennae","wings"],"bee_group":{"antennae":"A","wings":"1","pattern":"X","legs":"X"},"bonus":0.8600000000000009},{"rt":3649.1999999284744,"stimulus":"bees-with-color/bee-A1SF.svg","response":0,"trial_type":"image-button-response","trial_index":149,"time_elapsed":538056,"internal_node_id":"0.0-6.0-0.13","subject_id":"5e7f35ac33f8d4000aede88c","study_id":"60edd13110225f80f9f3709b","session_id":"6196c1f4444ad3255a91359c","condition":"full-information","relevant_dimensions":["antennae","wings"],"bee_group":{"antennae":"A","wings":"1","pattern":"X","legs":"X"},"bonus":0.8600000000000009},{"rt":1737.1000000238419,"stimulus":"bees-with-color/bee-A1DF.svg","response":1,"trial_type":"image-button-response","trial_index":150,"time_elapsed":539796,"internal_node_id":"0.0-6.0-0.14","subject_id":"5e7f35ac33f8d4000aede88c","study_id":"60edd13110225f80f9f3709b","session_id":"6196c1f4444ad3255a91359c","condition":"full-information","relevant_dimensions":["antennae","wings"],"bee_group":{"antennae":"A","wings":"1","pattern":"X","legs":"X"},"bonus":0.8600000000000009},{"rt":969.3000000715256,"stimulus":"bees-with-color/bee-B2SM.svg","response":0,"trial_type":"image-button-response","trial_index":151,"time_elapsed":540768,"internal_node_id":"0.0-6.0-0.15","subject_id":"5e7f35ac33f8d4000aede88c","study_id":"60edd13110225f80f9f3709b","session_id":"6196c1f4444ad3255a91359c","condition":"full-information","relevant_dimensions":["antennae","wings"],"bee_group":{"antennae":"A","wings":"1","pattern":"X","legs":"X"},"bonus":0.8600000000000009},{"rt":1027.5,"stimulus":"bees-with-color/bee-A2DM.svg","response":1,"trial_type":"image-button-response","trial_index":152,"time_elapsed":541798,"internal_node_id":"0.0-6.0-0.16","subject_id":"5e7f35ac33f8d4000aede88c","study_id":"60edd13110225f80f9f3709b","session_id":"6196c1f4444ad3255a91359c","condition":"full-information","relevant_dimensions":["antennae","wings"],"bee_group":{"antennae":"A","wings":"1","pattern":"X","legs":"X"},"bonus":0.8600000000000009},{"rt":1015.6000000238419,"stimulus":"bees-with-color/bee-B2DM.svg","response":0,"trial_type":"image-button-response","trial_index":153,"time_elapsed":542816,"internal_node_id":"0.0-6.0-0.17","subject_id":"5e7f35ac33f8d4000aede88c","study_id":"60edd13110225f80f9f3709b","session_id":"6196c1f4444ad3255a91359c","condition":"full-information","relevant_dimensions":["antennae","wings"],"bee_group":{"antennae":"A","wings":"1","pattern":"X","legs":"X"},"bonus":0.8600000000000009},{"rt":2051,"stimulus":"bees-with-color/bee-B2SM.svg","response":0,"trial_type":"image-button-response","trial_index":154,"time_elapsed":544870,"internal_node_id":"0.0-6.0-0.18","subject_id":"5e7f35ac33f8d4000aede88c","study_id":"60edd13110225f80f9f3709b","session_id":"6196c1f4444ad3255a91359c","condition":"full-information","relevant_dimensions":["antennae","wings"],"bee_group":{"antennae":"A","wings":"1","pattern":"X","legs":"X"},"bonus":0.8600000000000009},{"rt":1847,"stimulus":"bees-with-color/bee-A1SF.svg","response":1,"trial_type":"image-button-response","trial_index":155,"time_elapsed":546720,"internal_node_id":"0.0-6.0-0.19","subject_id":"5e7f35ac33f8d4000aede88c","study_id":"60edd13110225f80f9f3709b","session_id":"6196c1f4444ad3255a91359c","condition":"full-information","relevant_dimensions":["antennae","wings"],"bee_group":{"antennae":"A","wings":"1","pattern":"X","legs":"X"},"bonus":0.8600000000000009},{"rt":1379.3999999761581,"stimulus":"bees-with-color/bee-A2SF.svg","response":1,"trial_type":"image-button-response","trial_index":156,"time_elapsed":548102,"internal_node_id":"0.0-6.0-0.20","subject_id":"5e7f35ac33f8d4000aede88c","study_id":"60edd13110225f80f9f3709b","session_id":"6196c1f4444ad3255a91359c","condition":"full-information","relevant_dimensions":["antennae","wings"],"bee_group":{"antennae":"A","wings":"1","pattern":"X","legs":"X"},"bonus":0.8600000000000009},{"rt":1919.5,"stimulus":"bees-with-color/bee-A1DF.svg","response":