[{"success":true,"trial_type":"fullscreen","trial_index":0,"time_elapsed":6905,"internal_node_id":"0.0-0.0","subject_id":"60e9af25803b556d62efa3ca","study_id":"6197b3f67c2b5cd3b6d9596a","session_id":"6197b88a01548677b091fbda","condition":"full-information","relevant_dimensions":["wings","legs"],"bee_group":{"antennae":"X","wings":"1","pattern":"X","legs":"M"},"bonus":0.08},{"success":true,"timeout":false,"failed_images":[],"failed_audio":[],"failed_video":[],"trial_type":"preload","trial_index":1,"time_elapsed":8504,"internal_node_id":"0.0-1.0","subject_id":"60e9af25803b556d62efa3ca","study_id":"6197b3f67c2b5cd3b6d9596a","session_id":"6197b88a01548677b091fbda","condition":"full-information","relevant_dimensions":["wings","legs"],"bee_group":{"antennae":"X","wings":"1","pattern":"X","legs":"M"},"bonus":0.08},{"rt":3053.800000011921,"stimulus":"Welcome! Press any key to begin.","response":" ","trial_type":"html-keyboard-response","trial_index":2,"time_elapsed":11558,"internal_node_id":"0.0-2.0","subject_id":"60e9af25803b556d62efa3ca","study_id":"6197b3f67c2b5cd3b6d9596a","session_id":"6197b88a01548677b091fbda","condition":"full-information","relevant_dimensions":["wings","legs"],"bee_group":{"antennae":"X","wings":"1","pattern":"X","legs":"M"},"bonus":0.08},{"view_history":[{"page_index":0,"viewing_time":3013.100000023842},{"page_index":1,"viewing_time":13519.199999988079},{"page_index":2,"viewing_time":29202.40000000596},{"page_index":3,"viewing_time":12888.09999999404},{"page_index":4,"viewing_time":8673.59999999404},{"page_index":5,"viewing_time":5008.4000000059605},{"page_index":6,"viewing_time":12957.300000011921},{"page_index":7,"viewing_time":3020.5},{"page_index":6,"viewing_time":1051.7999999821186},{"page_index":7,"viewing_time":1128},{"page_index":8,"viewing_time":2030.5},{"page_index":9,"viewing_time":1224},{"page_index":10,"viewing_time":1295.2000000178814},{"page_index":11,"viewing_time":5626.0999999940395},{"page_index":10,"viewing_time":2808.5},{"page_index":9,"viewing_time":1023.6999999880791},{"page_index":8,"viewing_time":380},{"page_index":7,"viewing_time":317},{"page_index":6,"viewing_time":7150.800000011921},{"page_index":7,"viewing_time":624.7999999821186},{"page_index":8,"viewing_time":221.80000001192093},{"page_index":9,"viewing_time":415.40000000596046},{"page_index":10,"viewing_time":534.2999999821186},{"page_index":11,"viewing_time":8839.700000017881},{"page_index":12,"viewing_time":5708.5999999940395},{"page_index":13,"viewing_time":1022},{"page_index":14,"viewing_time":1785.5999999940395}],"rt":131470.70000001788,"trial_type":"instructions","trial_index":3,"time_elapsed":143029,"internal_node_id":"0.0-3.0-0.0","subject_id":"60e9af25803b556d62efa3ca","study_id":"6197b3f67c2b5cd3b6d9596a","session_id":"6197b88a01548677b091fbda","condition":"full-information","relevant_dimensions":["wings","legs"],"bee_group":{"antennae":"X","wings":"1","pattern":"X","legs":"M"},"bonus":0.08},{"rt":13468,"response":{"Q0":["Two or six legs","Stripes or spots on body","Single or double wings","Antennae or no antennae"]},"question_order":[0],"trial_type":"survey-multi-select","trial_index":4,"time_elapsed":156500,"internal_node_id":"0.0-3.0-1.0","subject_id":"60e9af25803b556d62efa3ca","study_id":"6197b3f67c2b5cd3b6d9596a","session_id":"6197b88a01548677b091fbda","condition":"full-information","relevant_dimensions":["wings","legs"],"bee_group":{"antennae":"X","wings":"1","pattern":"X","legs":"M"},"correct":true,"bonus":0.08},{"rt":29833.20000001788,"response":{"Q1":"No.","Q2":"Based on the four features of the bee.","Q3":"You learn if it was friendly or dangerous, but do not alter your bonus."},"question_order":[0,1,2],"trial_type":"survey-multi-choice","trial_index":5,"time_elapsed":186335,"internal_node_id":"0.0-3.0-2.0","subject_id":"60e9af25803b556d62efa3ca","study_id":"6197b3f67c2b5cd3b6d9596a","session_id":"6197b88a01548677b091fbda","condition":"full-information","relevant_dimensions":["wings","legs"],"bee_group":{"antennae":"X","wings":"1","pattern":"X","legs":"M"},"correct":true,"bonus":0.08},{"rt":2596.0999999940395,"stimulus":"<p>Congrats, you got everything right<br>When you're ready, click the button below to continue to the experiment.</p>","response":0,"trial_type":"html-button-response","trial_index":6,"time_elapsed":188932,"internal_node_id":"0.0-3.0-3.0","subject_id":"60e9af25803b556d62efa3ca","study_id":"6197b3f67c2b5cd3b6d9596a","session_id":"6197b88a01548677b091fbda","condition":"full-information","relevant_dimensions":["wings","legs"],"bee_group":{"antennae":"X","wings":"1","pattern":"X","legs":"M"},"bonus":0.08},{"rt":3314.0999999940395,"stimulus":"bees-with-color/bee-A2SM.svg","response":0,"trial_type":"image-button-response","trial_index":7,"time_elapsed":192248,"internal_node_id":"0.0-4.0-0.0","subject_id":"60e9af25803b556d62efa3ca","study_id":"6197b3f67c2b5cd3b6d9596a","session_id":"6197b88a01548677b091fbda","condition":"full-information","relevant_dimensions":["wings","legs"],"bee_group":{"antennae":"X","wings":"1","pattern":"X","legs":"M"},"action":"harvest","summary":"good-harvest","bonus":0.08},{"rt":3183.7999999821186,"stimulus":"\n                    <p><b>Action: <em>harvest</em></b></p>\n                    <p>This is the bee that you just saw.</p>\n                    <img src=\"bees-with-color/bee-A2SM.svg\" width=\"200\">\n                    <p><span class=\"greenText\"><b>Successful harvest!</b></span><br>Your pay has increased by $0.02. Your bonus pay is now $0.56.</p>\n            ","response":0,"trial_type":"html-button-response","trial_index":8,"time_elapsed":195434,"internal_node_id":"0.0-4.0-1.0","subject_id":"60e9af25803b556d62efa3ca","study_id":"6197b3f67c2b5cd3b6d9596a","session_id":"6197b88a01548677b091fbda","condition":"full-information","relevant_dimensions":["wings","legs"],"bee_group":{"antennae":"X","wings":"1","pattern":"X","legs":"M"},"bonus":0.08},{"rt":1371.4000000059605,"stimulus":"bees-with-color/bee-A2DM.svg","response":0,"trial_type":"image-button-response","trial_index":9,"time_elapsed":196806,"internal_node_id":"0.0-4.0-0.1","subject_id":"60e9af25803b556d62efa3ca","study_id":"6197b3f67c2b5cd3b6d9596a","session_id":"6197b88a01548677b091fbda","condition":"full-information","relevant_dimensions":["wings","legs"],"bee_group":{"antennae":"X","wings":"1","pattern":"X","legs":"M"},"action":"harvest","summary":"good-harvest","bonus":0.08},{"rt":1308.199999988079,"stimulus":"\n                    <p><b>Action: <em>harvest</em></b></p>\n                    <p>This is the bee that you just saw.</p>\n                    <img src=\"bees-with-color/bee-A2DM.svg\" width=\"200\">\n                    <p><span class=\"greenText\"><b>Successful harvest!</b></span><br>Your pay has increased by $0.02. Your bonus pay is now $0.58.</p>\n            ","response":0,"trial_type":"html-button-response","trial_index":10,"time_elapsed":198116,"internal_node_id":"0.0-4.0-1.1","subject_id":"60e9af25803b556d62efa3ca","study_id":"6197b3f67c2b5cd3b6d9596a","session_id":"6197b88a01548677b091fbda","condition":"full-information","relevant_dimensions":["wings","legs"],"bee_group":{"antennae":"X","wings":"1","pattern":"X","legs":"M"},"bonus":0.08},{"rt":1486.5999999940395,"stimulus":"bees-with-color/bee-B2SM.svg","response":0,"trial_type":"image-button-response","trial_index":11,"time_elapsed":199604,"internal_node_id":"0.0-4.0-0.2","subject_id":"60e9af25803b556d62efa3ca","study_id":"6197b3f67c2b5cd3b6d9596a","session_id":"6197b88a01548677b091fbda","condition":"full-information","relevant_dimensions":["wings","legs"],"bee_group":{"antennae":"X","wings":"1","pattern":"X","legs":"M"},"action":"harvest","summary":"good-harvest","bonus":0.08},{"rt":663,"stimulus":"\n                    <p><b>Action: <em>harvest</em></b></p>\n                    <p>This is the bee that you just saw.</p>\n                    <img src=\"bees-with-color/bee-B2SM.svg\" width=\"200\">\n                    <p><span class=\"greenText\"><b>Successful harvest!</b></span><br>Your pay has increased by $0.02. Your bonus pay is now $0.60.</p>\n            ","response":0,"trial_type":"html-button-response","trial_index":12,"time_elapsed":200268,"internal_node_id":"0.0-4.0-1.2","subject_id":"60e9af25803b556d62efa3ca","study_id":"6197b3f67c2b5cd3b6d9596a","session_id":"6197b88a01548677b091fbda","condition":"full-information","relevant_dimensions":["wings","legs"],"bee_group":{"antennae":"X","wings":"1","pattern":"X","legs":"M"},"bonus":0.08},{"rt":1231,"stimulus":"bees-with-color/bee-B2DM.svg","response":0,"trial_type":"image-button-response","trial_index":13,"time_elapsed":201500,"internal_node_id":"0.0-4.0-0.3","subject_id":"60e9af25803b556d62efa3ca","study_id":"6197b3f67c2b5cd3b6d9596a","session_id":"6197b88a01548677b091fbda","condition":"full-information","relevant_dimensions":["wings","legs"],"bee_group":{"antennae":"X","wings":"1","pattern":"X","legs":"M"},"action":"harvest","summary":"good-harvest","bonus":0.08},{"rt":609,"stimulus":"\n                    <p><b>Action: <em>harvest</em></b></p>\n                    <p>This is the bee that you just saw.</p>\n                    <img src=\"bees-with-color/bee-B2DM.svg\" width=\"200\">\n                    <p><span class=\"greenText\"><b>Successful harvest!</b></span><br>Your pay has increased by $0.02. Your bonus pay is now $0.62.</p>\n            ","response":0,"trial_type":"html-button-response","trial_index":14,"time_elapsed":202110,"internal_node_id":"0.0-4.0-1.3","subject_id":"60e9af25803b556d62efa3ca","study_id":"6197b3f67c2b5cd3b6d9596a","session_id":"6197b88a01548677b091fbda","condition":"full-information","relevant_dimensions":["wings","legs"],"bee_group":{"antennae":"X","wings":"1","pattern":"X","legs":"M"},"bonus":0.08},{"rt":2528.300000011921,"stimulus":"bees-with-color/bee-A1DF.svg","response":1,"trial_type":"image-button-response","trial_index":15,"time_elapsed":204640,"internal_node_id":"0.0-4.0-0.4","subject_id":"60e9af25803b556d62efa3ca","study_id":"6197b3f67c2b5cd3b6d9596a","session_id":"6197b88a01548677b091fbda","condition":"full-information","relevant_dimensions":["wings","legs"],"bee_group":{"antennae":"X","wings":"1","pattern":"X","legs":"M"},"action":"avoid","summary":"bad-avoid","bonus":0.08},{"rt":3025.0999999940395,"stimulus":"\n                    <p><b>Action: <em>avoid</em></b></p>\n                    <p>This is the bee that you just saw.</p>\n                    <img src=\"bees-with-color/bee-A1DF.svg\" width=\"200\">\n                    <p><span class=\"redText\">Bad choice,</span> the bee was friendly.<br>Your bonus pay is unchanged, and remains at $0.62.</p>\n            ","response":0,"trial_type":"html-button-response","trial_index":16,"time_elapsed":207666,"internal_node_id":"0.0-4.0-1.4","subject_id":"60e9af25803b556d62efa3ca","study_id":"6197b3f67c2b5cd3b6d9596a","session_id":"6197b88a01548677b091fbda","condition":"full-information","relevant_dimensions":["wings","legs"],"bee_group":{"antennae":"X","wings":"1","pattern":"X","legs":"M"},"bonus":0.08},{"rt":1104.9000000059605,"stimulus":"bees-with-color/bee-B1DM.svg","response":1,"trial_type":"image-button-response","trial_index":17,"time_elapsed":208772,"internal_node_id":"0.0-4.0-0.5","subject_id":"60e9af25803b556d62efa3ca","study_id":"6197b3f67c2b5cd3b6d9596a","session_id":"6197b88a01548677b091fbda","condition":"full-information","relevant_dimensions":["wings","legs"],"bee_group":{"antennae":"X","wings":"1","pattern":"X","legs":"M"},"action":"avoid","summary":"good-avoid","bonus":0.08},{"rt":1630.800000011921,"stimulus":"\n                    <p><b>Action: <em>avoid</em></b></p>\n                    <p>This is the bee that you just saw.</p>\n                    <img src=\"bees-with-color/bee-B1DM.svg\" width=\"200\">\n                    <p><span class=\"greenText\">Good choice!</span>  This bee would have stung you.<br>Your bonus pay is unchanged, and remains at $0.62.</p>\n            ","response":0,"trial_type":"html-button-response","trial_index":18,"time_elapsed":210404,"internal_node_id":"0.0-4.0-1.5","subject_id":"60e9af25803b556d62efa3ca","study_id":"6197b3f67c2b5cd3b6d9596a","session_id":"6197b88a01548677b091fbda","condition":"full-information","relevant_dimensions":["wings","legs"],"bee_group":{"antennae":"X","wings":"1","pattern":"X","legs":"M"},"bonus":0.08},{"rt":1040.699999988079,"stimulus":"bees-with-color/bee-B1SM.svg","response":0,"trial_type":"image-button-response","trial_index":19,"time_elapsed":211446,"internal_node_id":"0.0-4.0-0.6","subject_id":"60e9af25803b556d62efa3ca","study_id":"6197b3f67c2b5cd3b6d9596a","session_id":"6197b88a01548677b091fbda","condition":"full-information","relevant_dimensions":["wings","legs"],"bee_group":{"antennae":"X","wings":"1","pattern":"X","legs":"M"},"action":"harvest","summary":"bad-harvest","bonus":0.08},{"rt":971.3000000119209,"stimulus":"\n                    <p><b>Action: <em>harvest</em></b></p>\n                    <p>This is the bee that you just saw.</p>\n                    <img src=\"bees-with-color/bee-B1SM.svg\" width=\"200\">\n                    <p><span class=\"redText\">Bad choice, the bee was angry.</span><br><b>You have been stung!</b><br>Your pay has been decreased by $0.10. Your bonus pay is now $0.52.</p>\n            ","response":0,"trial_type":"html-button-response","trial_index":20,"time_elapsed":212418,"internal_node_id":"0.0-4.0-1.6","subject_id":"60e9af25803b556d62efa3ca","study_id":"6197b3f67c2b5cd3b6d9596a","session_id":"6197b88a01548677b091fbda","condition":"full-information","relevant_dimensions":["wings","legs"],"bee_group":{"antennae":"X","wings":"1","pattern":"X","legs":"M"},"bonus":0.08},{"rt":2699.600000023842,"stimulus":"bees-with-color/bee-B2DF.svg","response":0,"trial_type":"image-button-response","trial_index":21,"time_elapsed":215118,"internal_node_id":"0.0-4.0-0.7","subject_id":"60e9af25803b556d62efa3ca","study_id":"6197b3f67c2b5cd3b6d9596a","session_id":"6197b88a01548677b091fbda","condition":"full-information","relevant_dimensions":["wings","legs"],"bee_group":{"antennae":"X","wings":"1","pattern":"X","legs":"M"},"action":"harvest","summary":"good-harvest","bonus":0.08},{"rt":778.5,"stimulus":"\n                    <p><b>Action: <em>harvest</em></b></p>\n                    <p>This is the bee that you just saw.</p>\n                    <img src=\"bees-with-color/bee-B2DF.svg\" width=\"200\">\n                    <p><span class=\"greenText\"><b>Successful harvest!</b></span><br>Your pay has increased by $0.02. Your bonus pay is now $0.54.</p>\n            ","response":0,"trial_type":"html-button-response","trial_index":22,"time_elapsed":215898,"internal_node_id":"0.0-4.0-1.7","subject_id":"60e9af25803b556d62efa3ca","study_id":"6197b3f67c2b5cd3b6d9596a","session_id":"6197b88a01548677b091fbda","condition":"full-information","relevant_dimensions":["wings","legs"],"bee_group":{"antennae":"X","wings":"1","pattern":"X","legs":"M"},"bonus":0.08},{"rt":1164.9000000059605,"stimulus":"bees-with-color/bee-A1DM.svg","response":0,"trial_type":"image-button-response","trial_index":23,"time_elapsed":217064,"internal_node_id":"0.0-4.0-0.8","subject_id":"60e9af25803b556d62efa3ca","study_id":"6197b3f67c2b5cd3b6d9596a","session_id":"6197b88a01548677b091fbda","condition":"full-information","relevant_dimensions":["wings","legs"],"bee_group":{"antennae":"X","wings":"1","pattern":"X","legs":"M"},"action":"harvest","summary":"bad-harvest","bonus":0.08},{"rt":637.2000000178814,"stimulus":"\n                    <p><b>Action: <em>harvest</em></b></p>\n                    <p>This is the bee that you just saw.</p>\n                    <img src=\"bees-with-color/bee-A1DM.svg\" width=\"200\">\n                    <p><span class=\"redText\">Bad choice, the bee was angry.</span><br><b>You have been stung!</b><br>Your pay has been decreased by $0.10. Your bonus pay is now $0.44.</p>\n            ","response":0,"trial_type":"html-button-response","trial_index":24,"time_elapsed":217702,"internal_node_id":"0.0-4.0-1.8","subject_id":"60e9af25803b556d62efa3ca","study_id":"6197b3f67c2b5cd3b6d9596a","session_id":"6197b88a01548677b091fbda","condition":"full-information","relevant_dimensions":["wings","legs"],"bee_group":{"antennae":"X","wings":"1","pattern":"X","legs":"M"},"bonus":0.08},{"rt":1359.199999988079,"stimulus":"bees-with-color/bee-B1DF.svg","response":0,"trial_type":"image-button-response","trial_index":25,"time_elapsed":219062,"internal_node_id":"0.0-4.0-0.9","subject_id":"60e9af25803b556d62efa3ca","study_id":"6197b3f67c2b5cd3b6d9596a","session_id":"6197b88a01548677b091fbda","condition":"full-information","relevant_dimensions":["wings","legs"],"bee_group":{"antennae":"X","wings":"1","pattern":"X","legs":"M"},"action":"harvest","summary":"good-harvest","bonus":0.08},{"rt":436.7999999821186,"stimulus":"\n                    <p><b>Action: <em>harvest</em></b></p>\n                    <p>This is the bee that you just saw.</p>\n                    <img src=\"bees-with-color/bee-B1DF.svg\" width=\"200\">\n                    <p><span class=\"greenText\"><b>Successful harvest!</b></span><br>Your pay has increased by $0.02. Your bonus pay is now $0.46.</p>\n            ","response":0,"trial_type":"html-button-response","trial_index":26,"time_elapsed":219500,"internal_node_id":"0.0-4.0-1.9","subject_id":"60e9af25803b556d62efa3ca","study_id":"6197b3f67c2b5cd3b6d9596a","session_id":"6197b88a01548677b091fbda","condition":"full-information","relevant_dimensions":["wings","legs"],"bee_group":{"antennae":"X","wings":"1","pattern":"X","legs":"M"},"bonus":0.08},{"rt":967,"stimulus":"bees-with-color/bee-A2SF.svg","response":1,"trial_type":"image-button-response","trial_index":27,"time_elapsed":220468,"internal_node_id":"0.0-4.0-0.10","subject_id":"60e9af25803b556d62efa3ca","study_id":"6197b3f67c2b5cd3b6d9596a","session_id":"6197b88a01548677b091fbda","condition":"full-information","relevant_dimensions":["wings","legs"],"bee_group":{"antennae":"X","wings":"1","pattern":"X","legs":"M"},"action":"avoid","summary":"bad-avoid","bonus":0.08},{"rt":671.2000000178814,"stimulus":"\n                    <p><b>Action: <em>avoid</em></b></p>\n                    <p>This is the bee that you just saw.</p>\n                    <img src=\"bees-with-color/bee-A2SF.svg\" width=\"200\">\n                    <p><span class=\"redText\">Bad choice,</span> the bee was friendly.<br>Your bonus pay is unchanged, and remains at $0.46.</p>\n            ","response":0,"trial_type":"html-button-response","trial_index":28,"time_elapsed":221140,"internal_node_id":"0.0-4.0-1.10","subject_id":"60e9af25803b556d62efa3ca","study_id":"6197b3f67c2b5cd3b6d9596a","session_id":"6197b88a01548677b091fbda","condition":"full-information","relevant_dimensions":["wings","legs"],"bee_group":{"antennae":"X","wings":"1","pattern":"X","legs":"M"},"bonus":0.08},{"rt":2431.2000000178814,"stimulus":"bees-with-color/bee-A1SF.svg","response":0,"trial_type":"image-button-response","trial_index":29,"time_elapsed":223572,"internal_node_id":"0.0-4.0-0.11","subject_id":"60e9af25803b556d62efa3ca","study_id":"6197b3f67c2b5cd3b6d9596a","session_id":"6197b88a01548677b091fbda","condition":"full-information","relevant_dimensions":["wings","legs"],"bee_group":{"antennae":"X","wings":"1","pattern":"X","legs":"M"},"action":"harvest","summary":"good-harvest","bonus":0.08},{"rt":563.4000000059605,"stimulus":"\n                    <p><b>Action: <em>harvest</em></b></p>\n                    <p>This is the bee that you just saw.</p>\n                    <img src=\"bees-with-color/bee-A1SF.svg\" width=\"200\">\n                    <p><span class=\"greenText\"><b>Successful harvest!</b></span><br>Your pay has increased by $0.02. Your bonus pay is now $0.48.</p>\n            ","response":0,"trial_type":"html-button-response","trial_index":30,"time_elapsed":224136,"internal_node_id":"0.0-4.0-1.11","subject_id":"60e9af25803b556d62efa3ca","study_id":"6197b3f67c2b5cd3b6d9596a","session_id":"6197b88a01548677b091fbda","condition":"full-information","relevant_dimensions":["wings","legs"],"bee_group":{"antennae":"X","wings":"1","pattern":"X","legs":"M"},"bonus":0.08},{"rt":1069,"stimulus":"bees-with-color/bee-A2DF.svg","response":0,"trial_type":"image-button-response","trial_index":31,"time_elapsed":225206,"internal_node_id":"0.0-4.0-0.12","subject_id":"60e9af25803b556d62efa3ca","study_id":"6197b3f67c2b5cd3b6d9596a","session_id":"6197b88a01548677b091fbda","condition":"full-information","relevant_dimensions":["wings","legs"],"bee_group":{"antennae":"X","wings":"1","pattern":"X","legs":"M"},"action":"harvest","summary":"good-harvest","bonus":0.08},{"rt":465.40000000596046,"stimulus":"\n                    <p><b>Action: <em>harvest</em></b></p>\n                    <p>This is the bee that you just saw.</p>\n                    <img src=\"bees-with-color/bee-A2DF.svg\" width=\"200\">\n                    <p><span class=\"greenText\"><b>Successful harvest!</b></span><br>Your pay has increased by $0.02. Your bonus pay is now $0.50.</p>\n            ","response":0,"trial_type":"html-button-response","trial_index":32,"time_elapsed":225672,"internal_node_id":"0.0-4.0-1.12","subject_id":"60e9af25803b556d62efa3ca","study_id":"6197b3f67c2b5cd3b6d9596a","session_id":"6197b88a01548677b091fbda","condition":"full-information","relevant_dimensions":["wings","legs"],"bee_group":{"antennae":"X","wings":"1","pattern":"X","legs":"M"},"bonus":0.08},{"rt":1271,"stimulus":"bees-with-color/bee-A1SM.svg","response":0,"trial_type":"image-button-response","trial_index":33,"time_elapsed":226944,"internal_node_id":"0.0-4.0-0.13","subject_id":"60e9af25803b556d62efa3ca","study_id":"6197b3f67c2b5cd3b6d9596a","session_id":"6197b88a01548677b091fbda","condition":"full-information","relevant_dimensions":["wings","legs"],"bee_group":{"antennae":"X","wings":"1","pattern":"X","legs":"M"},"action":"harvest","summary":"bad-harvest","bonus":0.08},{"rt":532.6999999880791,"stimulus":"\n                    <p><b>Action: <em>harvest</em></b></p>\n                    <p>This is the bee that you just saw.</p>\n                    <img src=\"bees-with-color/bee-A1SM.svg\" width=\"200\">\n                    <p><span class=\"redText\">Bad choice, the bee was angry.</span><br><b>You have been stung!</b><br>Your pay has been decreased by $0.10. Your bonus pay is now $0.40.</p>\n            ","response":0,"trial_type":"html-button-response","trial_index":34,"time_elapsed":227478,"internal_node_id":"0.0-4.0-1.13","subject_id":"60e9af25803b556d62efa3ca","study_id":"6197b3f67c2b5cd3b6d9596a","session_id":"6197b88a01548677b091fbda","condition":"full-information","relevant_dimensions":["wings","legs"],"bee_group":{"antennae":"X","wings":"1","pattern":"X","legs":"M"},"bonus":0.08},{"rt":1118.7000000178814,"stimulus":"bees-with-color/bee-B2SF.svg","response":0,"trial_type":"image-button-response","trial_index":35,"time_elapsed":228598,"internal_node_id":"0.0-4.0-0.14","subject_id":"60e9af25803b556d62efa3ca","study_id":"6197b3f67c2b5cd3b6d9596a","session_id":"6197b88a01548677b091fbda","condition":"full-information","relevant_dimensions":["wings","legs"],"bee_group":{"antennae":"X","wings":"1","pattern":"X","legs":"M"},"action":"harvest","summary":"good-harvest","bonus":0.08},{"rt":460.90000000596046,"stimulus":"\n                    <p><b>Action: <em>harvest</em></b></p>\n                    <p>This is the bee that you just saw.</p>\n                    <img src=\"bees-with-color/bee-B2SF.svg\" width=\"200\">\n                    <p><span class=\"greenText\"><b>Successful harvest!</b></span><br>Your pay has increased by $0.02. Your bonus pay is now $0.42.</p>\n            ","response":0,"trial_type":"html-button-response","trial_index":36,"time_elapsed":229060,"internal_node_id":"0.0-4.0-1.14","subject_id":"60e9af25803b556d62efa3ca","study_id":"6197b3f67c2b5cd3b6d9596a","session_id":"6197b88a01548677b091fbda","condition":"full-information","relevant_dimensions":["wings","legs"],"bee_group":{"antennae":"X","wings":"1","pattern":"X","legs":"M"},"bonus":0.08},{"rt":796.5999999940395,"stimulus":"bees-with-color/bee-B1SF.svg","response":0,"trial_type":"image-button-response","trial_index":37,"time_elapsed":229858,"internal_node_id":"0.0-4.0-0.15","subject_id":"60e9af25803b556d62efa3ca","study_id":"6197b3f67c2b5cd3b6d9596a","session_id":"6197b88a01548677b091fbda","condition":"full-information","relevant_dimensions":["wings","legs"],"bee_group":{"antennae":"X","wings":"1","pattern":"X","legs":"M"},"action":"harvest","summary":"good-harvest","bonus":0.08},{"rt":405.09999999403954,"stimulus":"\n                    <p><b>Action: <em>harvest</em></b></p>\n                    <p>This is the bee that you just saw.</p>\n                    <img src=\"bees-with-color/bee-B1SF.svg\" width=\"200\">\n                    <p><span class=\"greenText\"><b>Successful harvest!</b></span><br>Your pay has increased by $0.02. Your bonus pay is now $0.44.</p>\n            ","response":0,"trial_type":"html-button-response","trial_index":38,"time_elapsed":230264,"internal_node_id":"0.0-4.0-1.15","subject_id":"60e9af25803b556d62efa3ca","study_id":"6197b3f67c2b5cd3b6d9596a","session_id":"6197b88a01548677b091fbda","condition":"full-information","relevant_dimensions":["wings","legs"],"bee_group":{"antennae":"X","wings":"1","pattern":"X","legs":"M"},"bonus":0.08},{"rt":1667.2000000178814,"stimulus":"bees-with-color/bee-B1SM.svg","response":0,"trial_type":"image-button-response","trial_index":39,"time_elapsed":231932,"internal_node_id":"0.0-4.0-0.16","subject_id":"60e9af25803b556d62efa3ca","study_id":"6197b3f67c2b5cd3b6d9596a","session_id":"6197b88a01548677b091fbda","condition":"full-information","relevant_dimensions":["wings","legs"],"bee_group":{"antennae":"X","wings":"1","pattern":"X","legs":"M"},"action":"harvest","summary":"bad-harvest","bonus":0.08},{"rt":476.2999999821186,"stimulus":"\n                    <p><b>Action: <em>harvest</em></b></p>\n                    <p>This is the bee that you just saw.</p>\n                    <img src=\"bees-with-color/bee-B1SM.svg\" width=\"200\">\n                    <p><span class=\"redText\">Bad choice, the bee was angry.</span><br><b>You have been stung!</b><br>Your pay has been decreased by $0.10. Your bonus pay is now $0.34.</p>\n            ","response":0,"trial_type":"html-button-response","trial_index":40,"time_elapsed":232410,"internal_node_id":"0.0-4.0-1.16","subject_id":"60e9af25803b556d62efa3ca","study_id":"6197b3f67c2b5cd3b6d9596a","session_id":"6197b88a01548677b091fbda","condition":"full-information","relevant_dimensions":["wings","legs"],"bee_group":{"antennae":"X","wings":"1","pattern":"X","legs":"M"},"bonus":0.08},{"rt":841.4000000059605,"stimulus":"bees-with-color/bee-A1SF.svg","response":0,"trial_type":"image-button-response","trial_index":41,"time_elapsed":233252,"internal_node_id":"0.0-4.0-0.17","subject_id":"60e9af25803b556d62efa3ca","study_id":"6197b3f67c2b5cd3b6d9596a","session_id":"6197b88a01548677b091fbda","condition":"full-information","relevant_dimensions":["wings","legs"],"bee_group":{"antennae":"X","wings":"1","pattern":"X","legs":"M"},"action":"harvest","summary":"good-harvest","bonus":0.08},{"rt":376.40000000596046,"stimulus":"\n                    <p><b>Action: <em>harvest</em></b></p>\n                    <p>This is the bee that you just saw.</p>\n                    <img src=\"bees-with-color/bee-A1SF.svg\" width=\"200\">\n                    <p><span class=\"greenText\"><b>Successful harvest!</b></span><br>Your pay has increased by $0.02. Your bonus pay is now $0.36.</p>\n            ","response":0,"trial_type":"html-button-response","trial_index":42,"time_elapsed":233630,"internal_node_id":"0.0-4.0-1.17","subject_id":"60e9af25803b556d62efa3ca","study_id":"6197b3f67c2b5cd3b6d9596a","session_id":"6197b88a01548677b091fbda","condition":"full-information","relevant_dimensions":["wings","legs"],"bee_group":{"antennae":"X","wings":"1","pattern":"X","legs":"M"},"bonus":0.08},{"rt":1379.4000000059605,"stimulus":"bees-with-color/bee-A2DM.svg","response":0,"trial_type":"image-button-response","trial_index":43,"time_elapsed":235010,"internal_node_id":"0.0-4.0-0.18","subject_id":"60e9af25803b556d62efa3ca","study_id":"6197b3f67c2b5cd3b6d9596a","session_id":"6197b88a01548677b091fbda","condition":"full-information","relevant_dimensions":["wings","legs"],"bee_group":{"antennae":"X","wings":"1","pattern":"X","legs":"M"},"action":"harvest","summary":"good-harvest","bonus":0.08},{"rt":363.2999999821186,"stimulus":"\n                    <p><b>Action: <em>harvest</em></b></p>\n                    <p>This is the bee that you just saw.</p>\n                    <img src=\"bees-with-color/bee-A2DM.svg\" width=\"200\">\n                    <p><span class=\"greenText\"><b>Successful harvest!</b></span><br>Your pay has increased by $0.02. Your bonus pay is now $0.38.</p>\n            ","response":0,"trial_type":"html-button-response","trial_index":44,"time_elapsed":235374,"internal_node_id":"0.0-4.0-1.18","subject_id":"60e9af25803b556d62efa3ca","study_id":"6197b3f67c2b5cd3b6d9596a","session_id":"6197b88a01548677b091fbda","condition":"full-information","relevant_dimensions":["wings","legs"],"bee_group":{"antennae":"X","wings":"1","pattern":"X","legs":"M"},"bonus":0.08},{"rt":919.0999999940395,"stimulus":"bees-with-color/bee-A2DF.svg","response":1,"trial_type":"image-button-response","trial_index":45,"time_elapsed":236294,"internal_node_id":"0.0-4.0-0.19","subject_id":"60e9af25803b556d62efa3ca","study_id":"6197b3f67c2b5cd3b6d9596a","session_id":"6197b88a01548677b091fbda","condition":"full-information","relevant_dimensions":["wings","legs"],"bee_group":{"antennae":"X","wings":"1","pattern":"X","legs":"M"},"action":"avoid","summary":"bad-avoid","bonus":0.08},{"rt":537.5999999940395,"stimulus":"\n                    <p><b>Action: <em>avoid</em></b></p>\n                    <p>This is the bee that you just saw.</p>\n                    <img src=\"bees-with-color/bee-A2DF.svg\" width=\"200\">\n                    <p><span class=\"redText\">Bad choice,</span> the bee was friendly.<br>Your bonus pay is unchanged, and remains at $0.38.</p>\n            ","response":0,"trial_type":"html-button-response","trial_index":46,"time_elapsed":236832,"internal_node_id":"0.0-4.0-1.19","subject_id":"60e9af25803b556d62efa3ca","study_id":"6197b3f67c2b5cd3b6d9596a","session_id":"6197b88a01548677b091fbda","condition":"full-information","relevant_dimensions":["wings","legs"],"bee_group":{"antennae":"X","wings":"1","pattern":"X","legs":"M"},"bonus":0.08},{"rt":1290.7000000178814,"stimulus":"bees-with-color/bee-A2SF.svg","response":0,"trial_type":"image-button-response","trial_index":47,"time_elapsed":238124,"internal_node_id":"0.0-4.0-0.20","subject_id":"60e9af25803b556d62efa3ca","study_id":"6197b3f67c2b5cd3b6d9596a","session_id":"6197b88a01548677b091fbda","condition":"full-information","relevant_dimensions":["wings","legs"],"bee_group":{"antennae":"X","wings":"1","pattern":"X","legs":"M"},"action":"harvest","summary":"good-harvest","bonus":0.08},{"rt":423.40000000596046,"stimulus":"\n                    <p><b>Action: <em>harvest</em></b></p>\n                    <p>This is the bee that you just saw.</p>\n                    <img src=\"bees-with-color/bee-A2SF.svg\" width=\"200\">\n                    <p><span class=\"greenText\"><b>Successful harvest!</b></span><br>Your pay has increased by $0.02. Your bonus pay is now $0.40.</p>\n            ","response":0,"trial_type":"html-button-response","trial_index":48,"time_elapsed":238547,"internal_node_id":"0.0-4.0-1.20","subject_id":"60e9af25803b556d62efa3ca","study_id":"6197b3f67c2b5cd3b6d9596a","session_id":"6197b88a01548677b091fbda","condition":"full-information","relevant_dimensions":["wings","legs"],"bee_group":{"antennae":"X","wings":"1","pattern":"X","legs":"M"},"bonus":0.08},{"rt":1215.5,"stimulus":"bees-with-color/bee-B2DF.svg","response":0,"trial_type":"image-button-response","trial_index":49,"time_elapsed":239764,"internal_node_id":"0.0-4.0-0.21","subject_id":"60e9af25803b556d62efa3ca","study_id":"6197b3f67c2b5cd3b6d9596a","session_id":"6197b88a01548677b091fbda","condition":"full-information","relevant_dimensions":["wings","legs"],"bee_group":{"antennae":"X","wings":"1","pattern":"X","legs":"M"},"action":"harvest","summary":"good-harvest","bonus":0.08},{"rt":360.59999999403954,"stimulus":"\n                    <p><b>Action: <em>harvest</em></b></p>\n                    <p>This is the bee that you just saw.</p>\n                    <img src=\"bees-with-color/bee-B2DF.svg\" width=\"200\">\n                    <p><span class=\"greenText\"><b>Successful harvest!</b></span><br>Your pay has increased by $0.02. Your bonus pay is now $0.42.</p>\n            ","response":0,"trial_type":"html-button-response","trial_index":50,"time_elapsed":240126,"internal_node_id":"0.0-4.0-1.21","subject_id":"60e9af25803b556d62efa3ca","study_id":"6197b3f67c2b5cd3b6d9596a","session_id":"6197b88a01548677b091fbda","condition":"full-information","relevant_dimensions":["wings","legs"],"bee_group":{"antennae":"X","wings":"1","pattern":"X","legs":"M"},"bonus":0.08},{"rt":1022.5999999940395,"stimulus":"bees-with-color/bee-B1SF.svg","response":0,"trial_type":"image-button-response","trial_index":51,"time_elapsed":241149,"internal_node_id":"0.0-4.0-0.22","subject_id":"60e9af25803b556d62efa3ca","study_id":"6197b3f67c2b5cd3b6d9596a","session_id":"6197b88a01548677b091fbda","condition":"full-information","relevant_dimensions":["wings","legs"],"bee_group":{"antennae":"X","wings":"1","pattern":"X","legs":"M"},"action":"harvest","summary":"good-harvest","bonus":0.08},{"rt":353.40000000596046,"stimulus":"\n                    <p><b>Action: <em>harvest</em></b></p>\n                    <p>This is the bee that you just saw.</p>\n                    <img src=\"bees-with-color/bee-B1SF.svg\" width=\"200\">\n                    <p><span class=\"greenText\"><b>Successful harvest!</b></span><br>Your pay has increased by $0.02. Your bonus pay is now $0.44.</p>\n            ","response":0,"trial_type":"html-button-response","trial_index":52,"time_elapsed":241503,"internal_node_id":"0.0-4.0-1.22","subject_id":"60e9af25803b556d62efa3ca","study_id":"6197b3f67c2b5cd3b6d9596a","session_id":"6197b88a01548677b091fbda","condition":"full-information","relevant_dimensions":["wings","legs"],"bee_group":{"antennae":"X","wings":"1","pattern":"X","legs":"M"},"bonus":0.08},{"rt":944.8000000119209,"stimulus":"bees-with-color/bee-B1DM.svg","response":1,"trial_type":"image-button-response","trial_index":53,"time_elapsed":242449,"internal_node_id":"0.0-4.0-0.23","subject_id":"60e9af25803b556d62efa3ca","study_id":"6197b3f67c2b5cd3b6d9596a","session_id":"6197b88a01548677b091fbda","condition":"full-information","relevant_dimensions":["wings","legs"],"bee_group":{"antennae":"X","wings":"1","pattern":"X","legs":"M"},"action":"avoid","summary":"good-avoid","bonus":0.08},{"rt":507.30000001192093,"stimulus":"\n                    <p><b>Action: <em>avoid</em></b></p>\n                    <p>This is the bee that you just saw.</p>\n                    <img src=\"bees-with-color/bee-B1DM.svg\" width=\"200\">\n                    <p><span class=\"greenText\">Good choice!</span>  This bee would have stung you.<br>Your bonus pay is unchanged, and remains at $0.44.</p>\n            ","response":0,"trial_type":"html-button-response","trial_index":54,"time_elapsed":242957,"internal_node_id":"0.0-4.0-1.23","subject_id":"60e9af25803b556d62efa3ca","study_id":"6197b3f67c2b5cd3b6d9596a","session_id":"6197b88a01548677b091fbda","condition":"full-information","relevant_dimensions":["wings","legs"],"bee_group":{"antennae":"X","wings":"1","pattern":"X","legs":"M"},"bonus":0.08},{"rt":1401.1000000238419,"stimulus":"bees-with-color/bee-A1SM.svg","response":0,"trial_type":"image-button-response","trial_index":55,"time_elapsed":244359,"internal_node_id":"0.0-4.0-0.24","subject_id":"60e9af25803b556d62efa3ca","study_id":"6197b3f67c2b5cd3b6d9596a","session_id":"6197b88a01548677b091fbda","condition":"full-information","relevant_dimensions":["wings","legs"],"bee_group":{"antennae":"X","wings":"1","pattern":"X","legs":"M"},"action":"harvest","summary":"bad-harvest","bonus":0.08},{"rt":523.1999999880791,"stimulus":"\n                    <p><b>Action: <em>harvest</em></b></p>\n                    <p>This is the bee that you just saw.</p>\n                    <img src=\"bees-with-color/bee-A1SM.svg\" width=\"200\">\n                    <p><span class=\"redText\">Bad choice, the bee was angry.</span><br><b>You have been stung!</b><br>Your pay has been decreased by $0.10. Your bonus pay is now $0.34.</p>\n            ","response":0,"trial_type":"html-button-response","trial_index":56,"time_elapsed":244883,"internal_node_id":"0.0-4.0-1.24","subject_id":"60e9af25803b556d62efa3ca","study_id":"6197b3f67c2b5cd3b6d9596a","session_id":"6197b88a01548677b091fbda","condition":"full-information","relevant_dimensions":["wings","legs"],"bee_group":{"antennae":"X","wings":"1","pattern":"X","legs":"M"},"bonus":0.08},{"rt":1360.9000000059605,"stimulus":"bees-with-color/bee-B1DF.svg","response":0,"trial_type":"image-button-response","trial_index":57,"time_elapsed":246245,"internal_node_id":"0.0-4.0-0.25","subject_id":"60e9af25803b556d62efa3ca","study_id":"6197b3f67c2b5cd3b6d9596a","session_id":"6197b88a01548677b091fbda","condition":"full-information","relevant_dimensions":["wings","legs"],"bee_group":{"antennae":"X","wings":"1","pattern":"X","legs":"M"},"action":"harvest","summary":"good-harvest","bonus":0.08},{"rt":515.2000000178814,"stimulus":"\n                    <p><b>Action: <em>harvest</em></b></p>\n                    <p>This is the bee that you just saw.</p>\n                    <img src=\"bees-with-color/bee-B1DF.svg\" width=\"200\">\n                    <p><span class=\"greenText\"><b>Successful harvest!</b></span><br>Your pay has increased by $0.02. Your bonus pay is now $0.36.</p>\n            ","response":0,"trial_type":"html-button-response","trial_index":58,"time_elapsed":246761,"internal_node_id":"0.0-4.0-1.25","subject_id":"60e9af25803b556d62efa3ca","study_id":"6197b3f67c2b5cd3b6d9596a","session_id":"6197b88a01548677b091fbda","condition":"full-information","relevant_dimensions":["wings","legs"],"bee_group":{"antennae":"X","wings":"1","pattern":"X","legs":"M"},"bonus":0.08},{"rt":2255.5999999940395,"stimulus":"bees-with-color/bee-A2SM.svg","response":0,"trial_type":"image-button-response","trial_index":59,"time_elapsed":249018,"internal_node_id":"0.0-4.0-0.26","subject_id":"60e9af25803b556d62efa3ca","study_id":"6197b3f67c2b5cd3b6d9596a","session_id":"6197b88a01548677b091fbda","condition":"full-information","relevant_dimensions":["wings","legs"],"bee_group":{"antennae":"X","wings":"1","pattern":"X","legs":"M"},"action":"harvest","summary":"good-harvest","bonus":0.08},{"rt":570.4000000059605,"stimulus":"\n                    <p><b>Action: <em>harvest</em></b></p>\n                    <p>This is the bee that you just saw.</p>\n                    <img src=\"bees-with-color/bee-A2SM.svg\" width=\"200\">\n                    <p><span class=\"greenText\"><b>Successful harvest!</b></span><br>Your pay has increased by $0.02. Your bonus pay is now $0.38.</p>\n            ","response":0,"trial_type":"html-button-response","trial_index":60,"time_elapsed":249589,"internal_node_id":"0.0-4.0-1.26","subject_id":"60e9af25803b556d62efa3ca","study_id":"6197b3f67c2b5cd3b6d9596a","session_id":"6197b88a01548677b091fbda","condition":"full-information","relevant_dimensions":["wings","legs"],"bee_group":{"antennae":"X","wings":"1","pattern":"X","legs":"M"},"bonus":0.08},{"rt":880.8000000119209,"stimulus":"bees-with-color/bee-A1DM.svg","response":0,"trial_type":"image-button-response","trial_index":61,"time_elapsed":250471,"internal_node_id":"0.0-4.0-0.27","subject_id":"60e9af25803b556d62efa3ca","study_id":"6197b3f67c2b5cd3b6d9596a","session_id":"6197b88a01548677b091fbda","condition":"full-information","relevant_dimensions":["wings","legs"],"bee_group":{"antennae":"X","wings":"1","pattern":"X","legs":"M"},"action":"harvest","summary":"bad-harvest","bonus":0.08},{"rt":504.89999997615814,"stimulus":"\n                    <p><b>Action: <em>harvest</em></b></p>\n                    <p>This is the bee that you just saw.</p>\n                    <img src=\"bees-with-color/bee-A1DM.svg\" width=\"200\">\n                    <p><span class=\"redText\">Bad choice, the bee was angry.</span><br><b>You have been stung!</b><br>Your pay has been decreased by $0.10. Your bonus pay is now $0.28.</p>\n            ","response":0,"trial_type":"html-button-response","trial_index":62,"time_elapsed":250977,"internal_node_id":"0.0-4.0-1.27","subject_id":"60e9af25803b556d62efa3ca","study_id":"6197b3f67c2b5cd3b6d9596a","session_id":"6197b88a01548677b091fbda","condition":"full-information","relevant_dimensions":["wings","legs"],"bee_group":{"antennae":"X","wings":"1","pattern":"X","legs":"M"},"bonus":0.08},{"rt":1509.199999988079,"stimulus":"bees-with-color/bee-B2DM.svg","response":0,"trial_type":"image-button-response","trial_index":63,"time_elapsed":252487,"internal_node_id":"0.0-4.0-0.28","subject_id":"60e9af25803b556d62efa3ca","study_id":"6197b3f67c2b5cd3b6d9596a","session_id":"6197b88a01548677b091fbda","condition":"full-information","relevant_dimensions":["wings","legs"],"bee_group":{"antennae":"X","wings":"1","pattern":"X","legs":"M"},"action":"harvest","summary":"good-harvest","bonus":0.08},{"rt":419.60000002384186,"stimulus":"\n                    <p><b>Action: <em>harvest</em></b></p>\n                    <p>This is the bee that you just saw.</p>\n                    <img src=\"bees-with-color/bee-B2DM.svg\" width=\"200\">\n                    <p><span class=\"greenText\"><b>Successful harvest!</b></span><br>Your pay has increased by $0.02. Your bonus pay is now $0.30.</p>\n            ","response":0,"trial_type":"html-button-response","trial_index":64,"time_elapsed":252908,"internal_node_id":"0.0-4.0-1.28","subject_id":"60e9af25803b556d62efa3ca","study_id":"6197b3f67c2b5cd3b6d9596a","session_id":"6197b88a01548677b091fbda","condition":"full-information","relevant_dimensions":["wings","legs"],"bee_group":{"antennae":"X","wings":"1","pattern":"X","legs":"M"},"bonus":0.08},{"rt":1724.9000000059605,"stimulus":"bees-with-color/bee-B2SM.svg","response":0,"trial_type":"image-button-response","trial_index":65,"time_elapsed":254633,"internal_node_id":"0.0-4.0-0.29","subject_id":"60e9af25803b556d62efa3ca","study_id":"6197b3f67c2b5cd3b6d9596a","session_id":"6197b88a01548677b091fbda","condition":"full-information","relevant_dimensions":["wings","legs"],"bee_group":{"antennae":"X","wings":"1","pattern":"X","legs":"M"},"action":"harvest","summary":"good-harvest","bonus":0.08},{"rt":456.39999997615814,"stimulus":"\n                    <p><b>Action: <em>harvest</em></b></p>\n                    <p>This is the bee that you just saw.</p>\n                    <img src=\"bees-with-color/bee-B2SM.svg\" width=\"200\">\n                    <p><span class=\"greenText\"><b>Successful harvest!</b></span><br>Your pay has increased by $0.02. Your bonus pay is now $0.32.</p>\n            ","response":0,"trial_type":"html-button-response","trial_index":66,"time_elapsed":255091,"internal_node_id":"0.0-4.0-1.29","subject_id":"60e9af25803b556d62efa3ca","study_id":"6197b3f67c2b5cd3b6d9596a","session_id":"6197b88a01548677b091fbda","condition":"full-information","relevant_dimensions":["wings","legs"],"bee_group":{"antennae":"X","wings":"1","pattern":"X","legs":"M"},"bonus":0.08},{"rt":995.2000000178814,"stimulus":"bees-with-color/bee-A1DF.svg","response":0,"trial_type":"image-button-response","trial_index":67,"time_elapsed":256087,"internal_node_id":"0.0-4.0-0.30","subject_id":"60e9af25803b556d62efa3ca","study_id":"6197b3f67c2b5cd3b6d9596a","session_id":"6197b88a01548677b091fbda","condition":"full-information","relevant_dimensions":["wings","legs"],"bee_group":{"antennae":"X","wings":"1","pattern":"X","legs":"M"},"action":"harvest","summary":"good-harvest","bonus":0.08},{"rt":319,"stimulus":"\n                    <p><b>Action: <em>harvest</em></b></p>\n                    <p>This is the bee that you just saw.</p>\n                    <img src=\"bees-with-color/bee-A1DF.svg\" width=\"200\">\n                    <p><span class=\"greenText\"><b>Successful harvest!</b></span><br>Your pay has increased by $0.02. Your bonus pay is now $0.34.</p>\n            ","response":0,"trial_type":"html-button-response","trial_index":68,"time_elapsed":256407,"internal_node_id":"0.0-4.0-1.30","subject_id":"60e9af25803b556d62efa3ca","study_id":"6197b3f67c2b5cd3b6d9596a","session_id":"6197b88a01548677b091fbda","condition":"full-information","relevant_dimensions":["wings","legs"],"bee_group":{"antennae":"X","wings":"1","pattern":"X","legs":"M"},"bonus":0.08},{"rt":1377.699999988079,"stimulus":"bees-with-color/bee-B2SF.svg","response":0,"trial_type":"image-button-response","trial_index":69,"time_elapsed":257786,"internal_node_id":"0.0-4.0-0.31","subject_id":"60e9af25803b556d62efa3ca","study_id":"6197b3f67c2b5cd3b6d9596a","session_id":"6197b88a01548677b091fbda","condition":"full-information","relevant_dimensions":["wings","legs"],"bee_group":{"antennae":"X","wings":"1","pattern":"X","legs":"M"},"action":"harvest","summary":"good-harvest","bonus":0.08},{"rt":377,"stimulus":"\n                    <p><b>Action: <em>harvest</em></b></p>\n                    <p>This is the bee that you just saw.</p>\n                    <img src=\"bees-with-color/bee-B2SF.svg\" width=\"200\">\n                    <p><span class=\"greenText\"><b>Successful harvest!</b></span><br>Your pay has increased by $0.02. Your bonus pay is now $0.36.</p>\n            ","response":0,"trial_type":"html-button-response","trial_index":70,"time_elapsed":258163,"internal_node_id":"0.0-4.0-1.31","subject_id":"60e9af25803b556d62efa3ca","study_id":"6197b3f67c2b5cd3b6d9596a","session_id":"6197b88a01548677b091fbda","condition":"full-information","relevant_dimensions":["wings","legs"],"bee_group":{"antennae":"X","wings":"1","pattern":"X","legs":"M"},"bonus":0.08},{"rt":1203.199999988079,"stimulus":"bees-with-color/bee-A1DM.svg","response":1,"trial_type":"image-button-response","trial_index":71,"time_elapsed":259367,"internal_node_id":"0.0-4.0-0.32","subject_id":"60e9af25803b556d62efa3ca","study_id":"6197b3f67c2b5cd3b6d9596a","session_id":"6197b88a01548677b091fbda","condition":"full-information","relevant_dimensions":["wings","legs"],"bee_group":{"antennae":"X","wings":"1","pattern":"X","legs":"M"},"action":"avoid","summary":"good-avoid","bonus":0.08},{"rt":392.89999997615814,"stimulus":"\n                    <p><b>Action: <em>avoid</em></b></p>\n                    <p>This is the bee that you just saw.</p>\n                    <img src=\"bees-with-color/bee-A1DM.svg\" width=\"200\">\n                    <p><span class=\"greenText\">Good choice!</span>  This bee would have stung you.<br>Your bonus pay is unchanged, and remains at $0.36.</p>\n            ","response":0,"trial_type":"html-button-response","trial_index":72,"time_elapsed":259761,"internal_node_id":"0.0-4.0-1.32","subject_id":"60e9af25803b556d62efa3ca","study_id":"6197b3f67c2b5cd3b6d9596a","session_id":"6197b88a01548677b091fbda","condition":"full-information","relevant_dimensions":["wings","legs"],"bee_group":{"antennae":"X","wings":"1","pattern":"X","legs":"M"},"bonus":0.08},{"rt":2413.5,"stimulus":"bees-with-color/bee-B2DF.svg","response":0,"trial_type":"image-button-response","trial_index":73,"time_elapsed":262175,"internal_node_id":"0.0-4.0-0.33","subject_id":"60e9af25803b556d62efa3ca","study_id":"6197b3f67c2b5cd3b6d9596a","session_id":"6197b88a01548677b091fbda","condition":"full-information","relevant_dimensions":["wings","legs"],"bee_group":{"antennae":"X","wings":"1","pattern":"X","legs":"M"},"action":"harvest","summary":"good-harvest","bonus":0.08},{"rt":777.3999999761581,"stimulus":"\n                    <p><b>Action: <em>harvest</em></b></p>\n                    <p>This is the bee that you just saw.</p>\n                    <img src=\"bees-with-color/bee-B2DF.svg\" width=\"200\">\n                    <p><span class=\"greenText\"><b>Successful harvest!</b></span><br>Your pay has increased by $0.02. Your bonus pay is now $0.38.</p>\n            ","response":0,"trial_type":"html-button-response","trial_index":74,"time_elapsed":262953,"internal_node_id":"0.0-4.0-1.33","subject_id":"60e9af25803b556d62efa3ca","study_id":"6197b3f67c2b5cd3b6d9596a","session_id":"6197b88a01548677b091fbda","condition":"full-information","relevant_dimensions":["wings","legs"],"bee_group":{"antennae":"X","wings":"1","pattern":"X","legs":"M"},"bonus":0.08},{"rt":1262.7999999821186,"stimulus":"bees-with-color/bee-A1SM.svg","response":0,"trial_type":"image-button-response","trial_index":75,"time_elapsed":264217,"internal_node_id":"0.0-4.0-0.34","subject_id":"60e9af25803b556d62efa3ca","study_id":"6197b3f67c2b5cd3b6d9596a","session_id":"6197b88a01548677b091fbda","condition":"full-information","relevant_dimensions":["wings","legs"],"bee_group":{"antennae":"X","wings":"1","pattern":"X","legs":"M"},"action":"harvest","summary":"bad-harvest","bonus":0.08},{"rt":491.2000000178814,"stimulus":"\n                    <p><b>Action: <em>harvest</em></b></p>\n                    <p>This is the bee that you just saw.</p>\n                    <img src=\"bees-with-color/bee-A1SM.svg\" width=\"200\">\n                    <p><span class=\"redText\">Bad choice, the bee was angry.</span><br><b>You have been stung!</b><br>Your pay has been decreased by $0.10. Your bonus pay is now $0.28.</p>\n            ","response":0,"trial_type":"html-button-response","trial_index":76,"time_elapsed":264709,"internal_node_id":"0.0-4.0-1.34","subject_id":"60e9af25803b556d62efa3ca","study_id":"6197b3f67c2b5cd3b6d9596a","session_id":"6197b88a01548677b091fbda","condition":"full-information","relevant_dimensions":["wings","legs"],"bee_group":{"antennae":"X","wings":"1","pattern":"X","legs":"M"},"bonus":0.08},{"rt":1653.199999988079,"stimulus":"bees-with-color/bee-A2SM.svg","response":1,"trial_type":"image-button-response","trial_index":77,"time_elapsed":266363,"internal_node_id":"0.0-4.0-0.35","subject_id":"60e9af25803b556d62efa3ca","study_id":"6197b3f67c2b5cd3b6d9596a","session_id":"6197b88a01548677b091fbda","condition":"full-information","relevant_dimensions":["wings","legs"],"bee_group":{"antennae":"X","wings":"1","pattern":"X","legs":"M"},"action":"avoid","summary":"bad-avoid","bonus":0.08},{"rt":643.2999999821186,"stimulus":"\n                    <p><b>Action: <em>avoid</em></b></p>\n                    <p>This is the bee that you just saw.</p>\n                    <img src=\"bees-with-color/bee-A2SM.svg\" width=\"200\">\n                    <p><span class=\"redText\">Bad choice,</span> the bee was friendly.<br>Your bonus pay is unchanged, and remains at $0.28.</p>\n            ","response":0,"trial_type":"html-button-response","trial_index":78,"time_elapsed":267007,"internal_node_id":"0.0-4.0-1.35","subject_id":"60e9af25803b556d62efa3ca","study_id":"6197b3f67c2b5cd3b6d9596a","session_id":"6197b88a01548677b091fbda","condition":"full-information","relevant_dimensions":["wings","legs"],"bee_group":{"antennae":"X","wings":"1","pattern":"X","legs":"M"},"bonus":0.08},{"rt":3001.2999999821186,"stimulus":"bees-with-color/bee-A2SF.svg","response":0,"trial_type":"image-button-response","trial_index":79,"time_elapsed":270009,"internal_node_id":"0.0-4.0-0.36","subject_id":"60e9af25803b556d62efa3ca","study_id":"6197b3f67c2b5cd3b6d9596a","session_id":"6197b88a01548677b091fbda","condition":"full-information","relevant_dimensions":["wings","legs"],"bee_group":{"antennae":"X","wings":"1","pattern":"X","legs":"M"},"action":"harvest","summary":"good-harvest","bonus":0.08},{"rt":363.30000001192093,"stimulus":"\n                    <p><b>Action: <em>harvest</em></b></p>\n                    <p>This is the bee that you just saw.</p>\n                    <img src=\"bees-with-color/bee-A2SF.svg\" width=\"200\">\n                    <p><span class=\"greenText\"><b>Successful harvest!</b></span><br>Your pay has increased by $0.02. Your bonus pay is now $0.30.</p>\n            ","response":0,"trial_type":"html-button-response","trial_index":80,"time_elapsed":270373,"internal_node_id":"0.0-4.0-1.36","subject_id":"60e9af25803b556d62efa3ca","study_id":"6197b3f67c2b5cd3b6d9596a","session_id":"6197b88a01548677b091fbda","condition":"full-information","relevant_dimensions":["wings","legs"],"bee_group":{"antennae":"X","wings":"1","pattern":"X","legs":"M"},"bonus":0.08},{"rt":1884.5999999940395,"stimulus":"bees-with-color/bee-B2SM.svg","response":1,"trial_type":"image-button-response","trial_index":81,"time_elapsed":272259,"internal_node_id":"0.0-4.0-0.37","subject_id":"60e9af25803b556d62efa3ca","study_id":"6197b3f67c2b5cd3b6d9596a","session_id":"6197b88a01548677b091fbda","condition":"full-information","relevant_dimensions":["wings","legs"],"bee_group":{"antennae":"X","wings":"1","pattern":"X","legs":"M"},"action":"avoid","summary":"bad-avoid","bonus":0.08},{"rt":501.2999999821186,"stimulus":"\n                    <p><b>Action: <em>avoid</em></b></p>\n                    <p>This is the bee that you just saw.</p>\n                    <img src=\"bees-with-color/bee-B2SM.svg\" width=\"200\">\n                    <p><span class=\"redText\">Bad choice,</span> the bee was friendly.<br>Your bonus pay is unchanged, and remains at $0.30.</p>\n            ","response":0,"trial_type":"html-button-response","trial_index":82,"time_elapsed":272761,"internal_node_id":"0.0-4.0-1.37","subject_id":"60e9af25803b556d62efa3ca","study_id":"6197b3f67c2b5cd3b6d9596a","session_id":"6197b88a01548677b091fbda","condition":"full-information","relevant_dimensions":["wings","legs"],"bee_group":{"antennae":"X","wings":"1","pattern":"X","legs":"M"},"bonus":0.08},{"rt":1055.5999999940395,"stimulus":"bees-with-color/bee-A2DF.svg","response":0,"trial_type":"image-button-response","trial_index":83,"time_elapsed":273817,"internal_node_id":"0.0-4.0-0.38","subject_id":"60e9af25803b556d62efa3ca","study_id":"6197b3f67c2b5cd3b6d9596a","session_id":"6197b88a01548677b091fbda","condition":"full-information","relevant_dimensions":["wings","legs"],"bee_group":{"antennae":"X","wings":"1","pattern":"X","legs":"M"},"action":"harvest","summary":"good-harvest","bonus":0.08},{"rt":366.59999999403954,"stimulus":"\n                    <p><b>Action: <em>harvest</em></b></p>\n                    <p>This is the bee that you just saw.</p>\n                    <img src=\"bees-with-color/bee-A2DF.svg\" width=\"200\">\n                    <p><span class=\"greenText\"><b>Successful harvest!</b></span><br>Your pay has increased by $0.02. Your bonus pay is now $0.32.</p>\n            ","response":0,"trial_type":"html-button-response","trial_index":84,"time_elapsed":274185,"internal_node_id":"0.0-4.0-1.38","subject_id":"60e9af25803b556d62efa3ca","study_id":"6197b3f67c2b5cd3b6d9596a","session_id":"6197b88a01548677b091fbda","condition":"full-information","relevant_dimensions":["wings","legs"],"bee_group":{"antennae":"X","wings":"1","pattern":"X","legs":"M"},"bonus":0.08},{"rt":1423.4000000059605,"stimulus":"bees-with-color/bee-A2DM.svg","response":0,"trial_type":"image-button-response","trial_index":85,"time_elapsed":275609,"internal_node_id":"0.0-4.0-0.39","subject_id":"60e9af25803b556d62efa3ca","study_id":"6197b3f67c2b5cd3b6d9596a","session_id":"6197b88a01548677b091fbda","condition":"full-information","relevant_dimensions":["wings","legs"],"bee_group":{"antennae":"X","wings":"1","pattern":"X","legs":"M"},"action":"harvest","summary":"good-harvest","bonus":0.08},{"rt":353.09999999403954,"stimulus":"\n                    <p><b>Action: <em>harvest</em></b></p>\n                    <p>This is the bee that you just saw.</p>\n                    <img src=\"bees-with-color/bee-A2DM.svg\" width=\"200\">\n                    <p><span class=\"greenText\"><b>Successful harvest!</b></span><br>Your pay has increased by $0.02. Your bonus pay is now $0.34.</p>\n            ","response":0,"trial_type":"html-button-response","trial_index":86,"time_elapsed":275963,"internal_node_id":"0.0-4.0-1.39","subject_id":"60e9af25803b556d62efa3ca","study_id":"6197b3f67c2b5cd3b6d9596a","session_id":"6197b88a01548677b091fbda","condition":"full-information","relevant_dimensions":["wings","legs"],"bee_group":{"antennae":"X","wings":"1","pattern":"X","legs":"M"},"bonus":0.08},{"rt":834.7999999821186,"stimulus":"bees-with-color/bee-B1SM.svg","response":0,"trial_type":"image-button-response","trial_index":87,"time_elapsed":276799,"internal_node_id":"0.0-4.0-0.40","subject_id":"60e9af25803b556d62efa3ca","study_id":"6197b3f67c2b5cd3b6d9596a","session_id":"6197b88a01548677b091fbda","condition":"full-information","relevant_dimensions":["wings","legs"],"bee_group":{"antennae":"X","wings":"1","pattern":"X","legs":"M"},"action":"harvest","summary":"bad-harvest","bonus":0.08},{"rt":629.2000000178814,"stimulus":"\n                    <p><b>Action: <em>harvest</em></b></p>\n                    <p>This is the bee that you just saw.</p>\n                    <img src=\"bees-with-color/bee-B1SM.svg\" width=\"200\">\n                    <p><span class=\"redText\">Bad choice, the bee was angry.</span><br><b>You have been stung!</b><br>Your pay has been decreased by $0.10. Your bonus pay is now $0.24.</p>\n            ","response":0,"trial_type":"html-button-response","trial_index":88,"time_elapsed":277429,"internal_node_id":"0.0-4.0-1.40","subject_id":"60e9af25803b556d62efa3ca","study_id":"6197b3f67c2b5cd3b6d9596a","session_id":"6197b88a01548677b091fbda","condition":"full-information","relevant_dimensions":["wings","legs"],"bee_group":{"antennae":"X","wings":"1","pattern":"X","legs":"M"},"bonus":0.08},{"rt":3791.300000011921,"stimulus":"bees-with-color/bee-B1DF.svg","response":0,"trial_type":"image-button-response","trial_index":89,"time_elapsed":281221,"internal_node_id":"0.0-4.0-0.41","subject_id":"60e9af25803b556d62efa3ca","study_id":"6197b3f67c2b5cd3b6d9596a","session_id":"6197b88a01548677b091fbda","condition":"full-information","relevant_dimensions":["wings","legs"],"bee_group":{"antennae":"X","wings":"1","pattern":"X","legs":"M"},"action":"harvest","summary":"good-harvest","bonus":0.08},{"rt":378.80000001192093,"stimulus":"\n                    <p><b>Action: <em>harvest</em></b></p>\n                    <p>This is the bee that you just saw.</p>\n                    <img src=\"bees-with-color/bee-B1DF.svg\" width=\"200\">\n                    <p><span class=\"greenText\"><b>Successful harvest!</b></span><br>Your pay has increased by $0.02. Your bonus pay is now $0.26.</p>\n            ","response":0,"trial_type":"html-button-response","trial_index":90,"time_elapsed":281601,"internal_node_id":"0.0-4.0-1.41","subject_id":"60e9af25803b556d62efa3ca","study_id":"6197b3f67c2b5cd3b6d9596a","session_id":"6197b88a01548677b091fbda","condition":"full-information","relevant_dimensions":["wings","legs"],"bee_group":{"antennae":"X","wings":"1","pattern":"X","legs":"M"},"bonus":0.08},{"rt":1610.800000011921,"stimulus":"bees-with-color/bee-A1SF.svg","response":0,"trial_type":"image-button-response","trial_index":91,"time_elapsed":283213,"internal_node_id":"0.0-4.0-0.42","subject_id":"60e9af25803b556d62efa3ca","study_id":"6197b3f67c2b5cd3b6d9596a","session_id":"6197b88a01548677b091fbda","condition":"full-information","relevant_dimensions":["wings","legs"],"bee_group":{"antennae":"X","wings":"1","pattern":"X","legs":"M"},"action":"harvest","summary":"good-harvest","bonus":0.08},{"rt":389.2000000178814,"stimulus":"\n                    <p><b>Action: <em>harvest</em></b></p>\n                    <p>This is the bee that you just saw.</p>\n                    <img src=\"bees-with-color/bee-A1SF.svg\" width=\"200\">\n                    <p><span class=\"greenText\"><b>Successful harvest!</b></span><br>Your pay has increased by $0.02. Your bonus pay is now $0.28.</p>\n            ","response":0,"trial_type":"html-button-response","trial_index":92,"time_elapsed":283603,"internal_node_id":"0.0-4.0-1.42","subject_id":"60e9af25803b556d62efa3ca","study_id":"6197b3f67c2b5cd3b6d9596a","session_id":"6197b88a01548677b091fbda","condition":"full-information","relevant_dimensions":["wings","legs"],"bee_group":{"antennae":"X","wings":"1","pattern":"X","legs":"M"},"bonus":0.08},{"rt":703.7000000178814,"stimulus":"bees-with-color/bee-B1SF.svg","response":0,"trial_type":"image-button-response","trial_index":93,"time_elapsed":284308,"internal_node_id":"0.0-4.0-0.43","subject_id":"60e9af25803b556d62efa3ca","study_id":"6197b3f67c2b5cd3b6d9596a","session_id":"6197b88a01548677b091fbda","condition":"full-information","relevant_dimensions":["wings","legs"],"bee_group":{"antennae":"X","wings":"1","pattern":"X","legs":"M"},"action":"harvest","summary":"good-harvest","bonus":0.08},{"rt":290.7000000178814,"stimulus":"\n                    <p><b>Action: <em>harvest</em></b></p>\n                    <p>This is the bee that you just saw.</p>\n                    <img src=\"bees-with-color/bee-B1SF.svg\" width=\"200\">\n                    <p><span class=\"greenText\"><b>Successful harvest!</b></span><br>Your pay has increased by $0.02. Your bonus pay is now $0.30.</p>\n            ","response":0,"trial_type":"html-button-response","trial_index":94,"time_elapsed":284599,"internal_node_id":"0.0-4.0-1.43","subject_id":"60e9af25803b556d62efa3ca","study_id":"6197b3f67c2b5cd3b6d9596a","session_id":"6197b88a01548677b091fbda","condition":"full-information","relevant_dimensions":["wings","legs"],"bee_group":{"antennae":"X","wings":"1","pattern":"X","legs":"M"},"bonus":0.08},{"rt":1004.9000000059605,"stimulus":"bees-with-color/bee-B2SF.svg","response":0,"trial_type":"image-button-response","trial_index":95,"time_elapsed":285605,"internal_node_id":"0.0-4.0-0.44","subject_id":"60e9af25803b556d62efa3ca","study_id":"6197b3f67c2b5cd3b6d9596a","session_id":"6197b88a01548677b091fbda","condition":"full-information","relevant_dimensions":["wings","legs"],"bee_group":{"antennae":"X","wings":"1","pattern":"X","legs":"M"},"action":"harvest","summary":"good-harvest","bonus":0.08},{"rt":330.7999999821186,"stimulus":"\n                    <p><b>Action: <em>harvest</em></b></p>\n                    <p>This is the bee that you just saw.</p>\n                    <img src=\"bees-with-color/bee-B2SF.svg\" width=\"200\">\n                    <p><span class=\"greenText\"><b>Successful harvest!</b></span><br>Your pay has increased by $0.02. Your bonus pay is now $0.32.</p>\n            ","response":0,"trial_type":"html-button-response","trial_index":96,"time_elapsed":285937,"internal_node_id":"0.0-4.0-1.44","subject_id":"60e9af25803b556d62efa3ca","study_id":"6197b3f67c2b5cd3b6d9596a","session_id":"6197b88a01548677b091fbda","condition":"full-information","relevant_dimensions":["wings","legs"],"bee_group":{"antennae":"X","wings":"1","pattern":"X","legs":"M"},"bonus":0.08},{"rt":1423.699999988079,"stimulus":"bees-with-color/bee-B1DM.svg","response":0,"trial_type":"image-button-response","trial_index":97,"time_elapsed":287361,"internal_node_id":"0.0-4.0-0.45","subject_id":"60e9af25803b556d62efa3ca","study_id":"6197b3f67c2b5cd3b6d9596a","session_id":"6197b88a01548677b091fbda","condition":"full-information","relevant_dimensions":["wings","legs"],"bee_group":{"antennae":"X","wings":"1","pattern":"X","legs":"M"},"action":"harvest","summary":"bad-harvest","bonus":0.08},{"rt":342.80000001192093,"stimulus":"\n                    <p><b>Action: <em>harvest</em></b></p>\n                    <p>This is the bee that you just saw.</p>\n                    <img src=\"bees-with-color/bee-B1DM.svg\" width=\"200\">\n                    <p><span class=\"redText\">Bad choice, the bee was angry.</span><br><b>You have been stung!</b><br>Your pay has been decreased by $0.10. Your bonus pay is now $0.22.</p>\n            ","response":0,"trial_type":"html-button-response","trial_index":98,"time_elapsed":287705,"internal_node_id":"0.0-4.0-1.45","subject_id":"60e9af25803b556d62efa3ca","study_id":"6197b3f67c2b5cd3b6d9596a","session_id":"6197b88a01548677b091fbda","condition":"full-information","relevant_dimensions":["wings","legs"],"bee_group":{"antennae":"X","wings":"1","pattern":"X","legs":"M"},"bonus":0.08},{"rt":904.8000000119209,"stimulus":"bees-with-color/bee-A1DF.svg","response":0,"trial_type":"image-button-response","trial_index":99,"time_elapsed":288611,"internal_node_id":"0.0-4.0-0.46","subject_id":"60e9af25803b556d62efa3ca","study_id":"6197b3f67c2b5cd3b6d9596a","session_id":"6197b88a01548677b091fbda","condition":"full-information","relevant_dimensions":["wings","legs"],"bee_group":{"antennae":"X","wings":"1","pattern":"X","legs":"M"},"action":"harvest","summary":"good-harvest","bonus":0.08},{"rt":296.40000000596046,"stimulus":"\n                    <p><b>Action: <em>harvest</em></b></p>\n                    <p>This is the bee that you just saw.</p>\n                    <img src=\"bees-with-color/bee-A1DF.svg\" width=\"200\">\n                    <p><span class=\"greenText\"><b>Successful harvest!</b></span><br>Your pay has increased by $0.02. Your bonus pay is now $0.24.</p>\n            ","response":0,"trial_type":"html-button-response","trial_index":100,"time_elapsed":288909,"internal_node_id":"0.0-4.0-1.46","subject_id":"60e9af25803b556d62efa3ca","study_id":"6197b3f67c2b5cd3b6d9596a","session_id":"6197b88a01548677b091fbda","condition":"full-information","relevant_dimensions":["wings","legs"],"bee_group":{"antennae":"X","wings":"1","pattern":"X","legs":"M"},"bonus":0.08},{"rt":1329.5,"stimulus":"bees-with-color/bee-B2DM.svg","response":1,"trial_type":"image-button-response","trial_index":101,"time_elapsed":290239,"internal_node_id":"0.0-4.0-0.47","subject_id":"60e9af25803b556d62efa3ca","study_id":"6197b3f67c2b5cd3b6d9596a","session_id":"6197b88a01548677b091fbda","condition":"full-information","relevant_dimensions":["wings","legs"],"bee_group":{"antennae":"X","wings":"1","pattern":"X","legs":"M"},"action":"avoid","summary":"bad-avoid","bonus":0.08},{"rt":415.40000000596046,"stimulus":"\n                    <p><b>Action: <em>avoid</em></b></p>\n                    <p>This is the bee that you just saw.</p>\n                    <img src=\"bees-with-color/bee-B2DM.svg\" width=\"200\">\n                    <p><span class=\"redText\">Bad choice,</span> the bee was friendly.<br>Your bonus pay is unchanged, and remains at $0.24.</p>\n            ","response":0,"trial_type":"html-button-response","trial_index":102,"time_elapsed":290655,"internal_node_id":"0.0-4.0-1.47","subject_id":"60e9af25803b556d62efa3ca","study_id":"6197b3f67c2b5cd3b6d9596a","session_id":"6197b88a01548677b091fbda","condition":"full-information","relevant_dimensions":["wings","legs"],"bee_group":{"antennae":"X","wings":"1","pattern":"X","legs":"M"},"bonus":0.08},{"rt":815.5,"stimulus":"bees-with-color/bee-B2SF.svg","response":0,"trial_type":"image-button-response","trial_index":103,"time_elapsed":291471,"internal_node_id":"0.0-4.0-0.48","subject_id":"60e9af25803b556d62efa3ca","study_id":"6197b3f67c2b5cd3b6d9596a","session_id":"6197b88a01548677b091fbda","condition":"full-information","relevant_dimensions":["wings","legs"],"bee_group":{"antennae":"X","wings":"1","pattern":"X","legs":"M"},"action":"harvest","summary":"good-harvest","bonus":0.08},{"rt":315.09999999403954,"stimulus":"\n                    <p><b>Action: <em>harvest</em></b></p>\n                    <p>This is the bee that you just saw.</p>\n                    <img src=\"bees-with-color/bee-B2SF.svg\" width=\"200\">\n                    <p><span class=\"greenText\"><b>Successful harvest!</b></span><br>Your pay has increased by $0.02. Your bonus pay is now $0.26.</p>\n            ","response":0,"trial_type":"html-button-response","trial_index":104,"time_elapsed":291787,"internal_node_id":"0.0-4.0-1.48","subject_id":"60e9af25803b556d62efa3ca","study_id":"6197b3f67c2b5cd3b6d9596a","session_id":"6197b88a01548677b091fbda","condition":"full-information","relevant_dimensions":["wings","legs"],"bee_group":{"antennae":"X","wings":"1","pattern":"X","legs":"M"},"bonus":0.08},{"rt":893.6999999880791,"stimulus":"bees-with-color/bee-B1DM.svg","response":0,"trial_type":"image-button-response","trial_index":105,"time_elapsed":292682,"internal_node_id":"0.0-4.0-0.49","subject_id":"60e9af25803b556d62efa3ca","study_id":"6197b3f67c2b5cd3b6d9596a","session_id":"6197b88a01548677b091fbda","condition":"full-information","relevant_dimensions":["wings","legs"],"bee_group":{"antennae":"X","wings":"1","pattern":"X","legs":"M"},"action":"harvest","summary":"bad-harvest","bonus":0.08},{"rt":684.5,"stimulus":"\n                    <p><b>Action: <em>harvest</em></b></p>\n                    <p>This is the bee that you just saw.</p>\n                    <img src=\"bees-with-color/bee-B1DM.svg\" width=\"200\">\n                    <p><span class=\"redText\">Bad choice, the bee was angry.</span><br><b>You have been stung!</b><br>Your pay has been decreased by $0.10. Your bonus pay is now $0.16.</p>\n            ","response":0,"trial_type":"html-button-response","trial_index":106,"time_elapsed":293367,"internal_node_id":"0.0-4.0-1.49","subject_id":"60e9af25803b556d62efa3ca","study_id":"6197b3f67c2b5cd3b6d9596a","session_id":"6197b88a01548677b091fbda","condition":"full-information","relevant_dimensions":["wings","legs"],"bee_group":{"antennae":"X","wings":"1","pattern":"X","legs":"M"},"bonus":0.08},{"rt":851.1999999880791,"stimulus":"bees-with-color/bee-B2SM.svg","response":0,"trial_type":"image-button-response","trial_index":107,"time_elapsed":294219,"internal_node_id":"0.0-4.0-0.50","subject_id":"60e9af25803b556d62efa3ca","study_id":"6197b3f67c2b5cd3b6d9596a","session_id":"6197b88a01548677b091fbda","condition":"full-information","relevant_dimensions":["wings","legs"],"bee_group":{"antennae":"X","wings":"1","pattern":"X","legs":"M"},"action":"harvest","summary":"good-harvest","bonus":0.08},{"rt":395,"stimulus":"\n                    <p><b>Action: <em>harvest</em></b></p>\n                    <p>This is the bee that you just saw.</p>\n                    <img src=\"bees-with-color/bee-B2SM.svg\" width=\"200\">\n                    <p><span class=\"greenText\"><b>Successful harvest!</b></span><br>Your pay has increased by $0.02. Your bonus pay is now $0.18.</p>\n            ","response":0,"trial_type":"html-button-response","trial_index":108,"time_elapsed":294615,"internal_node_id":"0.0-4.0-1.50","subject_id":"60e9af25803b556d62efa3ca","study_id":"6197b3f67c2b5cd3b6d9596a","session_id":"6197b88a01548677b091fbda","condition":"full-information","relevant_dimensions":["wings","legs"],"bee_group":{"antennae":"X","wings":"1","pattern":"X","legs":"M"},"bonus":0.08},{"rt":1395.5999999940395,"stimulus":"bees-with-color/bee-A1SM.svg","response":0,"trial_type":"image-button-response","trial_index":109,"time_elapsed":296011,"internal_node_id":"0.0-4.0-0.51","subject_id":"60e9af25803b556d62efa3ca","study_id":"6197b3f67c2b5cd3b6d9596a","session_id":"6197b88a01548677b091fbda","condition":"full-information","relevant_dimensions":["wings","legs"],"bee_group":{"antennae":"X","wings":"1","pattern":"X","legs":"M"},"action":"harvest","summary":"bad-harvest","bonus":0.08},{"rt":416.69999998807907,"stimulus":"\n                    <p><b>Action: <em>harvest</em></b></p>\n                    <p>This is the bee that you just saw.</p>\n                    <img src=\"bees-with-color/bee-A1SM.svg\" width=\"200\">\n                    <p><span class=\"redText\">Bad choice, the bee was angry.</span><br><b>You have been stung!</b><br>Your pay has been decreased by $0.10. Your bonus pay is now $0.08.</p>\n            ","response":0,"trial_type":"html-button-response","trial_index":110,"time_elapsed":296429,"internal_node_id":"0.0-4.0-1.51","subject_id":"60e9af25803b556d62efa3ca","study_id":"6197b3f67c2b5cd3b6d9596a","session_id":"6197b88a01548677b091fbda","condition":"full-information","relevant_dimensions":["wings","legs"],"bee_group":{"antennae":"X","wings":"1","pattern":"X","legs":"M"},"bonus":0.08},{"rt":1699.300000011921,"stimulus":"bees-with-color/bee-A2SF.svg","response":0,"trial_type":"image-button-response","trial_index":111,"time_elapsed":298129,"internal_node_id":"0.0-4.0-0.52","subject_id":"60e9af25803b556d62efa3ca","study_id":"6197b3f67c2b5cd3b6d9596a","session_id":"6197b88a01548677b091fbda","condition":"full-information","relevant_dimensions":["wings","legs"],"bee_group":{"antennae":"X","wings":"1","pattern":"X","legs":"M"},"action":"harvest","summary":"good-harvest","bonus":0.08},{"rt":308.90000000596046,"stimulus":"\n                    <p><b>Action: <em>harvest</em></b></p>\n                    <p>This is the bee that you just saw.</p>\n                    <img src=\"bees-with-color/bee-A2SF.svg\" width=\"200\">\n                    <p><span class=\"greenText\"><b>Successful harvest!</b></span><br>Your pay has increased by $0.02. Your bonus pay is now $0.10.</p>\n            ","response":0,"trial_type":"html-button-response","trial_index":112,"time_elapsed":298439,"internal_node_id":"0.0-4.0-1.52","subject_id":"60e9af25803b556d62efa3ca","study_id":"6197b3f67c2b5cd3b6d9596a","session_id":"6197b88a01548677b091fbda","condition":"full-information","relevant_dimensions":["wings","legs"],"bee_group":{"antennae":"X","wings":"1","pattern":"X","legs":"M"},"bonus":0.08},{"rt":955.3000000119209,"stimulus":"bees-with-color/bee-B2DM.svg","response":1,"trial_type":"image-button-response","trial_index":113,"time_elapsed":299395,"internal_node_id":"0.0-4.0-0.53","subject_id":"60e9af25803b556d62efa3ca","study_id":"6197b3f67c2b5cd3b6d9596a","session_id":"6197b88a01548677b091fbda","condition":"full-information","relevant_dimensions":["wings","legs"],"bee_group":{"antennae":"X","wings":"1","pattern":"X","legs":"M"},"action":"avoid","summary":"bad-avoid","bonus":0.08},{"rt":369.2999999821186,"stimulus":"\n                    <p><b>Action: <em>avoid</em></b></p>\n                    <p>This is the bee that you just saw.</p>\n                    <img src=\"bees-with-color/bee-B2DM.svg\" width=\"200\">\n                    <p><span class=\"redText\">Bad choice,</span> the bee was friendly.<br>Your bonus pay is unchanged, and remains at $0.10.</p>\n            ","response":0,"trial_type":"html-button-response","trial_index":114,"time_elapsed":299765,"internal_node_id":"0.0-4.0-1.53","subject_id":"60e9af25803b556d62efa3ca","study_id":"6197b3f67c2b5cd3b6d9596a","session_id":"6197b88a01548677b091fbda","condition":"full-information","relevant_dimensions":["wings","legs"],"bee_group":{"antennae":"X","wings":"1","pattern":"X","legs":"M"},"bonus":0.08},{"rt":919.2999999821186,"stimulus":"bees-with-color/bee-B1DF.svg","response":0,"trial_type":"image-button-response","trial_index":115,"time_elapsed":300685,"internal_node_id":"0.0-4.0-0.54","subject_id":"60e9af25803b556d62efa3ca","study_id":"6197b3f67c2b5cd3b6d9596a","session_id":"6197b88a01548677b091fbda","condition":"full-information","relevant_dimensions":["wings","legs"],"bee_group":{"antennae":"X","wings":"1","pattern":"X","legs":"M"},"action":"harvest","summary":"good-harvest","bonus":0.08},{"rt":288.90000000596046,"stimulus":"\n                    <p><b>Action: <em>harvest</em></b></p>\n                    <p>This is the bee that you just saw.</p>\n                    <img src=\"bees-with-color/bee-B1DF.svg\" width=\"200\">\n                    <p><span class=\"greenText\"><b>Successful harvest!</b></span><br>Your pay has increased by $0.02. Your bonus pay is now $0.12.</p>\n            ","response":0,"trial_type":"html-button-response","trial_index":116,"time_elapsed":300975,"internal_node_id":"0.0-4.0-1.54","subject_id":"60e9af25803b556d62efa3ca","study_id":"6197b3f67c2b5cd3b6d9596a","session_id":"6197b88a01548677b091fbda","condition":"full-information","relevant_dimensions":["wings","legs"],"bee_group":{"antennae":"X","wings":"1","pattern":"X","legs":"M"},"bonus":0.08},{"rt":851.2000000178814,"stimulus":"bees-with-color/bee-B1SF.svg","response":0,"trial_type":"image-button-response","trial_index":117,"time_elapsed":301827,"internal_node_id":"0.0-4.0-0.55","subject_id":"60e9af25803b556d62efa3ca","study_id":"6197b3f67c2b5cd3b6d9596a","session_id":"6197b88a01548677b091fbda","condition":"full-information","relevant_dimensions":["wings","legs"],"bee_group":{"antennae":"X","wings":"1","pattern":"X","legs":"M"},"action":"harvest","summary":"good-harvest","bonus":0.08},{"rt":329,"stimulus":"\n                    <p><b>Action: <em>harvest</em></b></p>\n                    <p>This is the bee that you just saw.</p>\n                    <img src=\"bees-with-color/bee-B1SF.svg\" width=\"200\">\n                    <p><span class=\"greenText\"><b>Successful harvest!</b></span><br>Your pay has increased by $0.02. Your bonus pay is now $0.14.</p>\n            ","response":0,"trial_type":"html-button-response","trial_index":118,"time_elapsed":302157,"internal_node_id":"0.0-4.0-1.55","subject_id":"60e9af25803b556d62efa3ca","study_id":"6197b3f67c2b5cd3b6d9596a","session_id":"6197b88a01548677b091fbda","condition":"full-information","relevant_dimensions":["wings","legs"],"bee_group":{"antennae":"X","wings":"1","pattern":"X","legs":"M"},"bonus":0.08},{"rt":761.0999999940395,"stimulus":"bees-with-color/bee-A1SF.svg","response":0,"trial_type":"image-button-response","trial_index":119,"time_elapsed":302919,"internal_node_id":"0.0-4.0-0.56","subject_id":"60e9af25803b556d62efa3ca","study_id":"6197b3f67c2b5cd3b6d9596a","session_id":"6197b88a01548677b091fbda","condition":"full-information","relevant_dimensions":["wings","legs"],"bee_group":{"antennae":"X","wings":"1","pattern":"X","legs":"M"},"action":"harvest","summary":"good-harvest","bonus":0.08},{"rt":441.09999999403954,"stimulus":"\n                    <p><b>Action: <em>harvest</em></b></p>\n                    <p>This is the bee that you just saw.</p>\n                    <img src=\"bees-with-color/bee-A1SF.svg\" width=\"200\">\n                    <p><span class=\"greenText\"><b>Successful harvest!</b></span><br>Your pay has increased by $0.02. Your bonus pay is now $0.16.</p>\n            ","response":0,"trial_type":"html-button-response","trial_index":120,"time_elapsed":303361,"internal_node_id":"0.0-4.0-1.56","subject_id":"60e9af25803b556d62efa3ca","study_id":"6197b3f67c2b5cd3b6d9596a","session_id":"6197b88a01548677b091fbda","condition":"full-information","relevant_dimensions":["wings","legs"],"bee_group":{"antennae":"X","wings":"1","pattern":"X","legs":"M"},"bonus":0.08},{"rt":1665.5999999940395,"stimulus":"bees-with-color/bee-A2DM.svg","response":1,"trial_type":"image-button-response","trial_index":121,"time_elapsed":305027,"internal_node_id":"0.0-4.0-0.57","subject_id":"60e9af25803b556d62efa3ca","study_id":"6197b3f67c2b5cd3b6d9596a","session_id":"6197b88a01548677b091fbda","condition":"full-information","relevant_dimensions":["wings","legs"],"bee_group":{"antennae":"X","wings":"1","pattern":"X","legs":"M"},"action":"avoid","summary":"bad-avoid","bonus":0.08},{"rt":486.69999998807907,"stimulus":"\n                    <p><b>Action: <em>avoid</em></b></p>\n                    <p>This is the bee that you just saw.</p>\n                    <img src=\"bees-with-color/bee-A2DM.svg\" width=\"200\">\n                    <p><span class=\"redText\">Bad choice,</span> the bee was friendly.<br>Your bonus pay is unchanged, and remains at $0.16.</p>\n            ","response":0,"trial_type":"html-button-response","trial_index":122,"time_elapsed":305515,"internal_node_id":"0.0-4.0-1.57","subject_id":"60e9af25803b556d62efa3ca","study_id":"6197b3f67c2b5cd3b6d9596a","session_id":"6197b88a01548677b091fbda","condition":"full-information","relevant_dimensions":["wings","legs"],"bee_group":{"antennae":"X","wings":"1","pattern":"X","legs":"M"},"bonus":0.08},{"rt":939.4000000059605,"stimulus":"bees-with-color/bee-A2SM.svg","response":0,"trial_type":"image-button-response","trial_index":123,"time_elapsed":306455,"internal_node_id":"0.0-4.0-0.58","subject_id":"60e9af25803b556d62efa3ca","study_id":"6197b3f67c2b5cd3b6d9596a","session_id":"6197b88a01548677b091fbda","condition":"full-information","relevant_dimensions":["wings","legs"],"bee_group":{"antennae":"X","wings":"1","pattern":"X","legs":"M"},"action":"harvest","summary":"good-harvest","bonus":0.08},{"rt":369.5,"stimulus":"\n                    <p><b>Action: <em>harvest</em></b></p>\n                    <p>This is the bee that you just saw.</p>\n                    <img src=\"bees-with-color/bee-A2SM.svg\" width=\"200\">\n                    <p><span class=\"greenText\"><b>Successful harvest!</b></span><br>Your pay has increased by $0.02. Your bonus pay is now $0.18.</p>\n            ","response":0,"trial_type":"html-button-response","trial_index":124,"time_elapsed":306825,"internal_node_id":"0.0-4.0-1.58","subject_id":"60e9af25803b556d62efa3ca","study_id":"6197b3f67c2b5cd3b6d9596a","session_id":"6197b88a01548677b091fbda","condition":"full-information","relevant_dimensions":["wings","legs"],"bee_group":{"antennae":"X","wings":"1","pattern":"X","legs":"M"},"bonus":0.08},{"rt":1130.800000011921,"stimulus":"bees-with-color/bee-A1DF.svg","response":0,"trial_type":"image-button-response","trial_index":125,"time_elapsed":307957,"internal_node_id":"0.0-4.0-0.59","subject_id":"60e9af25803b556d62efa3ca","study_id":"6197b3f67c2b5cd3b6d9596a","session_id":"6197b88a01548677b091fbda","condition":"full-information","relevant_dimensions":["wings","legs"],"bee_group":{"antennae":"X","wings":"1","pattern":"X","legs":"M"},"action":"harvest","summary":"good-harvest","bonus":0.08},{"rt":310.69999998807907,"stimulus":"\n                    <p><b>Action: <em>harvest</em></b></p>\n                    <p>This is the bee that you just saw.</p>\n                    <img src=\"bees-with-color/bee-A1DF.svg\" width=\"200\">\n                    <p><span class=\"greenText\"><b>Successful harvest!</b></span><br>Your pay has increased by $0.02. Your bonus pay is now $0.20.</p>\n            ","response":0,"trial_type":"html-button-response","trial_index":126,"time_elapsed":308269,"internal_node_id":"0.0-4.0-1.59","subject_id":"60e9af25803b556d62efa3ca","study_id":"6197b3f67c2b5cd3b6d9596a","session_id":"6197b88a01548677b091fbda","condition":"full-information","relevant_dimensions":["wings","legs"],"bee_group":{"antennae":"X","wings":"1","pattern":"X","legs":"M"},"bonus":0.08},{"rt":875.5,"stimulus":"bees-with-color/bee-A2DF.svg","response":0,"trial_type":"image-button-response","trial_index":127,"time_elapsed":309145,"internal_node_id":"0.0-4.0-0.60","subject_id":"60e9af25803b556d62efa3ca","study_id":"6197b3f67c2b5cd3b6d9596a","session_id":"6197b88a01548677b091fbda","condition":"full-information","relevant_dimensions":["wings","legs"],"bee_group":{"antennae":"X","wings":"1","pattern":"X","legs":"M"},"action":"harvest","summary":"good-harvest","bonus":0.08},{"rt":367.19999998807907,"stimulus":"\n                    <p><b>Action: <em>harvest</em></b></p>\n                    <p>This is the bee that you just saw.</p>\n                    <img src=\"bees-with-color/bee-A2DF.svg\" width=\"200\">\n                    <p><span class=\"greenText\"><b>Successful harvest!</b></span><br>Your pay has increased by $0.02. Your bonus pay is now $0.22.</p>\n            ","response":0,"trial_type":"html-button-response","trial_index":128,"time_elapsed":309513,"internal_node_id":"0.0-4.0-1.60","subject_id":"60e9af25803b556d62efa3ca","study_id":"6197b3f67c2b5cd3b6d9596a","session_id":"6197b88a01548677b091fbda","condition":"full-information","relevant_dimensions":["wings","legs"],"bee_group":{"antennae":"X","wings":"1","pattern":"X","legs":"M"},"bonus":0.08},{"rt":1069.300000011921,"stimulus":"bees-with-color/bee-B1SM.svg","response":0,"trial_type":"image-button-response","trial_index":129,"time_elapsed":310583,"internal_node_id":"0.0-4.0-0.61","subject_id":"60e9af25803b556d62efa3ca","study_id":"6197b3f67c2b5cd3b6d9596a","session_id":"6197b88a01548677b091fbda","condition":"full-information","relevant_dimensions":["wings","legs"],"bee_group":{"antennae":"X","wings":"1","pattern":"X","legs":"M"},"action":"harvest","summary":"bad-harvest","bonus":0.08},{"rt":445,"stimulus":"\n                    <p><b>Action: <em>harvest</em></b></p>\n                    <p>This is the bee that you just saw.</p>\n                    <img src=\"bees-with-color/bee-B1SM.svg\" width=\"200\">\n                    <p><span class=\"redText\">Bad choice, the bee was angry.</span><br><b>You have been stung!</b><br>Your pay has been decreased by $0.10. Your bonus pay is now $0.12.</p>\n            ","response":0,"trial_type":"html-button-response","trial_index":130,"time_elapsed":311029,"internal_node_id":"0.0-4.0-1.61","subject_id":"60e9af25803b556d62efa3ca","study_id":"6197b3f67c2b5cd3b6d9596a","session_id":"6197b88a01548677b091fbda","condition":"full-information","relevant_dimensions":["wings","legs"],"bee_group":{"antennae":"X","wings":"1","pattern":"X","legs":"M"},"bonus":0.08},{"rt":1123,"stimulus":"bees-with-color/bee-B2DF.svg","response":0,"trial_type":"image-button-response","trial_index":131,"time_elapsed":312153,"internal_node_id":"0.0-4.0-0.62","subject_id":"60e9af25803b556d62efa3ca","study_id":"6197b3f67c2b5cd3b6d9596a","session_id":"6197b88a01548677b091fbda","condition":"full-information","relevant_dimensions":["wings","legs"],"bee_group":{"antennae":"X","wings":"1","pattern":"X","legs":"M"},"action":"harvest","summary":"good-harvest","bonus":0.08},{"rt":367.40000000596046,"stimulus":"\n                    <p><b>Action: <em>harvest</em></b></p>\n                    <p>This is the bee that you just saw.</p>\n                    <img src=\"bees-with-color/bee-B2DF.svg\" width=\"200\">\n                    <p><span class=\"greenText\"><b>Successful harvest!</b></span><br>Your pay has increased by $0.02. Your bonus pay is now $0.14.</p>\n            ","response":0,"trial_type":"html-button-response","trial_index":132,"time_elapsed":312521,"internal_node_id":"0.0-4.0-1.62","subject_id":"60e9af25803b556d62efa3ca","study_id":"6197b3f67c2b5cd3b6d9596a","session_id":"6197b88a01548677b091fbda","condition":"full-information","relevant_dimensions":["wings","legs"],"bee_group":{"antennae":"X","wings":"1","pattern":"X","legs":"M"},"bonus":0.08},{"rt":2655.300000011921,"stimulus":"bees-with-color/bee-A1DM.svg","response":0,"trial_type":"image-button-response","trial_index":133,"time_elapsed":315177,"internal_node_id":"0.0-4.0-0.63","subject_id":"60e9af25803b556d62efa3ca","study_id":"6197b3f67c2b5cd3b6d9596a","session_id":"6197b88a01548677b091fbda","condition":"full-information","relevant_dimensions":["wings","legs"],"bee_group":{"antennae":"X","wings":"1","pattern":"X","legs":"M"},"action":"harvest","summary":"bad-harvest","bonus":0.08},{"rt":537.1999999880791,"stimulus":"\n                    <p><b>Action: <em>harvest</em></b></p>\n                    <p>This is the bee that you just saw.</p>\n                    <img src=\"bees-with-color/bee-A1DM.svg\" width=\"200\">\n                    <p><span class=\"redText\">Bad choice, the bee was angry.</span><br><b>You have been stung!</b><br>Your pay has been decreased by $0.10. Your bonus pay is now $0.04.</p>\n            ","response":0,"trial_type":"html-button-response","trial_index":134,"time_elapsed":315715,"internal_node_id":"0.0-4.0-1.63","subject_id":"60e9af25803b556d62efa3ca","study_id":"6197b3f67c2b5cd3b6d9596a","session_id":"6197b88a01548677b091fbda","condition":"full-information","relevant_dimensions":["wings","legs"],"bee_group":{"antennae":"X","wings":"1","pattern":"X","legs":"M"},"bonus":0.08},{"rt":4245.899999976158,"stimulus":"You have completed the first part of this experiment.<br><br>You will now begin a shorter second part, in which you will receive no feedback.<br>The same rules regarding bonus pay apply.<br><br>Press any key to begin.","response":" ","trial_type":"html-keyboard-response","trial_index":135,"time_elapsed":319962,"internal_node_id":"0.0-5.0","subject_id":"60e9af25803b556d62efa3ca","study_id":"6197b3f67c2b5cd3b6d9596a","session_id":"6197b88a01548677b091fbda","condition":"full-information","relevant_dimensions":["wings","legs"],"bee_group":{"antennae":"X","wings":"1","pattern":"X","legs":"M"},"bonus":0.08},{"rt":4106.9000000059605,"stimulus":"bees-with-color/bee-B2SF.svg","response":0,"trial_type":"image-button-response","trial_index":136,"time_elapsed":324075,"internal_node_id":"0.0-6.0-0.0","subject_id":"60e9af25803b556d62efa3ca","study_id":"6197b3f67c2b5cd3b6d9596a","session_id":"6197b88a01548677b091fbda","condition":"full-information","relevant_dimensions":["wings","legs"],"bee_group":{"antennae":"X","wings":"1","pattern":"X","legs":"M"},"bonus":0.08},{"rt":3230.199999988079,"stimulus":"bees-with-color/bee-A2SM.svg","response":0,"trial_type":"image-button-response","trial_index":137,"time_elapsed":327307,"internal_node_id":"0.0-6.0-0.1","subject_id":"60e9af25803b556d62efa3ca","study_id":"6197b3f67c2b5cd3b6d9596a","session_id":"6197b88a01548677b091fbda","condition":"full-information","relevant_dimensions":["wings","legs"],"bee_group":{"antennae":"X","wings":"1","pattern":"X","legs":"M"},"bonus":0.08},{"rt":3304.5999999940395,"stimulus":"bees-with-color/bee-A2SF.svg","response":0,"trial_type":"image-button-response","trial_index":138,"time_elapsed":330613,"internal_node_id":"0.0-6.0-0.2","subject_id":"60e9af25803b556d62efa3ca","study_id":"6197b3f67c2b5cd3b6d9596a","session_id":"6197b88a01548677b091fbda","condition":"full-information","relevant_dimensions":["wings","legs"],"bee_group":{"antennae":"X","wings":"1","pattern":"X","legs":"M"},"bonus":0.08},{"rt":1352.5999999940395,"stimulus":"bees-with-color/bee-A1SM.svg","response":1,"trial_type":"image-button-response","trial_index":139,"time_elapsed":331967,"internal_node_id":"0.0-6.0-0.3","subject_id":"60e9af25803b556d62efa3ca","study_id":"6197b3f67c2b5cd3b6d9596a","session_id":"6197b88a01548677b091fbda","condition":"full-information","relevant_dimensions":["wings","legs"],"bee_group":{"antennae":"X","wings":"1","pattern":"X","legs":"M"},"bonus":0.08},{"rt":986.4000000059605,"stimulus":"bees-with-color/bee-B2DF.svg","response":0,"trial_type":"image-button-response","trial_index":140,"time_elapsed":332955,"internal_node_id":"0.0-6.0-0.4","subject_id":"60e9af25803b556d62efa3ca","study_id":"6197b3f67c2b5cd3b6d9596a","session_id":"6197b88a01548677b091fbda","condition":"full-information","relevant_dimensions":["wings","legs"],"bee_group":{"antennae":"X","wings":"1","pattern":"X","legs":"M"},"bonus":0.08},{"rt":964.2999999821186,"stimulus":"bees-with-color/bee-B1DF.svg","response":0,"trial_type":"image-button-response","trial_index":141,"time_elapsed":333921,"internal_node_id":"0.0-6.0-0.5","subject_id":"60e9af25803b556d62efa3ca","study_id":"6197b3f67c2b5cd3b6d9596a","session_id":"6197b88a01548677b091fbda","condition":"full-information","relevant_dimensions":["wings","legs"],"bee_group":{"antennae":"X","wings":"1","pattern":"X","legs":"M"},"bonus":0.08},{"rt":6053,"stimulus":"bees-with-color/bee-B1SM.svg","response":1,"trial_type":"image-button-response","trial_index":142,"time_elapsed":339975,"internal_node_id":"0.0-6.0-0.6","subject_id":"60e9af25803b556d62efa3ca","study_id":"6197b3f67c2b5cd3b6d9596a","session_id":"6197b88a01548677b091fbda","condition":"full-information","relevant_dimensions":["wings","legs"],"bee_group":{"antennae":"X","wings":"1","pattern":"X","legs":"M"},"bonus":0.08},{"rt":1266.1000000238419,"stimulus":"bees-with-color/bee-A1SF.svg","response":0,"trial_type":"image-button-response","trial_index":143,"time_elapsed":341243,"internal_node_id":"0.0-6.0-0.7","subject_id":"60e9af25803b556d62efa3ca","study_id":"6197b3f67c2b5cd3b6d9596a","session_id":"6197b88a01548677b091fbda","condition":"full-information","relevant_dimensions":["wings","legs"],"bee_group":{"antennae":"X","wings":"1","pattern":"X","legs":"M"},"bonus":0.08},{"rt":1057.2999999821186,"stimulus":"bees-with-color/bee-A2DF.svg","response":0,"trial_type":"image-button-response","trial_index":144,"time_elapsed":342301,"internal_node_id":"0.0-6.0-0.8","subject_id":"60e9af25803b556d62efa3ca","study_id":"6197b3f67c2b5cd3b6d9596a","session_id":"6197b88a01548677b091fbda","condition":"full-information","relevant_dimensions":["wings","legs"],"bee_group":{"antennae":"X","wings":"1","pattern":"X","legs":"M"},"bonus":0.08},{"rt":1698.9000000059605,"stimulus":"bees-with-color/bee-B2SM.svg","response":1,"trial_type":"image-button-response","trial_index":145,"time_elapsed":344001,"internal_node_id":"0.0-6.0-0.9","subject_id":"60e9af25803b556d62efa3ca","study_id":"6197b3f67c2b5cd3b6d9596a","session_id":"6197b88a01548677b091fbda","condition":"full-information","relevant_dimensions":["wings","legs"],"bee_group":{"antennae":"X","wings":"1","pattern":"X","legs":"M"},"bonus":0.08},{"rt":982,"stimulus":"bees-with-color/bee-B1DM.svg","response":0,"trial_type":"image-button-response","trial_index":146,"time_elapsed":344984,"internal_node_id":"0.0-6.0-0.10","subject_id":"60e9af25803b556d62efa3ca","study_id":"6197b3f67c2b5cd3b6d9596a","session_id":"6197b88a01548677b091fbda","condition":"full-information","relevant_dimensions":["wings","legs"],"bee_group":{"antennae":"X","wings":"1","pattern":"X","legs":"M"},"bonus":0.08},{"rt":938.9000000059605,"stimulus":"bees-with-color/bee-A1DF.svg","response":0,"trial_type":"image-button-response","trial_index":147,"time_elapsed":345925,"internal_node_id":"0.0-6.0-0.11","subject_id":"60e9af25803b556d62efa3ca","study_id":"6197b3f67c2b5cd3b6d9596a","session_id":"6197b88a01548677b091fbda","condition":"full-information","relevant_dimensions":["wings","legs"],"bee_group":{"antennae":"X","wings":"1","pattern":"X","legs":"M"},"bonus":0.08},{"rt":790.8000000119209,"stimulus":"bees-with-color/bee-B1SF.svg","response":0,"trial_type":"image-button-response","trial_index":148,"time_elapsed":346717,"internal_node_id":"0.0-6.0-0.12","subject_id":"60e9af25803b556d62efa3ca","study_id":"6197b3f67c2b5cd3b6d9596a","session_id":"6197b88a01548677b091fbda","condition":"full-information","relevant_dimensions":["wings","legs"],"bee_group":{"antennae":"X","wings":"1","pattern":"X","legs":"M"},"bonus":0.08},{"rt":2103.199999988079,"stimulus":"bees-with-color/bee-B2DM.svg","response":1,"trial_type":"image-button-response","trial_index":149,"time_elapsed":348821,"internal_node_id":"0.0-6.0-0.13","subject_id":"60e9af25803b556d62efa3ca","study_id":"6197b3f67c2b5cd3b6d9596a","session_id":"6197b88a01548677b091fbda","condition":"full-information","relevant_dimensions":["wings","legs"],"bee_group":{"antennae":"X","wings":"1","pattern":"X","legs":"M"},"bonus":0.08},{"rt":2430.399999976158,"stimulus":"bees-with-color/bee-A2DM.svg","response":1,"trial_type":"image-button-response","trial_index":150,"time_elapsed":351253,"internal_node_id":"0.0-6.0-0.14","subject_id":"60e9af25803b556d62efa3ca","study_id":"6197b3f67c2b5cd3b6d9596a","session_id":"6197b88a01548677b091fbda","condition":"full-information","relevant_dimensions":["wings","legs"],"bee_group":{"antennae":"X","wings":"1","pattern":"X","legs":"M"},"bonus":0.08},{"rt":6793.799999982119,"stimulus":"bees-with-color/bee-A1DM.svg","response":0,"trial_type":"image-button-response","trial_index":151,"time_elapsed":358049,"internal_node_id":"0.0-6.0-0.15","subject_id":"60e9af25803b556d62efa3ca","study_id":"6197b3f67c2b5cd3b6d9596a","session_id":"6197b88a01548677b091fbda","condition":"full-information","relevant_dimensions":["wings","legs"],"bee_group":{"antennae":"X","wings":"1","pattern":"X","legs":"M"},"bonus":0.08},{"rt":1273.2999999821186,"stimulus":"bees-with-color/bee-B2SF.svg","response":1,"trial_type":"image-button-response","trial_index":152,"time_elapsed":359323,"internal_node_id":"0.0-6.0-0.16","subject_id":"60e9af25803b556d62efa3ca","study_id":"6197b3f67c2b5cd3b6d9596a","session_id":"6197b88a01548677b091fbda","condition":"full-information","relevant_dimensions":["wings","legs"],"bee_group":{"antennae":"X","wings":"1","pattern":"X","legs":"M"},"bonus":0.08},{"rt":2870.4000000059605,"stimulus":"bees-with-color/bee-A1DM.svg","response":0,"trial_type":"image-button-response","trial_index":153,"time_elapsed":362195,"internal_node_id":"0.0-6.0-0.17","subject_id":"60e9af25803b556d62efa3ca","study_id":"6197b3f67c2b5cd3b6d9596a","session_id":"6197b88a01548677b091fbda","condition":"full-information","relevant_dimensions":["wings","legs"],"bee_group":{"antennae":"X","wings":"1","pattern":"X","legs":"M"},"bonus":0.08},{"rt":3773.0999999940395,"stimulus":"bees-with-color/bee-A2DF.svg","response":1,"trial_type":"image-button-response","trial_index":154,"time_elapsed":365969,"internal_node_id":"0.0-6.0-0.18","subject_id":"60e9af25803b556d62efa3ca","study_id":"6197b3f67c2b5cd3b6d9596a","session_id":"6197b88a01548677b091fbda","condition":"full-information","relevant_dimensions":["wings","legs"],"bee_group":{"antennae":"X","wings":"1","pattern":"X","legs":"M"},"bonus":0.08},{"rt":878,"stimulus":"bees-with-color/bee-A1SF.svg","response":0,"trial_type":"image-button-response","trial_index":155,"time_elapsed":366849,"internal_node_id":"0.0-6.0-0.19","subject_id":"60e9af25803b556d62efa3ca","study_id":"6197b3f67c2b5cd3b6d9596a","session_id":"6197b88a01548677b091fbda","condition":"full-information","relevant_dimensions":["wings","legs"],"bee_group":{"antennae":"X","wings":"1","pattern":"X","legs":"M"},"bonus":0.08},{"rt":1141.5999999940395,"stimulus":"bees-with-color/bee-B2DM.svg","response":0,"trial_type":"image-button-response","trial_index":156,"time_elapsed":367991,"internal_node_id":"0.0-6.0-0.20","subject_id":"60e9af25803b556d62efa3ca","study_id":"6197b3f67c2b5cd3b6d9596a","session_id":"6197b88a01548677b091fbda","condition":"full-information","relevant_dimensions":["wings","legs"],"bee_group":{"antennae":"X","wings":"1","pattern":"X","legs":"M"},"bonus":0.08},{"rt":1378.9000000059605,"stimulus":"bees-with-color/bee-A2SM.svg","response":1,"trial_type":"image-button-response","trial_index":157,"time_elapsed":369371,"internal_node_id":"0.0-6.0-0.21","subject_id":"60e9af25803b556d62efa3ca","study_id":"6197b3f67c2b5cd3b6d9596a","session_id":"6197b88a01548677b091fbda","condition":"full-information","relevant_dimensions":["wings","legs"],"bee_group":{"antennae":"X","wings":"1","pattern":"X","legs":"M"},"bonus":0.08},{"rt":1034.7999999821186,"stimulus":"bees-with-color/bee-B2DF.svg","response":0,"trial_type":"image-button-response","trial_index":158,"time_elapsed":370407,"internal_node_id":"0.0-6.0-0.22","subject_id":"60e9af25803b556d62efa3ca","study_id":"6197b3f67c2b5cd3b6d9596a","session_id":"6197b88a01548677b091fbda","condition":"full-information","relevant_dimensions":["wings","legs"],"bee_group":{"antennae":"X","wings":"1","pattern":"X","legs":"M"},"bonus":0.08},{"rt":1109.0999999940395,"stimulus":"bees-with-color/bee-B1DM.svg","response":0,"trial_type":"image-button-response","trial_index":159,"time_elapsed":371517,"internal_node_id":"0.0-6.0-0.23","subject_id":"60e9af25803b556d62efa3ca","study_id":"6197b3f67c2b5cd3b6d9596a","session_id":"6197b88a01548677b091fbda","condition":"full-information","relevant_dimensions":["wings","legs"],"bee_group":{"antennae":"X","wings":"1","pattern":"X","legs":"M"},"bonus":0.08},{"rt":1338.8999999761581,"stimulus":"bees-with-color/bee-B1DF.svg","response":0,"trial_type":"image-button-response","trial_index":160,"time_elapsed":372857,"internal_node_id":"0.0-6.0-0.24","subject_id":"60e9af25803b556d62efa3ca","study_id":"6197b3f67c2b5cd3b6d9596a","session_id":"6197b88a01548677b091fbda","condition":"full-information","relevant_dimensions":["wings","legs"],"bee_group":{"antennae":"X","wings":"1","pattern":"X","legs":"M"},"bonus":0.08},{"rt":817.9000000059605,"stimulus":"bees-with-color/bee-A1DF.svg","response":0,"trial_type":"image-button-response","trial_i