[{"success":true,"trial_type":"fullscreen","trial_index":0,"time_elapsed":40214,"internal_node_id":"0.0-0.0","subject_id":"5f4b8f646cc10e7481333ee4","study_id":"60edd13110225f80f9f3709b","session_id":"6196c4a6cd1ccfc1bf019ddb","condition":"contingent","relevant_dimensions":["pattern","legs"],"bee_group":{"antennae":"X","wings":"X","pattern":"S","legs":"M"},"bonus":0.6400000000000011},{"success":true,"timeout":false,"failed_images":[],"failed_audio":[],"failed_video":[],"trial_type":"preload","trial_index":1,"time_elapsed":44570,"internal_node_id":"0.0-1.0","subject_id":"5f4b8f646cc10e7481333ee4","study_id":"60edd13110225f80f9f3709b","session_id":"6196c4a6cd1ccfc1bf019ddb","condition":"contingent","relevant_dimensions":["pattern","legs"],"bee_group":{"antennae":"X","wings":"X","pattern":"S","legs":"M"},"bonus":0.6400000000000011},{"rt":4311.19999999553,"stimulus":"Welcome! Press any key to begin.","response":"j","trial_type":"html-keyboard-response","trial_index":2,"time_elapsed":48885,"internal_node_id":"0.0-2.0","subject_id":"5f4b8f646cc10e7481333ee4","study_id":"60edd13110225f80f9f3709b","session_id":"6196c4a6cd1ccfc1bf019ddb","condition":"contingent","relevant_dimensions":["pattern","legs"],"bee_group":{"antennae":"X","wings":"X","pattern":"S","legs":"M"},"bonus":0.6400000000000011},{"view_history":[{"page_index":0,"viewing_time":5337.9000000059605},{"page_index":1,"viewing_time":13096},{"page_index":2,"viewing_time":15071.5},{"page_index":3,"viewing_time":16496.09999999404},{"page_index":4,"viewing_time":10735.90000000596},{"page_index":5,"viewing_time":10687.89999999851},{"page_index":6,"viewing_time":9400},{"page_index":7,"viewing_time":10079.89999999851},{"page_index":8,"viewing_time":9344},{"page_index":9,"viewing_time":5224.10000000149},{"page_index":10,"viewing_time":5151.89999999851},{"page_index":11,"viewing_time":10055.70000000298},{"page_index":12,"viewing_time":19295.89999999851},{"page_index":13,"viewing_time":1431.6000000014901},{"page_index":14,"viewing_time":2944.0999999940395}],"rt":144352.80000000447,"trial_type":"instructions","trial_index":3,"time_elapsed":193240,"internal_node_id":"0.0-3.0-0.0","subject_id":"5f4b8f646cc10e7481333ee4","study_id":"60edd13110225f80f9f3709b","session_id":"6196c4a6cd1ccfc1bf019ddb","condition":"contingent","relevant_dimensions":["pattern","legs"],"bee_group":{"antennae":"X","wings":"X","pattern":"S","legs":"M"},"bonus":0.6400000000000011},{"rt":37466.29999999702,"response":{"Q0":["Two or six legs","Stripes or spots on body","Single or double wings"]},"question_order":[0],"trial_type":"survey-multi-select","trial_index":4,"time_elapsed":230713,"internal_node_id":"0.0-3.0-1.0","subject_id":"5f4b8f646cc10e7481333ee4","study_id":"60edd13110225f80f9f3709b","session_id":"6196c4a6cd1ccfc1bf019ddb","condition":"contingent","relevant_dimensions":["pattern","legs"],"bee_group":{"antennae":"X","wings":"X","pattern":"S","legs":"M"},"correct":false,"bonus":0.6400000000000011},{"rt":26249.60000000149,"response":{"Q1":"No.","Q2":"Based on the four features of the bee.","Q3":"You do not learn if it was friendly or dangerous, and do not alter your bonus."},"question_order":[0,1,2],"trial_type":"survey-multi-choice","trial_index":5,"time_elapsed":256970,"internal_node_id":"0.0-3.0-2.0","subject_id":"5f4b8f646cc10e7481333ee4","study_id":"60edd13110225f80f9f3709b","session_id":"6196c4a6cd1ccfc1bf019ddb","condition":"contingent","relevant_dimensions":["pattern","legs"],"bee_group":{"antennae":"X","wings":"X","pattern":"S","legs":"M"},"correct":true,"bonus":0.6400000000000011},{"rt":4815.10000000149,"stimulus":"<p>You did not answer all comprehension questions correctly.<br>Press <b>continue</b> to review the instructions again.</p>","response":0,"trial_type":"html-button-response","trial_index":6,"time_elapsed":261792,"internal_node_id":"0.0-3.0-3.0","subject_id":"5f4b8f646cc10e7481333ee4","study_id":"60edd13110225f80f9f3709b","session_id":"6196c4a6cd1ccfc1bf019ddb","condition":"contingent","relevant_dimensions":["pattern","legs"],"bee_group":{"antennae":"X","wings":"X","pattern":"S","legs":"M"},"bonus":0.6400000000000011},{"view_history":[{"page_index":0,"viewing_time":2373.5},{"page_index":1,"viewing_time":11880.10000000149},{"page_index":2,"viewing_time":2223.89999999851},{"page_index":3,"viewing_time":2487.7000000029802},{"page_index":4,"viewing_time":5320.20000000298},{"page_index":5,"viewing_time":2176},{"page_index":6,"viewing_time":9824},{"page_index":7,"viewing_time":2024},{"page_index":6,"viewing_time":11392},{"page_index":7,"viewing_time":22815.5},{"page_index":8,"viewing_time":10840.09999999404},{"page_index":9,"viewing_time":10719.80000000447},{"page_index":10,"viewing_time":9704},{"page_index":11,"viewing_time":1880.1000000014901},{"page_index":10,"viewing_time":7719.5},{"page_index":11,"viewing_time":12640.5},{"page_index":12,"viewing_time":4431.69999999553},{"page_index":13,"viewing_time":1167.8999999985099},{"page_index":14,"viewing_time":1472}],"rt":133092.70000000298,"trial_type":"instructions","trial_index":7,"time_elapsed":394886,"internal_node_id":"0.0-3.0-4.0-0.0","subject_id":"5f4b8f646cc10e7481333ee4","study_id":"60edd13110225f80f9f3709b","session_id":"6196c4a6cd1ccfc1bf019ddb","condition":"contingent","relevant_dimensions":["pattern","legs"],"bee_group":{"antennae":"X","wings":"X","pattern":"S","legs":"M"},"bonus":0.6400000000000011},{"rt":21924.5,"response":{"Q0":["Two or six legs","Stripes or spots on body","Single or double wings","Antennae or no antennae"]},"question_order":[0],"trial_type":"survey-multi-select","trial_index":8,"time_elapsed":416815,"internal_node_id":"0.0-3.0-4.0-1.0","subject_id":"5f4b8f646cc10e7481333ee4","study_id":"60edd13110225f80f9f3709b","session_id":"6196c4a6cd1ccfc1bf019ddb","condition":"contingent","relevant_dimensions":["pattern","legs"],"bee_group":{"antennae":"X","wings":"X","pattern":"S","legs":"M"},"correct":true,"bonus":0.6400000000000011},{"rt":29625.30000000447,"response":{"Q1":"No.","Q2":"Based on the four features of the bee.","Q3":"You do not learn if it was friendly or dangerous, and do not alter your bonus."},"question_order":[0,1,2],"trial_type":"survey-multi-choice","trial_index":9,"time_elapsed":446446,"internal_node_id":"0.0-3.0-4.0-2.0","subject_id":"5f4b8f646cc10e7481333ee4","study_id":"60edd13110225f80f9f3709b","session_id":"6196c4a6cd1ccfc1bf019ddb","condition":"contingent","relevant_dimensions":["pattern","legs"],"bee_group":{"antennae":"X","wings":"X","pattern":"S","legs":"M"},"correct":true,"bonus":0.6400000000000011},{"rt":4633.89999999851,"stimulus":"<p>Congrats, you got everything right<br>When you're ready, click the button below to continue to the experiment.</p>","response":0,"trial_type":"html-button-response","trial_index":10,"time_elapsed":451086,"internal_node_id":"0.0-3.0-4.0-3.0","subject_id":"5f4b8f646cc10e7481333ee4","study_id":"60edd13110225f80f9f3709b","session_id":"6196c4a6cd1ccfc1bf019ddb","condition":"contingent","relevant_dimensions":["pattern","legs"],"bee_group":{"antennae":"X","wings":"X","pattern":"S","legs":"M"},"bonus":0.6400000000000011},{"rt":11820.10000000149,"stimulus":"bees-with-color/bee-B1SM.svg","response":0,"trial_type":"image-button-response","trial_index":11,"time_elapsed":462910,"internal_node_id":"0.0-4.0-0.0","subject_id":"5f4b8f646cc10e7481333ee4","study_id":"60edd13110225f80f9f3709b","session_id":"6196c4a6cd1ccfc1bf019ddb","condition":"contingent","relevant_dimensions":["pattern","legs"],"bee_group":{"antennae":"X","wings":"X","pattern":"S","legs":"M"},"action":"harvest","summary":"bad-harvest","bonus":0.6400000000000011},{"rt":21059.10000000149,"stimulus":"\n                    <p><b>Action: <em>harvest</em></b></p>\n                    <p>This is the bee that you just saw.</p>\n                    <img src=\"bees-with-color/bee-B1SM.svg\" width=\"200\">\n                    <p><span class=\"redText\">Bad choice, the bee was angry.</span><br><b>You have been stung!</b><br>Your pay has been decreased by $0.10. Your bonus pay is now $0.44.</p>\n            ","response":0,"trial_type":"html-button-response","trial_index":12,"time_elapsed":483973,"internal_node_id":"0.0-4.0-1.0","subject_id":"5f4b8f646cc10e7481333ee4","study_id":"60edd13110225f80f9f3709b","session_id":"6196c4a6cd1ccfc1bf019ddb","condition":"contingent","relevant_dimensions":["pattern","legs"],"bee_group":{"antennae":"X","wings":"X","pattern":"S","legs":"M"},"bonus":0.6400000000000011},{"rt":4780.60000000149,"stimulus":"bees-with-color/bee-A1DF.svg","response":0,"trial_type":"image-button-response","trial_index":13,"time_elapsed":488757,"internal_node_id":"0.0-4.0-0.1","subject_id":"5f4b8f646cc10e7481333ee4","study_id":"60edd13110225f80f9f3709b","session_id":"6196c4a6cd1ccfc1bf019ddb","condition":"contingent","relevant_dimensions":["pattern","legs"],"bee_group":{"antennae":"X","wings":"X","pattern":"S","legs":"M"},"action":"harvest","summary":"good-harvest","bonus":0.6400000000000011},{"rt":23036.89999999851,"stimulus":"\n                    <p><b>Action: <em>harvest</em></b></p>\n                    <p>This is the bee that you just saw.</p>\n                    <img src=\"bees-with-color/bee-A1DF.svg\" width=\"200\">\n                    <p><span class=\"greenText\"><b>Successful harvest!</b></span><br>Your pay has increased by $0.02. Your bonus pay is now $0.46.</p>\n            ","response":0,"trial_type":"html-button-response","trial_index":14,"time_elapsed":511797,"internal_node_id":"0.0-4.0-1.1","subject_id":"5f4b8f646cc10e7481333ee4","study_id":"60edd13110225f80f9f3709b","session_id":"6196c4a6cd1ccfc1bf019ddb","condition":"contingent","relevant_dimensions":["pattern","legs"],"bee_group":{"antennae":"X","wings":"X","pattern":"S","legs":"M"},"bonus":0.6400000000000011},{"rt":7004.39999999851,"stimulus":"bees-with-color/bee-A2SF.svg","response":0,"trial_type":"image-button-response","trial_index":15,"time_elapsed":518805,"internal_node_id":"0.0-4.0-0.2","subject_id":"5f4b8f646cc10e7481333ee4","study_id":"60edd13110225f80f9f3709b","session_id":"6196c4a6cd1ccfc1bf019ddb","condition":"contingent","relevant_dimensions":["pattern","legs"],"bee_group":{"antennae":"X","wings":"X","pattern":"S","legs":"M"},"action":"harvest","summary":"good-harvest","bonus":0.6400000000000011},{"rt":13773.10000000149,"stimulus":"\n                    <p><b>Action: <em>harvest</em></b></p>\n                    <p>This is the bee that you just saw.</p>\n                    <img src=\"bees-with-color/bee-A2SF.svg\" width=\"200\">\n                    <p><span class=\"greenText\"><b>Successful harvest!</b></span><br>Your pay has increased by $0.02. Your bonus pay is now $0.48.</p>\n            ","response":0,"trial_type":"html-button-response","trial_index":16,"time_elapsed":532581,"internal_node_id":"0.0-4.0-1.2","subject_id":"5f4b8f646cc10e7481333ee4","study_id":"60edd13110225f80f9f3709b","session_id":"6196c4a6cd1ccfc1bf019ddb","condition":"contingent","relevant_dimensions":["pattern","legs"],"bee_group":{"antennae":"X","wings":"X","pattern":"S","legs":"M"},"bonus":0.6400000000000011},{"rt":4117.20000000298,"stimulus":"bees-with-color/bee-B2SF.svg","response":0,"trial_type":"image-button-response","trial_index":17,"time_elapsed":536701,"internal_node_id":"0.0-4.0-0.3","subject_id":"5f4b8f646cc10e7481333ee4","study_id":"60edd13110225f80f9f3709b","session_id":"6196c4a6cd1ccfc1bf019ddb","condition":"contingent","relevant_dimensions":["pattern","legs"],"bee_group":{"antennae":"X","wings":"X","pattern":"S","legs":"M"},"action":"harvest","summary":"good-harvest","bonus":0.6400000000000011},{"rt":1621.7000000029802,"stimulus":"\n                    <p><b>Action: <em>harvest</em></b></p>\n                    <p>This is the bee that you just saw.</p>\n                    <img src=\"bees-with-color/bee-B2SF.svg\" width=\"200\">\n                    <p><span class=\"greenText\"><b>Successful harvest!</b></span><br>Your pay has increased by $0.02. Your bonus pay is now $0.50.</p>\n            ","response":0,"trial_type":"html-button-response","trial_index":18,"time_elapsed":538325,"internal_node_id":"0.0-4.0-1.3","subject_id":"5f4b8f646cc10e7481333ee4","study_id":"60edd13110225f80f9f3709b","session_id":"6196c4a6cd1ccfc1bf019ddb","condition":"contingent","relevant_dimensions":["pattern","legs"],"bee_group":{"antennae":"X","wings":"X","pattern":"S","legs":"M"},"bonus":0.6400000000000011},{"rt":11340.20000000298,"stimulus":"bees-with-color/bee-A1SF.svg","response":1,"trial_type":"image-button-response","trial_index":19,"time_elapsed":549669,"internal_node_id":"0.0-4.0-0.4","subject_id":"5f4b8f646cc10e7481333ee4","study_id":"60edd13110225f80f9f3709b","session_id":"6196c4a6cd1ccfc1bf019ddb","condition":"contingent","relevant_dimensions":["pattern","legs"],"bee_group":{"antennae":"X","wings":"X","pattern":"S","legs":"M"},"action":"avoid","summary":"bad-avoid","bonus":0.6400000000000011},{"rt":15484.69999999553,"stimulus":"\n                    <p><b>Action: <em>avoid</em></b></p>\n                    <p>This is the bee that you just saw.</p>\n                    <img src=\"bees-with-color/bee-A1SF.svg\" width=\"200\">\n                    <p><br>Your bonus pay is unchanged, and remains at $0.50.</p>\n            ","response":0,"trial_type":"html-button-response","trial_index":20,"time_elapsed":565157,"internal_node_id":"0.0-4.0-1.4","subject_id":"5f4b8f646cc10e7481333ee4","study_id":"60edd13110225f80f9f3709b","session_id":"6196c4a6cd1ccfc1bf019ddb","condition":"contingent","relevant_dimensions":["pattern","legs"],"bee_group":{"antennae":"X","wings":"X","pattern":"S","legs":"M"},"bonus":0.6400000000000011},{"rt":6268.69999999553,"stimulus":"bees-with-color/bee-B1DM.svg","response":1,"trial_type":"image-button-response","trial_index":21,"time_elapsed":571429,"internal_node_id":"0.0-4.0-0.5","subject_id":"5f4b8f646cc10e7481333ee4","study_id":"60edd13110225f80f9f3709b","session_id":"6196c4a6cd1ccfc1bf019ddb","condition":"contingent","relevant_dimensions":["pattern","legs"],"bee_group":{"antennae":"X","wings":"X","pattern":"S","legs":"M"},"action":"avoid","summary":"bad-avoid","bonus":0.6400000000000011},{"rt":3637.4000000059605,"stimulus":"\n                    <p><b>Action: <em>avoid</em></b></p>\n                    <p>This is the bee that you just saw.</p>\n                    <img src=\"bees-with-color/bee-B1DM.svg\" width=\"200\">\n                    <p><br>Your bonus pay is unchanged, and remains at $0.50.</p>\n            ","response":0,"trial_type":"html-button-response","trial_index":22,"time_elapsed":575069,"internal_node_id":"0.0-4.0-1.5","subject_id":"5f4b8f646cc10e7481333ee4","study_id":"60edd13110225f80f9f3709b","session_id":"6196c4a6cd1ccfc1bf019ddb","condition":"contingent","relevant_dimensions":["pattern","legs"],"bee_group":{"antennae":"X","wings":"X","pattern":"S","legs":"M"},"bonus":0.6400000000000011},{"rt":2845,"stimulus":"bees-with-color/bee-B2DF.svg","response":0,"trial_type":"image-button-response","trial_index":23,"time_elapsed":577917,"internal_node_id":"0.0-4.0-0.6","subject_id":"5f4b8f646cc10e7481333ee4","study_id":"60edd13110225f80f9f3709b","session_id":"6196c4a6cd1ccfc1bf019ddb","condition":"contingent","relevant_dimensions":["pattern","legs"],"bee_group":{"antennae":"X","wings":"X","pattern":"S","legs":"M"},"action":"harvest","summary":"good-harvest","bonus":0.6400000000000011},{"rt":15893.10000000149,"stimulus":"\n                    <p><b>Action: <em>harvest</em></b></p>\n                    <p>This is the bee that you just saw.</p>\n                    <img src=\"bees-with-color/bee-B2DF.svg\" width=\"200\">\n                    <p><span class=\"greenText\"><b>Successful harvest!</b></span><br>Your pay has increased by $0.02. Your bonus pay is now $0.52.</p>\n            ","response":0,"trial_type":"html-button-response","trial_index":24,"time_elapsed":593813,"internal_node_id":"0.0-4.0-1.6","subject_id":"5f4b8f646cc10e7481333ee4","study_id":"60edd13110225f80f9f3709b","session_id":"6196c4a6cd1ccfc1bf019ddb","condition":"contingent","relevant_dimensions":["pattern","legs"],"bee_group":{"antennae":"X","wings":"X","pattern":"S","legs":"M"},"bonus":0.6400000000000011},{"rt":6421.20000000298,"stimulus":"bees-with-color/bee-A2SM.svg","response":0,"trial_type":"image-button-response","trial_index":25,"time_elapsed":600237,"internal_node_id":"0.0-4.0-0.7","subject_id":"5f4b8f646cc10e7481333ee4","study_id":"60edd13110225f80f9f3709b","session_id":"6196c4a6cd1ccfc1bf019ddb","condition":"contingent","relevant_dimensions":["pattern","legs"],"bee_group":{"antennae":"X","wings":"X","pattern":"S","legs":"M"},"action":"harvest","summary":"bad-harvest","bonus":0.6400000000000011},{"rt":26709.89999999851,"stimulus":"\n                    <p><b>Action: <em>harvest</em></b></p>\n                    <p>This is the bee that you just saw.</p>\n                    <img src=\"bees-with-color/bee-A2SM.svg\" width=\"200\">\n                    <p><span class=\"redText\">Bad choice, the bee was angry.</span><br><b>You have been stung!</b><br>Your pay has been decreased by $0.10. Your bonus pay is now $0.42.</p>\n            ","response":0,"trial_type":"html-button-response","trial_index":26,"time_elapsed":626948,"internal_node_id":"0.0-4.0-1.7","subject_id":"5f4b8f646cc10e7481333ee4","study_id":"60edd13110225f80f9f3709b","session_id":"6196c4a6cd1ccfc1bf019ddb","condition":"contingent","relevant_dimensions":["pattern","legs"],"bee_group":{"antennae":"X","wings":"X","pattern":"S","legs":"M"},"bonus":0.6400000000000011},{"rt":6740.69999999553,"stimulus":"bees-with-color/bee-B1SF.svg","response":1,"trial_type":"image-button-response","trial_index":27,"time_elapsed":633693,"internal_node_id":"0.0-4.0-0.8","subject_id":"5f4b8f646cc10e7481333ee4","study_id":"60edd13110225f80f9f3709b","session_id":"6196c4a6cd1ccfc1bf019ddb","condition":"contingent","relevant_dimensions":["pattern","legs"],"bee_group":{"antennae":"X","wings":"X","pattern":"S","legs":"M"},"action":"avoid","summary":"bad-avoid","bonus":0.6400000000000011},{"rt":2301.7000000029802,"stimulus":"\n                    <p><b>Action: <em>avoid</em></b></p>\n                    <p>This is the bee that you just saw.</p>\n                    <img src=\"bees-with-color/bee-B1SF.svg\" width=\"200\">\n                    <p><br>Your bonus pay is unchanged, and remains at $0.42.</p>\n            ","response":0,"trial_type":"html-button-response","trial_index":28,"time_elapsed":635996,"internal_node_id":"0.0-4.0-1.8","subject_id":"5f4b8f646cc10e7481333ee4","study_id":"60edd13110225f80f9f3709b","session_id":"6196c4a6cd1ccfc1bf019ddb","condition":"contingent","relevant_dimensions":["pattern","legs"],"bee_group":{"antennae":"X","wings":"X","pattern":"S","legs":"M"},"bonus":0.6400000000000011},{"rt":5757.89999999851,"stimulus":"bees-with-color/bee-B2DM.svg","response":0,"trial_type":"image-button-response","trial_index":29,"time_elapsed":641757,"internal_node_id":"0.0-4.0-0.9","subject_id":"5f4b8f646cc10e7481333ee4","study_id":"60edd13110225f80f9f3709b","session_id":"6196c4a6cd1ccfc1bf019ddb","condition":"contingent","relevant_dimensions":["pattern","legs"],"bee_group":{"antennae":"X","wings":"X","pattern":"S","legs":"M"},"action":"harvest","summary":"good-harvest","bonus":0.6400000000000011},{"rt":1357.8000000044703,"stimulus":"\n                    <p><b>Action: <em>harvest</em></b></p>\n                    <p>This is the bee that you just saw.</p>\n                    <img src=\"bees-with-color/bee-B2DM.svg\" width=\"200\">\n                    <p><span class=\"greenText\"><b>Successful harvest!</b></span><br>Your pay has increased by $0.02. Your bonus pay is now $0.44.</p>\n            ","response":0,"trial_type":"html-button-response","trial_index":30,"time_elapsed":643116,"internal_node_id":"0.0-4.0-1.9","subject_id":"5f4b8f646cc10e7481333ee4","study_id":"60edd13110225f80f9f3709b","session_id":"6196c4a6cd1ccfc1bf019ddb","condition":"contingent","relevant_dimensions":["pattern","legs"],"bee_group":{"antennae":"X","wings":"X","pattern":"S","legs":"M"},"bonus":0.6400000000000011},{"rt":4613.70000000298,"stimulus":"bees-with-color/bee-A2DF.svg","response":0,"trial_type":"image-button-response","trial_index":31,"time_elapsed":647732,"internal_node_id":"0.0-4.0-0.10","subject_id":"5f4b8f646cc10e7481333ee4","study_id":"60edd13110225f80f9f3709b","session_id":"6196c4a6cd1ccfc1bf019ddb","condition":"contingent","relevant_dimensions":["pattern","legs"],"bee_group":{"antennae":"X","wings":"X","pattern":"S","legs":"M"},"action":"harvest","summary":"good-harvest","bonus":0.6400000000000011},{"rt":1557.8999999985099,"stimulus":"\n                    <p><b>Action: <em>harvest</em></b></p>\n                    <p>This is the bee that you just saw.</p>\n                    <img src=\"bees-with-color/bee-A2DF.svg\" width=\"200\">\n                    <p><span class=\"greenText\"><b>Successful harvest!</b></span><br>Your pay has increased by $0.02. Your bonus pay is now $0.46.</p>\n            ","response":0,"trial_type":"html-button-response","trial_index":32,"time_elapsed":649292,"internal_node_id":"0.0-4.0-1.10","subject_id":"5f4b8f646cc10e7481333ee4","study_id":"60edd13110225f80f9f3709b","session_id":"6196c4a6cd1ccfc1bf019ddb","condition":"contingent","relevant_dimensions":["pattern","legs"],"bee_group":{"antennae":"X","wings":"X","pattern":"S","legs":"M"},"bonus":0.6400000000000011},{"rt":2196.5,"stimulus":"bees-with-color/bee-B2SM.svg","response":0,"trial_type":"image-button-response","trial_index":33,"time_elapsed":651492,"internal_node_id":"0.0-4.0-0.11","subject_id":"5f4b8f646cc10e7481333ee4","study_id":"60edd13110225f80f9f3709b","session_id":"6196c4a6cd1ccfc1bf019ddb","condition":"contingent","relevant_dimensions":["pattern","legs"],"bee_group":{"antennae":"X","wings":"X","pattern":"S","legs":"M"},"action":"harvest","summary":"bad-harvest","bonus":0.6400000000000011},{"rt":2318,"stimulus":"\n                    <p><b>Action: <em>harvest</em></b></p>\n                    <p>This is the bee that you just saw.</p>\n                    <img src=\"bees-with-color/bee-B2SM.svg\" width=\"200\">\n                    <p><span class=\"redText\">Bad choice, the bee was angry.</span><br><b>You have been stung!</b><br>Your pay has been decreased by $0.10. Your bonus pay is now $0.36.</p>\n            ","response":0,"trial_type":"html-button-response","trial_index":34,"time_elapsed":653812,"internal_node_id":"0.0-4.0-1.11","subject_id":"5f4b8f646cc10e7481333ee4","study_id":"60edd13110225f80f9f3709b","session_id":"6196c4a6cd1ccfc1bf019ddb","condition":"contingent","relevant_dimensions":["pattern","legs"],"bee_group":{"antennae":"X","wings":"X","pattern":"S","legs":"M"},"bonus":0.6400000000000011},{"rt":3437.89999999851,"stimulus":"bees-with-color/bee-A1SM.svg","response":1,"trial_type":"image-button-response","trial_index":35,"time_elapsed":657253,"internal_node_id":"0.0-4.0-0.12","subject_id":"5f4b8f646cc10e7481333ee4","study_id":"60edd13110225f80f9f3709b","session_id":"6196c4a6cd1ccfc1bf019ddb","condition":"contingent","relevant_dimensions":["pattern","legs"],"bee_group":{"antennae":"X","wings":"X","pattern":"S","legs":"M"},"action":"avoid","summary":"good-avoid","bonus":0.6400000000000011},{"rt":2277.5,"stimulus":"\n                    <p><b>Action: <em>avoid</em></b></p>\n                    <p>This is the bee that you just saw.</p>\n                    <img src=\"bees-with-color/bee-A1SM.svg\" width=\"200\">\n                    <p><br>Your bonus pay is unchanged, and remains at $0.36.</p>\n            ","response":0,"trial_type":"html-button-response","trial_index":36,"time_elapsed":659532,"internal_node_id":"0.0-4.0-1.12","subject_id":"5f4b8f646cc10e7481333ee4","study_id":"60edd13110225f80f9f3709b","session_id":"6196c4a6cd1ccfc1bf019ddb","condition":"contingent","relevant_dimensions":["pattern","legs"],"bee_group":{"antennae":"X","wings":"X","pattern":"S","legs":"M"},"bonus":0.6400000000000011},{"rt":6493.19999999553,"stimulus":"bees-with-color/bee-B1DF.svg","response":0,"trial_type":"image-button-response","trial_index":37,"time_elapsed":666028,"internal_node_id":"0.0-4.0-0.13","subject_id":"5f4b8f646cc10e7481333ee4","study_id":"60edd13110225f80f9f3709b","session_id":"6196c4a6cd1ccfc1bf019ddb","condition":"contingent","relevant_dimensions":["pattern","legs"],"bee_group":{"antennae":"X","wings":"X","pattern":"S","legs":"M"},"action":"harvest","summary":"good-harvest","bonus":0.6400000000000011},{"rt":1582.1000000014901,"stimulus":"\n                    <p><b>Action: <em>harvest</em></b></p>\n                    <p>This is the bee that you just saw.</p>\n                    <img src=\"bees-with-color/bee-B1DF.svg\" width=\"200\">\n                    <p><span class=\"greenText\"><b>Successful harvest!</b></span><br>Your pay has increased by $0.02. Your bonus pay is now $0.38.</p>\n            ","response":0,"trial_type":"html-button-response","trial_index":38,"time_elapsed":667612,"internal_node_id":"0.0-4.0-1.13","subject_id":"5f4b8f646cc10e7481333ee4","study_id":"60edd13110225f80f9f3709b","session_id":"6196c4a6cd1ccfc1bf019ddb","condition":"contingent","relevant_dimensions":["pattern","legs"],"bee_group":{"antennae":"X","wings":"X","pattern":"S","legs":"M"},"bonus":0.6400000000000011},{"rt":2245.5,"stimulus":"bees-with-color/bee-A2DM.svg","response":0,"trial_type":"image-button-response","trial_index":39,"time_elapsed":669861,"internal_node_id":"0.0-4.0-0.14","subject_id":"5f4b8f646cc10e7481333ee4","study_id":"60edd13110225f80f9f3709b","session_id":"6196c4a6cd1ccfc1bf019ddb","condition":"contingent","relevant_dimensions":["pattern","legs"],"bee_group":{"antennae":"X","wings":"X","pattern":"S","legs":"M"},"action":"harvest","summary":"good-harvest","bonus":0.6400000000000011},{"rt":1885,"stimulus":"\n                    <p><b>Action: <em>harvest</em></b></p>\n                    <p>This is the bee that you just saw.</p>\n                    <img src=\"bees-with-color/bee-A2DM.svg\" width=\"200\">\n                    <p><span class=\"greenText\"><b>Successful harvest!</b></span><br>Your pay has increased by $0.02. Your bonus pay is now $0.40.</p>\n            ","response":0,"trial_type":"html-button-response","trial_index":40,"time_elapsed":671748,"internal_node_id":"0.0-4.0-1.14","subject_id":"5f4b8f646cc10e7481333ee4","study_id":"60edd13110225f80f9f3709b","session_id":"6196c4a6cd1ccfc1bf019ddb","condition":"contingent","relevant_dimensions":["pattern","legs"],"bee_group":{"antennae":"X","wings":"X","pattern":"S","legs":"M"},"bonus":0.6400000000000011},{"rt":5181.70000000298,"stimulus":"bees-with-color/bee-A1DM.svg","response":0,"trial_type":"image-button-response","trial_index":41,"time_elapsed":676932,"internal_node_id":"0.0-4.0-0.15","subject_id":"5f4b8f646cc10e7481333ee4","study_id":"60edd13110225f80f9f3709b","session_id":"6196c4a6cd1ccfc1bf019ddb","condition":"contingent","relevant_dimensions":["pattern","legs"],"bee_group":{"antennae":"X","wings":"X","pattern":"S","legs":"M"},"action":"harvest","summary":"good-harvest","bonus":0.6400000000000011},{"rt":1349.3000000044703,"stimulus":"\n                    <p><b>Action: <em>harvest</em></b></p>\n                    <p>This is the bee that you just saw.</p>\n                    <img src=\"bees-with-color/bee-A1DM.svg\" width=\"200\">\n                    <p><span class=\"greenText\"><b>Successful harvest!</b></span><br>Your pay has increased by $0.02. Your bonus pay is now $0.42.</p>\n            ","response":0,"trial_type":"html-button-response","trial_index":42,"time_elapsed":678284,"internal_node_id":"0.0-4.0-1.15","subject_id":"5f4b8f646cc10e7481333ee4","study_id":"60edd13110225f80f9f3709b","session_id":"6196c4a6cd1ccfc1bf019ddb","condition":"contingent","relevant_dimensions":["pattern","legs"],"bee_group":{"antennae":"X","wings":"X","pattern":"S","legs":"M"},"bonus":0.6400000000000011},{"rt":5212.70000000298,"stimulus":"bees-with-color/bee-B2SM.svg","response":1,"trial_type":"image-button-response","trial_index":43,"time_elapsed":683500,"internal_node_id":"0.0-4.0-0.16","subject_id":"5f4b8f646cc10e7481333ee4","study_id":"60edd13110225f80f9f3709b","session_id":"6196c4a6cd1ccfc1bf019ddb","condition":"contingent","relevant_dimensions":["pattern","legs"],"bee_group":{"antennae":"X","wings":"X","pattern":"S","legs":"M"},"action":"avoid","summary":"good-avoid","bonus":0.6400000000000011},{"rt":6142,"stimulus":"\n                    <p><b>Action: <em>avoid</em></b></p>\n                    <p>This is the bee that you just saw.</p>\n                    <img src=\"bees-with-color/bee-B2SM.svg\" width=\"200\">\n                    <p><br>Your bonus pay is unchanged, and remains at $0.42.</p>\n            ","response":0,"trial_type":"html-button-response","trial_index":44,"time_elapsed":689644,"internal_node_id":"0.0-4.0-1.16","subject_id":"5f4b8f646cc10e7481333ee4","study_id":"60edd13110225f80f9f3709b","session_id":"6196c4a6cd1ccfc1bf019ddb","condition":"contingent","relevant_dimensions":["pattern","legs"],"bee_group":{"antennae":"X","wings":"X","pattern":"S","legs":"M"},"bonus":0.6400000000000011},{"rt":6173.39999999851,"stimulus":"bees-with-color/bee-B1DM.svg","response":0,"trial_type":"image-button-response","trial_index":45,"time_elapsed":695820,"internal_node_id":"0.0-4.0-0.17","subject_id":"5f4b8f646cc10e7481333ee4","study_id":"60edd13110225f80f9f3709b","session_id":"6196c4a6cd1ccfc1bf019ddb","condition":"contingent","relevant_dimensions":["pattern","legs"],"bee_group":{"antennae":"X","wings":"X","pattern":"S","legs":"M"},"action":"harvest","summary":"good-harvest","bonus":0.6400000000000011},{"rt":1469.5,"stimulus":"\n                    <p><b>Action: <em>harvest</em></b></p>\n                    <p>This is the bee that you just saw.</p>\n                    <img src=\"bees-with-color/bee-B1DM.svg\" width=\"200\">\n                    <p><span class=\"greenText\"><b>Successful harvest!</b></span><br>Your pay has increased by $0.02. Your bonus pay is now $0.44.</p>\n            ","response":0,"trial_type":"html-button-response","trial_index":46,"time_elapsed":697292,"internal_node_id":"0.0-4.0-1.17","subject_id":"5f4b8f646cc10e7481333ee4","study_id":"60edd13110225f80f9f3709b","session_id":"6196c4a6cd1ccfc1bf019ddb","condition":"contingent","relevant_dimensions":["pattern","legs"],"bee_group":{"antennae":"X","wings":"X","pattern":"S","legs":"M"},"bonus":0.6400000000000011},{"rt":4365,"stimulus":"bees-with-color/bee-B2SF.svg","response":1,"trial_type":"image-button-response","trial_index":47,"time_elapsed":701660,"internal_node_id":"0.0-4.0-0.18","subject_id":"5f4b8f646cc10e7481333ee4","study_id":"60edd13110225f80f9f3709b","session_id":"6196c4a6cd1ccfc1bf019ddb","condition":"contingent","relevant_dimensions":["pattern","legs"],"bee_group":{"antennae":"X","wings":"X","pattern":"S","legs":"M"},"action":"avoid","summary":"bad-avoid","bonus":0.6400000000000011},{"rt":1653.8999999985099,"stimulus":"\n                    <p><b>Action: <em>avoid</em></b></p>\n                    <p>This is the bee that you just saw.</p>\n                    <img src=\"bees-with-color/bee-B2SF.svg\" width=\"200\">\n                    <p><br>Your bonus pay is unchanged, and remains at $0.44.</p>\n            ","response":0,"trial_type":"html-button-response","trial_index":48,"time_elapsed":703316,"internal_node_id":"0.0-4.0-1.18","subject_id":"5f4b8f646cc10e7481333ee4","study_id":"60edd13110225f80f9f3709b","session_id":"6196c4a6cd1ccfc1bf019ddb","condition":"contingent","relevant_dimensions":["pattern","legs"],"bee_group":{"antennae":"X","wings":"X","pattern":"S","legs":"M"},"bonus":0.6400000000000011},{"rt":3637.4000000059605,"stimulus":"bees-with-color/bee-B1DF.svg","response":0,"trial_type":"image-button-response","trial_index":49,"time_elapsed":706956,"internal_node_id":"0.0-4.0-0.19","subject_id":"5f4b8f646cc10e7481333ee4","study_id":"60edd13110225f80f9f3709b","session_id":"6196c4a6cd1ccfc1bf019ddb","condition":"contingent","relevant_dimensions":["pattern","legs"],"bee_group":{"antennae":"X","wings":"X","pattern":"S","legs":"M"},"action":"harvest","summary":"good-harvest","bonus":0.6400000000000011},{"rt":2213.4000000059605,"stimulus":"\n                    <p><b>Action: <em>harvest</em></b></p>\n                    <p>This is the bee that you just saw.</p>\n                    <img src=\"bees-with-color/bee-B1DF.svg\" width=\"200\">\n                    <p><span class=\"greenText\"><b>Successful harvest!</b></span><br>Your pay has increased by $0.02. Your bonus pay is now $0.46.</p>\n            ","response":0,"trial_type":"html-button-response","trial_index":50,"time_elapsed":709172,"internal_node_id":"0.0-4.0-1.19","subject_id":"5f4b8f646cc10e7481333ee4","study_id":"60edd13110225f80f9f3709b","session_id":"6196c4a6cd1ccfc1bf019ddb","condition":"contingent","relevant_dimensions":["pattern","legs"],"bee_group":{"antennae":"X","wings":"X","pattern":"S","legs":"M"},"bonus":0.6400000000000011},{"rt":7453.20000000298,"stimulus":"bees-with-color/bee-A2SM.svg","response":0,"trial_type":"image-button-response","trial_index":51,"time_elapsed":716628,"internal_node_id":"0.0-4.0-0.20","subject_id":"5f4b8f646cc10e7481333ee4","study_id":"60edd13110225f80f9f3709b","session_id":"6196c4a6cd1ccfc1bf019ddb","condition":"contingent","relevant_dimensions":["pattern","legs"],"bee_group":{"antennae":"X","wings":"X","pattern":"S","legs":"M"},"action":"harvest","summary":"bad-harvest","bonus":0.6400000000000011},{"rt":2221.5,"stimulus":"\n                    <p><b>Action: <em>harvest</em></b></p>\n                    <p>This is the bee that you just saw.</p>\n                    <img src=\"bees-with-color/bee-A2SM.svg\" width=\"200\">\n                    <p><span class=\"redText\">Bad choice, the bee was angry.</span><br><b>You have been stung!</b><br>Your pay has been decreased by $0.10. Your bonus pay is now $0.36.</p>\n            ","response":0,"trial_type":"html-button-response","trial_index":52,"time_elapsed":718852,"internal_node_id":"0.0-4.0-1.20","subject_id":"5f4b8f646cc10e7481333ee4","study_id":"60edd13110225f80f9f3709b","session_id":"6196c4a6cd1ccfc1bf019ddb","condition":"contingent","relevant_dimensions":["pattern","legs"],"bee_group":{"antennae":"X","wings":"X","pattern":"S","legs":"M"},"bonus":0.6400000000000011},{"rt":18468.5,"stimulus":"bees-with-color/bee-B1SF.svg","response":1,"trial_type":"image-button-response","trial_index":53,"time_elapsed":737324,"internal_node_id":"0.0-4.0-0.21","subject_id":"5f4b8f646cc10e7481333ee4","study_id":"60edd13110225f80f9f3709b","session_id":"6196c4a6cd1ccfc1bf019ddb","condition":"contingent","relevant_dimensions":["pattern","legs"],"bee_group":{"antennae":"X","wings":"X","pattern":"S","legs":"M"},"action":"avoid","summary":"bad-avoid","bonus":0.6400000000000011},{"rt":1429.1999999955297,"stimulus":"\n                    <p><b>Action: <em>avoid</em></b></p>\n                    <p>This is the bee that you just saw.</p>\n                    <img src=\"bees-with-color/bee-B1SF.svg\" width=\"200\">\n                    <p><br>Your bonus pay is unchanged, and remains at $0.36.</p>\n            ","response":0,"trial_type":"html-button-response","trial_index":54,"time_elapsed":738756,"internal_node_id":"0.0-4.0-1.21","subject_id":"5f4b8f646cc10e7481333ee4","study_id":"60edd13110225f80f9f3709b","session_id":"6196c4a6cd1ccfc1bf019ddb","condition":"contingent","relevant_dimensions":["pattern","legs"],"bee_group":{"antennae":"X","wings":"X","pattern":"S","legs":"M"},"bonus":0.6400000000000011},{"rt":4661,"stimulus":"bees-with-color/bee-B2DM.svg","response":0,"trial_type":"image-button-response","trial_index":55,"time_elapsed":743420,"internal_node_id":"0.0-4.0-0.22","subject_id":"5f4b8f646cc10e7481333ee4","study_id":"60edd13110225f80f9f3709b","session_id":"6196c4a6cd1ccfc1bf019ddb","condition":"contingent","relevant_dimensions":["pattern","legs"],"bee_group":{"antennae":"X","wings":"X","pattern":"S","legs":"M"},"action":"harvest","summary":"good-harvest","bonus":0.6400000000000011},{"rt":1637.5,"stimulus":"\n                    <p><b>Action: <em>harvest</em></b></p>\n                    <p>This is the bee that you just saw.</p>\n                    <img src=\"bees-with-color/bee-B2DM.svg\" width=\"200\">\n                    <p><span class=\"greenText\"><b>Successful harvest!</b></span><br>Your pay has increased by $0.02. Your bonus pay is now $0.38.</p>\n            ","response":0,"trial_type":"html-button-response","trial_index":56,"time_elapsed":745060,"internal_node_id":"0.0-4.0-1.22","subject_id":"5f4b8f646cc10e7481333ee4","study_id":"60edd13110225f80f9f3709b","session_id":"6196c4a6cd1ccfc1bf019ddb","condition":"contingent","relevant_dimensions":["pattern","legs"],"bee_group":{"antennae":"X","wings":"X","pattern":"S","legs":"M"},"bonus":0.6400000000000011},{"rt":2269.4000000059605,"stimulus":"bees-with-color/bee-B2DF.svg","response":0,"trial_type":"image-button-response","trial_index":57,"time_elapsed":747332,"internal_node_id":"0.0-4.0-0.23","subject_id":"5f4b8f646cc10e7481333ee4","study_id":"60edd13110225f80f9f3709b","session_id":"6196c4a6cd1ccfc1bf019ddb","condition":"contingent","relevant_dimensions":["pattern","legs"],"bee_group":{"antennae":"X","wings":"X","pattern":"S","legs":"M"},"action":"harvest","summary":"good-harvest","bonus":0.6400000000000011},{"rt":1309.6999999955297,"stimulus":"\n                    <p><b>Action: <em>harvest</em></b></p>\n                    <p>This is the bee that you just saw.</p>\n                    <img src=\"bees-with-color/bee-B2DF.svg\" width=\"200\">\n                    <p><span class=\"greenText\"><b>Successful harvest!</b></span><br>Your pay has increased by $0.02. Your bonus pay is now $0.40.</p>\n            ","response":0,"trial_type":"html-button-response","trial_index":58,"time_elapsed":748644,"internal_node_id":"0.0-4.0-1.23","subject_id":"5f4b8f646cc10e7481333ee4","study_id":"60edd13110225f80f9f3709b","session_id":"6196c4a6cd1ccfc1bf019ddb","condition":"contingent","relevant_dimensions":["pattern","legs"],"bee_group":{"antennae":"X","wings":"X","pattern":"S","legs":"M"},"bonus":0.6400000000000011},{"rt":2286,"stimulus":"bees-with-color/bee-A1DF.svg","response":0,"trial_type":"image-button-response","trial_index":59,"time_elapsed":750932,"internal_node_id":"0.0-4.0-0.24","subject_id":"5f4b8f646cc10e7481333ee4","study_id":"60edd13110225f80f9f3709b","session_id":"6196c4a6cd1ccfc1bf019ddb","condition":"contingent","relevant_dimensions":["pattern","legs"],"bee_group":{"antennae":"X","wings":"X","pattern":"S","legs":"M"},"action":"harvest","summary":"good-harvest","bonus":0.6400000000000011},{"rt":1253.8999999985099,"stimulus":"\n                    <p><b>Action: <em>harvest</em></b></p>\n                    <p>This is the bee that you just saw.</p>\n                    <img src=\"bees-with-color/bee-A1DF.svg\" width=\"200\">\n                    <p><span class=\"greenText\"><b>Successful harvest!</b></span><br>Your pay has increased by $0.02. Your bonus pay is now $0.42.</p>\n            ","response":0,"trial_type":"html-button-response","trial_index":60,"time_elapsed":752187,"internal_node_id":"0.0-4.0-1.24","subject_id":"5f4b8f646cc10e7481333ee4","study_id":"60edd13110225f80f9f3709b","session_id":"6196c4a6cd1ccfc1bf019ddb","condition":"contingent","relevant_dimensions":["pattern","legs"],"bee_group":{"antennae":"X","wings":"X","pattern":"S","legs":"M"},"bonus":0.6400000000000011},{"rt":6389.89999999851,"stimulus":"bees-with-color/bee-B1SM.svg","response":1,"trial_type":"image-button-response","trial_index":61,"time_elapsed":758579,"internal_node_id":"0.0-4.0-0.25","subject_id":"5f4b8f646cc10e7481333ee4","study_id":"60edd13110225f80f9f3709b","session_id":"6196c4a6cd1ccfc1bf019ddb","condition":"contingent","relevant_dimensions":["pattern","legs"],"bee_group":{"antennae":"X","wings":"X","pattern":"S","legs":"M"},"action":"avoid","summary":"good-avoid","bonus":0.6400000000000011},{"rt":1502.2999999970198,"stimulus":"\n                    <p><b>Action: <em>avoid</em></b></p>\n                    <p>This is the bee that you just saw.</p>\n                    <img src=\"bees-with-color/bee-B1SM.svg\" width=\"200\">\n                    <p><br>Your bonus pay is unchanged, and remains at $0.42.</p>\n            ","response":0,"trial_type":"html-button-response","trial_index":62,"time_elapsed":760083,"internal_node_id":"0.0-4.0-1.25","subject_id":"5f4b8f646cc10e7481333ee4","study_id":"60edd13110225f80f9f3709b","session_id":"6196c4a6cd1ccfc1bf019ddb","condition":"contingent","relevant_dimensions":["pattern","legs"],"bee_group":{"antennae":"X","wings":"X","pattern":"S","legs":"M"},"bonus":0.6400000000000011},{"rt":15277.30000000447,"stimulus":"bees-with-color/bee-A1SM.svg","response":1,"trial_type":"image-button-response","trial_index":63,"time_elapsed":775363,"internal_node_id":"0.0-4.0-0.26","subject_id":"5f4b8f646cc10e7481333ee4","study_id":"60edd13110225f80f9f3709b","session_id":"6196c4a6cd1ccfc1bf019ddb","condition":"contingent","relevant_dimensions":["pattern","legs"],"bee_group":{"antennae":"X","wings":"X","pattern":"S","legs":"M"},"action":"avoid","summary":"good-avoid","bonus":0.6400000000000011},{"rt":1629.6000000014901,"stimulus":"\n                    <p><b>Action: <em>avoid</em></b></p>\n                    <p>This is the bee that you just saw.</p>\n                    <img src=\"bees-with-color/bee-A1SM.svg\" width=\"200\">\n                    <p><br>Your bonus pay is unchanged, and remains at $0.42.</p>\n            ","response":0,"trial_type":"html-button-response","trial_index":64,"time_elapsed":776994,"internal_node_id":"0.0-4.0-1.26","subject_id":"5f4b8f646cc10e7481333ee4","study_id":"60edd13110225f80f9f3709b","session_id":"6196c4a6cd1ccfc1bf019ddb","condition":"contingent","relevant_dimensions":["pattern","legs"],"bee_group":{"antennae":"X","wings":"X","pattern":"S","legs":"M"},"bonus":0.6400000000000011},{"rt":9757.79999999702,"stimulus":"bees-with-color/bee-A1SF.svg","response":1,"trial_type":"image-button-response","trial_index":65,"time_elapsed":786754,"internal_node_id":"0.0-4.0-0.27","subject_id":"5f4b8f646cc10e7481333ee4","study_id":"60edd13110225f80f9f3709b","session_id":"6196c4a6cd1ccfc1bf019ddb","condition":"contingent","relevant_dimensions":["pattern","legs"],"bee_group":{"antennae":"X","wings":"X","pattern":"S","legs":"M"},"action":"avoid","summary":"bad-avoid","bonus":0.6400000000000011},{"rt":1237.6999999955297,"stimulus":"\n                    <p><b>Action: <em>avoid</em></b></p>\n                    <p>This is the bee that you just saw.</p>\n                    <img src=\"bees-with-color/bee-A1SF.svg\" width=\"200\">\n                    <p><br>Your bonus pay is unchanged, and remains at $0.42.</p>\n            ","response":0,"trial_type":"html-button-response","trial_index":66,"time_elapsed":787994,"internal_node_id":"0.0-4.0-1.27","subject_id":"5f4b8f646cc10e7481333ee4","study_id":"60edd13110225f80f9f3709b","session_id":"6196c4a6cd1ccfc1bf019ddb","condition":"contingent","relevant_dimensions":["pattern","legs"],"bee_group":{"antennae":"X","wings":"X","pattern":"S","legs":"M"},"bonus":0.6400000000000011},{"rt":4397.5,"stimulus":"bees-with-color/bee-A1DM.svg","response":0,"trial_type":"image-button-response","trial_index":67,"time_elapsed":792394,"internal_node_id":"0.0-4.0-0.28","subject_id":"5f4b8f646cc10e7481333ee4","study_id":"60edd13110225f80f9f3709b","session_id":"6196c4a6cd1ccfc1bf019ddb","condition":"contingent","relevant_dimensions":["pattern","legs"],"bee_group":{"antennae":"X","wings":"X","pattern":"S","legs":"M"},"action":"harvest","summary":"good-harvest","bonus":0.6400000000000011},{"rt":1214.1000000014901,"stimulus":"\n                    <p><b>Action: <em>harvest</em></b></p>\n                    <p>This is the bee that you just saw.</p>\n                    <img src=\"bees-with-color/bee-A1DM.svg\" width=\"200\">\n                    <p><span class=\"greenText\"><b>Successful harvest!</b></span><br>Your pay has increased by $0.02. Your bonus pay is now $0.44.</p>\n            ","response":0,"trial_type":"html-button-response","trial_index":68,"time_elapsed":793610,"internal_node_id":"0.0-4.0-1.28","subject_id":"5f4b8f646cc10e7481333ee4","study_id":"60edd13110225f80f9f3709b","session_id":"6196c4a6cd1ccfc1bf019ddb","condition":"contingent","relevant_dimensions":["pattern","legs"],"bee_group":{"antennae":"X","wings":"X","pattern":"S","legs":"M"},"bonus":0.6400000000000011},{"rt":3629.2000000029802,"stimulus":"bees-with-color/bee-A2SF.svg","response":0,"trial_type":"image-button-response","trial_index":69,"time_elapsed":797242,"internal_node_id":"0.0-4.0-0.29","subject_id":"5f4b8f646cc10e7481333ee4","study_id":"60edd13110225f80f9f3709b","session_id":"6196c4a6cd1ccfc1bf019ddb","condition":"contingent","relevant_dimensions":["pattern","legs"],"bee_group":{"antennae":"X","wings":"X","pattern":"S","legs":"M"},"action":"harvest","summary":"good-harvest","bonus":0.6400000000000011},{"rt":1733.7999999970198,"stimulus":"\n                    <p><b>Action: <em>harvest</em></b></p>\n                    <p>This is the bee that you just saw.</p>\n                    <img src=\"bees-with-color/bee-A2SF.svg\" width=\"200\">\n                    <p><span class=\"greenText\"><b>Successful harvest!</b></span><br>Your pay has increased by $0.02. Your bonus pay is now $0.46.</p>\n            ","response":0,"trial_type":"html-button-response","trial_index":70,"time_elapsed":798978,"internal_node_id":"0.0-4.0-1.29","subject_id":"5f4b8f646cc10e7481333ee4","study_id":"60edd13110225f80f9f3709b","session_id":"6196c4a6cd1ccfc1bf019ddb","condition":"contingent","relevant_dimensions":["pattern","legs"],"bee_group":{"antennae":"X","wings":"X","pattern":"S","legs":"M"},"bonus":0.6400000000000011},{"rt":3309.5,"stimulus":"bees-with-color/bee-A2DF.svg","response":0,"trial_type":"image-button-response","trial_index":71,"time_elapsed":802290,"internal_node_id":"0.0-4.0-0.30","subject_id":"5f4b8f646cc10e7481333ee4","study_id":"60edd13110225f80f9f3709b","session_id":"6196c4a6cd1ccfc1bf019ddb","condition":"contingent","relevant_dimensions":["pattern","legs"],"bee_group":{"antennae":"X","wings":"X","pattern":"S","legs":"M"},"action":"harvest","summary":"good-harvest","bonus":0.6400000000000011},{"rt":1118.1000000014901,"stimulus":"\n                    <p><b>Action: <em>harvest</em></b></p>\n                    <p>This is the bee that you just saw.</p>\n                    <img src=\"bees-with-color/bee-A2DF.svg\" width=\"200\">\n                    <p><span class=\"greenText\"><b>Successful harvest!</b></span><br>Your pay has increased by $0.02. Your bonus pay is now $0.48.</p>\n            ","response":0,"trial_type":"html-button-response","trial_index":72,"time_elapsed":803410,"internal_node_id":"0.0-4.0-1.30","subject_id":"5f4b8f646cc10e7481333ee4","study_id":"60edd13110225f80f9f3709b","session_id":"6196c4a6cd1ccfc1bf019ddb","condition":"contingent","relevant_dimensions":["pattern","legs"],"bee_group":{"antennae":"X","wings":"X","pattern":"S","legs":"M"},"bonus":0.6400000000000011},{"rt":2293.1999999955297,"stimulus":"bees-with-color/bee-A2DM.svg","response":0,"trial_type":"image-button-response","trial_index":73,"time_elapsed":805706,"internal_node_id":"0.0-4.0-0.31","subject_id":"5f4b8f646cc10e7481333ee4","study_id":"60edd13110225f80f9f3709b","session_id":"6196c4a6cd1ccfc1bf019ddb","condition":"contingent","relevant_dimensions":["pattern","legs"],"bee_group":{"antennae":"X","wings":"X","pattern":"S","legs":"M"},"action":"harvest","summary":"good-harvest","bonus":0.6400000000000011},{"rt":1302.1000000014901,"stimulus":"\n                    <p><b>Action: <em>harvest</em></b></p>\n                    <p>This is the bee that you just saw.</p>\n                    <img src=\"bees-with-color/bee-A2DM.svg\" width=\"200\">\n                    <p><span class=\"greenText\"><b>Successful harvest!</b></span><br>Your pay has increased by $0.02. Your bonus pay is now $0.50.</p>\n            ","response":0,"trial_type":"html-button-response","trial_index":74,"time_elapsed":807010,"internal_node_id":"0.0-4.0-1.31","subject_id":"5f4b8f646cc10e7481333ee4","study_id":"60edd13110225f80f9f3709b","session_id":"6196c4a6cd1ccfc1bf019ddb","condition":"contingent","relevant_dimensions":["pattern","legs"],"bee_group":{"antennae":"X","wings":"X","pattern":"S","legs":"M"},"bonus":0.6400000000000011},{"rt":5237.69999999553,"stimulus":"bees-with-color/bee-A1DM.svg","response":0,"trial_type":"image-button-response","trial_index":75,"time_elapsed":812250,"internal_node_id":"0.0-4.0-0.32","subject_id":"5f4b8f646cc10e7481333ee4","study_id":"60edd13110225f80f9f3709b","session_id":"6196c4a6cd1ccfc1bf019ddb","condition":"contingent","relevant_dimensions":["pattern","legs"],"bee_group":{"antennae":"X","wings":"X","pattern":"S","legs":"M"},"action":"harvest","summary":"good-harvest","bonus":0.6400000000000011},{"rt":1829.8000000044703,"stimulus":"\n                    <p><b>Action: <em>harvest</em></b></p>\n                    <p>This is the bee that you just saw.</p>\n                    <img src=\"bees-with-color/bee-A1DM.svg\" width=\"200\">\n                    <p><span class=\"greenText\"><b>Successful harvest!</b></span><br>Your pay has increased by $0.02. Your bonus pay is now $0.52.</p>\n            ","response":0,"trial_type":"html-button-response","trial_index":76,"time_elapsed":814082,"internal_node_id":"0.0-4.0-1.32","subject_id":"5f4b8f646cc10e7481333ee4","study_id":"60edd13110225f80f9f3709b","session_id":"6196c4a6cd1ccfc1bf019ddb","condition":"contingent","relevant_dimensions":["pattern","legs"],"bee_group":{"antennae":"X","wings":"X","pattern":"S","legs":"M"},"bonus":0.6400000000000011},{"rt":3053.39999999851,"stimulus":"bees-with-color/bee-A2DM.svg","response":0,"trial_type":"image-button-response","trial_index":77,"time_elapsed":817139,"internal_node_id":"0.0-4.0-0.33","subject_id":"5f4b8f646cc10e7481333ee4","study_id":"60edd13110225f80f9f3709b","session_id":"6196c4a6cd1ccfc1bf019ddb","condition":"contingent","relevant_dimensions":["pattern","legs"],"bee_group":{"antennae":"X","wings":"X","pattern":"S","legs":"M"},"action":"harvest","summary":"good-harvest","bonus":0.6400000000000011},{"rt":1053.9000000059605,"stimulus":"\n                    <p><b>Action: <em>harvest</em></b></p>\n                    <p>This is the bee that you just saw.</p>\n                    <img src=\"bees-with-color/bee-A2DM.svg\" width=\"200\">\n                    <p><span class=\"greenText\"><b>Successful harvest!</b></span><br>Your pay has increased by $0.02. Your bonus pay is now $0.54.</p>\n            ","response":0,"trial_type":"html-button-response","trial_index":78,"time_elapsed":818195,"internal_node_id":"0.0-4.0-1.33","subject_id":"5f4b8f646cc10e7481333ee4","study_id":"60edd13110225f80f9f3709b","session_id":"6196c4a6cd1ccfc1bf019ddb","condition":"contingent","relevant_dimensions":["pattern","legs"],"bee_group":{"antennae":"X","wings":"X","pattern":"S","legs":"M"},"bonus":0.6400000000000011},{"rt":1525.5,"stimulus":"bees-with-color/bee-A2DF.svg","response":0,"trial_type":"image-button-response","trial_index":79,"time_elapsed":819723,"internal_node_id":"0.0-4.0-0.34","subject_id":"5f4b8f646cc10e7481333ee4","study_id":"60edd13110225f80f9f3709b","session_id":"6196c4a6cd1ccfc1bf019ddb","condition":"contingent","relevant_dimensions":["pattern","legs"],"bee_group":{"antennae":"X","wings":"X","pattern":"S","legs":"M"},"action":"harvest","summary":"good-harvest","bonus":0.6400000000000011},{"rt":1165.9000000059605,"stimulus":"\n                    <p><b>Action: <em>harvest</em></b></p>\n                    <p>This is the bee that you just saw.</p>\n                    <img src=\"bees-with-color/bee-A2DF.svg\" width=\"200\">\n                    <p><span class=\"greenText\"><b>Successful harvest!</b></span><br>Your pay has increased by $0.02. Your bonus pay is now $0.56.</p>\n            ","response":0,"trial_type":"html-button-response","trial_index":80,"time_elapsed":820891,"internal_node_id":"0.0-4.0-1.34","subject_id":"5f4b8f646cc10e7481333ee4","study_id":"60edd13110225f80f9f3709b","session_id":"6196c4a6cd1ccfc1bf019ddb","condition":"contingent","relevant_dimensions":["pattern","legs"],"bee_group":{"antennae":"X","wings":"X","pattern":"S","legs":"M"},"bonus":0.6400000000000011},{"rt":2358,"stimulus":"bees-with-color/bee-B2DM.svg","response":0,"trial_type":"image-button-response","trial_index":81,"time_elapsed":823251,"internal_node_id":"0.0-4.0-0.35","subject_id":"5f4b8f646cc10e7481333ee4","study_id":"60edd13110225f80f9f3709b","session_id":"6196c4a6cd1ccfc1bf019ddb","condition":"contingent","relevant_dimensions":["pattern","legs"],"bee_group":{"antennae":"X","wings":"X","pattern":"S","legs":"M"},"action":"harvest","summary":"good-harvest","bonus":0.6400000000000011},{"rt":1102.3999999985099,"stimulus":"\n                    <p><b>Action: <em>harvest</em></b></p>\n                    <p>This is the bee that you just saw.</p>\n                    <img src=\"bees-with-color/bee-B2DM.svg\" width=\"200\">\n                    <p><span class=\"greenText\"><b>Successful harvest!</b></span><br>Your pay has increased by $0.02. Your bonus pay is now $0.58.</p>\n            ","response":0,"trial_type":"html-button-response","trial_index":82,"time_elapsed":824355,"internal_node_id":"0.0-4.0-1.35","subject_id":"5f4b8f646cc10e7481333ee4","study_id":"60edd13110225f80f9f3709b","session_id":"6196c4a6cd1ccfc1bf019ddb","condition":"contingent","relevant_dimensions":["pattern","legs"],"bee_group":{"antennae":"X","wings":"X","pattern":"S","legs":"M"},"bonus":0.6400000000000011},{"rt":3173.2000000029802,"stimulus":"bees-with-color/bee-A1SM.svg","response":1,"trial_type":"image-button-response","trial_index":83,"time_elapsed":827531,"internal_node_id":"0.0-4.0-0.36","subject_id":"5f4b8f646cc10e7481333ee4","study_id":"60edd13110225f80f9f3709b","session_id":"6196c4a6cd1ccfc1bf019ddb","condition":"contingent","relevant_dimensions":["pattern","legs"],"bee_group":{"antennae":"X","wings":"X","pattern":"S","legs":"M"},"action":"avoid","summary":"good-avoid","bonus":0.6400000000000011},{"rt":3101.7000000029802,"stimulus":"\n                    <p><b>Action: <em>avoid</em></b></p>\n                    <p>This is the bee that you just saw.</p>\n                    <img src=\"bees-with-color/bee-A1SM.svg\" width=\"200\">\n                    <p><br>Your bonus pay is unchanged, and remains at $0.58.</p>\n            ","response":0,"trial_type":"html-button-response","trial_index":84,"time_elapsed":830635,"internal_node_id":"0.0-4.0-1.36","subject_id":"5f4b8f646cc10e7481333ee4","study_id":"60edd13110225f80f9f3709b","session_id":"6196c4a6cd1ccfc1bf019ddb","condition":"contingent","relevant_dimensions":["pattern","legs"],"bee_group":{"antennae":"X","wings":"X","pattern":"S","legs":"M"},"bonus":0.6400000000000011},{"rt":3749.39999999851,"stimulus":"bees-with-color/bee-B2SF.svg","response":0,"trial_type":"image-button-response","trial_index":85,"time_elapsed":834387,"internal_node_id":"0.0-4.0-0.37","subject_id":"5f4b8f646cc10e7481333ee4","study_id":"60edd13110225f80f9f3709b","session_id":"6196c4a6cd1ccfc1bf019ddb","condition":"contingent","relevant_dimensions":["pattern","legs"],"bee_group":{"antennae":"X","wings":"X","pattern":"S","legs":"M"},"action":"harvest","summary":"good-harvest","bonus":0.6400000000000011},{"rt":3037.2999999970198,"stimulus":"\n                    <p><b>Action: <em>harvest</em></b></p>\n                    <p>This is the bee that you just saw.</p>\n                    <img src=\"bees-with-color/bee-B2SF.svg\" width=\"200\">\n                    <p><span class=\"greenText\"><b>Successful harvest!</b></span><br>Your pay has increased by $0.02. Your bonus pay is now $0.60.</p>\n            ","response":0,"trial_type":"html-button-response","trial_index":86,"time_elapsed":837426,"internal_node_id":"0.0-4.0-1.37","subject_id":"5f4b8f646cc10e7481333ee4","study_id":"60edd13110225f80f9f3709b","session_id":"6196c4a6cd1ccfc1bf019ddb","condition":"contingent","relevant_dimensions":["pattern","legs"],"bee_group":{"antennae":"X","wings":"X","pattern":"S","legs":"M"},"bonus":0.6400000000000011},{"rt":7365.10000000149,"stimulus":"bees-with-color/bee-A1SF.svg","response":1,"trial_type":"image-button-response","trial_index":87,"time_elapsed":844795,"internal_node_id":"0.0-4.0-0.38","subject_id":"5f4b8f646cc10e7481333ee4","study_id":"60edd13110225f80f9f3709b","session_id":"6196c4a6cd1ccfc1bf019ddb","condition":"contingent","relevant_dimensions":["pattern","legs"],"bee_group":{"antennae":"X","wings":"X","pattern":"S","legs":"M"},"action":"avoid","summary":"bad-avoid","bonus":0.6400000000000011},{"rt":1429.1000000014901,"stimulus":"\n                    <p><b>Action: <em>avoid</em></b></p>\n                    <p>This is the bee that you just saw.</p>\n                    <img src=\"bees-with-color/bee-A1SF.svg\" width=\"200\">\n                    <p><br>Your bonus pay is unchanged, and remains at $0.60.</p>\n            ","response":0,"trial_type":"html-button-response","trial_index":88,"time_elapsed":846227,"internal_node_id":"0.0-4.0-1.38","subject_id":"5f4b8f646cc10e7481333ee4","study_id":"60edd13110225f80f9f3709b","session_id":"6196c4a6cd1ccfc1bf019ddb","condition":"contingent","relevant_dimensions":["pattern","legs"],"bee_group":{"antennae":"X","wings":"X","pattern":"S","legs":"M"},"bonus":0.6400000000000011},{"rt":3788.6999999955297,"stimulus":"bees-with-color/bee-B2SM.svg","response":0,"trial_type":"image-button-response","trial_index":89,"time_elapsed":850019,"internal_node_id":"0.0-4.0-0.39","subject_id":"5f4b8f646cc10e7481333ee4","study_id":"60edd13110225f80f9f3709b","session_id":"6196c4a6cd1ccfc1bf019ddb","condition":"contingent","relevant_dimensions":["pattern","legs"],"bee_group":{"antennae":"X","wings":"X","pattern":"S","legs":"M"},"action":"harvest","summary":"bad-harvest","bonus":0.6400000000000011},{"rt":1532.6000000014901,"stimulus":"\n                    <p><b>Action: <em>harvest</em></b></p>\n                    <p>This is the bee that you just saw.</p>\n                    <img src=\"bees-with-color/bee-B2SM.svg\" width=\"200\">\n                    <p><span class=\"redText\">Bad choice, the bee was angry.</span><br><b>You have been stung!</b><br>Your pay has been decreased by $0.10. Your bonus pay is now $0.50.</p>\n            ","response":0,"trial_type":"html-button-response","trial_index":90,"time_elapsed":851555,"internal_node_id":"0.0-4.0-1.39","subject_id":"5f4b8f646cc10e7481333ee4","study_id":"60edd13110225f80f9f3709b","session_id":"6196c4a6cd1ccfc1bf019ddb","condition":"contingent","relevant_dimensions":["pattern","legs"],"bee_group":{"antennae":"X","wings":"X","pattern":"S","legs":"M"},"bonus":0.6400000000000011},{"rt":2253.1999999955297,"stimulus":"bees-with-color/bee-B1DM.svg","response":0,"trial_type":"image-button-response","trial_index":91,"time_elapsed":853811,"internal_node_id":"0.0-4.0-0.40","subject_id":"5f4b8f646cc10e7481333ee4","study_id":"60edd13110225f80f9f3709b","session_id":"6196c4a6cd1ccfc1bf019ddb","condition":"contingent","relevant_dimensions":["pattern","legs"],"bee_group":{"antennae":"X","wings":"X","pattern":"S","legs":"M"},"action":"harvest","summary":"good-harvest","bonus":0.6400000000000011},{"rt":1141.0999999940395,"stimulus":"\n                    <p><b>Action: <em>harvest</em></b></p>\n                    <p>This is the bee that you just saw.</p>\n                    <img src=\"bees-with-color/bee-B1DM.svg\" width=\"200\">\n                    <p><span class=\"greenText\"><b>Successful harvest!</b></span><br>Your pay has increased by $0.02. Your bonus pay is now $0.52.</p>\n            ","response":0,"trial_type":"html-button-response","trial_index":92,"time_elapsed":854955,"internal_node_id":"0.0-4.0-1.40","subject_id":"5f4b8f646cc10e7481333ee4","study_id":"60edd13110225f80f9f3709b","session_id":"6196c4a6cd1ccfc1bf019ddb","condition":"contingent","relevant_dimensions":["pattern","legs"],"bee_group":{"antennae":"X","wings":"X","pattern":"S","legs":"M"},"bonus":0.6400000000000011},{"rt":4301.39999999851,"stimulus":"bees-with-color/bee-A2SM.svg","response":0,"trial_type":"image-button-response","trial_index":93,"time_elapsed":859259,"internal_node_id":"0.0-4.0-0.41","subject_id":"5f4b8f646cc10e7481333ee4","study_id":"60edd13110225f80f9f3709b","session_id":"6196c4a6cd1ccfc1bf019ddb","condition":"contingent","relevant_dimensions":["pattern","legs"],"bee_group":{"antennae":"X","wings":"X","pattern":"S","legs":"M"},"action":"harvest","summary":"bad-harvest","bonus":0.6400000000000011},{"rt":1701.6999999955297,"stimulus":"\n                    <p><b>Action: <em>harvest</em></b></p>\n                    <p>This is the bee that you just saw.</p>\n                    <img src=\"bees-with-color/bee-A2SM.svg\" width=\"200\">\n                    <p><span class=\"redText\">Bad choice, the bee was angry.</span><br><b>You have been stung!</b><br>Your pay has been decreased by $0.10. Your bonus pay is now $0.42.</p>\n            ","response":0,"trial_type":"html-button-response","trial_index":94,"time_elapsed":860963,"internal_node_id":"0.0-4.0-1.41","subject_id":"5f4b8f646cc10e7481333ee4","study_id":"60edd13110225f80f9f3709b","session_id":"6196c4a6cd1ccfc1bf019ddb","condition":"contingent","relevant_dimensions":["pattern","legs"],"bee_group":{"antennae":"X","wings":"X","pattern":"S","legs":"M"},"bonus":0.6400000000000011},{"rt":4573.29999999702,"stimulus":"bees-with-color/bee-B1DF.svg","response":0,"trial_type":"image-button-response","trial_index":95,"time_elapsed":865538,"internal_node_id":"0.0-4.0-0.42","subject_id":"5f4b8f646cc10e7481333ee4","study_id":"60edd13110225f80f9f3709b","session_id":"6196c4a6cd1ccfc1bf019ddb","condition":"contingent","relevant_dimensions":["pattern","legs"],"bee_group":{"antennae":"X","wings":"X","pattern":"S","legs":"M"},"action":"harvest","summary":"good-harvest","bonus":0.6400000000000011},{"rt":1182.0999999940395,"stimulus":"\n                    <p><b>Action: <em>harvest</em></b></p>\n                    <p>This is the bee that you just saw.</p>\n                    <img src=\"bees-with-color/bee-B1DF.svg\" width=\"200\">\n                    <p><span class=\"greenText\"><b>Successful harvest!</b></span><br>Your pay has increased by $0.02. Your bonus pay is now $0.44.</p>\n            ","response":0,"trial_type":"html-button-response","trial_index":96,"time_elapsed":866722,"internal_node_id":"0.0-4.0-1.42","subject_id":"5f4b8f646cc10e7481333ee4","study_id":"60edd13110225f80f9f3709b","session_id":"6196c4a6cd1ccfc1bf019ddb","condition":"contingent","relevant_dimensions":["pattern","legs"],"bee_group":{"antennae":"X","wings":"X","pattern":"S","legs":"M"},"bonus":0.6400000000000011},{"rt":4917.89999999851,"stimulus":"bees-with-color/bee-B1SF.svg","response":1,"trial_type":"image-button-response","trial_index":97,"time_elapsed":871643,"internal_node_id":"0.0-4.0-0.43","subject_id":"5f4b8f646cc10e7481333ee4","study_id":"60edd13110225f80f9f3709b","session_id":"6196c4a6cd1ccfc1bf019ddb","condition":"contingent","relevant_dimensions":["pattern","legs"],"bee_group":{"antennae":"X","wings":"X","pattern":"S","legs":"M"},"action":"avoid","summary":"bad-avoid","bonus":0.6400000000000011},{"rt":2501.89999999851,"stimulus":"\n                    <p><b>Action: <em>avoid</em></b></p>\n                    <p>This is the bee that you just saw.</p>\n                    <img src=\"bees-with-color/bee-B1SF.svg\" width=\"200\">\n                    <p><br>Your bonus pay is unchanged, and remains at $0.44.</p>\n            ","response":0,"trial_type":"html-button-response","trial_index":98,"time_elapsed":874146,"internal_node_id":"0.0-4.0-1.43","subject_id":"5f4b8f646cc10e7481333ee4","study_id":"60edd13110225f80f9f3709b","session_id":"6196c4a6cd1ccfc1bf019ddb","condition":"contingent","relevant_dimensions":["pattern","legs"],"bee_group":{"antennae":"X","wings":"X","pattern":"S","legs":"M"},"bonus":0.6400000000000011},{"rt":4541.5,"stimulus":"bees-with-color/bee-A1DF.svg","response":0,"trial_type":"image-button-response","trial_index":99,"time_elapsed":878690,"internal_node_id":"0.0-4.0-0.44","subject_id":"5f4b8f646cc10e7481333ee4","study_id":"60edd13110225f80f9f3709b","session_id":"6196c4a6cd1ccfc1bf019ddb","condition":"contingent","relevant_dimensions":["pattern","legs"],"bee_group":{"antennae":"X","wings":"X","pattern":"S","legs":"M"},"action":"harvest","summary":"good-harvest","bonus":0.6400000000000011},{"rt":1334.1000000014901,"stimulus":"\n                    <p><b>Action: <em>harvest</em></b></p>\n                    <p>This is the bee that you just saw.</p>\n                    <img src=\"bees-with-color/bee-A1DF.svg\" width=\"200\">\n                    <p><span class=\"greenText\"><b>Successful harvest!</b></span><br>Your pay has increased by $0.02. Your bonus pay is now $0.46.</p>\n            ","response":0,"trial_type":"html-button-response","trial_index":100,"time_elapsed":880027,"internal_node_id":"0.0-4.0-1.44","subject_id":"5f4b8f646cc10e7481333ee4","study_id":"60edd13110225f80f9f3709b","session_id":"6196c4a6cd1ccfc1bf019ddb","condition":"contingent","relevant_dimensions":["pattern","legs"],"bee_group":{"antennae":"X","wings":"X","pattern":"S","legs":"M"},"bonus":0.6400000000000011},{"rt":2314.5,"stimulus":"bees-with-color/bee-B1SM.svg","response":1,"trial_type":"image-button-response","trial_index":101,"time_elapsed":882346,"internal_node_id":"0.0-4.0-0.45","subject_id":"5f4b8f646cc10e7481333ee4","study_id":"60edd13110225f80f9f3709b","session_id":"6196c4a6cd1ccfc1bf019ddb","condition":"contingent","relevant_dimensions":["pattern","legs"],"bee_group":{"antennae":"X","wings":"X","pattern":"S","legs":"M"},"action":"avoid","summary":"good-avoid","bonus":0.6400000000000011},{"rt":1230,"stimulus":"\n                    <p><b>Action: <em>avoid</em></b></p>\n                    <p>This is the bee that you just saw.</p>\n                    <img src=\"bees-with-color/bee-B1SM.svg\" width=\"200\">\n                    <p><br>Your bonus pay is unchanged, and remains at $0.46.</p>\n            ","response":0,"trial_type":"html-button-response","trial_index":102,"time_elapsed":883578,"internal_node_id":"0.0-4.0-1.45","subject_id":"5f4b8f646cc10e7481333ee4","study_id":"60edd13110225f80f9f3709b","session_id":"6196c4a6cd1ccfc1bf019ddb","condition":"contingent","relevant_dimensions":["pattern","legs"],"bee_group":{"antennae":"X","wings":"X","pattern":"S","legs":"M"},"bonus":0.6400000000000011},{"rt":2629.7000000029802,"stimulus":"bees-with-color/bee-B2DF.svg","response":0,"trial_type":"image-button-response","trial_index":103,"time_elapsed":886210,"internal_node_id":"0.0-4.0-0.46","subject_id":"5f4b8f646cc10e7481333ee4","study_id":"60edd13110225f80f9f3709b","session_id":"6196c4a6cd1ccfc1bf019ddb","condition":"contingent","relevant_dimensions":["pattern","legs"],"bee_group":{"antennae":"X","wings":"X","pattern":"S","legs":"M"},"action":"harvest","summary":"good-harvest","bonus":0.6400000000000011},{"rt":1069.9000000059605,"stimulus":"\n                    <p><b>Action: <em>harvest</em></b></p>\n                    <p>This is the bee that you just saw.</p>\n                    <img src=\"bees-with-color/bee-B2DF.svg\" width=\"200\">\n                    <p><span class=\"greenText\"><b>Successful harvest!</b></span><br>Your pay has increased by $0.02. Your bonus pay is now $0.48.</p>\n            ","response":0,"trial_type":"html-button-response","trial_index":104,"time_elapsed":887282,"internal_node_id":"0.0-4.0-1.46","subject_id":"5f4b8f646cc10e7481333ee4","study_id":"60edd13110225f80f9f3709b","session_id":"6196c4a6cd1ccfc1bf019ddb","condition":"contingent","relevant_dimensions":["pattern","legs"],"bee_group":{"antennae":"X","wings":"X","pattern":"S","legs":"M"},"bonus":0.6400000000000011},{"rt":4557.5,"stimulus":"bees-with-color/bee-A2SF.svg","response":0,"trial_type":"image-button-response","trial_index":105,"time_elapsed":891842,"internal_node_id":"0.0-4.0-0.47","subject_id":"5f4b8f646cc10e7481333ee4","study_id":"60edd13110225f80f9f3709b","session_id":"6196c4a6cd1ccfc1bf019ddb","condition":"contingent","relevant_dimensions":["pattern","legs"],"bee_group":{"antennae":"X","wings":"X","pattern":"S","legs":"M"},"action":"harvest","summary":"good-harvest","bonus":0.6400000000000011},{"rt":1126.3999999985099,"stimulus":"\n                    <p><b>Action: <em>harvest</em></b></p>\n                    <p>This is the bee that you just saw.</p>\n                    <img src=\"bees-with-color/bee-A2SF.svg\" width=\"200\">\n                    <p><span class=\"greenText\"><b>Successful harvest!</b></span><br>Your pay has increased by $0.02. Your bonus pay is now $0.50.</p>\n            ","response":0,"trial_type":"html-button-response","trial_index":106,"time_elapsed":892971,"internal_node_id":"0.0-4.0-1.47","subject_id":"5f4b8f646cc10e7481333ee4","study_id":"60edd13110225f80f9f3709b","session_id":"6196c4a6cd1ccfc1bf019ddb","condition":"contingent","relevant_dimensions":["pattern","legs"],"bee_group":{"antennae":"X","wings":"X","pattern":"S","legs":"M"},"bonus":0.6400000000000011},{"rt":2661.5,"stimulus":"bees-with-color/bee-A2DM.svg","response":0,"trial_type":"image-button-response","trial_index":107,"time_elapsed":895634,"internal_node_id":"0.0-4.0-0.48","subject_id":"5f4b8f646cc10e7481333ee4","study_id":"60edd13110225f80f9f3709b","session_id":"6196c4a6cd1ccfc1bf019ddb","condition":"contingent","relevant_dimensions":["pattern","legs"],"bee_group":{"antennae":"X","wings":"X","pattern":"S","legs":"M"},"action":"harvest","summary":"good-harvest","bonus":0.6400000000000011},{"rt":1118,"stimulus":"\n                    <p><b>Action: <em>harvest</em></b></p>\n                    <p>This is the bee that you just saw.</p>\n                    <img src=\"bees-with-color/bee-A2DM.svg\" width=\"200\">\n                    <p><span class=\"greenText\"><b>Successful harvest!</b></span><br>Your pay has increased by $0.02. Your bonus pay is now $0.52.</p>\n            ","response":0,"trial_type":"html-button-response","trial_index":108,"time_elapsed":896754,"internal_node_id":"0.0-4.0-1.48","subject_id":"5f4b8f646cc10e7481333ee4","study_id":"60edd13110225f80f9f3709b","session_id":"6196c4a6cd1ccfc1bf019ddb","condition":"contingent","relevant_dimensions":["pattern","legs"],"bee_group":{"antennae":"X","wings":"X","pattern":"S","legs":"M"},"bonus":0.6400000000000011},{"rt":17045.40000000596,"stimulus":"bees-with-color/bee-A1SF.svg","response":1,"trial_type":"image-button-response","trial_index":109,"time_elapsed":913802,"internal_node_id":"0.0-4.0-0.49","subject_id":"5f4b8f646cc10e7481333ee4","study_id":"60edd13110225f80f9f3709b","session_id":"6196c4a6cd1ccfc1bf019ddb","condition":"contingent","relevant_dimensions":["pattern","legs"],"bee_group":{"antennae":"X","wings":"X","pattern":"S","legs":"M"},"action":"avoid","summary":"bad-avoid","bonus":0.6400000000000011},{"rt":2221.1999999955297,"stimulus":"\n                    <p><b>Action: <em>avoid</em></b></p>\n                    <p>This is the bee that you just saw.</p>\n                    <img src=\"bees-with-color/bee-A1SF.svg\" width=\"200\">\n                    <p><br>Your bonus pay is unchanged, and remains at $0.52.</p>\n            ","response":0,"trial_type":"html-button-response","trial_index":110,"time_elapsed":916026,"internal_node_id":"0.0-4.0-1.49","subject_id":"5f4b8f646cc10e7481333ee4","study_id":"60edd13110225f80f9f3709b","session_id":"6196c4a6cd1ccfc1bf019ddb","condition":"contingent","relevant_dimensions":["pattern","legs"],"bee_group":{"antennae":"X","wings":"X","pattern":"S","legs":"M"},"bonus":0.6400000000000011},{"rt":3565.60000000149,"stimulus":"bees-with-color/bee-A2SM.svg","response":0,"trial_type":"image-button-response","trial_index":111,"time_elapsed":919594,"internal_node_id":"0.0-4.0-0.50","subject_id":"5f4b8f646cc10e7481333ee4","study_id":"60edd13110225f80f9f3709b","session_id":"6196c4a6cd1ccfc1bf019ddb","condition":"contingent","relevant_dimensions":["pattern","legs"],"bee_group":{"antennae":"X","wings":"X","pattern":"S","legs":"M"},"action":"harvest","summary":"bad-harvest","bonus":0.6400000000000011},{"rt":1837.8000000044703,"stimulus":"\n                    <p><b>Action: <em>harvest</em></b></p>\n                    <p>This is the bee that you just saw.</p>\n                    <img src=\"bees-with-color/bee-A2SM.svg\" width=\"200\">\n                    <p><span class=\"redText\">Bad choice, the bee was angry.</span><br><b>You have been stung!</b><br>Your pay has been decreased by $0.10. Your bonus pay is now $0.42.</p>\n            ","response":0,"trial_type":"html-button-response","trial_index":112,"time_elapsed":921434,"internal_node_id":"0.0-4.0-1.50","subject_id":"5f4b8f646cc10e7481333ee4","study_id":"60edd13110225f80f9f3709b","session_id":"6196c4a6cd1ccfc1bf019ddb","condition":"contingent","relevant_dimensions":["pattern","legs"],"bee_group":{"antennae":"X","wings":"X","pattern":"S","legs":"M"},"bonus":0.6400000000000011},{"rt":3741.5999999940395,"stimulus":"bees-with-color/bee-B2SM.svg","response":0,"trial_type":"image-button-response","trial_index":113,"time_elapsed":925178,"internal_node_id":"0.0-4.0-0.51","subject_id":"5f4b8f646cc10e7481333ee4","study_id":"60edd13110225f80f9f3709b","session_id":"6196c4a6cd1ccfc1bf019ddb","condition":"contingent","relevant_dimensions":["pattern","legs"],"bee_group":{"antennae":"X","wings":"X","pattern":"S","legs":"M"},"action":"harvest","summary":"bad-harvest","bonus":0.6400000000000011},{"rt":1446.1000000014901,"stimulus":"\n                    <p><b>Action: <em>harvest</em></b></p>\n                    <p>This is the bee that you just saw.</p>\n                    <img src=\"bees-with-color/bee-B2SM.svg\" width=\"200\">\n                    <p><span class=\"redText\">Bad choice, the bee was angry.</span><br><b>You have been stung!</b><br>Your pay has been decreased by $0.10. Your bonus pay is now $0.32.</p>\n            ","response":0,"trial_type":"html-button-response","trial_index":114,"time_elapsed":926626,"internal_node_id":"0.0-4.0-1.51","subject_id":"5f4b8f646cc10e7481333ee4","study_id":"60edd13110225f80f9f3709b","session_id":"6196c4a6cd1ccfc1bf019ddb","condition":"contingent","relevant_dimensions":["pattern","legs"],"bee_group":{"antennae":"X","wings":"X","pattern":"S","legs":"M"},"bonus":0.6400000000000011},{"rt":1517.3999999985099,"stimulus":"bees-with-color/bee-B1DF.svg","response":1,"trial_type":"image-button-response","trial_index":115,"time_elapsed":928146,"internal_node_id":"0.0-4.0-0.52","subject_id":"5f4b8f646cc10e7481333ee4","study_id":"60edd13110225f80f9f3709b","session_id":"6196c4a6cd1ccfc1bf019ddb","condition":"contingent","relevant_dimensions":["pattern","legs"],"bee_group":{"antennae":"X","wings":"X","pattern":"S","legs":"M"},"action":"avoid","summary":"bad-avoid","bonus":0.6400000000000011},{"rt":1718,"stimulus":"\n                    <p><b>Action: <em>avoid</em></b></p>\n                    <p>This is the bee that you just saw.</p>\n                    <img src=\"bees-with-color/bee-B1DF.svg\" width=\"200\">\n                    <p><br>Your bonus pay is unchanged, and remains at $0.32.</p>\n            ","response":0,"trial_type":"html-button-response","trial_index":116,"time_elapsed":929866,"internal_node_id":"0.0-4.0-1.52","subject_id":"5f4b8f646cc10e7481333ee4","study_id":"60edd13110225f80f9f3709b","session_id":"6196c4a6cd1ccfc1bf019ddb","condition":"contingent","relevant_dimensions":["pattern","legs"],"bee_group":{"antennae":"X","wings":"X","pattern":"S","legs":"M"},"bonus":0.6400000000000011},{"rt":1717.5,"stimulus":"bees-with-color/bee-A1DM.svg","response":1,"trial_type":"image-button-response","trial_index":117,"time_elapsed":931586,"internal_node_id":"0.0-4.0-0.53","subject_id":"5f4b8f646cc10e7481333ee4","study_id":"60edd13110225f80f9f3709b","session_id":"6196c4a6cd1ccfc1bf019ddb","condition":"contingent","relevant_dimensions":["pattern","legs"],"bee_group":{"antennae":"X","wings":"X","pattern":"S","legs":"M"},"action":"avoid","summary":"bad-avoid","bonus":0.6400000000000011},{"rt":1125.6999999955297,"stimulus":"\n                    <p><b>Action: <em>avoid</em></b></p>\n                    <p>This is the bee that you just saw.</p>\n                    <img src=\"bees-with-color/bee-A1DM.svg\" width=\"200\">\n                    <p><br>Your bonus pay is unchanged, and remains at $0.32.</p>\n            ","response":0,"trial_type":"html-button-response","trial_index":118,"time_elapsed":932714,"internal_node_id":"0.0-4.0-1.53","subject_id":"5f4b8f646cc10e7481333ee4","study_id":"60edd13110225f80f9f3709b","session_id":"6196c4a6cd1ccfc1bf019ddb","condition":"contingent","relevant_dimensions":["pattern","legs"],"bee_group":{"antennae":"X","wings":"X","pattern":"S","legs":"M"},"bonus":0.6400000000000011},{"rt":4653.20000000298,"stimulus":"bees-with-color/bee-B1DM.svg","response":0,"trial_type":"image-button-response","trial_index":119,"time_elapsed":937370,"internal_node_id":"0.0-4.0-0.54","subject_id":"5f4b8f646cc10e7481333ee4","study_id":"60edd13110225f80f9f3709b","session_id":"6196c4a6cd1ccfc1bf019ddb","condition":"contingent","relevant_dimensions":["pattern","legs"],"bee_group":{"antennae":"X","wings":"X","pattern":"S","legs":"M"},"action":"harvest","summary":"good-harvest","bonus":0.6400000000000011},{"rt":1293.7999999970198,"stimulus":"\n                    <p><b>Action: <em>harvest</em></b></p>\n                    <p>This is the bee that you just saw.</p>\n                    <img src=\"bees-with-color/bee-B1DM.svg\" width=\"200\">\n                    <p><span class=\"greenText\"><b>Successful harvest!</b></span><br>Your pay has increased by $0.02. Your bonus pay is now $0.34.</p>\n            ","response":0,"trial_type":"html-button-response","trial_index":120,"time_elapsed":938666,"internal_node_id":"0.0-4.0-1.54","subject_id":"5f4b8f646cc10e7481333ee4","study_id":"60edd13110225f80f9f3709b","session_id":"6196c4a6cd1ccfc1bf019ddb","condition":"contingent","relevant_dimensions":["pattern","legs"],"bee_group":{"antennae":"X","wings":"X","pattern":"S","legs":"M"},"bonus":0.6400000000000011},{"rt":3444.5999999940395,"stimulus":"bees-with-color/bee-B2DM.svg","response":0,"trial_type":"image-button-response","trial_index":121,"time_elapsed":942113,"internal_node_id":"0.0-4.0-0.55","subject_id":"5f4b8f646cc10e7481333ee4","study_id":"60edd13110225f80f9f3709b","session_id":"6196c4a6cd1ccfc1bf019ddb","condition":"contingent","relevant_dimensions":["pattern","legs"],"bee_group":{"antennae":"X","wings":"X","pattern":"S","legs":"M"},"action":"harvest","summary":"good-harvest","bonus":0.6400000000000011},{"rt":1214.1999999955297,"stimulus":"\n                    <p><b>Action: <em>harvest</em></b></p>\n                    <p>This is the bee that you just saw.</p>\n                    <img src=\"bees-with-color/bee-B2DM.svg\" width=\"200\">\n                    <p><span class=\"greenText\"><b>Successful harvest!</b></span><br>Your pay has increased by $0.02. Your bonus pay is now $0.36.</p>\n            ","response":0,"trial_type":"html-button-response","trial_index":122,"time_elapsed":943330,"internal_node_id":"0.0-4.0-1.55","subject_id":"5f4b8f646cc10e7481333ee4","study_id":"60edd13110225f80f9f3709b","session_id":"6196c4a6cd1ccfc1bf019ddb","condition":"contingent","relevant_dimensions":["pattern","legs"],"bee_group":{"antennae":"X","wings":"X","pattern":"S","legs":"M"},"bonus":0.6400000000000011},{"rt":2637,"stimulus":"bees-with-color/bee-A1SM.svg","response":1,"trial_type":"image-button-response","trial_index":123,"time_elapsed":945970,"internal_node_id":"0.0-4.0-0.56","subject_id":"5f4b8f646cc10e7481333ee4","study_id":"60edd13110225f80f9f3709b","session_id":"6196c4a6cd1ccfc1bf019ddb","condition":"contingent","relevant_dimensions":["pattern","legs"],"bee_group":{"antennae":"X","wings":"X","pattern":"S","legs":"M"},"action":"avoid","summary":"good-avoid","bonus":0.6400000000000011},{"rt":1173,"stimulus":"\n                    <p><b>Action: <em>avoid</em></b></p>\n                    <p>This is the bee that you just saw.</p>\n                    <img src=\"bees-with-color/bee-A1SM.svg\" width=\"200\">\n                    <p><br>Your bonus pay is unchanged, and remains at $0.36.</p>\n            ","response":0,"trial_type":"html-button-response","trial_index":124,"time_elapsed":947146,"internal_node_id":"0.0-4.0-1.56","subject_id":"5f4b8f646cc10e7481333ee4","study_id":"60edd13110225f80f9f3709b","session_id":"6196c4a6cd1ccfc1bf019ddb","condition":"contingent","relevant_dimensions":["pattern","legs"],"bee_group":{"antennae":"X","wings":"X","pattern":"S","legs":"M"},"bonus":0.6400000000000011},{"rt":4237.5,"stimulus":"bees-with-color/bee-A1DF.svg","response":0,"trial_type":"image-button-response","trial_index":125,"time_elapsed":951386,"internal_node_id":"0.0-4.0-0.57","subject_id":"5f4b8f646cc10e7481333ee4","study_id":"60edd13110225f80f9f3709b","session_id":"6196c4a6cd1ccfc1bf019ddb","condition":"contingent","relevant_dimensions":["pattern","legs"],"bee_group":{"antennae":"X","wings":"X","pattern":"S","legs":"M"},"action":"harvest","summary":"good-harvest","bonus":0.6400000000000011},{"rt":1029.5,"stimulus":"\n                    <p><b>Action: <em>harvest</em></b></p>\n                    <p>This is the bee that you just saw.</p>\n                    <img src=\"bees-with-color/bee-A1DF.svg\" width=\"200\">\n                    <p><span class=\"greenText\"><b>Successful harvest!</b></span><br>Your pay has increased by $0.02. Your bonus pay is now $0.38.</p>\n            ","response":0,"trial_type":"html-button-response","trial_index":126,"time_elapsed":952418,"internal_node_id":"0.0-4.0-1.57","subject_id":"5f4b8f646cc10e7481333ee4","study_id":"60edd13110225f80f9f3709b","session_id":"6196c4a6cd1ccfc1bf019ddb","condition":"contingent","relevant_dimensions":["pattern","legs"],"bee_group":{"antennae":"X","wings":"X","pattern":"S","legs":"M"},"bonus":0.6400000000000011},{"rt":3429,"stimulus":"bees-with-color/bee-A2DF.svg","response":0,"trial_type":"image-button-response","trial_index":127,"time_elapsed":955850,"internal_node_id":"0.0-4.0-0.58","subject_id":"5f4b8f646cc10e7481333ee4","study_id":"60edd13110225f80f9f3709b","session_id":"6196c4a6cd1ccfc1bf019ddb","condition":"contingent","relevant_dimensions":["pattern","legs"],"bee_group":{"antennae":"X","wings":"X","pattern":"S","legs":"M"},"action":"harvest","summary":"good-harvest","bonus":0.6400000000000011},{"rt":1181.5,"stimulus":"\n                    <p><b>Action: <em>harvest</em></b></p>\n                    <p>This is the bee that you just saw.</p>\n                    <img src=\"bees-with-color/bee-A2DF.svg\" width=\"200\">\n                    <p><span class=\"greenText\"><b>Successful harvest!</b></span><br>Your pay has increased by $0.02. Your bonus pay is now $0.40.</p>\n            ","response":0,"trial_type":"html-button-response","trial_index":128,"time_elapsed":957034,"internal_node_id":"0.0-4.0-1.58","subject_id":"5f4b8f646cc10e7481333ee4","study_id":"60edd13110225f80f9f3709b","session_id":"6196c4a6cd1ccfc1bf019ddb","condition":"contingent","relevant_dimensions":["pattern","legs"],"bee_group":{"antennae":"X","wings":"X","pattern":"S","legs":"M"},"bonus":0.6400000000000011},{"rt":2005.2999999970198,"stimulus":"bees-with-color/bee-B1SF.svg","response":1,"trial_type":"image-button-response","trial_index":129,"time_elapsed":959042,"internal_node_id":"0.0-4.0-0.59","subject_id":"5f4b8f646cc10e7481333ee4","study_id":"60edd13110225f80f9f3709b","session_id":"6196c4a6cd1ccfc1bf019ddb","condition":"contingent","relevant_dimensions":["pattern","legs"],"bee_group":{"antennae":"X","wings":"X","pattern":"S","legs":"M"},"action":"avoid","summary":"bad-avoid","bonus":0.6400000000000011},{"rt":1549.7000000029802,"stimulus":"\n                    <p><b>Action: <em>avoid</em></b></p>\n                    <p>This is the bee that you just saw.</p>\n                    <img src=\"bees-with-color/bee-B1SF.svg\" width=\"200\">\n                    <p><br>Your bonus pay is unchanged, and remains at $0.40.</p>\n            ","response":0,"trial_type":"html-button-response","trial_index":130,"time_elapsed":960594,"internal_node_id":"0.0-4.0-1.59","subject_id":"5f4b8f646cc10e7481333ee4","study_id":"60edd13110225f80f9f3709b","session_id":"6196c4a6cd1ccfc1bf019ddb","condition":"contingent","relevant_dimensions":["pattern","legs"],"bee_group":{"antennae":"X","wings":"X","pattern":"S","legs":"M"},"bonus":0.6400000000000011},{"rt":1733.5,"stimulus":"bees-with-color/bee-B2DF.svg","response":0,"trial_type":"image-button-response","trial_index":131,"time_elapsed":962330,"internal_node_id":"0.0-4.0-0.60","subject_id":"5f4b8f646cc10e7481333ee4","study_id":"60edd13110225f80f9f3709b","session_id":"6196c4a6cd1ccfc1bf019ddb","condition":"contingent","relevant_dimensions":["pattern","legs"],"bee_group":{"antennae":"X","wings":"X","pattern":"S","legs":"M"},"action":"harvest","summary":"good-harvest","bonus":0.6400000000000011},{"rt":966.3999999985099,"stimulus":"\n                    <p><b>Action: <em>harvest</em></b></p>\n                    <p>This is the bee that you just saw.</p>\n                    <img src=\"bees-with-color/bee-B2DF.svg\" width=\"200\">\n                    <p><span class=\"greenText\"><b>Successful harvest!</b></span><br>Your pay has increased by $0.02. Your bonus pay is now $0.42.</p>\n            ","response":0,"trial_type":"html-button-response","trial_index":132,"time_elapsed":963298,"internal_node_id":"0.0-4.0-1.60","subject_id":"5f4b8f646cc10e7481333ee4","study_id":"60edd13110225f80f9f3709b","session_id":"6196c4a6cd1ccfc1bf019ddb","condition":"contingent","relevant_dimensions":["pattern","legs"],"bee_group":{"antennae":"X","wings":"X","pattern":"S","legs":"M"},"bonus":0.6400000000000011},{"rt":2597.7000000029802,"stimulus":"bees-with-color/bee-B2SF.svg","response":1,"trial_type":"image-button-response","trial_index":133,"time_elapsed":965898,"internal_node_id":"0.0-4.0-0.61","subject_id":"5f4b8f646cc10e7481333ee4","study_id":"60edd13110225f80f9f3709b","session_id":"6196c4a6cd1ccfc1bf019ddb","condition":"contingent","relevant_dimensions":["pattern","legs"],"bee_group":{"antennae":"X","wings":"X","pattern":"S","legs":"M"},"action":"avoid","summary":"bad-avoid","bonus":0.6400000000000011},{"rt":1078,"stimulus":"\n                    <p><b>Action: <em>avoid</em></b></p>\n                    <p>This is the bee that you just saw.</p>\n                    <img src=\"bees-with-color/bee-B2SF.svg\" width=\"200\">\n                    <p><br>Your bonus pay is unchanged, and remains at $0.42.</p>\n            ","response":0,"trial_type":"html-button-response","trial_index":134,"time_elapsed":966978,"internal_node_id":"0.0-4.0-1.61","subject_id":"5f4b8f646cc10e7481333ee4","study_id":"60edd13110225f80f9f3709b","session_id":"6196c4a6cd1ccfc1bf019ddb","condition":"contingent","relevant_dimensions":["pattern","legs"],"bee_group":{"antennae":"X","wings":"X","pattern":"S","legs":"M"},"bonus":0.6400000000000011},{"rt":1765.5,"stimulus":"bees-with-color/bee-A2SF.svg","response":1,"trial_type":"image-button-response","trial_index":135,"time_elapsed":968745,"internal_node_id":"0.0-4.0-0.62","subject_id":"5f4b8f646cc10e7481333ee4","study_id":"60edd13110225f80f9f3709b","session_id":"6196c4a6cd1ccfc1bf019ddb","condition":"contingent","relevant_dimensions":["pattern","legs"],"bee_group":{"antennae":"X","wings":"X","pattern":"S","legs":"M"},"action":"avoid","summary":"bad-avoid","bonus":0.6400000000000011},{"rt":1166.1999999955297,"stimulus":"\n                    <p><b>Action: <em>avoid</em></b></p>\n                    <p>This is the bee that you just saw.</p>\n                    <img src=\"bees-with-color/bee-A2SF.svg\" width=\"200\">\n                    <p><br>Your bonus pay is unchanged, and remains at $0.42.</p>\n            ","response":0,"trial_type":"html-button-response","trial_index":136,"time_elapsed":969913,"internal_node_id":"0.0-4.0-1.62","subject_id":"5f4b8f646cc10e7481333ee4","study_id":"60edd13110225f80f9f3709b","session_id":"6196c4a6cd1ccfc1bf019ddb","condition":"contingent","relevant_dimensions":["pattern","legs"],"bee_group":{"antennae":"X","wings":"X","pattern":"S","legs":"M"},"bonus":0.6400000000000011},{"rt":1942.2999999970198,"stimulus":"bees-with-color/bee-B1SM.svg","response":1,"trial_type":"image-button-response","trial_index":137,"time_elapsed":971858,"internal_node_id":"0.0-4.0-0.63","subject_id":"5f4b8f646cc10e7481333ee4","study_id":"60edd13110225f80f9f3709b","session_id":"6196c4a6cd1ccfc1bf019ddb","condition":"contingent","relevant_dimensions":["pattern","legs"],"bee_group":{"antennae":"X","wings":"X","pattern":"S","legs":"M"},"action":"avoid","summary":"good-avoid","bonus":0.6400000000000011},{"rt":1062.2000000029802,"stimulus":"\n                    <p><b>Action: <em>avoid</em></b></p>\n                    <p>This is the bee that you just saw.</p>\n                    <img src=\"bees-with-color/bee-B1SM.svg\" width=\"200\">\n                    <p><br>Your bonus pay is unchanged, and remains at $0.42.</p>\n            ","response":0,"trial_type":"html-button-response","trial_index":138,"time_elapsed":972922,"internal_node_id":"0.0-4.0-1.63","subject_id":"5f4b8f646cc10e7481333ee4","study_id":"60edd13110225f80f9f3709b","session_id":"6196c4a6cd1ccfc1bf019ddb","condition":"contingent","relevant_dimensions":["pattern","legs"],"bee_group":{"antennae":"X","wings":"X","pattern":"S","legs":"M"},"bonus":0.6400000000000011},{"rt":11344.5,"stimulus":"You have completed the first part of this experiment.<br><br>You will now begin a shorter second part, in which you will receive no feedback.<br>The same rules regarding bonus pay apply.<br><br>Press any key to begin.","response":"h","trial_type":"html-keyboard-response","trial_index":139,"time_elapsed":984269,"internal_node_id":"0.0-5.0","subject_id":"5f4b8f646cc10e7481333ee4","study_id":"60edd13110225f80f9f3709b","session_id":"6196c4a6cd1ccfc1bf019ddb","condition":"contingent","relevant_dimensions":["pattern","legs"],"bee_group":{"antennae":"X","wings":"X","pattern":"S","legs":"M"},"bonus":0.6400000000000011},{"rt":8124.79999999702,"stimulus":"bees-with-color/bee-B2DM.svg","response":0,"trial_type":"image-button-response","trial_index":140,"time_elapsed":992418,"internal_node_id":"0.0-6.0-0.0","subject_id":"5f4b8f646cc10e7481333ee4","study_id":"60edd13110225f80f9f3709b","session_id":"6196c4a6cd1ccfc1bf019ddb","condition":"contingent","relevant_dimensions":["pattern","legs"],"bee_group":{"antennae":"X","wings":"X","pattern":"S","legs":"M"},"bonus":0.6400000000000011},{"rt":4884.30000000447,"stimulus":"bees-with-color/bee-A1SF.svg","response":1,"trial_type":"image-button-response","trial_index":141,"time_elapsed":997305,"internal_node_id":"0.0-6.0-0.1","subject_id":"5f4b8f646cc10e7481333ee4","study_id":"60edd13110225f80f9f3709b","session_id":"6196c4a6cd1ccfc1bf019ddb","condition":"contingent","relevant_dimensions":["pattern","legs"],"bee_group":{"antennae":"X","wings":"X","pattern":"S","legs":"M"},"bonus":0.6400000000000011},{"rt":2204.39999999851,"stimulus":"bees-with-color/bee-B2DF.svg","response":0,"trial_type":"image-button-response","trial_index":142,"time_elapsed":999513,"internal_node_id":"0.0-6.0-0.2","subject_id":"5f4b8f646cc10e7481333ee4","study_id":"60edd13110225f80f9f3709b","session_id":"6196c4a6cd1ccfc1bf019ddb","condition":"contingent","relevant_dimensions":["pattern","legs"],"bee_group":{"antennae":"X","wings":"X","pattern":"S","legs":"M"},"bonus":0.6400000000000011},{"rt":1773.5,"stimulus":"bees-with-color/bee-A1SM.svg","response":1,"trial_type":"image-button-response","trial_index":143,"time_elapsed":1001289,"internal_node_id":"0.0-6.0-0.3","subject_id":"5f4b8f646cc10e7481333ee4","study_id":"60edd13110225f80f9f3709b","session_id":"6196c4a6cd1ccfc1bf019ddb","condition":"contingent","relevant_dimensions":["pattern","legs"],"bee_group":{"antennae":"X","wings":"X","pattern":"S","legs":"M"},"bonus":0.6400000000000011},{"rt":3717.3000000044703,"stimulus":"bees-with-color/bee-B2SM.svg","response":1,"trial_type":"image-button-response","trial_index":144,"time_elapsed":1005009,"internal_node_id":"0.0-6.0-0.4","subject_id":"5f4b8f646cc10e7481333ee4","study_id":"60edd13110225f80f9f3709b","session_id":"6196c4a6cd1ccfc1bf019ddb","condition":"contingent","relevant_dimensions":["pattern","legs"],"bee_group":{"antennae":"X","wings":"X","pattern":"S","legs":"M"},"bonus":0.6400000000000011},{"rt":3276.5,"stimulus":"bees-with-color/bee-A1DF.svg","response":0,"trial_type":"image-button-response","trial_index":145,"time_elapsed":1008289,"internal_node_id":"0.0-6.0-0.5","subject_id":"5f4b8f646cc10e7481333ee4","study_id":"60edd13110225f80f9f3709b","session_id":"6196c4a6cd1ccfc1bf019ddb","condition":"contingent","relevant_dimensions":["pattern","legs"],"bee_group":{"antennae":"X","wings":"X","pattern":"S","legs":"M"},"bonus":0.6400000000000011},{"rt":1765.3000000044703,"stimulus":"bees-with-color/bee-B1SF.svg","response":1,"trial_type":"image-button-response","trial_index":146,"time_elapsed":1010057,"internal_node_id":"0.0-6.0-0.6","subject_id":"5f4b8f646cc10e7481333ee4","study_id":"60edd13110225f80f9f3709b","session_id":"6196c4a6cd1ccfc1bf019ddb","condition":"contingent","relevant_dimensions":["pattern","legs"],"bee_group":{"antennae":"X","wings":"X","pattern":"S","legs":"M"},"bonus":0.6400000000000011},{"rt":1452.7000000029802,"stimulus":"bees-with-color/bee-A2DF.svg","response":0,"trial_type":"image-button-response","trial_index":147,"time_elapsed":1011513,"internal_node_id":"0.0-6.0-0.7","subject_id":"5f4b8f646cc10e7481333ee4","study_id":"60edd13110225f80f9f3709b","session_id":"6196c4a6cd1ccfc1bf019ddb","condition":"contingent","relevant_dimensions":["pattern","legs"],"bee_group":{"antennae":"X","wings":"X","pattern":"S","legs":"M"},"bonus":0.6400000000000011},{"rt":1845.2000000029802,"stimulus":"bees-with-color/bee-A2DM.svg","response":0,"trial_type":"image-button-response","trial_index":148,"time_elapsed":1013361,"internal_node_id":"0.0-6.0-0.8","subject_id":"5f4b8f646cc10e7481333ee4","study_id":"60edd13110225f80f9f3709b","session_id":"6196c4a6cd1ccfc1bf019ddb","condition":"contingent","relevant_dimensions":["pattern","legs"],"bee_group":{"antennae":"X","wings":"X","pattern":"S","legs":"M"},"bonus":0.6400000000000011},{"rt":1445.2999999970198,"stimulus":"bees-with-color/bee-B2SF.svg","response":1,"trial_type":"image-button-response","trial_index":149,"time_elapsed":1014809,"internal_node_id":"0.0-6.0-0.9","subject_id":"5f4b8f646cc10e7481333ee4","study_id":"60edd13110225f80f9f3709b","session_id":"6196c4a6cd1ccfc1bf019ddb","condition":"contingent","relevant_dimensions":["pattern","legs"],"bee_group":{"antennae":"X","wings":"X","pattern":"S","legs":"M"},"bonus":0.6400000000000011},{"rt":6245.10000000149,"stimulus":"bees-with-color/bee-A2SM.svg","response":0,"trial_type":"image-button-response","trial_index":150,"time_elapsed":1021057,"internal_node_id":"0.0-6.0-0.10","subject_id":"5f4b8f646cc10e7481333ee4","study_id":"60edd13110225f80f9f3709b","session_id":"6196c4a6cd1ccfc1bf019ddb","condition":"contingent","relevant_dimensions":["pattern","legs"],"bee_group":{"antennae":"X","wings":"X","pattern":"S","legs":"M"},"bonus":0.6400000000000011},{"rt":1924.7999999970198,"stimulus":"bees-with-color/bee-B1DF.svg","response":0,"trial_type":"image-button-response","trial_index":151,"time_elapsed":1022985,"internal_node_id":"0.0-6.0-0.11","subject_id":"5f4b8f646cc10e7481333ee4","study_id":"60edd13110225f80f9f3709b","session_id":"6196c4a6cd1ccfc1bf019ddb","condition":"contingent","relevant_dimensions":["pattern","legs"],"bee_group":{"antennae":"X","wings":"X","pattern":"S","legs":"M"},"bonus":0.6400000000000011},{"rt":3005.39999999851,"stimulus":"bees-with-color/bee-B1DM.svg","response":0,"trial_type":"image-button-response","trial_index":152,"time_elapsed":1025993,"internal_node_id":"0.0-6.0-0.12","subject_id":"5f4b8f646cc10e7481333ee4","study_id":"60edd13110225f80f9f3709b","session_id":"6196c4a6cd1ccfc1bf019ddb","condition":"contingent","relevant_dimensions":["pattern","legs"],"bee_group":{"antennae":"X","wings":"X","pattern":"S","legs":"M"},"bonus":0.6400000000000011},{"rt":2181.5,"stimulus":"bees-with-color/bee-A1DM.svg","response":0,"trial_type":"image-button-response","trial_index":153,"time_elapsed":1028177,"internal_node_id":"0.0-6.0-0.13","subject_id":"5f4b8f646cc10e7481333ee4","study_id":"60edd13110225f80f9f3709b","session_id":"6196c4a6cd1ccfc1bf019ddb","condition":"contingent","relevant_dimensions":["pattern","legs"],"bee_group":{"antennae":"X","wings":"X","pattern":"S","legs":"M"},"bonus":0.6400000000000011},{"rt":1517.3999999985099,"stimulus":"bees-with-color/bee-A2SF.svg","response":1,"trial_type":"image-button-response","trial_index":154,"time_elapsed":1029697,"internal_node_id":"0.0-6.0-0.14","subject_id":"5f4b8f646cc10e7481333ee4","study_id":"60edd13110225f80f9f3709b","session_id":"6196c4a6cd1ccfc1bf019ddb","condition":"contingent","relevant_dimensions":["pattern","legs"],"bee_group":{"antennae":"X","wings":"X","pattern":"S","legs":"M"},"bonus":0.6400000000000011},{"rt":1093.5,"stimulus":"bees-with-color/bee-B1SM.svg","response":1,"trial_type":"image-button-response","trial_index":155,"time_elapsed":1030793,"internal_node_id":"0.0-6.0-0.15","subject_id":"5f4b8f646cc10e7481333ee4","study_id":"60edd13110225f80f9f3709b","session_id":"6196c4a6cd1ccfc1bf019ddb","condition":"contingent","relevant_dimensions":["pattern","legs"],"bee_group":{"antennae":"X","wings":"X","pattern":"S","legs":"M"},"bonus":0.6400000000000011},{"rt":1341.6999999955297,"stimulus":"bees-with-color/bee-B2DM.svg","response":0,"trial_type":"image-button-response","trial_index":156,"time_elapsed":1032137,"internal_node_id":"0.0-6.0-0.16","subject_id":"5f4b8f646cc10e7481333ee4","study_id":"60edd13110225f80f9f3709b","session_id":"6196c4a6cd1ccfc1bf019ddb","condition":"contingent","relevant_dimensions":["pattern","legs"],"bee_group":{"antennae":"X","wings":"X","pattern":"S","legs":"M"},"bonus":0.6400000000000011},{"rt":1478,"stimulus":"bees-with-color/bee-B1DM.svg","response":0,"trial_type":"image-button-response","trial_index":157,"time_elapsed":1033617,"internal_node_id":"0.0-6.0-0.17","subject_id":"5f4b8f646cc10e7481333ee4","study_id":"60edd13110225f80f9f3709b","session_id":"6196c4a6cd1ccfc1bf019ddb","condition":"contingent","relevant_dimensions":["pattern","legs"],"bee_group":{"antennae":"X","wings":"X","pattern":"S","legs":"M"},"bonus":0.6400000000000011},{"rt":5293.29999999702,"stimulus":"bees-with-color/bee-A1SM.svg","response":1,"trial_type":"image-button-response","trial_index":158,"time_elapsed":1038912,"internal_node_id":"0.0-6.0-0.18","subject_id":"5f4b8f646cc10e7481333ee4","study_id":"60edd13110225f80f9f3709b","session_id":"6196c4a6cd1ccfc1bf019ddb","condition":"contingent","relevant_dimensions":["pattern","legs"],"bee_group":{"antennae":"X","wings":"X","pattern":"S","legs":"M"},"bonus":0.6400000000000011},{"rt":1820.7999999970198,"stimulus":"bees-with-color/bee-A2SM.svg","response":1,"trial_type":"image-button-response","trial_index":159,"time_elapsed":1040737,"internal_node_id":"0.0-6.0-0.19","subject_id":"5f4b8f646cc10e7481333ee4","study_id":"60edd13110225f80f9f3709b","session_id":"6196c4a6cd1ccfc1bf019ddb","condition":"contingent","relevant_dimensions":["pattern","legs"],"bee_group":{"antennae":"X","wings":"X","pattern":"S","legs":"M"},"bonus":0.6400000000000011},{"rt":1317.2999999970198,"stimulus":"bees-with-color/bee-A1DM.svg","response":0,"trial_type":"image-button-response","trial_index":160,"time_elapsed":1042056,"internal_node_id":"0.0-6.0-0.20","subject_id":"5f4b8f646cc10e7481333ee4","study_id":"60edd13110225f80f9f3709b","session_id":"6196c4a6cd1ccfc1bf019ddb","condition":"contingent","relevant_dimensions":["pattern","legs"],"bee_group":{"antennae