[{"success":true,"trial_type":"fullscreen","trial_index":0,"time_elapsed":36409,"internal_node_id":"0.0-0.0","subject_id":"57b248d52075e2000113ba3d","study_id":"6197b3f67c2b5cd3b6d9596a","session_id":"619be326b73303995429fcae","condition":"full-information","relevant_dimensions":["antennae","pattern"],"bee_group":{"antennae":"A","wings":"X","pattern":"S","legs":"X"},"bonus":0.1400000000000013},{"success":true,"timeout":false,"failed_images":[],"failed_audio":[],"failed_video":[],"trial_type":"preload","trial_index":1,"time_elapsed":38491,"internal_node_id":"0.0-1.0","subject_id":"57b248d52075e2000113ba3d","study_id":"6197b3f67c2b5cd3b6d9596a","session_id":"619be326b73303995429fcae","condition":"full-information","relevant_dimensions":["antennae","pattern"],"bee_group":{"antennae":"A","wings":"X","pattern":"S","legs":"X"},"bonus":0.1400000000000013},{"rt":2027,"stimulus":"Welcome! Press any key to begin.","response":" ","trial_type":"html-keyboard-response","trial_index":2,"time_elapsed":40519,"internal_node_id":"0.0-2.0","subject_id":"57b248d52075e2000113ba3d","study_id":"6197b3f67c2b5cd3b6d9596a","session_id":"619be326b73303995429fcae","condition":"full-information","relevant_dimensions":["antennae","pattern"],"bee_group":{"antennae":"A","wings":"X","pattern":"S","legs":"X"},"bonus":0.1400000000000013},{"view_history":[{"page_index":0,"viewing_time":3005},{"page_index":1,"viewing_time":22332},{"page_index":2,"viewing_time":5960},{"page_index":3,"viewing_time":8938},{"page_index":4,"viewing_time":5367},{"page_index":5,"viewing_time":5020},{"page_index":6,"viewing_time":8512},{"page_index":7,"viewing_time":6114},{"page_index":8,"viewing_time":1370},{"page_index":9,"viewing_time":1319},{"page_index":10,"viewing_time":1243},{"page_index":11,"viewing_time":5295},{"page_index":12,"viewing_time":11517},{"page_index":13,"viewing_time":822},{"page_index":14,"viewing_time":1618}],"rt":88432,"trial_type":"instructions","trial_index":3,"time_elapsed":128952,"internal_node_id":"0.0-3.0-0.0","subject_id":"57b248d52075e2000113ba3d","study_id":"6197b3f67c2b5cd3b6d9596a","session_id":"619be326b73303995429fcae","condition":"full-information","relevant_dimensions":["antennae","pattern"],"bee_group":{"antennae":"A","wings":"X","pattern":"S","legs":"X"},"bonus":0.1400000000000013},{"rt":9143,"response":{"Q0":["Two or six legs","Stripes or spots on body","Single or double wings","Antennae or no antennae"]},"question_order":[0],"trial_type":"survey-multi-select","trial_index":4,"time_elapsed":138100,"internal_node_id":"0.0-3.0-1.0","subject_id":"57b248d52075e2000113ba3d","study_id":"6197b3f67c2b5cd3b6d9596a","session_id":"619be326b73303995429fcae","condition":"full-information","relevant_dimensions":["antennae","pattern"],"bee_group":{"antennae":"A","wings":"X","pattern":"S","legs":"X"},"correct":true,"bonus":0.1400000000000013},{"rt":19494,"response":{"Q1":"No.","Q2":"Based on the four features of the bee.","Q3":"You do not learn if it was friendly or dangerous, and do not alter your bonus."},"question_order":[0,1,2],"trial_type":"survey-multi-choice","trial_index":5,"time_elapsed":157596,"internal_node_id":"0.0-3.0-2.0","subject_id":"57b248d52075e2000113ba3d","study_id":"6197b3f67c2b5cd3b6d9596a","session_id":"619be326b73303995429fcae","condition":"full-information","relevant_dimensions":["antennae","pattern"],"bee_group":{"antennae":"A","wings":"X","pattern":"S","legs":"X"},"correct":false,"bonus":0.1400000000000013},{"rt":1912,"stimulus":"<p>You did not answer all comprehension questions correctly.<br>Press <b>continue</b> to review the instructions again.</p>","response":0,"trial_type":"html-button-response","trial_index":6,"time_elapsed":159511,"internal_node_id":"0.0-3.0-3.0","subject_id":"57b248d52075e2000113ba3d","study_id":"6197b3f67c2b5cd3b6d9596a","session_id":"619be326b73303995429fcae","condition":"full-information","relevant_dimensions":["antennae","pattern"],"bee_group":{"antennae":"A","wings":"X","pattern":"S","legs":"X"},"bonus":0.1400000000000013},{"view_history":[{"page_index":0,"viewing_time":2224},{"page_index":1,"viewing_time":762},{"page_index":2,"viewing_time":591},{"page_index":3,"viewing_time":617},{"page_index":4,"viewing_time":571},{"page_index":5,"viewing_time":546},{"page_index":6,"viewing_time":476},{"page_index":7,"viewing_time":878},{"page_index":8,"viewing_time":435},{"page_index":9,"viewing_time":323},{"page_index":10,"viewing_time":533},{"page_index":11,"viewing_time":2560},{"page_index":12,"viewing_time":1175},{"page_index":13,"viewing_time":838},{"page_index":14,"viewing_time":670}],"rt":13199,"trial_type":"instructions","trial_index":7,"time_elapsed":172711,"internal_node_id":"0.0-3.0-4.0-0.0","subject_id":"57b248d52075e2000113ba3d","study_id":"6197b3f67c2b5cd3b6d9596a","session_id":"619be326b73303995429fcae","condition":"full-information","relevant_dimensions":["antennae","pattern"],"bee_group":{"antennae":"A","wings":"X","pattern":"S","legs":"X"},"bonus":0.1400000000000013},{"rt":8886,"response":{"Q0":["Two or six legs","Stripes or spots on body","Single or double wings","Antennae or no antennae"]},"question_order":[0],"trial_type":"survey-multi-select","trial_index":8,"time_elapsed":181601,"internal_node_id":"0.0-3.0-4.0-1.0","subject_id":"57b248d52075e2000113ba3d","study_id":"6197b3f67c2b5cd3b6d9596a","session_id":"619be326b73303995429fcae","condition":"full-information","relevant_dimensions":["antennae","pattern"],"bee_group":{"antennae":"A","wings":"X","pattern":"S","legs":"X"},"correct":true,"bonus":0.1400000000000013},{"rt":13416,"response":{"Q1":"No.","Q2":"Based on the four features of the bee.","Q3":"You learn if it was friendly or dangerous, but do not alter your bonus."},"question_order":[0,1,2],"trial_type":"survey-multi-choice","trial_index":9,"time_elapsed":195019,"internal_node_id":"0.0-3.0-4.0-2.0","subject_id":"57b248d52075e2000113ba3d","study_id":"6197b3f67c2b5cd3b6d9596a","session_id":"619be326b73303995429fcae","condition":"full-information","relevant_dimensions":["antennae","pattern"],"bee_group":{"antennae":"A","wings":"X","pattern":"S","legs":"X"},"correct":true,"bonus":0.1400000000000013},{"rt":1882,"stimulus":"<p>Congrats, you got everything right<br>When you're ready, click the button below to continue to the experiment.</p>","response":0,"trial_type":"html-button-response","trial_index":10,"time_elapsed":196902,"internal_node_id":"0.0-3.0-4.0-3.0","subject_id":"57b248d52075e2000113ba3d","study_id":"6197b3f67c2b5cd3b6d9596a","session_id":"619be326b73303995429fcae","condition":"full-information","relevant_dimensions":["antennae","pattern"],"bee_group":{"antennae":"A","wings":"X","pattern":"S","legs":"X"},"bonus":0.1400000000000013},{"rt":4619,"stimulus":"bees-with-color/bee-A2DF.svg","response":0,"trial_type":"image-button-response","trial_index":11,"time_elapsed":201522,"internal_node_id":"0.0-4.0-0.0","subject_id":"57b248d52075e2000113ba3d","study_id":"6197b3f67c2b5cd3b6d9596a","session_id":"619be326b73303995429fcae","condition":"full-information","relevant_dimensions":["antennae","pattern"],"bee_group":{"antennae":"A","wings":"X","pattern":"S","legs":"X"},"action":"harvest","summary":"good-harvest","bonus":0.1400000000000013},{"rt":6502,"stimulus":"\n                    <p><b>Action: <em>harvest</em></b></p>\n                    <p>This is the bee that you just saw.</p>\n                    <img src=\"bees-with-color/bee-A2DF.svg\" width=\"200\">\n                    <p><span class=\"greenText\"><b>Successful harvest!</b></span><br>Your pay has increased by $0.02. Your bonus pay is now $0.56.</p>\n            ","response":0,"trial_type":"html-button-response","trial_index":12,"time_elapsed":208036,"internal_node_id":"0.0-4.0-1.0","subject_id":"57b248d52075e2000113ba3d","study_id":"6197b3f67c2b5cd3b6d9596a","session_id":"619be326b73303995429fcae","condition":"full-information","relevant_dimensions":["antennae","pattern"],"bee_group":{"antennae":"A","wings":"X","pattern":"S","legs":"X"},"bonus":0.1400000000000013},{"rt":2962,"stimulus":"bees-with-color/bee-B1DM.svg","response":0,"trial_type":"image-button-response","trial_index":13,"time_elapsed":211000,"internal_node_id":"0.0-4.0-0.1","subject_id":"57b248d52075e2000113ba3d","study_id":"6197b3f67c2b5cd3b6d9596a","session_id":"619be326b73303995429fcae","condition":"full-information","relevant_dimensions":["antennae","pattern"],"bee_group":{"antennae":"A","wings":"X","pattern":"S","legs":"X"},"action":"harvest","summary":"good-harvest","bonus":0.1400000000000013},{"rt":3291,"stimulus":"\n                    <p><b>Action: <em>harvest</em></b></p>\n                    <p>This is the bee that you just saw.</p>\n                    <img src=\"bees-with-color/bee-B1DM.svg\" width=\"200\">\n                    <p><span class=\"greenText\"><b>Successful harvest!</b></span><br>Your pay has increased by $0.02. Your bonus pay is now $0.58.</p>\n            ","response":0,"trial_type":"html-button-response","trial_index":14,"time_elapsed":214293,"internal_node_id":"0.0-4.0-1.1","subject_id":"57b248d52075e2000113ba3d","study_id":"6197b3f67c2b5cd3b6d9596a","session_id":"619be326b73303995429fcae","condition":"full-information","relevant_dimensions":["antennae","pattern"],"bee_group":{"antennae":"A","wings":"X","pattern":"S","legs":"X"},"bonus":0.1400000000000013},{"rt":2154,"stimulus":"bees-with-color/bee-B2DM.svg","response":0,"trial_type":"image-button-response","trial_index":15,"time_elapsed":216449,"internal_node_id":"0.0-4.0-0.2","subject_id":"57b248d52075e2000113ba3d","study_id":"6197b3f67c2b5cd3b6d9596a","session_id":"619be326b73303995429fcae","condition":"full-information","relevant_dimensions":["antennae","pattern"],"bee_group":{"antennae":"A","wings":"X","pattern":"S","legs":"X"},"action":"harvest","summary":"good-harvest","bonus":0.1400000000000013},{"rt":1479,"stimulus":"\n                    <p><b>Action: <em>harvest</em></b></p>\n                    <p>This is the bee that you just saw.</p>\n                    <img src=\"bees-with-color/bee-B2DM.svg\" width=\"200\">\n                    <p><span class=\"greenText\"><b>Successful harvest!</b></span><br>Your pay has increased by $0.02. Your bonus pay is now $0.60.</p>\n            ","response":0,"trial_type":"html-button-response","trial_index":16,"time_elapsed":217930,"internal_node_id":"0.0-4.0-1.2","subject_id":"57b248d52075e2000113ba3d","study_id":"6197b3f67c2b5cd3b6d9596a","session_id":"619be326b73303995429fcae","condition":"full-information","relevant_dimensions":["antennae","pattern"],"bee_group":{"antennae":"A","wings":"X","pattern":"S","legs":"X"},"bonus":0.1400000000000013},{"rt":3826,"stimulus":"bees-with-color/bee-B2SM.svg","response":1,"trial_type":"image-button-response","trial_index":17,"time_elapsed":221757,"internal_node_id":"0.0-4.0-0.3","subject_id":"57b248d52075e2000113ba3d","study_id":"6197b3f67c2b5cd3b6d9596a","session_id":"619be326b73303995429fcae","condition":"full-information","relevant_dimensions":["antennae","pattern"],"bee_group":{"antennae":"A","wings":"X","pattern":"S","legs":"X"},"action":"avoid","summary":"bad-avoid","bonus":0.1400000000000013},{"rt":5121,"stimulus":"\n                    <p><b>Action: <em>avoid</em></b></p>\n                    <p>This is the bee that you just saw.</p>\n                    <img src=\"bees-with-color/bee-B2SM.svg\" width=\"200\">\n                    <p><span class=\"redText\">Bad choice,</span> the bee was friendly.<br>Your bonus pay is unchanged, and remains at $0.60.</p>\n            ","response":0,"trial_type":"html-button-response","trial_index":18,"time_elapsed":226880,"internal_node_id":"0.0-4.0-1.3","subject_id":"57b248d52075e2000113ba3d","study_id":"6197b3f67c2b5cd3b6d9596a","session_id":"619be326b73303995429fcae","condition":"full-information","relevant_dimensions":["antennae","pattern"],"bee_group":{"antennae":"A","wings":"X","pattern":"S","legs":"X"},"bonus":0.1400000000000013},{"rt":1988,"stimulus":"bees-with-color/bee-A1DM.svg","response":0,"trial_type":"image-button-response","trial_index":19,"time_elapsed":228870,"internal_node_id":"0.0-4.0-0.4","subject_id":"57b248d52075e2000113ba3d","study_id":"6197b3f67c2b5cd3b6d9596a","session_id":"619be326b73303995429fcae","condition":"full-information","relevant_dimensions":["antennae","pattern"],"bee_group":{"antennae":"A","wings":"X","pattern":"S","legs":"X"},"action":"harvest","summary":"good-harvest","bonus":0.1400000000000013},{"rt":737,"stimulus":"\n                    <p><b>Action: <em>harvest</em></b></p>\n                    <p>This is the bee that you just saw.</p>\n                    <img src=\"bees-with-color/bee-A1DM.svg\" width=\"200\">\n                    <p><span class=\"greenText\"><b>Successful harvest!</b></span><br>Your pay has increased by $0.02. Your bonus pay is now $0.62.</p>\n            ","response":0,"trial_type":"html-button-response","trial_index":20,"time_elapsed":229608,"internal_node_id":"0.0-4.0-1.4","subject_id":"57b248d52075e2000113ba3d","study_id":"6197b3f67c2b5cd3b6d9596a","session_id":"619be326b73303995429fcae","condition":"full-information","relevant_dimensions":["antennae","pattern"],"bee_group":{"antennae":"A","wings":"X","pattern":"S","legs":"X"},"bonus":0.1400000000000013},{"rt":1114,"stimulus":"bees-with-color/bee-A1SF.svg","response":1,"trial_type":"image-button-response","trial_index":21,"time_elapsed":230724,"internal_node_id":"0.0-4.0-0.5","subject_id":"57b248d52075e2000113ba3d","study_id":"6197b3f67c2b5cd3b6d9596a","session_id":"619be326b73303995429fcae","condition":"full-information","relevant_dimensions":["antennae","pattern"],"bee_group":{"antennae":"A","wings":"X","pattern":"S","legs":"X"},"action":"avoid","summary":"good-avoid","bonus":0.1400000000000013},{"rt":4564,"stimulus":"\n                    <p><b>Action: <em>avoid</em></b></p>\n                    <p>This is the bee that you just saw.</p>\n                    <img src=\"bees-with-color/bee-A1SF.svg\" width=\"200\">\n                    <p><span class=\"greenText\">Good choice!</span>  This bee would have stung you.<br>Your bonus pay is unchanged, and remains at $0.62.</p>\n            ","response":0,"trial_type":"html-button-response","trial_index":22,"time_elapsed":235290,"internal_node_id":"0.0-4.0-1.5","subject_id":"57b248d52075e2000113ba3d","study_id":"6197b3f67c2b5cd3b6d9596a","session_id":"619be326b73303995429fcae","condition":"full-information","relevant_dimensions":["antennae","pattern"],"bee_group":{"antennae":"A","wings":"X","pattern":"S","legs":"X"},"bonus":0.1400000000000013},{"rt":1292,"stimulus":"bees-with-color/bee-A2SF.svg","response":1,"trial_type":"image-button-response","trial_index":23,"time_elapsed":236583,"internal_node_id":"0.0-4.0-0.6","subject_id":"57b248d52075e2000113ba3d","study_id":"6197b3f67c2b5cd3b6d9596a","session_id":"619be326b73303995429fcae","condition":"full-information","relevant_dimensions":["antennae","pattern"],"bee_group":{"antennae":"A","wings":"X","pattern":"S","legs":"X"},"action":"avoid","summary":"good-avoid","bonus":0.1400000000000013},{"rt":877,"stimulus":"\n                    <p><b>Action: <em>avoid</em></b></p>\n                    <p>This is the bee that you just saw.</p>\n                    <img src=\"bees-with-color/bee-A2SF.svg\" width=\"200\">\n                    <p><span class=\"greenText\">Good choice!</span>  This bee would have stung you.<br>Your bonus pay is unchanged, and remains at $0.62.</p>\n            ","response":0,"trial_type":"html-button-response","trial_index":24,"time_elapsed":237462,"internal_node_id":"0.0-4.0-1.6","subject_id":"57b248d52075e2000113ba3d","study_id":"6197b3f67c2b5cd3b6d9596a","session_id":"619be326b73303995429fcae","condition":"full-information","relevant_dimensions":["antennae","pattern"],"bee_group":{"antennae":"A","wings":"X","pattern":"S","legs":"X"},"bonus":0.1400000000000013},{"rt":918,"stimulus":"bees-with-color/bee-A1DF.svg","response":0,"trial_type":"image-button-response","trial_index":25,"time_elapsed":238381,"internal_node_id":"0.0-4.0-0.7","subject_id":"57b248d52075e2000113ba3d","study_id":"6197b3f67c2b5cd3b6d9596a","session_id":"619be326b73303995429fcae","condition":"full-information","relevant_dimensions":["antennae","pattern"],"bee_group":{"antennae":"A","wings":"X","pattern":"S","legs":"X"},"action":"harvest","summary":"good-harvest","bonus":0.1400000000000013},{"rt":693,"stimulus":"\n                    <p><b>Action: <em>harvest</em></b></p>\n                    <p>This is the bee that you just saw.</p>\n                    <img src=\"bees-with-color/bee-A1DF.svg\" width=\"200\">\n                    <p><span class=\"greenText\"><b>Successful harvest!</b></span><br>Your pay has increased by $0.02. Your bonus pay is now $0.64.</p>\n            ","response":0,"trial_type":"html-button-response","trial_index":26,"time_elapsed":239075,"internal_node_id":"0.0-4.0-1.7","subject_id":"57b248d52075e2000113ba3d","study_id":"6197b3f67c2b5cd3b6d9596a","session_id":"619be326b73303995429fcae","condition":"full-information","relevant_dimensions":["antennae","pattern"],"bee_group":{"antennae":"A","wings":"X","pattern":"S","legs":"X"},"bonus":0.1400000000000013},{"rt":1103,"stimulus":"bees-with-color/bee-B1SM.svg","response":1,"trial_type":"image-button-response","trial_index":27,"time_elapsed":240181,"internal_node_id":"0.0-4.0-0.8","subject_id":"57b248d52075e2000113ba3d","study_id":"6197b3f67c2b5cd3b6d9596a","session_id":"619be326b73303995429fcae","condition":"full-information","relevant_dimensions":["antennae","pattern"],"bee_group":{"antennae":"A","wings":"X","pattern":"S","legs":"X"},"action":"avoid","summary":"bad-avoid","bonus":0.1400000000000013},{"rt":3075,"stimulus":"\n                    <p><b>Action: <em>avoid</em></b></p>\n                    <p>This is the bee that you just saw.</p>\n                    <img src=\"bees-with-color/bee-B1SM.svg\" width=\"200\">\n                    <p><span class=\"redText\">Bad choice,</span> the bee was friendly.<br>Your bonus pay is unchanged, and remains at $0.64.</p>\n            ","response":0,"trial_type":"html-button-response","trial_index":28,"time_elapsed":243258,"internal_node_id":"0.0-4.0-1.8","subject_id":"57b248d52075e2000113ba3d","study_id":"6197b3f67c2b5cd3b6d9596a","session_id":"619be326b73303995429fcae","condition":"full-information","relevant_dimensions":["antennae","pattern"],"bee_group":{"antennae":"A","wings":"X","pattern":"S","legs":"X"},"bonus":0.1400000000000013},{"rt":1942,"stimulus":"bees-with-color/bee-A2SM.svg","response":0,"trial_type":"image-button-response","trial_index":29,"time_elapsed":245201,"internal_node_id":"0.0-4.0-0.9","subject_id":"57b248d52075e2000113ba3d","study_id":"6197b3f67c2b5cd3b6d9596a","session_id":"619be326b73303995429fcae","condition":"full-information","relevant_dimensions":["antennae","pattern"],"bee_group":{"antennae":"A","wings":"X","pattern":"S","legs":"X"},"action":"harvest","summary":"bad-harvest","bonus":0.1400000000000013},{"rt":4050,"stimulus":"\n                    <p><b>Action: <em>harvest</em></b></p>\n                    <p>This is the bee that you just saw.</p>\n                    <img src=\"bees-with-color/bee-A2SM.svg\" width=\"200\">\n                    <p><span class=\"redText\">Bad choice, the bee was angry.</span><br><b>You have been stung!</b><br>Your pay has been decreased by $0.10. Your bonus pay is now $0.54.</p>\n            ","response":0,"trial_type":"html-button-response","trial_index":30,"time_elapsed":249254,"internal_node_id":"0.0-4.0-1.9","subject_id":"57b248d52075e2000113ba3d","study_id":"6197b3f67c2b5cd3b6d9596a","session_id":"619be326b73303995429fcae","condition":"full-information","relevant_dimensions":["antennae","pattern"],"bee_group":{"antennae":"A","wings":"X","pattern":"S","legs":"X"},"bonus":0.1400000000000013},{"rt":2747,"stimulus":"bees-with-color/bee-B1SF.svg","response":0,"trial_type":"image-button-response","trial_index":31,"time_elapsed":252002,"internal_node_id":"0.0-4.0-0.10","subject_id":"57b248d52075e2000113ba3d","study_id":"6197b3f67c2b5cd3b6d9596a","session_id":"619be326b73303995429fcae","condition":"full-information","relevant_dimensions":["antennae","pattern"],"bee_group":{"antennae":"A","wings":"X","pattern":"S","legs":"X"},"action":"harvest","summary":"good-harvest","bonus":0.1400000000000013},{"rt":5235,"stimulus":"\n                    <p><b>Action: <em>harvest</em></b></p>\n                    <p>This is the bee that you just saw.</p>\n                    <img src=\"bees-with-color/bee-B1SF.svg\" width=\"200\">\n                    <p><span class=\"greenText\"><b>Successful harvest!</b></span><br>Your pay has increased by $0.02. Your bonus pay is now $0.56.</p>\n            ","response":0,"trial_type":"html-button-response","trial_index":32,"time_elapsed":257238,"internal_node_id":"0.0-4.0-1.10","subject_id":"57b248d52075e2000113ba3d","study_id":"6197b3f67c2b5cd3b6d9596a","session_id":"619be326b73303995429fcae","condition":"full-information","relevant_dimensions":["antennae","pattern"],"bee_group":{"antennae":"A","wings":"X","pattern":"S","legs":"X"},"bonus":0.1400000000000013},{"rt":1588,"stimulus":"bees-with-color/bee-A2DM.svg","response":0,"trial_type":"image-button-response","trial_index":33,"time_elapsed":258827,"internal_node_id":"0.0-4.0-0.11","subject_id":"57b248d52075e2000113ba3d","study_id":"6197b3f67c2b5cd3b6d9596a","session_id":"619be326b73303995429fcae","condition":"full-information","relevant_dimensions":["antennae","pattern"],"bee_group":{"antennae":"A","wings":"X","pattern":"S","legs":"X"},"action":"harvest","summary":"good-harvest","bonus":0.1400000000000013},{"rt":1043,"stimulus":"\n                    <p><b>Action: <em>harvest</em></b></p>\n                    <p>This is the bee that you just saw.</p>\n                    <img src=\"bees-with-color/bee-A2DM.svg\" width=\"200\">\n                    <p><span class=\"greenText\"><b>Successful harvest!</b></span><br>Your pay has increased by $0.02. Your bonus pay is now $0.58.</p>\n            ","response":0,"trial_type":"html-button-response","trial_index":34,"time_elapsed":259872,"internal_node_id":"0.0-4.0-1.11","subject_id":"57b248d52075e2000113ba3d","study_id":"6197b3f67c2b5cd3b6d9596a","session_id":"619be326b73303995429fcae","condition":"full-information","relevant_dimensions":["antennae","pattern"],"bee_group":{"antennae":"A","wings":"X","pattern":"S","legs":"X"},"bonus":0.1400000000000013},{"rt":1704,"stimulus":"bees-with-color/bee-B1DF.svg","response":1,"trial_type":"image-button-response","trial_index":35,"time_elapsed":261576,"internal_node_id":"0.0-4.0-0.12","subject_id":"57b248d52075e2000113ba3d","study_id":"6197b3f67c2b5cd3b6d9596a","session_id":"619be326b73303995429fcae","condition":"full-information","relevant_dimensions":["antennae","pattern"],"bee_group":{"antennae":"A","wings":"X","pattern":"S","legs":"X"},"action":"avoid","summary":"bad-avoid","bonus":0.1400000000000013},{"rt":1394,"stimulus":"\n                    <p><b>Action: <em>avoid</em></b></p>\n                    <p>This is the bee that you just saw.</p>\n                    <img src=\"bees-with-color/bee-B1DF.svg\" width=\"200\">\n                    <p><span class=\"redText\">Bad choice,</span> the bee was friendly.<br>Your bonus pay is unchanged, and remains at $0.58.</p>\n            ","response":0,"trial_type":"html-button-response","trial_index":36,"time_elapsed":262972,"internal_node_id":"0.0-4.0-1.12","subject_id":"57b248d52075e2000113ba3d","study_id":"6197b3f67c2b5cd3b6d9596a","session_id":"619be326b73303995429fcae","condition":"full-information","relevant_dimensions":["antennae","pattern"],"bee_group":{"antennae":"A","wings":"X","pattern":"S","legs":"X"},"bonus":0.1400000000000013},{"rt":1730,"stimulus":"bees-with-color/bee-B2SF.svg","response":1,"trial_type":"image-button-response","trial_index":37,"time_elapsed":264703,"internal_node_id":"0.0-4.0-0.13","subject_id":"57b248d52075e2000113ba3d","study_id":"6197b3f67c2b5cd3b6d9596a","session_id":"619be326b73303995429fcae","condition":"full-information","relevant_dimensions":["antennae","pattern"],"bee_group":{"antennae":"A","wings":"X","pattern":"S","legs":"X"},"action":"avoid","summary":"bad-avoid","bonus":0.1400000000000013},{"rt":1458,"stimulus":"\n                    <p><b>Action: <em>avoid</em></b></p>\n                    <p>This is the bee that you just saw.</p>\n                    <img src=\"bees-with-color/bee-B2SF.svg\" width=\"200\">\n                    <p><span class=\"redText\">Bad choice,</span> the bee was friendly.<br>Your bonus pay is unchanged, and remains at $0.58.</p>\n            ","response":0,"trial_type":"html-button-response","trial_index":38,"time_elapsed":266164,"internal_node_id":"0.0-4.0-1.13","subject_id":"57b248d52075e2000113ba3d","study_id":"6197b3f67c2b5cd3b6d9596a","session_id":"619be326b73303995429fcae","condition":"full-information","relevant_dimensions":["antennae","pattern"],"bee_group":{"antennae":"A","wings":"X","pattern":"S","legs":"X"},"bonus":0.1400000000000013},{"rt":1919,"stimulus":"bees-with-color/bee-A1SM.svg","response":0,"trial_type":"image-button-response","trial_index":39,"time_elapsed":268083,"internal_node_id":"0.0-4.0-0.14","subject_id":"57b248d52075e2000113ba3d","study_id":"6197b3f67c2b5cd3b6d9596a","session_id":"619be326b73303995429fcae","condition":"full-information","relevant_dimensions":["antennae","pattern"],"bee_group":{"antennae":"A","wings":"X","pattern":"S","legs":"X"},"action":"harvest","summary":"bad-harvest","bonus":0.1400000000000013},{"rt":28126,"stimulus":"\n                    <p><b>Action: <em>harvest</em></b></p>\n                    <p>This is the bee that you just saw.</p>\n                    <img src=\"bees-with-color/bee-A1SM.svg\" width=\"200\">\n                    <p><span class=\"redText\">Bad choice, the bee was angry.</span><br><b>You have been stung!</b><br>Your pay has been decreased by $0.10. Your bonus pay is now $0.48.</p>\n            ","response":0,"trial_type":"html-button-response","trial_index":40,"time_elapsed":296211,"internal_node_id":"0.0-4.0-1.14","subject_id":"57b248d52075e2000113ba3d","study_id":"6197b3f67c2b5cd3b6d9596a","session_id":"619be326b73303995429fcae","condition":"full-information","relevant_dimensions":["antennae","pattern"],"bee_group":{"antennae":"A","wings":"X","pattern":"S","legs":"X"},"bonus":0.1400000000000013},{"rt":2692,"stimulus":"bees-with-color/bee-B2DF.svg","response":0,"trial_type":"image-button-response","trial_index":41,"time_elapsed":298906,"internal_node_id":"0.0-4.0-0.15","subject_id":"57b248d52075e2000113ba3d","study_id":"6197b3f67c2b5cd3b6d9596a","session_id":"619be326b73303995429fcae","condition":"full-information","relevant_dimensions":["antennae","pattern"],"bee_group":{"antennae":"A","wings":"X","pattern":"S","legs":"X"},"action":"harvest","summary":"good-harvest","bonus":0.1400000000000013},{"rt":747,"stimulus":"\n                    <p><b>Action: <em>harvest</em></b></p>\n                    <p>This is the bee that you just saw.</p>\n                    <img src=\"bees-with-color/bee-B2DF.svg\" width=\"200\">\n                    <p><span class=\"greenText\"><b>Successful harvest!</b></span><br>Your pay has increased by $0.02. Your bonus pay is now $0.50.</p>\n            ","response":0,"trial_type":"html-button-response","trial_index":42,"time_elapsed":299654,"internal_node_id":"0.0-4.0-1.15","subject_id":"57b248d52075e2000113ba3d","study_id":"6197b3f67c2b5cd3b6d9596a","session_id":"619be326b73303995429fcae","condition":"full-information","relevant_dimensions":["antennae","pattern"],"bee_group":{"antennae":"A","wings":"X","pattern":"S","legs":"X"},"bonus":0.1400000000000013},{"rt":970,"stimulus":"bees-with-color/bee-B2DF.svg","response":0,"trial_type":"image-button-response","trial_index":43,"time_elapsed":300626,"internal_node_id":"0.0-4.0-0.16","subject_id":"57b248d52075e2000113ba3d","study_id":"6197b3f67c2b5cd3b6d9596a","session_id":"619be326b73303995429fcae","condition":"full-information","relevant_dimensions":["antennae","pattern"],"bee_group":{"antennae":"A","wings":"X","pattern":"S","legs":"X"},"action":"harvest","summary":"good-harvest","bonus":0.1400000000000013},{"rt":606,"stimulus":"\n                    <p><b>Action: <em>harvest</em></b></p>\n                    <p>This is the bee that you just saw.</p>\n                    <img src=\"bees-with-color/bee-B2DF.svg\" width=\"200\">\n                    <p><span class=\"greenText\"><b>Successful harvest!</b></span><br>Your pay has increased by $0.02. Your bonus pay is now $0.52.</p>\n            ","response":0,"trial_type":"html-button-response","trial_index":44,"time_elapsed":301233,"internal_node_id":"0.0-4.0-1.16","subject_id":"57b248d52075e2000113ba3d","study_id":"6197b3f67c2b5cd3b6d9596a","session_id":"619be326b73303995429fcae","condition":"full-information","relevant_dimensions":["antennae","pattern"],"bee_group":{"antennae":"A","wings":"X","pattern":"S","legs":"X"},"bonus":0.1400000000000013},{"rt":2320,"stimulus":"bees-with-color/bee-A1SM.svg","response":0,"trial_type":"image-button-response","trial_index":45,"time_elapsed":303554,"internal_node_id":"0.0-4.0-0.17","subject_id":"57b248d52075e2000113ba3d","study_id":"6197b3f67c2b5cd3b6d9596a","session_id":"619be326b73303995429fcae","condition":"full-information","relevant_dimensions":["antennae","pattern"],"bee_group":{"antennae":"A","wings":"X","pattern":"S","legs":"X"},"action":"harvest","summary":"bad-harvest","bonus":0.1400000000000013},{"rt":5460,"stimulus":"\n                    <p><b>Action: <em>harvest</em></b></p>\n                    <p>This is the bee that you just saw.</p>\n                    <img src=\"bees-with-color/bee-A1SM.svg\" width=\"200\">\n                    <p><span class=\"redText\">Bad choice, the bee was angry.</span><br><b>You have been stung!</b><br>Your pay has been decreased by $0.10. Your bonus pay is now $0.42.</p>\n            ","response":0,"trial_type":"html-button-response","trial_index":46,"time_elapsed":309015,"internal_node_id":"0.0-4.0-1.17","subject_id":"57b248d52075e2000113ba3d","study_id":"6197b3f67c2b5cd3b6d9596a","session_id":"619be326b73303995429fcae","condition":"full-information","relevant_dimensions":["antennae","pattern"],"bee_group":{"antennae":"A","wings":"X","pattern":"S","legs":"X"},"bonus":0.1400000000000013},{"rt":2668,"stimulus":"bees-with-color/bee-A1DM.svg","response":0,"trial_type":"image-button-response","trial_index":47,"time_elapsed":311685,"internal_node_id":"0.0-4.0-0.18","subject_id":"57b248d52075e2000113ba3d","study_id":"6197b3f67c2b5cd3b6d9596a","session_id":"619be326b73303995429fcae","condition":"full-information","relevant_dimensions":["antennae","pattern"],"bee_group":{"antennae":"A","wings":"X","pattern":"S","legs":"X"},"action":"harvest","summary":"good-harvest","bonus":0.1400000000000013},{"rt":579,"stimulus":"\n                    <p><b>Action: <em>harvest</em></b></p>\n                    <p>This is the bee that you just saw.</p>\n                    <img src=\"bees-with-color/bee-A1DM.svg\" width=\"200\">\n                    <p><span class=\"greenText\"><b>Successful harvest!</b></span><br>Your pay has increased by $0.02. Your bonus pay is now $0.44.</p>\n            ","response":0,"trial_type":"html-button-response","trial_index":48,"time_elapsed":312266,"internal_node_id":"0.0-4.0-1.18","subject_id":"57b248d52075e2000113ba3d","study_id":"6197b3f67c2b5cd3b6d9596a","session_id":"619be326b73303995429fcae","condition":"full-information","relevant_dimensions":["antennae","pattern"],"bee_group":{"antennae":"A","wings":"X","pattern":"S","legs":"X"},"bonus":0.1400000000000013},{"rt":1004,"stimulus":"bees-with-color/bee-A2SM.svg","response":1,"trial_type":"image-button-response","trial_index":49,"time_elapsed":313272,"internal_node_id":"0.0-4.0-0.19","subject_id":"57b248d52075e2000113ba3d","study_id":"6197b3f67c2b5cd3b6d9596a","session_id":"619be326b73303995429fcae","condition":"full-information","relevant_dimensions":["antennae","pattern"],"bee_group":{"antennae":"A","wings":"X","pattern":"S","legs":"X"},"action":"avoid","summary":"good-avoid","bonus":0.1400000000000013},{"rt":660,"stimulus":"\n                    <p><b>Action: <em>avoid</em></b></p>\n                    <p>This is the bee that you just saw.</p>\n                    <img src=\"bees-with-color/bee-A2SM.svg\" width=\"200\">\n                    <p><span class=\"greenText\">Good choice!</span>  This bee would have stung you.<br>Your bonus pay is unchanged, and remains at $0.44.</p>\n            ","response":0,"trial_type":"html-button-response","trial_index":50,"time_elapsed":313933,"internal_node_id":"0.0-4.0-1.19","subject_id":"57b248d52075e2000113ba3d","study_id":"6197b3f67c2b5cd3b6d9596a","session_id":"619be326b73303995429fcae","condition":"full-information","relevant_dimensions":["antennae","pattern"],"bee_group":{"antennae":"A","wings":"X","pattern":"S","legs":"X"},"bonus":0.1400000000000013},{"rt":1761,"stimulus":"bees-with-color/bee-A2DF.svg","response":0,"trial_type":"image-button-response","trial_index":51,"time_elapsed":315695,"internal_node_id":"0.0-4.0-0.20","subject_id":"57b248d52075e2000113ba3d","study_id":"6197b3f67c2b5cd3b6d9596a","session_id":"619be326b73303995429fcae","condition":"full-information","relevant_dimensions":["antennae","pattern"],"bee_group":{"antennae":"A","wings":"X","pattern":"S","legs":"X"},"action":"harvest","summary":"good-harvest","bonus":0.1400000000000013},{"rt":1176,"stimulus":"\n                    <p><b>Action: <em>harvest</em></b></p>\n                    <p>This is the bee that you just saw.</p>\n                    <img src=\"bees-with-color/bee-A2DF.svg\" width=\"200\">\n                    <p><span class=\"greenText\"><b>Successful harvest!</b></span><br>Your pay has increased by $0.02. Your bonus pay is now $0.46.</p>\n            ","response":0,"trial_type":"html-button-response","trial_index":52,"time_elapsed":316873,"internal_node_id":"0.0-4.0-1.20","subject_id":"57b248d52075e2000113ba3d","study_id":"6197b3f67c2b5cd3b6d9596a","session_id":"619be326b73303995429fcae","condition":"full-information","relevant_dimensions":["antennae","pattern"],"bee_group":{"antennae":"A","wings":"X","pattern":"S","legs":"X"},"bonus":0.1400000000000013},{"rt":1134,"stimulus":"bees-with-color/bee-B2SF.svg","response":1,"trial_type":"image-button-response","trial_index":53,"time_elapsed":318009,"internal_node_id":"0.0-4.0-0.21","subject_id":"57b248d52075e2000113ba3d","study_id":"6197b3f67c2b5cd3b6d9596a","session_id":"619be326b73303995429fcae","condition":"full-information","relevant_dimensions":["antennae","pattern"],"bee_group":{"antennae":"A","wings":"X","pattern":"S","legs":"X"},"action":"avoid","summary":"bad-avoid","bonus":0.1400000000000013},{"rt":2530,"stimulus":"\n                    <p><b>Action: <em>avoid</em></b></p>\n                    <p>This is the bee that you just saw.</p>\n                    <img src=\"bees-with-color/bee-B2SF.svg\" width=\"200\">\n                    <p><span class=\"redText\">Bad choice,</span> the bee was friendly.<br>Your bonus pay is unchanged, and remains at $0.46.</p>\n            ","response":0,"trial_type":"html-button-response","trial_index":54,"time_elapsed":320542,"internal_node_id":"0.0-4.0-1.21","subject_id":"57b248d52075e2000113ba3d","study_id":"6197b3f67c2b5cd3b6d9596a","session_id":"619be326b73303995429fcae","condition":"full-information","relevant_dimensions":["antennae","pattern"],"bee_group":{"antennae":"A","wings":"X","pattern":"S","legs":"X"},"bonus":0.1400000000000013},{"rt":3418,"stimulus":"bees-with-color/bee-B1DM.svg","response":0,"trial_type":"image-button-response","trial_index":55,"time_elapsed":323962,"internal_node_id":"0.0-4.0-0.22","subject_id":"57b248d52075e2000113ba3d","study_id":"6197b3f67c2b5cd3b6d9596a","session_id":"619be326b73303995429fcae","condition":"full-information","relevant_dimensions":["antennae","pattern"],"bee_group":{"antennae":"A","wings":"X","pattern":"S","legs":"X"},"action":"harvest","summary":"good-harvest","bonus":0.1400000000000013},{"rt":1082,"stimulus":"\n                    <p><b>Action: <em>harvest</em></b></p>\n                    <p>This is the bee that you just saw.</p>\n                    <img src=\"bees-with-color/bee-B1DM.svg\" width=\"200\">\n                    <p><span class=\"greenText\"><b>Successful harvest!</b></span><br>Your pay has increased by $0.02. Your bonus pay is now $0.48.</p>\n            ","response":0,"trial_type":"html-button-response","trial_index":56,"time_elapsed":325045,"internal_node_id":"0.0-4.0-1.22","subject_id":"57b248d52075e2000113ba3d","study_id":"6197b3f67c2b5cd3b6d9596a","session_id":"619be326b73303995429fcae","condition":"full-information","relevant_dimensions":["antennae","pattern"],"bee_group":{"antennae":"A","wings":"X","pattern":"S","legs":"X"},"bonus":0.1400000000000013},{"rt":2229,"stimulus":"bees-with-color/bee-A2DM.svg","response":0,"trial_type":"image-button-response","trial_index":57,"time_elapsed":327275,"internal_node_id":"0.0-4.0-0.23","subject_id":"57b248d52075e2000113ba3d","study_id":"6197b3f67c2b5cd3b6d9596a","session_id":"619be326b73303995429fcae","condition":"full-information","relevant_dimensions":["antennae","pattern"],"bee_group":{"antennae":"A","wings":"X","pattern":"S","legs":"X"},"action":"harvest","summary":"good-harvest","bonus":0.1400000000000013},{"rt":768,"stimulus":"\n                    <p><b>Action: <em>harvest</em></b></p>\n                    <p>This is the bee that you just saw.</p>\n                    <img src=\"bees-with-color/bee-A2DM.svg\" width=\"200\">\n                    <p><span class=\"greenText\"><b>Successful harvest!</b></span><br>Your pay has increased by $0.02. Your bonus pay is now $0.50.</p>\n            ","response":0,"trial_type":"html-button-response","trial_index":58,"time_elapsed":328044,"internal_node_id":"0.0-4.0-1.23","subject_id":"57b248d52075e2000113ba3d","study_id":"6197b3f67c2b5cd3b6d9596a","session_id":"619be326b73303995429fcae","condition":"full-information","relevant_dimensions":["antennae","pattern"],"bee_group":{"antennae":"A","wings":"X","pattern":"S","legs":"X"},"bonus":0.1400000000000013},{"rt":3145,"stimulus":"bees-with-color/bee-B1SM.svg","response":1,"trial_type":"image-button-response","trial_index":59,"time_elapsed":331191,"internal_node_id":"0.0-4.0-0.24","subject_id":"57b248d52075e2000113ba3d","study_id":"6197b3f67c2b5cd3b6d9596a","session_id":"619be326b73303995429fcae","condition":"full-information","relevant_dimensions":["antennae","pattern"],"bee_group":{"antennae":"A","wings":"X","pattern":"S","legs":"X"},"action":"avoid","summary":"bad-avoid","bonus":0.1400000000000013},{"rt":2561,"stimulus":"\n                    <p><b>Action: <em>avoid</em></b></p>\n                    <p>This is the bee that you just saw.</p>\n                    <img src=\"bees-with-color/bee-B1SM.svg\" width=\"200\">\n                    <p><span class=\"redText\">Bad choice,</span> the bee was friendly.<br>Your bonus pay is unchanged, and remains at $0.50.</p>\n            ","response":0,"trial_type":"html-button-response","trial_index":60,"time_elapsed":333753,"internal_node_id":"0.0-4.0-1.24","subject_id":"57b248d52075e2000113ba3d","study_id":"6197b3f67c2b5cd3b6d9596a","session_id":"619be326b73303995429fcae","condition":"full-information","relevant_dimensions":["antennae","pattern"],"bee_group":{"antennae":"A","wings":"X","pattern":"S","legs":"X"},"bonus":0.1400000000000013},{"rt":1752,"stimulus":"bees-with-color/bee-A1DF.svg","response":0,"trial_type":"image-button-response","trial_index":61,"time_elapsed":335506,"internal_node_id":"0.0-4.0-0.25","subject_id":"57b248d52075e2000113ba3d","study_id":"6197b3f67c2b5cd3b6d9596a","session_id":"619be326b73303995429fcae","condition":"full-information","relevant_dimensions":["antennae","pattern"],"bee_group":{"antennae":"A","wings":"X","pattern":"S","legs":"X"},"action":"harvest","summary":"good-harvest","bonus":0.1400000000000013},{"rt":802,"stimulus":"\n                    <p><b>Action: <em>harvest</em></b></p>\n                    <p>This is the bee that you just saw.</p>\n                    <img src=\"bees-with-color/bee-A1DF.svg\" width=\"200\">\n                    <p><span class=\"greenText\"><b>Successful harvest!</b></span><br>Your pay has increased by $0.02. Your bonus pay is now $0.52.</p>\n            ","response":0,"trial_type":"html-button-response","trial_index":62,"time_elapsed":336309,"internal_node_id":"0.0-4.0-1.25","subject_id":"57b248d52075e2000113ba3d","study_id":"6197b3f67c2b5cd3b6d9596a","session_id":"619be326b73303995429fcae","condition":"full-information","relevant_dimensions":["antennae","pattern"],"bee_group":{"antennae":"A","wings":"X","pattern":"S","legs":"X"},"bonus":0.1400000000000013},{"rt":1176,"stimulus":"bees-with-color/bee-A2SF.svg","response":1,"trial_type":"image-button-response","trial_index":63,"time_elapsed":337487,"internal_node_id":"0.0-4.0-0.26","subject_id":"57b248d52075e2000113ba3d","study_id":"6197b3f67c2b5cd3b6d9596a","session_id":"619be326b73303995429fcae","condition":"full-information","relevant_dimensions":["antennae","pattern"],"bee_group":{"antennae":"A","wings":"X","pattern":"S","legs":"X"},"action":"avoid","summary":"good-avoid","bonus":0.1400000000000013},{"rt":987,"stimulus":"\n                    <p><b>Action: <em>avoid</em></b></p>\n                    <p>This is the bee that you just saw.</p>\n                    <img src=\"bees-with-color/bee-A2SF.svg\" width=\"200\">\n                    <p><span class=\"greenText\">Good choice!</span>  This bee would have stung you.<br>Your bonus pay is unchanged, and remains at $0.52.</p>\n            ","response":0,"trial_type":"html-button-response","trial_index":64,"time_elapsed":338476,"internal_node_id":"0.0-4.0-1.26","subject_id":"57b248d52075e2000113ba3d","study_id":"6197b3f67c2b5cd3b6d9596a","session_id":"619be326b73303995429fcae","condition":"full-information","relevant_dimensions":["antennae","pattern"],"bee_group":{"antennae":"A","wings":"X","pattern":"S","legs":"X"},"bonus":0.1400000000000013},{"rt":4497,"stimulus":"bees-with-color/bee-B2DM.svg","response":0,"trial_type":"image-button-response","trial_index":65,"time_elapsed":342975,"internal_node_id":"0.0-4.0-0.27","subject_id":"57b248d52075e2000113ba3d","study_id":"6197b3f67c2b5cd3b6d9596a","session_id":"619be326b73303995429fcae","condition":"full-information","relevant_dimensions":["antennae","pattern"],"bee_group":{"antennae":"A","wings":"X","pattern":"S","legs":"X"},"action":"harvest","summary":"good-harvest","bonus":0.1400000000000013},{"rt":793,"stimulus":"\n                    <p><b>Action: <em>harvest</em></b></p>\n                    <p>This is the bee that you just saw.</p>\n                    <img src=\"bees-with-color/bee-B2DM.svg\" width=\"200\">\n                    <p><span class=\"greenText\"><b>Successful harvest!</b></span><br>Your pay has increased by $0.02. Your bonus pay is now $0.54.</p>\n            ","response":0,"trial_type":"html-button-response","trial_index":66,"time_elapsed":343770,"internal_node_id":"0.0-4.0-1.27","subject_id":"57b248d52075e2000113ba3d","study_id":"6197b3f67c2b5cd3b6d9596a","session_id":"619be326b73303995429fcae","condition":"full-information","relevant_dimensions":["antennae","pattern"],"bee_group":{"antennae":"A","wings":"X","pattern":"S","legs":"X"},"bonus":0.1400000000000013},{"rt":2887,"stimulus":"bees-with-color/bee-A1SF.svg","response":1,"trial_type":"image-button-response","trial_index":67,"time_elapsed":346658,"internal_node_id":"0.0-4.0-0.28","subject_id":"57b248d52075e2000113ba3d","study_id":"6197b3f67c2b5cd3b6d9596a","session_id":"619be326b73303995429fcae","condition":"full-information","relevant_dimensions":["antennae","pattern"],"bee_group":{"antennae":"A","wings":"X","pattern":"S","legs":"X"},"action":"avoid","summary":"good-avoid","bonus":0.1400000000000013},{"rt":1886,"stimulus":"\n                    <p><b>Action: <em>avoid</em></b></p>\n                    <p>This is the bee that you just saw.</p>\n                    <img src=\"bees-with-color/bee-A1SF.svg\" width=\"200\">\n                    <p><span class=\"greenText\">Good choice!</span>  This bee would have stung you.<br>Your bonus pay is unchanged, and remains at $0.54.</p>\n            ","response":0,"trial_type":"html-button-response","trial_index":68,"time_elapsed":348546,"internal_node_id":"0.0-4.0-1.28","subject_id":"57b248d52075e2000113ba3d","study_id":"6197b3f67c2b5cd3b6d9596a","session_id":"619be326b73303995429fcae","condition":"full-information","relevant_dimensions":["antennae","pattern"],"bee_group":{"antennae":"A","wings":"X","pattern":"S","legs":"X"},"bonus":0.1400000000000013},{"rt":1827,"stimulus":"bees-with-color/bee-B2SM.svg","response":0,"trial_type":"image-button-response","trial_index":69,"time_elapsed":350376,"internal_node_id":"0.0-4.0-0.29","subject_id":"57b248d52075e2000113ba3d","study_id":"6197b3f67c2b5cd3b6d9596a","session_id":"619be326b73303995429fcae","condition":"full-information","relevant_dimensions":["antennae","pattern"],"bee_group":{"antennae":"A","wings":"X","pattern":"S","legs":"X"},"action":"harvest","summary":"good-harvest","bonus":0.1400000000000013},{"rt":1580,"stimulus":"\n                    <p><b>Action: <em>harvest</em></b></p>\n                    <p>This is the bee that you just saw.</p>\n                    <img src=\"bees-with-color/bee-B2SM.svg\" width=\"200\">\n                    <p><span class=\"greenText\"><b>Successful harvest!</b></span><br>Your pay has increased by $0.02. Your bonus pay is now $0.56.</p>\n            ","response":0,"trial_type":"html-button-response","trial_index":70,"time_elapsed":351957,"internal_node_id":"0.0-4.0-1.29","subject_id":"57b248d52075e2000113ba3d","study_id":"6197b3f67c2b5cd3b6d9596a","session_id":"619be326b73303995429fcae","condition":"full-information","relevant_dimensions":["antennae","pattern"],"bee_group":{"antennae":"A","wings":"X","pattern":"S","legs":"X"},"bonus":0.1400000000000013},{"rt":4762,"stimulus":"bees-with-color/bee-B1SF.svg","response":0,"trial_type":"image-button-response","trial_index":71,"time_elapsed":356719,"internal_node_id":"0.0-4.0-0.30","subject_id":"57b248d52075e2000113ba3d","study_id":"6197b3f67c2b5cd3b6d9596a","session_id":"619be326b73303995429fcae","condition":"full-information","relevant_dimensions":["antennae","pattern"],"bee_group":{"antennae":"A","wings":"X","pattern":"S","legs":"X"},"action":"harvest","summary":"good-harvest","bonus":0.1400000000000013},{"rt":695,"stimulus":"\n                    <p><b>Action: <em>harvest</em></b></p>\n                    <p>This is the bee that you just saw.</p>\n                    <img src=\"bees-with-color/bee-B1SF.svg\" width=\"200\">\n                    <p><span class=\"greenText\"><b>Successful harvest!</b></span><br>Your pay has increased by $0.02. Your bonus pay is now $0.58.</p>\n            ","response":0,"trial_type":"html-button-response","trial_index":72,"time_elapsed":357415,"internal_node_id":"0.0-4.0-1.30","subject_id":"57b248d52075e2000113ba3d","study_id":"6197b3f67c2b5cd3b6d9596a","session_id":"619be326b73303995429fcae","condition":"full-information","relevant_dimensions":["antennae","pattern"],"bee_group":{"antennae":"A","wings":"X","pattern":"S","legs":"X"},"bonus":0.1400000000000013},{"rt":1238,"stimulus":"bees-with-color/bee-B1DF.svg","response":0,"trial_type":"image-button-response","trial_index":73,"time_elapsed":358655,"internal_node_id":"0.0-4.0-0.31","subject_id":"57b248d52075e2000113ba3d","study_id":"6197b3f67c2b5cd3b6d9596a","session_id":"619be326b73303995429fcae","condition":"full-information","relevant_dimensions":["antennae","pattern"],"bee_group":{"antennae":"A","wings":"X","pattern":"S","legs":"X"},"action":"harvest","summary":"good-harvest","bonus":0.1400000000000013},{"rt":1531,"stimulus":"\n                    <p><b>Action: <em>harvest</em></b></p>\n                    <p>This is the bee that you just saw.</p>\n                    <img src=\"bees-with-color/bee-B1DF.svg\" width=\"200\">\n                    <p><span class=\"greenText\"><b>Successful harvest!</b></span><br>Your pay has increased by $0.02. Your bonus pay is now $0.60.</p>\n            ","response":0,"trial_type":"html-button-response","trial_index":74,"time_elapsed":360187,"internal_node_id":"0.0-4.0-1.31","subject_id":"57b248d52075e2000113ba3d","study_id":"6197b3f67c2b5cd3b6d9596a","session_id":"619be326b73303995429fcae","condition":"full-information","relevant_dimensions":["antennae","pattern"],"bee_group":{"antennae":"A","wings":"X","pattern":"S","legs":"X"},"bonus":0.1400000000000013},{"rt":2434,"stimulus":"bees-with-color/bee-A1DF.svg","response":0,"trial_type":"image-button-response","trial_index":75,"time_elapsed":362623,"internal_node_id":"0.0-4.0-0.32","subject_id":"57b248d52075e2000113ba3d","study_id":"6197b3f67c2b5cd3b6d9596a","session_id":"619be326b73303995429fcae","condition":"full-information","relevant_dimensions":["antennae","pattern"],"bee_group":{"antennae":"A","wings":"X","pattern":"S","legs":"X"},"action":"harvest","summary":"good-harvest","bonus":0.1400000000000013},{"rt":1301,"stimulus":"\n                    <p><b>Action: <em>harvest</em></b></p>\n                    <p>This is the bee that you just saw.</p>\n                    <img src=\"bees-with-color/bee-A1DF.svg\" width=\"200\">\n                    <p><span class=\"greenText\"><b>Successful harvest!</b></span><br>Your pay has increased by $0.02. Your bonus pay is now $0.62.</p>\n            ","response":0,"trial_type":"html-button-response","trial_index":76,"time_elapsed":363926,"internal_node_id":"0.0-4.0-1.32","subject_id":"57b248d52075e2000113ba3d","study_id":"6197b3f67c2b5cd3b6d9596a","session_id":"619be326b73303995429fcae","condition":"full-information","relevant_dimensions":["antennae","pattern"],"bee_group":{"antennae":"A","wings":"X","pattern":"S","legs":"X"},"bonus":0.1400000000000013},{"rt":3555,"stimulus":"bees-with-color/bee-A2SM.svg","response":1,"trial_type":"image-button-response","trial_index":77,"time_elapsed":367481,"internal_node_id":"0.0-4.0-0.33","subject_id":"57b248d52075e2000113ba3d","study_id":"6197b3f67c2b5cd3b6d9596a","session_id":"619be326b73303995429fcae","condition":"full-information","relevant_dimensions":["antennae","pattern"],"bee_group":{"antennae":"A","wings":"X","pattern":"S","legs":"X"},"action":"avoid","summary":"good-avoid","bonus":0.1400000000000013},{"rt":1092,"stimulus":"\n                    <p><b>Action: <em>avoid</em></b></p>\n                    <p>This is the bee that you just saw.</p>\n                    <img src=\"bees-with-color/bee-A2SM.svg\" width=\"200\">\n                    <p><span class=\"greenText\">Good choice!</span>  This bee would have stung you.<br>Your bonus pay is unchanged, and remains at $0.62.</p>\n            ","response":0,"trial_type":"html-button-response","trial_index":78,"time_elapsed":368575,"internal_node_id":"0.0-4.0-1.33","subject_id":"57b248d52075e2000113ba3d","study_id":"6197b3f67c2b5cd3b6d9596a","session_id":"619be326b73303995429fcae","condition":"full-information","relevant_dimensions":["antennae","pattern"],"bee_group":{"antennae":"A","wings":"X","pattern":"S","legs":"X"},"bonus":0.1400000000000013},{"rt":1615,"stimulus":"bees-with-color/bee-A1DM.svg","response":0,"trial_type":"image-button-response","trial_index":79,"time_elapsed":370191,"internal_node_id":"0.0-4.0-0.34","subject_id":"57b248d52075e2000113ba3d","study_id":"6197b3f67c2b5cd3b6d9596a","session_id":"619be326b73303995429fcae","condition":"full-information","relevant_dimensions":["antennae","pattern"],"bee_group":{"antennae":"A","wings":"X","pattern":"S","legs":"X"},"action":"harvest","summary":"good-harvest","bonus":0.1400000000000013},{"rt":638,"stimulus":"\n                    <p><b>Action: <em>harvest</em></b></p>\n                    <p>This is the bee that you just saw.</p>\n                    <img src=\"bees-with-color/bee-A1DM.svg\" width=\"200\">\n                    <p><span class=\"greenText\"><b>Successful harvest!</b></span><br>Your pay has increased by $0.02. Your bonus pay is now $0.64.</p>\n            ","response":0,"trial_type":"html-button-response","trial_index":80,"time_elapsed":370831,"internal_node_id":"0.0-4.0-1.34","subject_id":"57b248d52075e2000113ba3d","study_id":"6197b3f67c2b5cd3b6d9596a","session_id":"619be326b73303995429fcae","condition":"full-information","relevant_dimensions":["antennae","pattern"],"bee_group":{"antennae":"A","wings":"X","pattern":"S","legs":"X"},"bonus":0.1400000000000013},{"rt":1027,"stimulus":"bees-with-color/bee-B1DF.svg","response":0,"trial_type":"image-button-response","trial_index":81,"time_elapsed":371859,"internal_node_id":"0.0-4.0-0.35","subject_id":"57b248d52075e2000113ba3d","study_id":"6197b3f67c2b5cd3b6d9596a","session_id":"619be326b73303995429fcae","condition":"full-information","relevant_dimensions":["antennae","pattern"],"bee_group":{"antennae":"A","wings":"X","pattern":"S","legs":"X"},"action":"harvest","summary":"good-harvest","bonus":0.1400000000000013},{"rt":590,"stimulus":"\n                    <p><b>Action: <em>harvest</em></b></p>\n                    <p>This is the bee that you just saw.</p>\n                    <img src=\"bees-with-color/bee-B1DF.svg\" width=\"200\">\n                    <p><span class=\"greenText\"><b>Successful harvest!</b></span><br>Your pay has increased by $0.02. Your bonus pay is now $0.66.</p>\n            ","response":0,"trial_type":"html-button-response","trial_index":82,"time_elapsed":372451,"internal_node_id":"0.0-4.0-1.35","subject_id":"57b248d52075e2000113ba3d","study_id":"6197b3f67c2b5cd3b6d9596a","session_id":"619be326b73303995429fcae","condition":"full-information","relevant_dimensions":["antennae","pattern"],"bee_group":{"antennae":"A","wings":"X","pattern":"S","legs":"X"},"bonus":0.1400000000000013},{"rt":1088,"stimulus":"bees-with-color/bee-B2DF.svg","response":0,"trial_type":"image-button-response","trial_index":83,"time_elapsed":373542,"internal_node_id":"0.0-4.0-0.36","subject_id":"57b248d52075e2000113ba3d","study_id":"6197b3f67c2b5cd3b6d9596a","session_id":"619be326b73303995429fcae","condition":"full-information","relevant_dimensions":["antennae","pattern"],"bee_group":{"antennae":"A","wings":"X","pattern":"S","legs":"X"},"action":"harvest","summary":"good-harvest","bonus":0.1400000000000013},{"rt":677,"stimulus":"\n                    <p><b>Action: <em>harvest</em></b></p>\n                    <p>This is the bee that you just saw.</p>\n                    <img src=\"bees-with-color/bee-B2DF.svg\" width=\"200\">\n                    <p><span class=\"greenText\"><b>Successful harvest!</b></span><br>Your pay has increased by $0.02. Your bonus pay is now $0.68.</p>\n            ","response":0,"trial_type":"html-button-response","trial_index":84,"time_elapsed":374221,"internal_node_id":"0.0-4.0-1.36","subject_id":"57b248d52075e2000113ba3d","study_id":"6197b3f67c2b5cd3b6d9596a","session_id":"619be326b73303995429fcae","condition":"full-information","relevant_dimensions":["antennae","pattern"],"bee_group":{"antennae":"A","wings":"X","pattern":"S","legs":"X"},"bonus":0.1400000000000013},{"rt":1856,"stimulus":"bees-with-color/bee-B2SF.svg","response":0,"trial_type":"image-button-response","trial_index":85,"time_elapsed":376079,"internal_node_id":"0.0-4.0-0.37","subject_id":"57b248d52075e2000113ba3d","study_id":"6197b3f67c2b5cd3b6d9596a","session_id":"619be326b73303995429fcae","condition":"full-information","relevant_dimensions":["antennae","pattern"],"bee_group":{"antennae":"A","wings":"X","pattern":"S","legs":"X"},"action":"harvest","summary":"good-harvest","bonus":0.1400000000000013},{"rt":539,"stimulus":"\n                    <p><b>Action: <em>harvest</em></b></p>\n                    <p>This is the bee that you just saw.</p>\n                    <img src=\"bees-with-color/bee-B2SF.svg\" width=\"200\">\n                    <p><span class=\"greenText\"><b>Successful harvest!</b></span><br>Your pay has increased by $0.02. Your bonus pay is now $0.70.</p>\n            ","response":0,"trial_type":"html-button-response","trial_index":86,"time_elapsed":376619,"internal_node_id":"0.0-4.0-1.37","subject_id":"57b248d52075e2000113ba3d","study_id":"6197b3f67c2b5cd3b6d9596a","session_id":"619be326b73303995429fcae","condition":"full-information","relevant_dimensions":["antennae","pattern"],"bee_group":{"antennae":"A","wings":"X","pattern":"S","legs":"X"},"bonus":0.1400000000000013},{"rt":2532,"stimulus":"bees-with-color/bee-B1DM.svg","response":0,"trial_type":"image-button-response","trial_index":87,"time_elapsed":379153,"internal_node_id":"0.0-4.0-0.38","subject_id":"57b248d52075e2000113ba3d","study_id":"6197b3f67c2b5cd3b6d9596a","session_id":"619be326b73303995429fcae","condition":"full-information","relevant_dimensions":["antennae","pattern"],"bee_group":{"antennae":"A","wings":"X","pattern":"S","legs":"X"},"action":"harvest","summary":"good-harvest","bonus":0.1400000000000013},{"rt":880,"stimulus":"\n                    <p><b>Action: <em>harvest</em></b></p>\n                    <p>This is the bee that you just saw.</p>\n                    <img src=\"bees-with-color/bee-B1DM.svg\" width=\"200\">\n                    <p><span class=\"greenText\"><b>Successful harvest!</b></span><br>Your pay has increased by $0.02. Your bonus pay is now $0.72.</p>\n            ","response":0,"trial_type":"html-button-response","trial_index":88,"time_elapsed":380035,"internal_node_id":"0.0-4.0-1.38","subject_id":"57b248d52075e2000113ba3d","study_id":"6197b3f67c2b5cd3b6d9596a","session_id":"619be326b73303995429fcae","condition":"full-information","relevant_dimensions":["antennae","pattern"],"bee_group":{"antennae":"A","wings":"X","pattern":"S","legs":"X"},"bonus":0.1400000000000013},{"rt":3019,"stimulus":"bees-with-color/bee-A1SM.svg","response":0,"trial_type":"image-button-response","trial_index":89,"time_elapsed":383055,"internal_node_id":"0.0-4.0-0.39","subject_id":"57b248d52075e2000113ba3d","study_id":"6197b3f67c2b5cd3b6d9596a","session_id":"619be326b73303995429fcae","condition":"full-information","relevant_dimensions":["antennae","pattern"],"bee_group":{"antennae":"A","wings":"X","pattern":"S","legs":"X"},"action":"harvest","summary":"bad-harvest","bonus":0.1400000000000013},{"rt":2029,"stimulus":"\n                    <p><b>Action: <em>harvest</em></b></p>\n                    <p>This is the bee that you just saw.</p>\n                    <img src=\"bees-with-color/bee-A1SM.svg\" width=\"200\">\n                    <p><span class=\"redText\">Bad choice, the bee was angry.</span><br><b>You have been stung!</b><br>Your pay has been decreased by $0.10. Your bonus pay is now $0.62.</p>\n            ","response":0,"trial_type":"html-button-response","trial_index":90,"time_elapsed":385085,"internal_node_id":"0.0-4.0-1.39","subject_id":"57b248d52075e2000113ba3d","study_id":"6197b3f67c2b5cd3b6d9596a","session_id":"619be326b73303995429fcae","condition":"full-information","relevant_dimensions":["antennae","pattern"],"bee_group":{"antennae":"A","wings":"X","pattern":"S","legs":"X"},"bonus":0.1400000000000013},{"rt":2218,"stimulus":"bees-with-color/bee-B1SF.svg","response":0,"trial_type":"image-button-response","trial_index":91,"time_elapsed":387305,"internal_node_id":"0.0-4.0-0.40","subject_id":"57b248d52075e2000113ba3d","study_id":"6197b3f67c2b5cd3b6d9596a","session_id":"619be326b73303995429fcae","condition":"full-information","relevant_dimensions":["antennae","pattern"],"bee_group":{"antennae":"A","wings":"X","pattern":"S","legs":"X"},"action":"harvest","summary":"good-harvest","bonus":0.1400000000000013},{"rt":656,"stimulus":"\n                    <p><b>Action: <em>harvest</em></b></p>\n                    <p>This is the bee that you just saw.</p>\n                    <img src=\"bees-with-color/bee-B1SF.svg\" width=\"200\">\n                    <p><span class=\"greenText\"><b>Successful harvest!</b></span><br>Your pay has increased by $0.02. Your bonus pay is now $0.64.</p>\n            ","response":0,"trial_type":"html-button-response","trial_index":92,"time_elapsed":387961,"internal_node_id":"0.0-4.0-1.40","subject_id":"57b248d52075e2000113ba3d","study_id":"6197b3f67c2b5cd3b6d9596a","session_id":"619be326b73303995429fcae","condition":"full-information","relevant_dimensions":["antennae","pattern"],"bee_group":{"antennae":"A","wings":"X","pattern":"S","legs":"X"},"bonus":0.1400000000000013},{"rt":1254,"stimulus":"bees-with-color/bee-B2SM.svg","response":0,"trial_type":"image-button-response","trial_index":93,"time_elapsed":389217,"internal_node_id":"0.0-4.0-0.41","subject_id":"57b248d52075e2000113ba3d","study_id":"6197b3f67c2b5cd3b6d9596a","session_id":"619be326b73303995429fcae","condition":"full-information","relevant_dimensions":["antennae","pattern"],"bee_group":{"antennae":"A","wings":"X","pattern":"S","legs":"X"},"action":"harvest","summary":"good-harvest","bonus":0.1400000000000013},{"rt":462,"stimulus":"\n                    <p><b>Action: <em>harvest</em></b></p>\n                    <p>This is the bee that you just saw.</p>\n                    <img src=\"bees-with-color/bee-B2SM.svg\" width=\"200\">\n                    <p><span class=\"greenText\"><b>Successful harvest!</b></span><br>Your pay has increased by $0.02. Your bonus pay is now $0.66.</p>\n            ","response":0,"trial_type":"html-button-response","trial_index":94,"time_elapsed":389682,"internal_node_id":"0.0-4.0-1.41","subject_id":"57b248d52075e2000113ba3d","study_id":"6197b3f67c2b5cd3b6d9596a","session_id":"619be326b73303995429fcae","condition":"full-information","relevant_dimensions":["antennae","pattern"],"bee_group":{"antennae":"A","wings":"X","pattern":"S","legs":"X"},"bonus":0.1400000000000013},{"rt":1082,"stimulus":"bees-with-color/bee-B1SM.svg","response":0,"trial_type":"image-button-response","trial_index":95,"time_elapsed":390765,"internal_node_id":"0.0-4.0-0.42","subject_id":"57b248d52075e2000113ba3d","study_id":"6197b3f67c2b5cd3b6d9596a","session_id":"619be326b73303995429fcae","condition":"full-information","relevant_dimensions":["antennae","pattern"],"bee_group":{"antennae":"A","wings":"X","pattern":"S","legs":"X"},"action":"harvest","summary":"good-harvest","bonus":0.1400000000000013},{"rt":449,"stimulus":"\n                    <p><b>Action: <em>harvest</em></b></p>\n                    <p>This is the bee that you just saw.</p>\n                    <img src=\"bees-with-color/bee-B1SM.svg\" width=\"200\">\n                    <p><span class=\"greenText\"><b>Successful harvest!</b></span><br>Your pay has increased by $0.02. Your bonus pay is now $0.68.</p>\n            ","response":0,"trial_type":"html-button-response","trial_index":96,"time_elapsed":391215,"internal_node_id":"0.0-4.0-1.42","subject_id":"57b248d52075e2000113ba3d","study_id":"6197b3f67c2b5cd3b6d9596a","session_id":"619be326b73303995429fcae","condition":"full-information","relevant_dimensions":["antennae","pattern"],"bee_group":{"antennae":"A","wings":"X","pattern":"S","legs":"X"},"bonus":0.1400000000000013},{"rt":992,"stimulus":"bees-with-color/bee-A1SF.svg","response":0,"trial_type":"image-button-response","trial_index":97,"time_elapsed":392208,"internal_node_id":"0.0-4.0-0.43","subject_id":"57b248d52075e2000113ba3d","study_id":"6197b3f67c2b5cd3b6d9596a","session_id":"619be326b73303995429fcae","condition":"full-information","relevant_dimensions":["antennae","pattern"],"bee_group":{"antennae":"A","wings":"X","pattern":"S","legs":"X"},"action":"harvest","summary":"bad-harvest","bonus":0.1400000000000013},{"rt":846,"stimulus":"\n                    <p><b>Action: <em>harvest</em></b></p>\n                    <p>This is the bee that you just saw.</p>\n                    <img src=\"bees-with-color/bee-A1SF.svg\" width=\"200\">\n                    <p><span class=\"redText\">Bad choice, the bee was angry.</span><br><b>You have been stung!</b><br>Your pay has been decreased by $0.10. Your bonus pay is now $0.58.</p>\n            ","response":0,"trial_type":"html-button-response","trial_index":98,"time_elapsed":393055,"internal_node_id":"0.0-4.0-1.43","subject_id":"57b248d52075e2000113ba3d","study_id":"6197b3f67c2b5cd3b6d9596a","session_id":"619be326b73303995429fcae","condition":"full-information","relevant_dimensions":["antennae","pattern"],"bee_group":{"antennae":"A","wings":"X","pattern":"S","legs":"X"},"bonus":0.1400000000000013},{"rt":832,"stimulus":"bees-with-color/bee-A2DF.svg","response":0,"trial_type":"image-button-response","trial_index":99,"time_elapsed":393889,"internal_node_id":"0.0-4.0-0.44","subject_id":"57b248d52075e2000113ba3d","study_id":"6197b3f67c2b5cd3b6d9596a","session_id":"619be326b73303995429fcae","condition":"full-information","relevant_dimensions":["antennae","pattern"],"bee_group":{"antennae":"A","wings":"X","pattern":"S","legs":"X"},"action":"harvest","summary":"good-harvest","bonus":0.1400000000000013},{"rt":522,"stimulus":"\n                    <p><b>Action: <em>harvest</em></b></p>\n                    <p>This is the bee that you just saw.</p>\n                    <img src=\"bees-with-color/bee-A2DF.svg\" width=\"200\">\n                    <p><span class=\"greenText\"><b>Successful harvest!</b></span><br>Your pay has increased by $0.02. Your bonus pay is now $0.60.</p>\n            ","response":0,"trial_type":"html-button-response","trial_index":100,"time_elapsed":394413,"internal_node_id":"0.0-4.0-1.44","subject_id":"57b248d52075e2000113ba3d","study_id":"6197b3f67c2b5cd3b6d9596a","session_id":"619be326b73303995429fcae","condition":"full-information","relevant_dimensions":["antennae","pattern"],"bee_group":{"antennae":"A","wings":"X","pattern":"S","legs":"X"},"bonus":0.1400000000000013},{"rt":3415,"stimulus":"bees-with-color/bee-A2SF.svg","response":1,"trial_type":"image-button-response","trial_index":101,"time_elapsed":397830,"internal_node_id":"0.0-4.0-0.45","subject_id":"57b248d52075e2000113ba3d","study_id":"6197b3f67c2b5cd3b6d9596a","session_id":"619be326b73303995429fcae","condition":"full-information","relevant_dimensions":["antennae","pattern"],"bee_group":{"antennae":"A","wings":"X","pattern":"S","legs":"X"},"action":"avoid","summary":"good-avoid","bonus":0.1400000000000013},{"rt":784,"stimulus":"\n                    <p><b>Action: <em>avoid</em></b></p>\n                    <p>This is the bee that you just saw.</p>\n                    <img src=\"bees-with-color/bee-A2SF.svg\" width=\"200\">\n                    <p><span class=\"greenText\">Good choice!</span>  This bee would have stung you.<br>Your bonus pay is unchanged, and remains at $0.60.</p>\n            ","response":0,"trial_type":"html-button-response","trial_index":102,"time_elapsed":398617,"internal_node_id":"0.0-4.0-1.45","subject_id":"57b248d52075e2000113ba3d","study_id":"6197b3f67c2b5cd3b6d9596a","session_id":"619be326b73303995429fcae","condition":"full-information","relevant_dimensions":["antennae","pattern"],"bee_group":{"antennae":"A","wings":"X","pattern":"S","legs":"X"},"bonus":0.1400000000000013},{"rt":1653,"stimulus":"bees-with-color/bee-B2DM.svg","response":0,"trial_type":"image-button-response","trial_index":103,"time_elapsed":400270,"internal_node_id":"0.0-4.0-0.46","subject_id":"57b248d52075e2000113ba3d","study_id":"6197b3f67c2b5cd3b6d9596a","session_id":"619be326b73303995429fcae","condition":"full-information","relevant_dimensions":["antennae","pattern"],"bee_group":{"antennae":"A","wings":"X","pattern":"S","legs":"X"},"action":"harvest","summary":"good-harvest","bonus":0.1400000000000013},{"rt":676,"stimulus":"\n                    <p><b>Action: <em>harvest</em></b></p>\n                    <p>This is the bee that you just saw.</p>\n                    <img src=\"bees-with-color/bee-B2DM.svg\" width=\"200\">\n                    <p><span class=\"greenText\"><b>Successful harvest!</b></span><br>Your pay has increased by $0.02. Your bonus pay is now $0.62.</p>\n            ","response":0,"trial_type":"html-button-response","trial_index":104,"time_elapsed":400947,"internal_node_id":"0.0-4.0-1.46","subject_id":"57b248d52075e2000113ba3d","study_id":"6197b3f67c2b5cd3b6d9596a","session_id":"619be326b73303995429fcae","condition":"full-information","relevant_dimensions":["antennae","pattern"],"bee_group":{"antennae":"A","wings":"X","pattern":"S","legs":"X"},"bonus":0.1400000000000013},{"rt":1683,"stimulus":"bees-with-color/bee-A2DM.svg","response":0,"trial_type":"image-button-response","trial_index":105,"time_elapsed":402632,"internal_node_id":"0.0-4.0-0.47","subject_id":"57b248d52075e2000113ba3d","study_id":"6197b3f67c2b5cd3b6d9596a","session_id":"619be326b73303995429fcae","condition":"full-information","relevant_dimensions":["antennae","pattern"],"bee_group":{"antennae":"A","wings":"X","pattern":"S","legs":"X"},"action":"harvest","summary":"good-harvest","bonus":0.1400000000000013},{"rt":677,"stimulus":"\n                    <p><b>Action: <em>harvest</em></b></p>\n                    <p>This is the bee that you just saw.</p>\n                    <img src=\"bees-with-color/bee-A2DM.svg\" width=\"200\">\n                    <p><span class=\"greenText\"><b>Successful harvest!</b></span><br>Your pay has increased by $0.02. Your bonus pay is now $0.64.</p>\n            ","response":0,"trial_type":"html-button-response","trial_index":106,"time_elapsed":403312,"internal_node_id":"0.0-4.0-1.47","subject_id":"57b248d52075e2000113ba3d","study_id":"6197b3f67c2b5cd3b6d9596a","session_id":"619be326b73303995429fcae","condition":"full-information","relevant_dimensions":["antennae","pattern"],"bee_group":{"antennae":"A","wings":"X","pattern":"S","legs":"X"},"bonus":0.1400000000000013},{"rt":1649,"stimulus":"bees-with-color/bee-A1SM.svg","response":0,"trial_type":"image-button-response","trial_index":107,"time_elapsed":404962,"internal_node_id":"0.0-4.0-0.48","subject_id":"57b248d52075e2000113ba3d","study_id":"6197b3f67c2b5cd3b6d9596a","session_id":"619be326b73303995429fcae","condition":"full-information","relevant_dimensions":["antennae","pattern"],"bee_group":{"antennae":"A","wings":"X","pattern":"S","legs":"X"},"action":"harvest","summary":"bad-harvest","bonus":0.1400000000000013},{"rt":1228,"stimulus":"\n                    <p><b>Action: <em>harvest</em></b></p>\n                    <p>This is the bee that you just saw.</p>\n                    <img src=\"bees-with-color/bee-A1SM.svg\" width=\"200\">\n                    <p><span class=\"redText\">Bad choice, the bee was angry.</span><br><b>You have been stung!</b><br>Your pay has been decreased by $0.10. Your bonus pay is now $0.54.</p>\n            ","response":0,"trial_type":"html-button-response","trial_index":108,"time_elapsed":406192,"internal_node_id":"0.0-4.0-1.48","subject_id":"57b248d52075e2000113ba3d","study_id":"6197b3f67c2b5cd3b6d9596a","session_id":"619be326b73303995429fcae","condition":"full-information","relevant_dimensions":["antennae","pattern"],"bee_group":{"antennae":"A","wings":"X","pattern":"S","legs":"X"},"bonus":0.1400000000000013},{"rt":818,"stimulus":"bees-with-color/bee-B1DM.svg","response":0,"trial_type":"image-button-response","trial_index":109,"time_elapsed":407011,"internal_node_id":"0.0-4.0-0.49","subject_id":"57b248d52075e2000113ba3d","study_id":"6197b3f67c2b5cd3b6d9596a","session_id":"619be326b73303995429fcae","condition":"full-information","relevant_dimensions":["antennae","pattern"],"bee_group":{"antennae":"A","wings":"X","pattern":"S","legs":"X"},"action":"harvest","summary":"good-harvest","bonus":0.1400000000000013},{"rt":506,"stimulus":"\n                    <p><b>Action: <em>harvest</em></b></p>\n                    <p>This is the bee that you just saw.</p>\n                    <img src=\"bees-with-color/bee-B1DM.svg\" width=\"200\">\n                    <p><span class=\"greenText\"><b>Successful harvest!</b></span><br>Your pay has increased by $0.02. Your bonus pay is now $0.56.</p>\n            ","response":0,"trial_type":"html-button-response","trial_index":110,"time_elapsed":407520,"internal_node_id":"0.0-4.0-1.49","subject_id":"57b248d52075e2000113ba3d","study_id":"6197b3f67c2b5cd3b6d9596a","session_id":"619be326b73303995429fcae","condition":"full-information","relevant_dimensions":["antennae","pattern"],"bee_group":{"antennae":"A","wings":"X","pattern":"S","legs":"X"},"bonus":0.1400000000000013},{"rt":2353,"stimulus":"bees-with-color/bee-A2SM.svg","response":0,"trial_type":"image-button-response","trial_index":111,"time_elapsed":409875,"internal_node_id":"0.0-4.0-0.50","subject_id":"57b248d52075e2000113ba3d","study_id":"6197b3f67c2b5cd3b6d9596a","session_id":"619be326b73303995429fcae","condition":"full-information","relevant_dimensions":["antennae","pattern"],"bee_group":{"antennae":"A","wings":"X","pattern":"S","legs":"X"},"action":"harvest","summary":"bad-harvest","bonus":0.1400000000000013},{"rt":3514,"stimulus":"\n                    <p><b>Action: <em>harvest</em></b></p>\n                    <p>This is the bee that you just saw.</p>\n                    <img src=\"bees-with-color/bee-A2SM.svg\" width=\"200\">\n                    <p><span class=\"redText\">Bad choice, the bee was angry.</span><br><b>You have been stung!</b><br>Your pay has been decreased by $0.10. Your bonus pay is now $0.46.</p>\n            ","response":0,"trial_type":"html-button-response","trial_index":112,"time_elapsed":413392,"internal_node_id":"0.0-4.0-1.50","subject_id":"57b248d52075e2000113ba3d","study_id":"6197b3f67c2b5cd3b6d9596a","session_id":"619be326b73303995429fcae","condition":"full-information","relevant_dimensions":["antennae","pattern"],"bee_group":{"antennae":"A","wings":"X","pattern":"S","legs":"X"},"bonus":0.1400000000000013},{"rt":1118,"stimulus":"bees-with-color/bee-A1DM.svg","response":0,"trial_type":"image-button-response","trial_index":113,"time_elapsed":414511,"internal_node_id":"0.0-4.0-0.51","subject_id":"57b248d52075e2000113ba3d","study_id":"6197b3f67c2b5cd3b6d9596a","session_id":"619be326b73303995429fcae","condition":"full-information","relevant_dimensions":["antennae","pattern"],"bee_group":{"antennae":"A","wings":"X","pattern":"S","legs":"X"},"action":"harvest","summary":"good-harvest","bonus":0.1400000000000013},{"rt":646,"stimulus":"\n                    <p><b>Action: <em>harvest</em></b></p>\n                    <p>This is the bee that you just saw.</p>\n                    <img src=\"bees-with-color/bee-A1DM.svg\" width=\"200\">\n                    <p><span class=\"greenText\"><b>Successful harvest!</b></span><br>Your pay has increased by $0.02. Your bonus pay is now $0.48.</p>\n            ","response":0,"trial_type":"html-button-response","trial_index":114,"time_elapsed":415159,"internal_node_id":"0.0-4.0-1.51","subject_id":"57b248d52075e2000113ba3d","study_id":"6197b3f67c2b5cd3b6d9596a","session_id":"619be326b73303995429fcae","condition":"full-information","relevant_dimensions":["antennae","pattern"],"bee_group":{"antennae":"A","wings":"X","pattern":"S","legs":"X"},"bonus":0.1400000000000013},{"rt":1335,"stimulus":"bees-with-color/bee-B2DF.svg","response":0,"trial_type":"image-button-response","trial_index":115,"time_elapsed":416497,"internal_node_id":"0.0-4.0-0.52","subject_id":"57b248d52075e2000113ba3d","study_id":"6197b3f67c2b5cd3b6d9596a","session_id":"619be326b73303995429fcae","condition":"full-information","relevant_dimensions":["antennae","pattern"],"bee_group":{"antennae":"A","wings":"X","pattern":"S","legs":"X"},"action":"harvest","summary":"good-harvest","bonus":0.1400000000000013},{"rt":944,"stimulus":"\n                    <p><b>Action: <em>harvest</em></b></p>\n                    <p>This is the bee that you just saw.</p>\n                    <img src=\"bees-with-color/bee-B2DF.svg\" width=\"200\">\n                    <p><span class=\"greenText\"><b>Successful harvest!</b></span><br>Your pay has increased by $0.02. Your bonus pay is now $0.50.</p>\n            ","response":0,"trial_type":"html-button-response","trial_index":116,"time_elapsed":417443,"internal_node_id":"0.0-4.0-1.52","subject_id":"57b248d52075e2000113ba3d","study_id":"6197b3f67c2b5cd3b6d9596a","session_id":"619be326b73303995429fcae","condition":"full-information","relevant_dimensions":["antennae","pattern"],"bee_group":{"antennae":"A","wings":"X","pattern":"S","legs":"X"},"bonus":0.1400000000000013},{"rt":1044,"stimulus":"bees-with-color/bee-B1DF.svg","response":0,"trial_type":"image-button-response","trial_index":117,"time_elapsed":418488,"internal_node_id":"0.0-4.0-0.53","subject_id":"57b248d52075e2000113ba3d","study_id":"6197b3f67c2b5cd3b6d9596a","session_id":"619be326b73303995429fcae","condition":"full-information","relevant_dimensions":["antennae","pattern"],"bee_group":{"antennae":"A","wings":"X","pattern":"S","legs":"X"},"action":"harvest","summary":"good-harvest","bonus":0.1400000000000013},{"rt":646,"stimulus":"\n                    <p><b>Action: <em>harvest</em></b></p>\n                    <p>This is the bee that you just saw.</p>\n                    <img src=\"bees-with-color/bee-B1DF.svg\" width=\"200\">\n                    <p><span class=\"greenText\"><b>Successful harvest!</b></span><br>Your pay has increased by $0.02. Your bonus pay is now $0.52.</p>\n            ","response":0,"trial_type":"html-button-response","trial_index":118,"time_elapsed":419135,"internal_node_id":"0.0-4.0-1.53","subject_id":"57b248d52075e2000113ba3d","study_id":"6197b3f67c2b5cd3b6d9596a","session_id":"619be326b73303995429fcae","condition":"full-information","relevant_dimensions":["antennae","pattern"],"bee_group":{"antennae":"A","wings":"X","pattern":"S","legs":"X"},"bonus":0.1400000000000013},{"rt":1243,"stimulus":"bees-with-color/bee-A2DF.svg","response":0,"trial_type":"image-button-response","trial_index":119,"time_elapsed":420380,"internal_node_id":"0.0-4.0-0.54","subject_id":"57b248d52075e2000113ba3d","study_id":"6197b3f67c2b5cd3b6d9596a","session_id":"619be326b73303995429fcae","condition":"full-information","relevant_dimensions":["antennae","pattern"],"bee_group":{"antennae":"A","wings":"X","pattern":"S","legs":"X"},"action":"harvest","summary":"good-harvest","bonus":0.1400000000000013},{"rt":446,"stimulus":"\n                    <p><b>Action: <em>harvest</em></b></p>\n                    <p>This is the bee that you just saw.</p>\n                    <img src=\"bees-with-color/bee-A2DF.svg\" width=\"200\">\n                    <p><span class=\"greenText\"><b>Successful harvest!</b></span><br>Your pay has increased by $0.02. Your bonus pay is now $0.54.</p>\n            ","response":0,"trial_type":"html-button-response","trial_index":120,"time_elapsed":420827,"internal_node_id":"0.0-4.0-1.54","subject_id":"57b248d52075e2000113ba3d","study_id":"6197b3f67c2b5cd3b6d9596a","session_id":"619be326b73303995429fcae","condition":"full-information","relevant_dimensions":["antennae","pattern"],"bee_group":{"antennae":"A","wings":"X","pattern":"S","legs":"X"},"bonus":0.1400000000000013},{"rt":2044,"stimulus":"bees-with-color/bee-B1SM.svg","response":0,"trial_type":"image-button-response","trial_index":121,"time_elapsed":422872,"internal_node_id":"0.0-4.0-0.55","subject_id":"57b248d52075e2000113ba3d","study_id":"6197b3f67c2b5cd3b6d9596a","session_id":"619be326b73303995429fcae","condition":"full-information","relevant_dimensions":["antennae","pattern"],"bee_group":{"antennae":"A","wings":"X","pattern":"S","legs":"X"},"action":"harvest","summary":"good-harvest","bonus":0.1400000000000013},{"rt":808,"stimulus":"\n                    <p><b>Action: <em>harvest</em></b></p>\n                    <p>This is the bee that you just saw.</p>\n                    <img src=\"bees-with-color/bee-B1SM.svg\" width=\"200\">\n                    <p><span class=\"greenText\"><b>Successful harvest!</b></span><br>Your pay has increased by $0.02. Your bonus pay is now $0.56.</p>\n            ","response":0,"trial_type":"html-button-response","trial_index":122,"time_elapsed":423683,"internal_node_id":"0.0-4.0-1.55","subject_id":"57b248d52075e2000113ba3d","study_id":"6197b3f67c2b5cd3b6d9596a","session_id":"619be326b73303995429fcae","condition":"full-information","relevant_dimensions":["antennae","pattern"],"bee_group":{"antennae":"A","wings":"X","pattern":"S","legs":"X"},"bonus":0.1400000000000013},{"rt":1991,"stimulus":"bees-with-color/bee-B2DM.svg","response":0,"trial_type":"image-button-response","trial_index":123,"time_elapsed":425675,"internal_node_id":"0.0-4.0-0.56","subject_id":"57b248d52075e2000113ba3d","study_id":"6197b3f67c2b5cd3b6d9596a","session_id":"619be326b73303995429fcae","condition":"full-information","relevant_dimensions":["antennae","pattern"],"bee_group":{"antennae":"A","wings":"X","pattern":"S","legs":"X"},"action":"harvest","summary":"good-harvest","bonus":0.1400000000000013},{"rt":607,"stimulus":"\n                    <p><b>Action: <em>harvest</em></b></p>\n                    <p>This is the bee that you just saw.</p>\n                    <img src=\"bees-with-color/bee-B2DM.svg\" width=\"200\">\n                    <p><span class=\"greenText\"><b>Successful harvest!</b></span><br>Your pay has increased by $0.02. Your bonus pay is now $0.58.</p>\n            ","response":0,"trial_type":"html-button-response","trial_index":124,"time_elapsed":426283,"internal_node_id":"0.0-4.0-1.56","subject_id":"57b248d52075e2000113ba3d","study_id":"6197b3f67c2b5cd3b6d9596a","session_id":"619be326b73303995429fcae","condition":"full-information","relevant_dimensions":["antennae","pattern"],"bee_group":{"antennae":"A","wings":"X","pattern":"S","legs":"X"},"bonus":0.1400000000000013},{"rt":3692,"stimulus":"bees-with-color/bee-B2SM.svg","response":1,"trial_type":"image-button-response","trial_index":125,"time_elapsed":429978,"internal_node_id":"0.0-4.0-0.57","subject_id":"57b248d52075e2000113ba3d","study_id":"6197b3f67c2b5cd3b6d9596a","session_id":"619be326b73303995429fcae","condition":"full-information","relevant_dimensions":["antennae","pattern"],"bee_group":{"antennae":"A","wings":"X","pattern":"S","legs":"X"},"action":"avoid","summary":"bad-avoid","bonus":0.1400000000000013},{"rt":4889,"stimulus":"\n                    <p><b>Action: <em>avoid</em></b></p>\n                    <p>This is the bee that you just saw.</p>\n                    <img src=\"bees-with-color/bee-B2SM.svg\" width=\"200\">\n                    <p><span class=\"redText\">Bad choice,</span> the bee was friendly.<br>Your bonus pay is unchanged, and remains at $0.58.</p>\n            ","response":0,"trial_type":"html-button-response","trial_index":126,"time_elapsed":434868,"internal_node_id":"0.0-4.0-1.57","subject_id":"57b248d52075e2000113ba3d","study_id":"6197b3f67c2b5cd3b6d9596a","session_id":"619be326b73303995429fcae","condition":"full-information","relevant_dimensions":["antennae","pattern"],"bee_group":{"antennae":"A","wings":"X","pattern":"S","legs":"X"},"bonus":0.1400000000000013},{"rt":1701,"stimulus":"bees-with-color/bee-A2SF.svg","response":0,"trial_type":"image-button-response","trial_index":127,"time_elapsed":436571,"internal_node_id":"0.0-4.0-0.58","subject_id":"57b248d52075e2000113ba3d","study_id":"6197b3f67c2b5cd3b6d9596a","session_id":"619be326b73303995429fcae","condition":"full-information","relevant_dimensions":["antennae","pattern"],"bee_group":{"antennae":"A","wings":"X","pattern":"S","legs":"X"},"action":"harvest","summary":"bad-harvest","bonus":0.1400000000000013},{"rt":1366,"stimulus":"\n                    <p><b>Action: <em>harvest</em></b></p>\n                    <p>This is the bee that you just saw.</p>\n                    <img src=\"bees-with-color/bee-A2SF.svg\" width=\"200\">\n                    <p><span class=\"redText\">Bad choice, the bee was angry.</span><br><b>You have been stung!</b><br>Your pay has been decreased by $0.10. Your bonus pay is now $0.48.</p>\n            ","response":0,"trial_type":"html-button-response","trial_index":128,"time_elapsed":437939,"internal_node_id":"0.0-4.0-1.58","subject_id":"57b248d52075e2000113ba3d","study_id":"6197b3f67c2b5cd3b6d9596a","session_id":"619be326b73303995429fcae","condition":"full-information","relevant_dimensions":["antennae","pattern"],"bee_group":{"antennae":"A","wings":"X","pattern":"S","legs":"X"},"bonus":0.1400000000000013},{"rt":736,"stimulus":"bees-with-color/bee-A2DM.svg","response":0,"trial_type":"image-button-response","trial_index":129,"time_elapsed":438677,"internal_node_id":"0.0-4.0-0.59","subject_id":"57b248d52075e2000113ba3d","study_id":"6197b3f67c2b5cd3b6d9596a","session_id":"619be326b73303995429fcae","condition":"full-information","relevant_dimensions":["antennae","pattern"],"bee_group":{"antennae":"A","wings":"X","pattern":"S","legs":"X"},"action":"harvest","summary":"good-harvest","bonus":0.1400000000000013},{"rt":586,"stimulus":"\n                    <p><b>Action: <em>harvest</em></b></p>\n                    <p>This is the bee that you just saw.</p>\n                    <img src=\"bees-with-color/bee-A2DM.svg\" width=\"200\">\n                    <p><span class=\"greenText\"><b>Successful harvest!</b></span><br>Your pay has increased by $0.02. Your bonus pay is now $0.50.</p>\n            ","response":0,"trial_type":"html-button-response","trial_index":130,"time_elapsed":439265,"internal_node_id":"0.0-4.0-1.59","subject_id":"57b248d52075e2000113ba3d","study_id":"6197b3f67c2b5cd3b6d9596a","session_id":"619be326b73303995429fcae","condition":"full-information","relevant_dimensions":["antennae","pattern"],"bee_group":{"antennae":"A","wings":"X","pattern":"S","legs":"X"},"bonus":0.1400000000000013},{"rt":937,"stimulus":"bees-with-color/bee-A1DF.svg","response":0,"trial_type":"image-button-response","trial_index":131,"time_elapsed":440204,"internal_node_id":"0.0-4.0-0.60","subject_id":"57b248d52075e2000113ba3d","study_id":"6197b3f67c2b5cd3b6d9596a","session_id":"619be326b73303995429fcae","condition":"full-information","relevant_dimensions":["antennae","pattern"],"bee_group":{"antennae":"A","wings":"X","pattern":"S","legs":"X"},"action":"harvest","summary":"good-harvest","bonus":0.1400000000000013},{"rt":460,"stimulus":"\n                    <p><b>Action: <em>harvest</em></b></p>\n                    <p>This is the bee that you just saw.</p>\n                    <img src=\"bees-with-color/bee-A1DF.svg\" width=\"200\">\n                    <p><span class=\"greenText\"><b>Successful harvest!</b></span><br>Your pay has increased by $0.02. Your bonus pay is now $0.52.</p>\n            ","response":0,"trial_type":"html-button-response","trial_index":132,"time_elapsed":440664,"internal_node_id":"0.0-4.0-1.60","subject_id":"57b248d52075e2000113ba3d","study_id":"6197b3f67c2b5cd3b6d9596a","session_id":"619be326b73303995429fcae","condition":"full-information","relevant_dimensions":["antennae","pattern"],"bee_group":{"antennae":"A","wings":"X","pattern":"S","legs":"X"},"bonus":0.1400000000000013},{"rt":924,"stimulus":"bees-with-color/bee-A1SF.svg","response":0,"trial_type":"image-button-response","trial_index":133,"time_elapsed":441589,"internal_node_id":"0.0-4.0-0.61","subject_id":"57b248d52075e2000113ba3d","study_id":"6197b3f67c2b5cd3b6d9596a","session_id":"619be326b73303995429fcae","condition":"full-information","relevant_dimensions":["antennae","pattern"],"bee_group":{"antennae":"A","wings":"X","pattern":"S","legs":"X"},"action":"harvest","summary":"bad-harvest","bonus":0.1400000000000013},{"rt":513,"stimulus":"\n                    <p><b>Action: <em>harvest</em></b></p>\n                    <p>This is the bee that you just saw.</p>\n                    <img src=\"bees-with-color/bee-A1SF.svg\" width=\"200\">\n                    <p><span class=\"redText\">Bad choice, the bee was angry.</span><br><b>You have been stung!</b><br>Your pay has been decreased by $0.10. Your bonus pay is now $0.42.</p>\n            ","response":0,"trial_type":"html-button-response","trial_index":134,"time_elapsed":442106,"internal_node_id":"0.0-4.0-1.61","subject_id":"57b248d52075e2000113ba3d","study_id":"6197b3f67c2b5cd3b6d9596a","session_id":"619be326b73303995429fcae","condition":"full-information","relevant_dimensions":["antennae","pattern"],"bee_group":{"antennae":"A","wings":"X","pattern":"S","legs":"X"},"bonus":0.1400000000000013},{"rt":595,"stimulus":"bees-with-color/bee-B1SF.svg","response":0,"trial_type":"image-button-response","trial_index":135,"time_elapsed":442701,"internal_node_id":"0.0-4.0-0.62","subject_id":"57b248d52075e2000113ba3d","study_id":"6197b3f67c2b5cd3b6d9596a","session_id":"619be326b73303995429fcae","condition":"full-information","relevant_dimensions":["antennae","pattern"],"bee_group":{"antennae":"A","wings":"X","pattern":"S","legs":"X"},"action":"harvest","summary":"good-harvest","bonus":0.1400000000000013},{"rt":488,"stimulus":"\n                    <p><b>Action: <em>harvest</em></b></p>\n                    <p>This is the bee that you just saw.</p>\n                    <img src=\"bees-with-color/bee-B1SF.svg\" width=\"200\">\n                    <p><span class=\"greenText\"><b>Successful harvest!</b></span><br>Your pay has increased by $0.02. Your bonus pay is now $0.44.</p>\n            ","response":0,"trial_type":"html-button-response","trial_index":136,"time_elapsed":443191,"internal_node_id":"0.0-4.0-1.62","subject_id":"57b248d52075e2000113ba3d","study_id":"6197b3f67c2b5cd3b6d9596a","session_id":"619be326b73303995429fcae","condition":"full-information","relevant_dimensions":["antennae","pattern"],"bee_group":{"antennae":"A","wings":"X","pattern":"S","legs":"X"},"bonus":0.1400000000000013},{"rt":784,"stimulus":"bees-with-color/bee-B2SF.svg","response":0,"trial_type":"image-button-response","trial_index":137,"time_elapsed":443978,"internal_node_id":"0.0-4.0-0.63","subject_id":"57b248d52075e2000113ba3d","study_id":"6197b3f67c2b5cd3b6d9596a","session_id":"619be326b73303995429fcae","condition":"full-information","relevant_dimensions":["antennae","pattern"],"bee_group":{"antennae":"A","wings":"X","pattern":"S","legs":"X"},"action":"harvest","summary":"good-harvest","bonus":0.1400000000000013},{"rt":483,"stimulus":"\n                    <p><b>Action: <em>harvest</em></b></p>\n                    <p>This is the bee that you just saw.</p>\n                    <img src=\"bees-with-color/bee-B2SF.svg\" width=\"200\">\n                    <p><span class=\"greenText\"><b>Successful harvest!</b></span><br>Your pay has increased by $0.02. Your bonus pay is now $0.46.</p>\n            ","response":0,"trial_type":"html-button-response","trial_index":138,"time_elapsed":444462,"internal_node_id":"0.0-4.0-1.63","subject_id":"57b248d52075e2000113ba3d","study_id":"6197b3f67c2b5cd3b6d9596a","session_id":"619be326b73303995429fcae","condition":"full-information","relevant_dimensions":["antennae","pattern"],"bee_group":{"antennae":"A","wings":"X","pattern":"S","legs":"X"},"bonus":0.1400000000000013},{"rt":2987,"stimulus":"You have completed the first part of this experiment.<br><br>You will now begin a shorter second part, in which you will receive no feedback.<br>The same rules regarding bonus pay apply.<br><br>Press any key to begin.","response":"k","trial_type":"html-keyboard-response","trial_index":139,"time_elapsed":447450,"internal_node_id":"0.0-5.0","subject_id":"57b248d52075e2000113ba3d","study_id":"6197b3f67c2b5cd3b6d9596a","session_id":"619be326b73303995429fcae","condition":"full-information","relevant_dimensions":["antennae","pattern"],"bee_group":{"antennae":"A","wings":"X","pattern":"S","legs":"X"},"bonus":0.1400000000000013},{"rt":2846,"stimulus":"bees-with-color/bee-A2DM.svg","response":0,"trial_type":"image-button-response","trial_index":140,"time_elapsed":450298,"internal_node_id":"0.0-6.0-0.0","subject_id":"57b248d52075e2000113ba3d","study_id":"6197b3f67c2b5cd3b6d9596a","session_id":"619be326b73303995429fcae","condition":"full-information","relevant_dimensions":["antennae","pattern"],"bee_group":{"antennae":"A","wings":"X","pattern":"S","legs":"X"},"bonus":0.1400000000000013},{"rt":1049,"stimulus":"bees-with-color/bee-B2SM.svg","response":0,"trial_type":"image-button-response","trial_index":141,"time_elapsed":451349,"internal_node_id":"0.0-6.0-0.1","subject_id":"57b248d52075e2000113ba3d","study_id":"6197b3f67c2b5cd3b6d9596a","session_id":"619be326b73303995429fcae","condition":"full-information","relevant_dimensions":["antennae","pattern"],"bee_group":{"antennae":"A","wings":"X","pattern":"S","legs":"X"},"bonus":0.1400000000000013},{"rt":962,"stimulus":"bees-with-color/bee-A1SF.svg","response":0,"trial_type":"image-button-response","trial_index":142,"time_elapsed":452312,"internal_node_id":"0.0-6.0-0.2","subject_id":"57b248d52075e2000113ba3d","study_id":"6197b3f67c2b5cd3b6d9596a","session_id":"619be326b73303995429fcae","condition":"full-information","relevant_dimensions":["antennae","pattern"],"bee_group":{"antennae":"A","wings":"X","pattern":"S","legs":"X"},"bonus":0.1400000000000013},{"rt":873,"stimulus":"bees-with-color/bee-A2DF.svg","response":0,"trial_type":"image-button-response","trial_index":143,"time_elapsed":453186,"internal_node_id":"0.0-6.0-0.3","subject_id":"57b248d52075e2000113ba3d","study_id":"6197b3f67c2b5cd3b6d9596a","session_id":"619be326b73303995429fcae","condition":"full-information","relevant_dimensions":["antennae","pattern"],"bee_group":{"antennae":"A","wings":"X","pattern":"S","legs":"X"},"bonus":0.1400000000000013},{"rt":399,"stimulus":"bees-with-color/bee-B1SM.svg","response":0,"trial_type":"image-button-response","trial_index":144,"time_elapsed":453588,"internal_node_id":"0.0-6.0-0.4","subject_id":"57b248d52075e2000113ba3d","study_id":"6197b3f67c2b5cd3b6d9596a","session_id":"619be326b73303995429fcae","condition":"full-information","relevant_dimensions":["antennae","pattern"],"bee_group":{"antennae":"A","wings":"X","pattern":"S","legs":"X"},"bonus":0.1400000000000013},{"rt":172,"stimulus":"bees-with-color/bee-B2DF.svg","response":0,"trial_type":"image-button-response","trial_index":145,"time_elapsed":453761,"internal_node_id":"0.0-6.0-0.5","subject_id":"57b248d52075e2000113ba3d","study_id":"6197b3f67c2b5cd3b6d9596a","session_id":"619be326b73303995429fcae","condition":"full-information","relevant_dimensions":["antennae","pattern"],"bee_group":{"antennae":"A","wings":"X","pattern":"S","legs":"X"},"bonus":0.1400000000000013},{"rt":171,"stimulus":"bees-with-color/bee-A1SM.svg","response":0,"trial_type":"image-button-response","trial_index":146,"time_elapsed":453933,"internal_node_id":"0.0-6.0-0.6","subject_id":"57b248d52075e2000113ba3d","study_id":"6197b3f67c2b5cd3b6d9596a","session_id":"619be326b73303995429fcae","condition":"full-information","relevant_dimensions":["antennae","pattern"],"bee_group":{"antennae":"A","wings":"X","pattern":"S","legs":"X"},"bonus":0.1400000000000013},{"rt":175,"stimulus":"bees-with-color/bee-B1DF.svg","response":0,"trial_type":"image-button-response","trial_index":147,"time_elapsed":454111,"internal_node_id":"0.0-6.0-0.7","subject_id":"57b248d52075e2000113ba3d","study_id":"6197b3f67c2b5cd3b6d9596a","session_id":"619be326b73303995429fcae","condition":"full-information","relevant_dimensions":["antennae","pattern"],"bee_group":{"antennae":"A","wings":"X","pattern":"S","legs":"X"},"bonus":0.1400000000000013},{"rt":176,"stimulus":"bees-with-color/bee-B1DM.svg","response":0,"trial_type":"image-button-response","trial_index":148,"time_elapsed":454288,"internal_node_id":"0.0-6.0-0.8","subject_id":"57b248d52075e2000113ba3d","study_id":"6197b3f67c2b5cd3b6d9596a","session_id":"619be326b73303995429fcae","condition":"full-information","relevant_dimensions":["antennae","pattern"],"bee_group":{"antennae":"A","wings":"X","pattern":"S","legs":"X"},"bonus":0.1400000000000013},{"rt":180,"stimulus":"bees-with-color/bee-A2SF.svg","response":0,"trial_type":"image-button-response","trial_index":149,"time_elapsed":454469,"internal_node_id":"0.0-6.0-0.9","subject_id":"57b248d52075e2000113ba3d","study_id":"6197b3f67c2b5cd3b6d9596a","session_id":"619be326b73303995429fcae","condition":"full-information","relevant_dimensions":["antennae","pattern"],"bee_group":{"antennae":"A","wings":"X","pattern":"S","legs":"X"},"bonus":0.1400000000000013},{"rt":173,"stimulus":"bees-with-color/bee-B2DM.svg","response":0,"trial_type":"image-button-response","trial_index":150,"time_elapsed":454644,"internal_node_id":"0.0-6.0-0.10","subject_id":"57b248d52075e2000113ba3d","study_id":"6197b3f67c2b5cd3b6d9596a","session_id":"619be326b73303995429fcae","condition":"full-information","relevant_dimensions":["antennae","pattern"],"bee_group":{"antennae":"A","wings":"X","pattern":"S","legs":"X"},"bonus":0.1400000000000013},{"rt":164,"stimulus":"bees-with-color/bee-B2SF.svg","response":0,"trial_type":"image-button-response","trial_index":151,"time_elapsed":454809,"internal_node_id":"0.0-6.0-0.11","subject_id":"57b248d52075e2000113ba3d","study_id":"6197b3f67c2b5cd3b6d9596a","session_id":"619be326b73303995429fcae","condition":"full-information","relevant_dimensions":["antennae","pattern"],"bee_group":{"antennae":"A","wings":"X","pattern":"S","legs":"X"},"bonus":0.1400000000000013},{"rt":190,"stimulus":"bees-with-color/bee-B1SF.svg","response":0,"trial_type":"image-button-response","trial_index":152,"time_elapsed":455002,"internal_node_id":"0.0-6.0-0.12","subject_id":"57b248d52075e2000113ba3d","study_id":"6197b3f67c2b5cd3b6d9596a","session_id":"619be326b73303995429fcae","condition":"full-information","relevant_dimensions":["antennae","pattern"],"bee_group":{"antennae":"A","wings":"X","pattern":"S","legs":"X"},"bonus":0.1400000000000013},{"rt":168,"stimulus":"bees-with-color/bee-A2SM.svg","response":0,"trial_type":"image-button-response","trial_index":153,"time_elapsed":455171,"internal_node_id":"0.0-6.0-0.13","subject_id":"57b248d52075e2000113ba3d","study_id":"6197b3f67c2b5cd3b6d9596a","session_id":"619be326b73303995429fcae","condition":"full-information","relevant_dimensions":["antennae","pattern"],"bee_group":{"antennae":"A","wings":"X","pattern":"S","legs":"X"},"bonus":0.1400000000000013},{"rt":190,"stimulus":"bees-with-color/bee-A1DM.svg","response":0,"trial_type":"image-button-response","trial_index":154,"time_elapsed":455363,"internal_node_id":"0.0-6.0-0.14","subject_id":"57b248d52075e2000113ba3d","study_id":"6197b3f67c2b5cd3b6d9596a","session_id":"619be326b73303995429fcae","condition":"full-information","relevant_dimensions":["antennae","pattern"],"bee_group":{"antennae":"A","wings":"X","pattern":"S","legs":"X"},"bonus":0.1400000000000013},{"rt":161,"stimulus":"bees-with-color/bee-A1DF.svg","response":0,"trial_type":"image-button-response","trial_index":155,"time_elapsed":455526,"internal_node_id":"0.0-6.0-0.15","subject_id":"57b248d52075e2000113ba3d","study_id":"6197b3f67c2b5cd3b6d9596a","session_id":"619be326b73303995429fcae","condition":"full-information","relevant_dimensions":["antennae","pattern"],"bee_group":{"antennae":"A","wings":"X","pattern":"S","legs":"X"},"bonus":0.1400000000000013},{"rt":182,"stimulus":"bees-with-color/bee-A2DM.svg","response":0,"trial_type":"image-button-response","trial_index":156,"time_elapsed":455709,"internal_node_id":"0.0-6.0-0.16","subject_id":"57b248d52075e2000113ba3d","study_id":"6197b3f67c2b5cd3b6d9596a","session_id":"619be326b73303995429fcae","condition":"full-information","relevant_dimensions":["antennae","pattern"],"bee_group":{"antennae":"A","wings":"X","pattern":"S","legs":"X"},"bonus":0.1400000000000013},{"rt":183,"stimulus":"bees-with-color/bee-B1DM.svg","response":0,"trial_type":"image-button-response","trial_index":157,"time_elapsed":455895,"internal_node_id":"0.0-6.0-0.17","subject_id":"57b248d52075e2000113ba3d","study_id":"6197b3f67c2b5cd3b6d9596a","session_id":"619be326b73303995429fcae","condition":"full-information","relevant_dimensions":["antennae","pattern"],"bee_group":{"antennae":"A","wings":"X","pattern":"S","legs":"X"},"bonus":0.1400000000000013},{"rt":189,"stimulus":"bees-with-color/bee-A2SM.svg","response":0,"trial_type":"image-button-response","trial_index":158,"time_elapsed":456086,"internal_node_id":"0.0-6.0-0.18","