[{"success":true,"trial_type":"fullscreen","trial_index":0,"time_elapsed":3766,"internal_node_id":"0.0-0.0","subject_id":"5f9185f7dc47ff08f842398f","study_id":"6197b3f67c2b5cd3b6d9596a","session_id":"6197b9ed902ffd341c9f8d86","condition":"full-information","relevant_dimensions":["antennae","legs"],"bee_group":{"antennae":"B","wings":"X","pattern":"X","legs":"F"},"bonus":1.180000000000001},{"success":true,"timeout":false,"failed_images":[],"failed_audio":[],"failed_video":[],"trial_type":"preload","trial_index":1,"time_elapsed":6120,"internal_node_id":"0.0-1.0","subject_id":"5f9185f7dc47ff08f842398f","study_id":"6197b3f67c2b5cd3b6d9596a","session_id":"6197b9ed902ffd341c9f8d86","condition":"full-information","relevant_dimensions":["antennae","legs"],"bee_group":{"antennae":"B","wings":"X","pattern":"X","legs":"F"},"bonus":1.180000000000001},{"rt":2016.8999999761581,"stimulus":"Welcome! Press any key to begin.","response":" ","trial_type":"html-keyboard-response","trial_index":2,"time_elapsed":8139,"internal_node_id":"0.0-2.0","subject_id":"5f9185f7dc47ff08f842398f","study_id":"6197b3f67c2b5cd3b6d9596a","session_id":"6197b9ed902ffd341c9f8d86","condition":"full-information","relevant_dimensions":["antennae","legs"],"bee_group":{"antennae":"B","wings":"X","pattern":"X","legs":"F"},"bonus":1.180000000000001},{"view_history":[{"page_index":0,"viewing_time":2743.2999999523163},{"page_index":1,"viewing_time":27896.300000071526},{"page_index":2,"viewing_time":9117.899999976158},{"page_index":3,"viewing_time":10184.100000023842},{"page_index":4,"viewing_time":7290.099999904633},{"page_index":5,"viewing_time":6691.900000095367},{"page_index":6,"viewing_time":7846},{"page_index":7,"viewing_time":7845.599999904633},{"page_index":8,"viewing_time":2151.8000000715256},{"page_index":9,"viewing_time":3666.600000023842},{"page_index":10,"viewing_time":2695.899999976158},{"page_index":11,"viewing_time":3146.100000023842},{"page_index":10,"viewing_time":1155.8999999761581},{"page_index":9,"viewing_time":428.1999999284744},{"page_index":8,"viewing_time":375.7000000476837},{"page_index":7,"viewing_time":488.10000002384186},{"page_index":6,"viewing_time":4026.100000023842},{"page_index":7,"viewing_time":2207.6999999284744},{"page_index":8,"viewing_time":2576.399999976158},{"page_index":9,"viewing_time":2399.7000000476837},{"page_index":10,"viewing_time":1174.2999999523163},{"page_index":11,"viewing_time":11461.5},{"page_index":12,"viewing_time":12342.300000071526},{"page_index":13,"viewing_time":1505.7999999523163},{"page_index":14,"viewing_time":2239.8000000715256}],"rt":133657.60000002384,"trial_type":"instructions","trial_index":3,"time_elapsed":141798,"internal_node_id":"0.0-3.0-0.0","subject_id":"5f9185f7dc47ff08f842398f","study_id":"6197b3f67c2b5cd3b6d9596a","session_id":"6197b9ed902ffd341c9f8d86","condition":"full-information","relevant_dimensions":["antennae","legs"],"bee_group":{"antennae":"B","wings":"X","pattern":"X","legs":"F"},"bonus":1.180000000000001},{"rt":24177.600000023842,"response":{"Q0":["Stripes or spots on body","Single or double wings"]},"question_order":[0],"trial_type":"survey-multi-select","trial_index":4,"time_elapsed":165981,"internal_node_id":"0.0-3.0-1.0","subject_id":"5f9185f7dc47ff08f842398f","study_id":"6197b3f67c2b5cd3b6d9596a","session_id":"6197b9ed902ffd341c9f8d86","condition":"full-information","relevant_dimensions":["antennae","legs"],"bee_group":{"antennae":"B","wings":"X","pattern":"X","legs":"F"},"correct":false,"bonus":1.180000000000001},{"rt":28820.299999952316,"response":{"Q1":"Yes.","Q2":"Based on the four features of the bee.","Q3":"You learn if it was friendly or dangerous and alter your bonus."},"question_order":[0,1,2],"trial_type":"survey-multi-choice","trial_index":5,"time_elapsed":194807,"internal_node_id":"0.0-3.0-2.0","subject_id":"5f9185f7dc47ff08f842398f","study_id":"6197b3f67c2b5cd3b6d9596a","session_id":"6197b9ed902ffd341c9f8d86","condition":"full-information","relevant_dimensions":["antennae","legs"],"bee_group":{"antennae":"B","wings":"X","pattern":"X","legs":"F"},"correct":false,"bonus":1.180000000000001},{"rt":3744.600000023842,"stimulus":"<p>You did not answer all comprehension questions correctly.<br>Press <b>continue</b> to review the instructions again.</p>","response":0,"trial_type":"html-button-response","trial_index":6,"time_elapsed":198557,"internal_node_id":"0.0-3.0-3.0","subject_id":"5f9185f7dc47ff08f842398f","study_id":"6197b3f67c2b5cd3b6d9596a","session_id":"6197b9ed902ffd341c9f8d86","condition":"full-information","relevant_dimensions":["antennae","legs"],"bee_group":{"antennae":"B","wings":"X","pattern":"X","legs":"F"},"bonus":1.180000000000001},{"view_history":[{"page_index":0,"viewing_time":826.3000000715256},{"page_index":1,"viewing_time":5193.899999976158},{"page_index":2,"viewing_time":1056.1000000238419},{"page_index":3,"viewing_time":1143.8999999761581},{"page_index":4,"viewing_time":1076},{"page_index":5,"viewing_time":1620.3999999761581},{"page_index":6,"viewing_time":5137.600000023842},{"page_index":7,"viewing_time":1788},{"page_index":8,"viewing_time":2111.899999976158},{"page_index":9,"viewing_time":950.1000000238419},{"page_index":10,"viewing_time":1735.6000000238419},{"page_index":11,"viewing_time":5171.899999976158},{"page_index":12,"viewing_time":2094.5},{"page_index":13,"viewing_time":991.7999999523163},{"page_index":14,"viewing_time":848.1000000238419}],"rt":31746.600000023842,"trial_type":"instructions","trial_index":7,"time_elapsed":230304,"internal_node_id":"0.0-3.0-4.0-0.0","subject_id":"5f9185f7dc47ff08f842398f","study_id":"6197b3f67c2b5cd3b6d9596a","session_id":"6197b9ed902ffd341c9f8d86","condition":"full-information","relevant_dimensions":["antennae","legs"],"bee_group":{"antennae":"B","wings":"X","pattern":"X","legs":"F"},"bonus":1.180000000000001},{"rt":7869.599999904633,"response":{"Q0":["Two or six legs","Stripes or spots on body","Single or double wings","Antennae or no antennae"]},"question_order":[0],"trial_type":"survey-multi-select","trial_index":8,"time_elapsed":238179,"internal_node_id":"0.0-3.0-4.0-1.0","subject_id":"5f9185f7dc47ff08f842398f","study_id":"6197b3f67c2b5cd3b6d9596a","session_id":"6197b9ed902ffd341c9f8d86","condition":"full-information","relevant_dimensions":["antennae","legs"],"bee_group":{"antennae":"B","wings":"X","pattern":"X","legs":"F"},"correct":true,"bonus":1.180000000000001},{"rt":32007.100000023842,"response":{"Q1":"No.","Q2":"Based on the four features of the bee.","Q3":"You learn if it was friendly or dangerous, but do not alter your bonus."},"question_order":[0,1,2],"trial_type":"survey-multi-choice","trial_index":9,"time_elapsed":270190,"internal_node_id":"0.0-3.0-4.0-2.0","subject_id":"5f9185f7dc47ff08f842398f","study_id":"6197b3f67c2b5cd3b6d9596a","session_id":"6197b9ed902ffd341c9f8d86","condition":"full-information","relevant_dimensions":["antennae","legs"],"bee_group":{"antennae":"B","wings":"X","pattern":"X","legs":"F"},"correct":true,"bonus":1.180000000000001},{"rt":3791.1999999284744,"stimulus":"<p>Congrats, you got everything right<br>When you're ready, click the button below to continue to the experiment.</p>","response":0,"trial_type":"html-button-response","trial_index":10,"time_elapsed":273986,"internal_node_id":"0.0-3.0-4.0-3.0","subject_id":"5f9185f7dc47ff08f842398f","study_id":"6197b3f67c2b5cd3b6d9596a","session_id":"6197b9ed902ffd341c9f8d86","condition":"full-information","relevant_dimensions":["antennae","legs"],"bee_group":{"antennae":"B","wings":"X","pattern":"X","legs":"F"},"bonus":1.180000000000001},{"rt":4944.100000023842,"stimulus":"bees-with-color/bee-A2SF.svg","response":0,"trial_type":"image-button-response","trial_index":11,"time_elapsed":278932,"internal_node_id":"0.0-4.0-0.0","subject_id":"5f9185f7dc47ff08f842398f","study_id":"6197b3f67c2b5cd3b6d9596a","session_id":"6197b9ed902ffd341c9f8d86","condition":"full-information","relevant_dimensions":["antennae","legs"],"bee_group":{"antennae":"B","wings":"X","pattern":"X","legs":"F"},"action":"harvest","summary":"good-harvest","bonus":1.180000000000001},{"rt":2884.600000023842,"stimulus":"\n                    <p><b>Action: <em>harvest</em></b></p>\n                    <p>This is the bee that you just saw.</p>\n                    <img src=\"bees-with-color/bee-A2SF.svg\" width=\"200\">\n                    <p><span class=\"greenText\"><b>Successful harvest!</b></span><br>Your pay has increased by $0.02. Your bonus pay is now $0.56.</p>\n            ","response":0,"trial_type":"html-button-response","trial_index":12,"time_elapsed":281820,"internal_node_id":"0.0-4.0-1.0","subject_id":"5f9185f7dc47ff08f842398f","study_id":"6197b3f67c2b5cd3b6d9596a","session_id":"6197b9ed902ffd341c9f8d86","condition":"full-information","relevant_dimensions":["antennae","legs"],"bee_group":{"antennae":"B","wings":"X","pattern":"X","legs":"F"},"bonus":1.180000000000001},{"rt":1586.2000000476837,"stimulus":"bees-with-color/bee-A1DM.svg","response":1,"trial_type":"image-button-response","trial_index":13,"time_elapsed":283408,"internal_node_id":"0.0-4.0-0.1","subject_id":"5f9185f7dc47ff08f842398f","study_id":"6197b3f67c2b5cd3b6d9596a","session_id":"6197b9ed902ffd341c9f8d86","condition":"full-information","relevant_dimensions":["antennae","legs"],"bee_group":{"antennae":"B","wings":"X","pattern":"X","legs":"F"},"action":"avoid","summary":"bad-avoid","bonus":1.180000000000001},{"rt":1620.1000000238419,"stimulus":"\n                    <p><b>Action: <em>avoid</em></b></p>\n                    <p>This is the bee that you just saw.</p>\n                    <img src=\"bees-with-color/bee-A1DM.svg\" width=\"200\">\n                    <p><span class=\"redText\">Bad choice,</span> the bee was friendly.<br>Your bonus pay is unchanged, and remains at $0.56.</p>\n            ","response":0,"trial_type":"html-button-response","trial_index":14,"time_elapsed":285030,"internal_node_id":"0.0-4.0-1.1","subject_id":"5f9185f7dc47ff08f842398f","study_id":"6197b3f67c2b5cd3b6d9596a","session_id":"6197b9ed902ffd341c9f8d86","condition":"full-information","relevant_dimensions":["antennae","legs"],"bee_group":{"antennae":"B","wings":"X","pattern":"X","legs":"F"},"bonus":1.180000000000001},{"rt":1226.6000000238419,"stimulus":"bees-with-color/bee-A1SF.svg","response":0,"trial_type":"image-button-response","trial_index":15,"time_elapsed":286258,"internal_node_id":"0.0-4.0-0.2","subject_id":"5f9185f7dc47ff08f842398f","study_id":"6197b3f67c2b5cd3b6d9596a","session_id":"6197b9ed902ffd341c9f8d86","condition":"full-information","relevant_dimensions":["antennae","legs"],"bee_group":{"antennae":"B","wings":"X","pattern":"X","legs":"F"},"action":"harvest","summary":"good-harvest","bonus":1.180000000000001},{"rt":1422,"stimulus":"\n                    <p><b>Action: <em>harvest</em></b></p>\n                    <p>This is the bee that you just saw.</p>\n                    <img src=\"bees-with-color/bee-A1SF.svg\" width=\"200\">\n                    <p><span class=\"greenText\"><b>Successful harvest!</b></span><br>Your pay has increased by $0.02. Your bonus pay is now $0.58.</p>\n            ","response":0,"trial_type":"html-button-response","trial_index":16,"time_elapsed":287682,"internal_node_id":"0.0-4.0-1.2","subject_id":"5f9185f7dc47ff08f842398f","study_id":"6197b3f67c2b5cd3b6d9596a","session_id":"6197b9ed902ffd341c9f8d86","condition":"full-information","relevant_dimensions":["antennae","legs"],"bee_group":{"antennae":"B","wings":"X","pattern":"X","legs":"F"},"bonus":1.180000000000001},{"rt":1026.5,"stimulus":"bees-with-color/bee-A1SM.svg","response":0,"trial_type":"image-button-response","trial_index":17,"time_elapsed":288710,"internal_node_id":"0.0-4.0-0.3","subject_id":"5f9185f7dc47ff08f842398f","study_id":"6197b3f67c2b5cd3b6d9596a","session_id":"6197b9ed902ffd341c9f8d86","condition":"full-information","relevant_dimensions":["antennae","legs"],"bee_group":{"antennae":"B","wings":"X","pattern":"X","legs":"F"},"action":"harvest","summary":"good-harvest","bonus":1.180000000000001},{"rt":1198.2999999523163,"stimulus":"\n                    <p><b>Action: <em>harvest</em></b></p>\n                    <p>This is the bee that you just saw.</p>\n                    <img src=\"bees-with-color/bee-A1SM.svg\" width=\"200\">\n                    <p><span class=\"greenText\"><b>Successful harvest!</b></span><br>Your pay has increased by $0.02. Your bonus pay is now $0.60.</p>\n            ","response":0,"trial_type":"html-button-response","trial_index":18,"time_elapsed":289910,"internal_node_id":"0.0-4.0-1.3","subject_id":"5f9185f7dc47ff08f842398f","study_id":"6197b3f67c2b5cd3b6d9596a","session_id":"6197b9ed902ffd341c9f8d86","condition":"full-information","relevant_dimensions":["antennae","legs"],"bee_group":{"antennae":"B","wings":"X","pattern":"X","legs":"F"},"bonus":1.180000000000001},{"rt":1038.2000000476837,"stimulus":"bees-with-color/bee-B1SM.svg","response":0,"trial_type":"image-button-response","trial_index":19,"time_elapsed":290950,"internal_node_id":"0.0-4.0-0.4","subject_id":"5f9185f7dc47ff08f842398f","study_id":"6197b3f67c2b5cd3b6d9596a","session_id":"6197b9ed902ffd341c9f8d86","condition":"full-information","relevant_dimensions":["antennae","legs"],"bee_group":{"antennae":"B","wings":"X","pattern":"X","legs":"F"},"action":"harvest","summary":"good-harvest","bonus":1.180000000000001},{"rt":782.5,"stimulus":"\n                    <p><b>Action: <em>harvest</em></b></p>\n                    <p>This is the bee that you just saw.</p>\n                    <img src=\"bees-with-color/bee-B1SM.svg\" width=\"200\">\n                    <p><span class=\"greenText\"><b>Successful harvest!</b></span><br>Your pay has increased by $0.02. Your bonus pay is now $0.62.</p>\n            ","response":0,"trial_type":"html-button-response","trial_index":20,"time_elapsed":291734,"internal_node_id":"0.0-4.0-1.4","subject_id":"5f9185f7dc47ff08f842398f","study_id":"6197b3f67c2b5cd3b6d9596a","session_id":"6197b9ed902ffd341c9f8d86","condition":"full-information","relevant_dimensions":["antennae","legs"],"bee_group":{"antennae":"B","wings":"X","pattern":"X","legs":"F"},"bonus":1.180000000000001},{"rt":5531.900000095367,"stimulus":"bees-with-color/bee-A2DM.svg","response":0,"trial_type":"image-button-response","trial_index":21,"time_elapsed":297268,"internal_node_id":"0.0-4.0-0.5","subject_id":"5f9185f7dc47ff08f842398f","study_id":"6197b3f67c2b5cd3b6d9596a","session_id":"6197b9ed902ffd341c9f8d86","condition":"full-information","relevant_dimensions":["antennae","legs"],"bee_group":{"antennae":"B","wings":"X","pattern":"X","legs":"F"},"action":"harvest","summary":"good-harvest","bonus":1.180000000000001},{"rt":1550.8999999761581,"stimulus":"\n                    <p><b>Action: <em>harvest</em></b></p>\n                    <p>This is the bee that you just saw.</p>\n                    <img src=\"bees-with-color/bee-A2DM.svg\" width=\"200\">\n                    <p><span class=\"greenText\"><b>Successful harvest!</b></span><br>Your pay has increased by $0.02. Your bonus pay is now $0.64.</p>\n            ","response":0,"trial_type":"html-button-response","trial_index":22,"time_elapsed":298820,"internal_node_id":"0.0-4.0-1.5","subject_id":"5f9185f7dc47ff08f842398f","study_id":"6197b3f67c2b5cd3b6d9596a","session_id":"6197b9ed902ffd341c9f8d86","condition":"full-information","relevant_dimensions":["antennae","legs"],"bee_group":{"antennae":"B","wings":"X","pattern":"X","legs":"F"},"bonus":1.180000000000001},{"rt":4812.399999976158,"stimulus":"bees-with-color/bee-B1DF.svg","response":0,"trial_type":"image-button-response","trial_index":23,"time_elapsed":303634,"internal_node_id":"0.0-4.0-0.6","subject_id":"5f9185f7dc47ff08f842398f","study_id":"6197b3f67c2b5cd3b6d9596a","session_id":"6197b9ed902ffd341c9f8d86","condition":"full-information","relevant_dimensions":["antennae","legs"],"bee_group":{"antennae":"B","wings":"X","pattern":"X","legs":"F"},"action":"harvest","summary":"bad-harvest","bonus":1.180000000000001},{"rt":2426.399999976158,"stimulus":"\n                    <p><b>Action: <em>harvest</em></b></p>\n                    <p>This is the bee that you just saw.</p>\n                    <img src=\"bees-with-color/bee-B1DF.svg\" width=\"200\">\n                    <p><span class=\"redText\">Bad choice, the bee was angry.</span><br><b>You have been stung!</b><br>Your pay has been decreased by $0.10. Your bonus pay is now $0.54.</p>\n            ","response":0,"trial_type":"html-button-response","trial_index":24,"time_elapsed":306062,"internal_node_id":"0.0-4.0-1.6","subject_id":"5f9185f7dc47ff08f842398f","study_id":"6197b3f67c2b5cd3b6d9596a","session_id":"6197b9ed902ffd341c9f8d86","condition":"full-information","relevant_dimensions":["antennae","legs"],"bee_group":{"antennae":"B","wings":"X","pattern":"X","legs":"F"},"bonus":1.180000000000001},{"rt":981.6999999284744,"stimulus":"bees-with-color/bee-B2SF.svg","response":0,"trial_type":"image-button-response","trial_index":25,"time_elapsed":307046,"internal_node_id":"0.0-4.0-0.7","subject_id":"5f9185f7dc47ff08f842398f","study_id":"6197b3f67c2b5cd3b6d9596a","session_id":"6197b9ed902ffd341c9f8d86","condition":"full-information","relevant_dimensions":["antennae","legs"],"bee_group":{"antennae":"B","wings":"X","pattern":"X","legs":"F"},"action":"harvest","summary":"bad-harvest","bonus":1.180000000000001},{"rt":1594.2999999523163,"stimulus":"\n                    <p><b>Action: <em>harvest</em></b></p>\n                    <p>This is the bee that you just saw.</p>\n                    <img src=\"bees-with-color/bee-B2SF.svg\" width=\"200\">\n                    <p><span class=\"redText\">Bad choice, the bee was angry.</span><br><b>You have been stung!</b><br>Your pay has been decreased by $0.10. Your bonus pay is now $0.44.</p>\n            ","response":0,"trial_type":"html-button-response","trial_index":26,"time_elapsed":308642,"internal_node_id":"0.0-4.0-1.7","subject_id":"5f9185f7dc47ff08f842398f","study_id":"6197b3f67c2b5cd3b6d9596a","session_id":"6197b9ed902ffd341c9f8d86","condition":"full-information","relevant_dimensions":["antennae","legs"],"bee_group":{"antennae":"B","wings":"X","pattern":"X","legs":"F"},"bonus":1.180000000000001},{"rt":1035.6999999284744,"stimulus":"bees-with-color/bee-B2DM.svg","response":0,"trial_type":"image-button-response","trial_index":27,"time_elapsed":309680,"internal_node_id":"0.0-4.0-0.8","subject_id":"5f9185f7dc47ff08f842398f","study_id":"6197b3f67c2b5cd3b6d9596a","session_id":"6197b9ed902ffd341c9f8d86","condition":"full-information","relevant_dimensions":["antennae","legs"],"bee_group":{"antennae":"B","wings":"X","pattern":"X","legs":"F"},"action":"harvest","summary":"good-harvest","bonus":1.180000000000001},{"rt":1185.6000000238419,"stimulus":"\n                    <p><b>Action: <em>harvest</em></b></p>\n                    <p>This is the bee that you just saw.</p>\n                    <img src=\"bees-with-color/bee-B2DM.svg\" width=\"200\">\n                    <p><span class=\"greenText\"><b>Successful harvest!</b></span><br>Your pay has increased by $0.02. Your bonus pay is now $0.46.</p>\n            ","response":0,"trial_type":"html-button-response","trial_index":28,"time_elapsed":310868,"internal_node_id":"0.0-4.0-1.8","subject_id":"5f9185f7dc47ff08f842398f","study_id":"6197b3f67c2b5cd3b6d9596a","session_id":"6197b9ed902ffd341c9f8d86","condition":"full-information","relevant_dimensions":["antennae","legs"],"bee_group":{"antennae":"B","wings":"X","pattern":"X","legs":"F"},"bonus":1.180000000000001},{"rt":1214,"stimulus":"bees-with-color/bee-B2DF.svg","response":0,"trial_type":"image-button-response","trial_index":29,"time_elapsed":312084,"internal_node_id":"0.0-4.0-0.9","subject_id":"5f9185f7dc47ff08f842398f","study_id":"6197b3f67c2b5cd3b6d9596a","session_id":"6197b9ed902ffd341c9f8d86","condition":"full-information","relevant_dimensions":["antennae","legs"],"bee_group":{"antennae":"B","wings":"X","pattern":"X","legs":"F"},"action":"harvest","summary":"bad-harvest","bonus":1.180000000000001},{"rt":838.2000000476837,"stimulus":"\n                    <p><b>Action: <em>harvest</em></b></p>\n                    <p>This is the bee that you just saw.</p>\n                    <img src=\"bees-with-color/bee-B2DF.svg\" width=\"200\">\n                    <p><span class=\"redText\">Bad choice, the bee was angry.</span><br><b>You have been stung!</b><br>Your pay has been decreased by $0.10. Your bonus pay is now $0.36.</p>\n            ","response":0,"trial_type":"html-button-response","trial_index":30,"time_elapsed":312924,"internal_node_id":"0.0-4.0-1.9","subject_id":"5f9185f7dc47ff08f842398f","study_id":"6197b3f67c2b5cd3b6d9596a","session_id":"6197b9ed902ffd341c9f8d86","condition":"full-information","relevant_dimensions":["antennae","legs"],"bee_group":{"antennae":"B","wings":"X","pattern":"X","legs":"F"},"bonus":1.180000000000001},{"rt":3874.399999976158,"stimulus":"bees-with-color/bee-A2DF.svg","response":1,"trial_type":"image-button-response","trial_index":31,"time_elapsed":316800,"internal_node_id":"0.0-4.0-0.10","subject_id":"5f9185f7dc47ff08f842398f","study_id":"6197b3f67c2b5cd3b6d9596a","session_id":"6197b9ed902ffd341c9f8d86","condition":"full-information","relevant_dimensions":["antennae","legs"],"bee_group":{"antennae":"B","wings":"X","pattern":"X","legs":"F"},"action":"avoid","summary":"bad-avoid","bonus":1.180000000000001},{"rt":835.8999999761581,"stimulus":"\n                    <p><b>Action: <em>avoid</em></b></p>\n                    <p>This is the bee that you just saw.</p>\n                    <img src=\"bees-with-color/bee-A2DF.svg\" width=\"200\">\n                    <p><span class=\"redText\">Bad choice,</span> the bee was friendly.<br>Your bonus pay is unchanged, and remains at $0.36.</p>\n            ","response":0,"trial_type":"html-button-response","trial_index":32,"time_elapsed":317638,"internal_node_id":"0.0-4.0-1.10","subject_id":"5f9185f7dc47ff08f842398f","study_id":"6197b3f67c2b5cd3b6d9596a","session_id":"6197b9ed902ffd341c9f8d86","condition":"full-information","relevant_dimensions":["antennae","legs"],"bee_group":{"antennae":"B","wings":"X","pattern":"X","legs":"F"},"bonus":1.180000000000001},{"rt":1246.4000000953674,"stimulus":"bees-with-color/bee-B1DM.svg","response":0,"trial_type":"image-button-response","trial_index":33,"time_elapsed":318886,"internal_node_id":"0.0-4.0-0.11","subject_id":"5f9185f7dc47ff08f842398f","study_id":"6197b3f67c2b5cd3b6d9596a","session_id":"6197b9ed902ffd341c9f8d86","condition":"full-information","relevant_dimensions":["antennae","legs"],"bee_group":{"antennae":"B","wings":"X","pattern":"X","legs":"F"},"action":"harvest","summary":"good-harvest","bonus":1.180000000000001},{"rt":674.7999999523163,"stimulus":"\n                    <p><b>Action: <em>harvest</em></b></p>\n                    <p>This is the bee that you just saw.</p>\n                    <img src=\"bees-with-color/bee-B1DM.svg\" width=\"200\">\n                    <p><span class=\"greenText\"><b>Successful harvest!</b></span><br>Your pay has increased by $0.02. Your bonus pay is now $0.38.</p>\n            ","response":0,"trial_type":"html-button-response","trial_index":34,"time_elapsed":319562,"internal_node_id":"0.0-4.0-1.11","subject_id":"5f9185f7dc47ff08f842398f","study_id":"6197b3f67c2b5cd3b6d9596a","session_id":"6197b9ed902ffd341c9f8d86","condition":"full-information","relevant_dimensions":["antennae","legs"],"bee_group":{"antennae":"B","wings":"X","pattern":"X","legs":"F"},"bonus":1.180000000000001},{"rt":1246.7999999523163,"stimulus":"bees-with-color/bee-B1SF.svg","response":0,"trial_type":"image-button-response","trial_index":35,"time_elapsed":320810,"internal_node_id":"0.0-4.0-0.12","subject_id":"5f9185f7dc47ff08f842398f","study_id":"6197b3f67c2b5cd3b6d9596a","session_id":"6197b9ed902ffd341c9f8d86","condition":"full-information","relevant_dimensions":["antennae","legs"],"bee_group":{"antennae":"B","wings":"X","pattern":"X","legs":"F"},"action":"harvest","summary":"bad-harvest","bonus":1.180000000000001},{"rt":1242.2000000476837,"stimulus":"\n                    <p><b>Action: <em>harvest</em></b></p>\n                    <p>This is the bee that you just saw.</p>\n                    <img src=\"bees-with-color/bee-B1SF.svg\" width=\"200\">\n                    <p><span class=\"redText\">Bad choice, the bee was angry.</span><br><b>You have been stung!</b><br>Your pay has been decreased by $0.10. Your bonus pay is now $0.28.</p>\n            ","response":0,"trial_type":"html-button-response","trial_index":36,"time_elapsed":322054,"internal_node_id":"0.0-4.0-1.12","subject_id":"5f9185f7dc47ff08f842398f","study_id":"6197b3f67c2b5cd3b6d9596a","session_id":"6197b9ed902ffd341c9f8d86","condition":"full-information","relevant_dimensions":["antennae","legs"],"bee_group":{"antennae":"B","wings":"X","pattern":"X","legs":"F"},"bonus":1.180000000000001},{"rt":1963.2999999523163,"stimulus":"bees-with-color/bee-A2SM.svg","response":0,"trial_type":"image-button-response","trial_index":37,"time_elapsed":324018,"internal_node_id":"0.0-4.0-0.13","subject_id":"5f9185f7dc47ff08f842398f","study_id":"6197b3f67c2b5cd3b6d9596a","session_id":"6197b9ed902ffd341c9f8d86","condition":"full-information","relevant_dimensions":["antennae","legs"],"bee_group":{"antennae":"B","wings":"X","pattern":"X","legs":"F"},"action":"harvest","summary":"good-harvest","bonus":1.180000000000001},{"rt":734.6000000238419,"stimulus":"\n                    <p><b>Action: <em>harvest</em></b></p>\n                    <p>This is the bee that you just saw.</p>\n                    <img src=\"bees-with-color/bee-A2SM.svg\" width=\"200\">\n                    <p><span class=\"greenText\"><b>Successful harvest!</b></span><br>Your pay has increased by $0.02. Your bonus pay is now $0.30.</p>\n            ","response":0,"trial_type":"html-button-response","trial_index":38,"time_elapsed":324754,"internal_node_id":"0.0-4.0-1.13","subject_id":"5f9185f7dc47ff08f842398f","study_id":"6197b3f67c2b5cd3b6d9596a","session_id":"6197b9ed902ffd341c9f8d86","condition":"full-information","relevant_dimensions":["antennae","legs"],"bee_group":{"antennae":"B","wings":"X","pattern":"X","legs":"F"},"bonus":1.180000000000001},{"rt":972.2999999523163,"stimulus":"bees-with-color/bee-B2SM.svg","response":0,"trial_type":"image-button-response","trial_index":39,"time_elapsed":325728,"internal_node_id":"0.0-4.0-0.14","subject_id":"5f9185f7dc47ff08f842398f","study_id":"6197b3f67c2b5cd3b6d9596a","session_id":"6197b9ed902ffd341c9f8d86","condition":"full-information","relevant_dimensions":["antennae","legs"],"bee_group":{"antennae":"B","wings":"X","pattern":"X","legs":"F"},"action":"harvest","summary":"good-harvest","bonus":1.180000000000001},{"rt":706.1000000238419,"stimulus":"\n                    <p><b>Action: <em>harvest</em></b></p>\n                    <p>This is the bee that you just saw.</p>\n                    <img src=\"bees-with-color/bee-B2SM.svg\" width=\"200\">\n                    <p><span class=\"greenText\"><b>Successful harvest!</b></span><br>Your pay has increased by $0.02. Your bonus pay is now $0.32.</p>\n            ","response":0,"trial_type":"html-button-response","trial_index":40,"time_elapsed":326436,"internal_node_id":"0.0-4.0-1.14","subject_id":"5f9185f7dc47ff08f842398f","study_id":"6197b3f67c2b5cd3b6d9596a","session_id":"6197b9ed902ffd341c9f8d86","condition":"full-information","relevant_dimensions":["antennae","legs"],"bee_group":{"antennae":"B","wings":"X","pattern":"X","legs":"F"},"bonus":1.180000000000001},{"rt":1542.8999999761581,"stimulus":"bees-with-color/bee-A1DF.svg","response":1,"trial_type":"image-button-response","trial_index":41,"time_elapsed":327980,"internal_node_id":"0.0-4.0-0.15","subject_id":"5f9185f7dc47ff08f842398f","study_id":"6197b3f67c2b5cd3b6d9596a","session_id":"6197b9ed902ffd341c9f8d86","condition":"full-information","relevant_dimensions":["antennae","legs"],"bee_group":{"antennae":"B","wings":"X","pattern":"X","legs":"F"},"action":"avoid","summary":"bad-avoid","bonus":1.180000000000001},{"rt":1122.5,"stimulus":"\n                    <p><b>Action: <em>avoid</em></b></p>\n                    <p>This is the bee that you just saw.</p>\n                    <img src=\"bees-with-color/bee-A1DF.svg\" width=\"200\">\n                    <p><span class=\"redText\">Bad choice,</span> the bee was friendly.<br>Your bonus pay is unchanged, and remains at $0.32.</p>\n            ","response":0,"trial_type":"html-button-response","trial_index":42,"time_elapsed":329104,"internal_node_id":"0.0-4.0-1.15","subject_id":"5f9185f7dc47ff08f842398f","study_id":"6197b3f67c2b5cd3b6d9596a","session_id":"6197b9ed902ffd341c9f8d86","condition":"full-information","relevant_dimensions":["antennae","legs"],"bee_group":{"antennae":"B","wings":"X","pattern":"X","legs":"F"},"bonus":1.180000000000001},{"rt":1150.6000000238419,"stimulus":"bees-with-color/bee-A1DM.svg","response":0,"trial_type":"image-button-response","trial_index":43,"time_elapsed":330256,"internal_node_id":"0.0-4.0-0.16","subject_id":"5f9185f7dc47ff08f842398f","study_id":"6197b3f67c2b5cd3b6d9596a","session_id":"6197b9ed902ffd341c9f8d86","condition":"full-information","relevant_dimensions":["antennae","legs"],"bee_group":{"antennae":"B","wings":"X","pattern":"X","legs":"F"},"action":"harvest","summary":"good-harvest","bonus":1.180000000000001},{"rt":582.5,"stimulus":"\n                    <p><b>Action: <em>harvest</em></b></p>\n                    <p>This is the bee that you just saw.</p>\n                    <img src=\"bees-with-color/bee-A1DM.svg\" width=\"200\">\n                    <p><span class=\"greenText\"><b>Successful harvest!</b></span><br>Your pay has increased by $0.02. Your bonus pay is now $0.34.</p>\n            ","response":0,"trial_type":"html-button-response","trial_index":44,"time_elapsed":330840,"internal_node_id":"0.0-4.0-1.16","subject_id":"5f9185f7dc47ff08f842398f","study_id":"6197b3f67c2b5cd3b6d9596a","session_id":"6197b9ed902ffd341c9f8d86","condition":"full-information","relevant_dimensions":["antennae","legs"],"bee_group":{"antennae":"B","wings":"X","pattern":"X","legs":"F"},"bonus":1.180000000000001},{"rt":878.5,"stimulus":"bees-with-color/bee-B1SM.svg","response":0,"trial_type":"image-button-response","trial_index":45,"time_elapsed":331720,"internal_node_id":"0.0-4.0-0.17","subject_id":"5f9185f7dc47ff08f842398f","study_id":"6197b3f67c2b5cd3b6d9596a","session_id":"6197b9ed902ffd341c9f8d86","condition":"full-information","relevant_dimensions":["antennae","legs"],"bee_group":{"antennae":"B","wings":"X","pattern":"X","legs":"F"},"action":"harvest","summary":"good-harvest","bonus":1.180000000000001},{"rt":606.8000000715256,"stimulus":"\n                    <p><b>Action: <em>harvest</em></b></p>\n                    <p>This is the bee that you just saw.</p>\n                    <img src=\"bees-with-color/bee-B1SM.svg\" width=\"200\">\n                    <p><span class=\"greenText\"><b>Successful harvest!</b></span><br>Your pay has increased by $0.02. Your bonus pay is now $0.36.</p>\n            ","response":0,"trial_type":"html-button-response","trial_index":46,"time_elapsed":332328,"internal_node_id":"0.0-4.0-1.17","subject_id":"5f9185f7dc47ff08f842398f","study_id":"6197b3f67c2b5cd3b6d9596a","session_id":"6197b9ed902ffd341c9f8d86","condition":"full-information","relevant_dimensions":["antennae","legs"],"bee_group":{"antennae":"B","wings":"X","pattern":"X","legs":"F"},"bonus":1.180000000000001},{"rt":1028.3000000715256,"stimulus":"bees-with-color/bee-B1DM.svg","response":1,"trial_type":"image-button-response","trial_index":47,"time_elapsed":333358,"internal_node_id":"0.0-4.0-0.18","subject_id":"5f9185f7dc47ff08f842398f","study_id":"6197b3f67c2b5cd3b6d9596a","session_id":"6197b9ed902ffd341c9f8d86","condition":"full-information","relevant_dimensions":["antennae","legs"],"bee_group":{"antennae":"B","wings":"X","pattern":"X","legs":"F"},"action":"avoid","summary":"bad-avoid","bonus":1.180000000000001},{"rt":534.6000000238419,"stimulus":"\n                    <p><b>Action: <em>avoid</em></b></p>\n                    <p>This is the bee that you just saw.</p>\n                    <img src=\"bees-with-color/bee-B1DM.svg\" width=\"200\">\n                    <p><span class=\"redText\">Bad choice,</span> the bee was friendly.<br>Your bonus pay is unchanged, and remains at $0.36.</p>\n            ","response":0,"trial_type":"html-button-response","trial_index":48,"time_elapsed":333894,"internal_node_id":"0.0-4.0-1.18","subject_id":"5f9185f7dc47ff08f842398f","study_id":"6197b3f67c2b5cd3b6d9596a","session_id":"6197b9ed902ffd341c9f8d86","condition":"full-information","relevant_dimensions":["antennae","legs"],"bee_group":{"antennae":"B","wings":"X","pattern":"X","legs":"F"},"bonus":1.180000000000001},{"rt":1066.0999999046326,"stimulus":"bees-with-color/bee-B2SM.svg","response":0,"trial_type":"image-button-response","trial_index":49,"time_elapsed":334962,"internal_node_id":"0.0-4.0-0.19","subject_id":"5f9185f7dc47ff08f842398f","study_id":"6197b3f67c2b5cd3b6d9596a","session_id":"6197b9ed902ffd341c9f8d86","condition":"full-information","relevant_dimensions":["antennae","legs"],"bee_group":{"antennae":"B","wings":"X","pattern":"X","legs":"F"},"action":"harvest","summary":"good-harvest","bonus":1.180000000000001},{"rt":522.3000000715256,"stimulus":"\n                    <p><b>Action: <em>harvest</em></b></p>\n                    <p>This is the bee that you just saw.</p>\n                    <img src=\"bees-with-color/bee-B2SM.svg\" width=\"200\">\n                    <p><span class=\"greenText\"><b>Successful harvest!</b></span><br>Your pay has increased by $0.02. Your bonus pay is now $0.38.</p>\n            ","response":0,"trial_type":"html-button-response","trial_index":50,"time_elapsed":335486,"internal_node_id":"0.0-4.0-1.19","subject_id":"5f9185f7dc47ff08f842398f","study_id":"6197b3f67c2b5cd3b6d9596a","session_id":"6197b9ed902ffd341c9f8d86","condition":"full-information","relevant_dimensions":["antennae","legs"],"bee_group":{"antennae":"B","wings":"X","pattern":"X","legs":"F"},"bonus":1.180000000000001},{"rt":1266.5999999046326,"stimulus":"bees-with-color/bee-A2DM.svg","response":0,"trial_type":"image-button-response","trial_index":51,"time_elapsed":336754,"internal_node_id":"0.0-4.0-0.20","subject_id":"5f9185f7dc47ff08f842398f","study_id":"6197b3f67c2b5cd3b6d9596a","session_id":"6197b9ed902ffd341c9f8d86","condition":"full-information","relevant_dimensions":["antennae","legs"],"bee_group":{"antennae":"B","wings":"X","pattern":"X","legs":"F"},"action":"harvest","summary":"good-harvest","bonus":1.180000000000001},{"rt":506.2999999523163,"stimulus":"\n                    <p><b>Action: <em>harvest</em></b></p>\n                    <p>This is the bee that you just saw.</p>\n                    <img src=\"bees-with-color/bee-A2DM.svg\" width=\"200\">\n                    <p><span class=\"greenText\"><b>Successful harvest!</b></span><br>Your pay has increased by $0.02. Your bonus pay is now $0.40.</p>\n            ","response":0,"trial_type":"html-button-response","trial_index":52,"time_elapsed":337262,"internal_node_id":"0.0-4.0-1.20","subject_id":"5f9185f7dc47ff08f842398f","study_id":"6197b3f67c2b5cd3b6d9596a","session_id":"6197b9ed902ffd341c9f8d86","condition":"full-information","relevant_dimensions":["antennae","legs"],"bee_group":{"antennae":"B","wings":"X","pattern":"X","legs":"F"},"bonus":1.180000000000001},{"rt":1574.8999999761581,"stimulus":"bees-with-color/bee-A2SF.svg","response":0,"trial_type":"image-button-response","trial_index":53,"time_elapsed":338838,"internal_node_id":"0.0-4.0-0.21","subject_id":"5f9185f7dc47ff08f842398f","study_id":"6197b3f67c2b5cd3b6d9596a","session_id":"6197b9ed902ffd341c9f8d86","condition":"full-information","relevant_dimensions":["antennae","legs"],"bee_group":{"antennae":"B","wings":"X","pattern":"X","legs":"F"},"action":"harvest","summary":"good-harvest","bonus":1.180000000000001},{"rt":566.2999999523163,"stimulus":"\n                    <p><b>Action: <em>harvest</em></b></p>\n                    <p>This is the bee that you just saw.</p>\n                    <img src=\"bees-with-color/bee-A2SF.svg\" width=\"200\">\n                    <p><span class=\"greenText\"><b>Successful harvest!</b></span><br>Your pay has increased by $0.02. Your bonus pay is now $0.42.</p>\n            ","response":0,"trial_type":"html-button-response","trial_index":54,"time_elapsed":339406,"internal_node_id":"0.0-4.0-1.21","subject_id":"5f9185f7dc47ff08f842398f","study_id":"6197b3f67c2b5cd3b6d9596a","session_id":"6197b9ed902ffd341c9f8d86","condition":"full-information","relevant_dimensions":["antennae","legs"],"bee_group":{"antennae":"B","wings":"X","pattern":"X","legs":"F"},"bonus":1.180000000000001},{"rt":1086.5,"stimulus":"bees-with-color/bee-B2DF.svg","response":1,"trial_type":"image-button-response","trial_index":55,"time_elapsed":340494,"internal_node_id":"0.0-4.0-0.22","subject_id":"5f9185f7dc47ff08f842398f","study_id":"6197b3f67c2b5cd3b6d9596a","session_id":"6197b9ed902ffd341c9f8d86","condition":"full-information","relevant_dimensions":["antennae","legs"],"bee_group":{"antennae":"B","wings":"X","pattern":"X","legs":"F"},"action":"avoid","summary":"good-avoid","bonus":1.180000000000001},{"rt":626.1000000238419,"stimulus":"\n                    <p><b>Action: <em>avoid</em></b></p>\n                    <p>This is the bee that you just saw.</p>\n                    <img src=\"bees-with-color/bee-B2DF.svg\" width=\"200\">\n                    <p><span class=\"greenText\">Good choice!</span>  This bee would have stung you.<br>Your bonus pay is unchanged, and remains at $0.42.</p>\n            ","response":0,"trial_type":"html-button-response","trial_index":56,"time_elapsed":341122,"internal_node_id":"0.0-4.0-1.22","subject_id":"5f9185f7dc47ff08f842398f","study_id":"6197b3f67c2b5cd3b6d9596a","session_id":"6197b9ed902ffd341c9f8d86","condition":"full-information","relevant_dimensions":["antennae","legs"],"bee_group":{"antennae":"B","wings":"X","pattern":"X","legs":"F"},"bonus":1.180000000000001},{"rt":936.4000000953674,"stimulus":"bees-with-color/bee-B1DF.svg","response":1,"trial_type":"image-button-response","trial_index":57,"time_elapsed":342061,"internal_node_id":"0.0-4.0-0.23","subject_id":"5f9185f7dc47ff08f842398f","study_id":"6197b3f67c2b5cd3b6d9596a","session_id":"6197b9ed902ffd341c9f8d86","condition":"full-information","relevant_dimensions":["antennae","legs"],"bee_group":{"antennae":"B","wings":"X","pattern":"X","legs":"F"},"action":"avoid","summary":"good-avoid","bonus":1.180000000000001},{"rt":509.1999999284744,"stimulus":"\n                    <p><b>Action: <em>avoid</em></b></p>\n                    <p>This is the bee that you just saw.</p>\n                    <img src=\"bees-with-color/bee-B1DF.svg\" width=\"200\">\n                    <p><span class=\"greenText\">Good choice!</span>  This bee would have stung you.<br>Your bonus pay is unchanged, and remains at $0.42.</p>\n            ","response":0,"trial_type":"html-button-response","trial_index":58,"time_elapsed":342572,"internal_node_id":"0.0-4.0-1.23","subject_id":"5f9185f7dc47ff08f842398f","study_id":"6197b3f67c2b5cd3b6d9596a","session_id":"6197b9ed902ffd341c9f8d86","condition":"full-information","relevant_dimensions":["antennae","legs"],"bee_group":{"antennae":"B","wings":"X","pattern":"X","legs":"F"},"bonus":1.180000000000001},{"rt":890.3999999761581,"stimulus":"bees-with-color/bee-B2DM.svg","response":0,"trial_type":"image-button-response","trial_index":59,"time_elapsed":343464,"internal_node_id":"0.0-4.0-0.24","subject_id":"5f9185f7dc47ff08f842398f","study_id":"6197b3f67c2b5cd3b6d9596a","session_id":"6197b9ed902ffd341c9f8d86","condition":"full-information","relevant_dimensions":["antennae","legs"],"bee_group":{"antennae":"B","wings":"X","pattern":"X","legs":"F"},"action":"harvest","summary":"good-harvest","bonus":1.180000000000001},{"rt":522.0999999046326,"stimulus":"\n                    <p><b>Action: <em>harvest</em></b></p>\n                    <p>This is the bee that you just saw.</p>\n                    <img src=\"bees-with-color/bee-B2DM.svg\" width=\"200\">\n                    <p><span class=\"greenText\"><b>Successful harvest!</b></span><br>Your pay has increased by $0.02. Your bonus pay is now $0.44.</p>\n            ","response":0,"trial_type":"html-button-response","trial_index":60,"time_elapsed":343988,"internal_node_id":"0.0-4.0-1.24","subject_id":"5f9185f7dc47ff08f842398f","study_id":"6197b3f67c2b5cd3b6d9596a","session_id":"6197b9ed902ffd341c9f8d86","condition":"full-information","relevant_dimensions":["antennae","legs"],"bee_group":{"antennae":"B","wings":"X","pattern":"X","legs":"F"},"bonus":1.180000000000001},{"rt":1158.6999999284744,"stimulus":"bees-with-color/bee-A2DF.svg","response":1,"trial_type":"image-button-response","trial_index":61,"time_elapsed":345148,"internal_node_id":"0.0-4.0-0.25","subject_id":"5f9185f7dc47ff08f842398f","study_id":"6197b3f67c2b5cd3b6d9596a","session_id":"6197b9ed902ffd341c9f8d86","condition":"full-information","relevant_dimensions":["antennae","legs"],"bee_group":{"antennae":"B","wings":"X","pattern":"X","legs":"F"},"action":"avoid","summary":"bad-avoid","bonus":1.180000000000001},{"rt":650.6000000238419,"stimulus":"\n                    <p><b>Action: <em>avoid</em></b></p>\n                    <p>This is the bee that you just saw.</p>\n                    <img src=\"bees-with-color/bee-A2DF.svg\" width=\"200\">\n                    <p><span class=\"redText\">Bad choice,</span> the bee was friendly.<br>Your bonus pay is unchanged, and remains at $0.44.</p>\n            ","response":0,"trial_type":"html-button-response","trial_index":62,"time_elapsed":345800,"internal_node_id":"0.0-4.0-1.25","subject_id":"5f9185f7dc47ff08f842398f","study_id":"6197b3f67c2b5cd3b6d9596a","session_id":"6197b9ed902ffd341c9f8d86","condition":"full-information","relevant_dimensions":["antennae","legs"],"bee_group":{"antennae":"B","wings":"X","pattern":"X","legs":"F"},"bonus":1.180000000000001},{"rt":1050.7999999523163,"stimulus":"bees-with-color/bee-A1SM.svg","response":0,"trial_type":"image-button-response","trial_index":63,"time_elapsed":346852,"internal_node_id":"0.0-4.0-0.26","subject_id":"5f9185f7dc47ff08f842398f","study_id":"6197b3f67c2b5cd3b6d9596a","session_id":"6197b9ed902ffd341c9f8d86","condition":"full-information","relevant_dimensions":["antennae","legs"],"bee_group":{"antennae":"B","wings":"X","pattern":"X","legs":"F"},"action":"harvest","summary":"good-harvest","bonus":1.180000000000001},{"rt":482.6999999284744,"stimulus":"\n                    <p><b>Action: <em>harvest</em></b></p>\n                    <p>This is the bee that you just saw.</p>\n                    <img src=\"bees-with-color/bee-A1SM.svg\" width=\"200\">\n                    <p><span class=\"greenText\"><b>Successful harvest!</b></span><br>Your pay has increased by $0.02. Your bonus pay is now $0.46.</p>\n            ","response":0,"trial_type":"html-button-response","trial_index":64,"time_elapsed":347336,"internal_node_id":"0.0-4.0-1.26","subject_id":"5f9185f7dc47ff08f842398f","study_id":"6197b3f67c2b5cd3b6d9596a","session_id":"6197b9ed902ffd341c9f8d86","condition":"full-information","relevant_dimensions":["antennae","legs"],"bee_group":{"antennae":"B","wings":"X","pattern":"X","legs":"F"},"bonus":1.180000000000001},{"rt":1254.6000000238419,"stimulus":"bees-with-color/bee-B2SF.svg","response":1,"trial_type":"image-button-response","trial_index":65,"time_elapsed":348592,"internal_node_id":"0.0-4.0-0.27","subject_id":"5f9185f7dc47ff08f842398f","study_id":"6197b3f67c2b5cd3b6d9596a","session_id":"6197b9ed902ffd341c9f8d86","condition":"full-information","relevant_dimensions":["antennae","legs"],"bee_group":{"antennae":"B","wings":"X","pattern":"X","legs":"F"},"action":"avoid","summary":"good-avoid","bonus":1.180000000000001},{"rt":574.5999999046326,"stimulus":"\n                    <p><b>Action: <em>avoid</em></b></p>\n                    <p>This is the bee that you just saw.</p>\n                    <img src=\"bees-with-color/bee-B2SF.svg\" width=\"200\">\n                    <p><span class=\"greenText\">Good choice!</span>  This bee would have stung you.<br>Your bonus pay is unchanged, and remains at $0.46.</p>\n            ","response":0,"trial_type":"html-button-response","trial_index":66,"time_elapsed":349168,"internal_node_id":"0.0-4.0-1.27","subject_id":"5f9185f7dc47ff08f842398f","study_id":"6197b3f67c2b5cd3b6d9596a","session_id":"6197b9ed902ffd341c9f8d86","condition":"full-information","relevant_dimensions":["antennae","legs"],"bee_group":{"antennae":"B","wings":"X","pattern":"X","legs":"F"},"bonus":1.180000000000001},{"rt":1220.7999999523163,"stimulus":"bees-with-color/bee-A1DF.svg","response":1,"trial_type":"image-button-response","trial_index":67,"time_elapsed":350390,"internal_node_id":"0.0-4.0-0.28","subject_id":"5f9185f7dc47ff08f842398f","study_id":"6197b3f67c2b5cd3b6d9596a","session_id":"6197b9ed902ffd341c9f8d86","condition":"full-information","relevant_dimensions":["antennae","legs"],"bee_group":{"antennae":"B","wings":"X","pattern":"X","legs":"F"},"action":"avoid","summary":"bad-avoid","bonus":1.180000000000001},{"rt":558.1000000238419,"stimulus":"\n                    <p><b>Action: <em>avoid</em></b></p>\n                    <p>This is the bee that you just saw.</p>\n                    <img src=\"bees-with-color/bee-A1DF.svg\" width=\"200\">\n                    <p><span class=\"redText\">Bad choice,</span> the bee was friendly.<br>Your bonus pay is unchanged, and remains at $0.46.</p>\n            ","response":0,"trial_type":"html-button-response","trial_index":68,"time_elapsed":350950,"internal_node_id":"0.0-4.0-1.28","subject_id":"5f9185f7dc47ff08f842398f","study_id":"6197b3f67c2b5cd3b6d9596a","session_id":"6197b9ed902ffd341c9f8d86","condition":"full-information","relevant_dimensions":["antennae","legs"],"bee_group":{"antennae":"B","wings":"X","pattern":"X","legs":"F"},"bonus":1.180000000000001},{"rt":882.6999999284744,"stimulus":"bees-with-color/bee-A2SM.svg","response":0,"trial_type":"image-button-response","trial_index":69,"time_elapsed":351834,"internal_node_id":"0.0-4.0-0.29","subject_id":"5f9185f7dc47ff08f842398f","study_id":"6197b3f67c2b5cd3b6d9596a","session_id":"6197b9ed902ffd341c9f8d86","condition":"full-information","relevant_dimensions":["antennae","legs"],"bee_group":{"antennae":"B","wings":"X","pattern":"X","legs":"F"},"action":"harvest","summary":"good-harvest","bonus":1.180000000000001},{"rt":454.39999997615814,"stimulus":"\n                    <p><b>Action: <em>harvest</em></b></p>\n                    <p>This is the bee that you just saw.</p>\n                    <img src=\"bees-with-color/bee-A2SM.svg\" width=\"200\">\n                    <p><span class=\"greenText\"><b>Successful harvest!</b></span><br>Your pay has increased by $0.02. Your bonus pay is now $0.48.</p>\n            ","response":0,"trial_type":"html-button-response","trial_index":70,"time_elapsed":352290,"internal_node_id":"0.0-4.0-1.29","subject_id":"5f9185f7dc47ff08f842398f","study_id":"6197b3f67c2b5cd3b6d9596a","session_id":"6197b9ed902ffd341c9f8d86","condition":"full-information","relevant_dimensions":["antennae","legs"],"bee_group":{"antennae":"B","wings":"X","pattern":"X","legs":"F"},"bonus":1.180000000000001},{"rt":1566.7999999523163,"stimulus":"bees-with-color/bee-A1SF.svg","response":0,"trial_type":"image-button-response","trial_index":71,"time_elapsed":353858,"internal_node_id":"0.0-4.0-0.30","subject_id":"5f9185f7dc47ff08f842398f","study_id":"6197b3f67c2b5cd3b6d9596a","session_id":"6197b9ed902ffd341c9f8d86","condition":"full-information","relevant_dimensions":["antennae","legs"],"bee_group":{"antennae":"B","wings":"X","pattern":"X","legs":"F"},"action":"harvest","summary":"good-harvest","bonus":1.180000000000001},{"rt":518.2999999523163,"stimulus":"\n                    <p><b>Action: <em>harvest</em></b></p>\n                    <p>This is the bee that you just saw.</p>\n                    <img src=\"bees-with-color/bee-A1SF.svg\" width=\"200\">\n                    <p><span class=\"greenText\"><b>Successful harvest!</b></span><br>Your pay has increased by $0.02. Your bonus pay is now $0.50.</p>\n            ","response":0,"trial_type":"html-button-response","trial_index":72,"time_elapsed":354378,"internal_node_id":"0.0-4.0-1.30","subject_id":"5f9185f7dc47ff08f842398f","study_id":"6197b3f67c2b5cd3b6d9596a","session_id":"6197b9ed902ffd341c9f8d86","condition":"full-information","relevant_dimensions":["antennae","legs"],"bee_group":{"antennae":"B","wings":"X","pattern":"X","legs":"F"},"bonus":1.180000000000001},{"rt":1222.6999999284744,"stimulus":"bees-with-color/bee-B1SF.svg","response":1,"trial_type":"image-button-response","trial_index":73,"time_elapsed":355602,"internal_node_id":"0.0-4.0-0.31","subject_id":"5f9185f7dc47ff08f842398f","study_id":"6197b3f67c2b5cd3b6d9596a","session_id":"6197b9ed902ffd341c9f8d86","condition":"full-information","relevant_dimensions":["antennae","legs"],"bee_group":{"antennae":"B","wings":"X","pattern":"X","legs":"F"},"action":"avoid","summary":"good-avoid","bonus":1.180000000000001},{"rt":938.3999999761581,"stimulus":"\n                    <p><b>Action: <em>avoid</em></b></p>\n                    <p>This is the bee that you just saw.</p>\n                    <img src=\"bees-with-color/bee-B1SF.svg\" width=\"200\">\n                    <p><span class=\"greenText\">Good choice!</span>  This bee would have stung you.<br>Your bonus pay is unchanged, and remains at $0.50.</p>\n            ","response":0,"trial_type":"html-button-response","trial_index":74,"time_elapsed":356542,"internal_node_id":"0.0-4.0-1.31","subject_id":"5f9185f7dc47ff08f842398f","study_id":"6197b3f67c2b5cd3b6d9596a","session_id":"6197b9ed902ffd341c9f8d86","condition":"full-information","relevant_dimensions":["antennae","legs"],"bee_group":{"antennae":"B","wings":"X","pattern":"X","legs":"F"},"bonus":1.180000000000001},{"rt":918.6000000238419,"stimulus":"bees-with-color/bee-B2SM.svg","response":0,"trial_type":"image-button-response","trial_index":75,"time_elapsed":357462,"internal_node_id":"0.0-4.0-0.32","subject_id":"5f9185f7dc47ff08f842398f","study_id":"6197b3f67c2b5cd3b6d9596a","session_id":"6197b9ed902ffd341c9f8d86","condition":"full-information","relevant_dimensions":["antennae","legs"],"bee_group":{"antennae":"B","wings":"X","pattern":"X","legs":"F"},"action":"harvest","summary":"good-harvest","bonus":1.180000000000001},{"rt":516.3999999761581,"stimulus":"\n                    <p><b>Action: <em>harvest</em></b></p>\n                    <p>This is the bee that you just saw.</p>\n                    <img src=\"bees-with-color/bee-B2SM.svg\" width=\"200\">\n                    <p><span class=\"greenText\"><b>Successful harvest!</b></span><br>Your pay has increased by $0.02. Your bonus pay is now $0.52.</p>\n            ","response":0,"trial_type":"html-button-response","trial_index":76,"time_elapsed":357980,"internal_node_id":"0.0-4.0-1.32","subject_id":"5f9185f7dc47ff08f842398f","study_id":"6197b3f67c2b5cd3b6d9596a","session_id":"6197b9ed902ffd341c9f8d86","condition":"full-information","relevant_dimensions":["antennae","legs"],"bee_group":{"antennae":"B","wings":"X","pattern":"X","legs":"F"},"bonus":1.180000000000001},{"rt":1394.5,"stimulus":"bees-with-color/bee-B1SF.svg","response":1,"trial_type":"image-button-response","trial_index":77,"time_elapsed":359376,"internal_node_id":"0.0-4.0-0.33","subject_id":"5f9185f7dc47ff08f842398f","study_id":"6197b3f67c2b5cd3b6d9596a","session_id":"6197b9ed902ffd341c9f8d86","condition":"full-information","relevant_dimensions":["antennae","legs"],"bee_group":{"antennae":"B","wings":"X","pattern":"X","legs":"F"},"action":"avoid","summary":"good-avoid","bonus":1.180000000000001},{"rt":478.60000002384186,"stimulus":"\n                    <p><b>Action: <em>avoid</em></b></p>\n                    <p>This is the bee that you just saw.</p>\n                    <img src=\"bees-with-color/bee-B1SF.svg\" width=\"200\">\n                    <p><span class=\"greenText\">Good choice!</span>  This bee would have stung you.<br>Your bonus pay is unchanged, and remains at $0.52.</p>\n            ","response":0,"trial_type":"html-button-response","trial_index":78,"time_elapsed":359856,"internal_node_id":"0.0-4.0-1.33","subject_id":"5f9185f7dc47ff08f842398f","study_id":"6197b3f67c2b5cd3b6d9596a","session_id":"6197b9ed902ffd341c9f8d86","condition":"full-information","relevant_dimensions":["antennae","legs"],"bee_group":{"antennae":"B","wings":"X","pattern":"X","legs":"F"},"bonus":1.180000000000001},{"rt":1006.5,"stimulus":"bees-with-color/bee-B2DF.svg","response":1,"trial_type":"image-button-response","trial_index":79,"time_elapsed":360864,"internal_node_id":"0.0-4.0-0.34","subject_id":"5f9185f7dc47ff08f842398f","study_id":"6197b3f67c2b5cd3b6d9596a","session_id":"6197b9ed902ffd341c9f8d86","condition":"full-information","relevant_dimensions":["antennae","legs"],"bee_group":{"antennae":"B","wings":"X","pattern":"X","legs":"F"},"action":"avoid","summary":"good-avoid","bonus":1.180000000000001},{"rt":1246.2999999523163,"stimulus":"\n                    <p><b>Action: <em>avoid</em></b></p>\n                    <p>This is the bee that you just saw.</p>\n                    <img src=\"bees-with-color/bee-B2DF.svg\" width=\"200\">\n                    <p><span class=\"greenText\">Good choice!</span>  This bee would have stung you.<br>Your bonus pay is unchanged, and remains at $0.52.</p>\n            ","response":0,"trial_type":"html-button-response","trial_index":80,"time_elapsed":362112,"internal_node_id":"0.0-4.0-1.34","subject_id":"5f9185f7dc47ff08f842398f","study_id":"6197b3f67c2b5cd3b6d9596a","session_id":"6197b9ed902ffd341c9f8d86","condition":"full-information","relevant_dimensions":["antennae","legs"],"bee_group":{"antennae":"B","wings":"X","pattern":"X","legs":"F"},"bonus":1.180000000000001},{"rt":726.2000000476837,"stimulus":"bees-with-color/bee-A2DF.svg","response":1,"trial_type":"image-button-response","trial_index":81,"time_elapsed":362839,"internal_node_id":"0.0-4.0-0.35","subject_id":"5f9185f7dc47ff08f842398f","study_id":"6197b3f67c2b5cd3b6d9596a","session_id":"6197b9ed902ffd341c9f8d86","condition":"full-information","relevant_dimensions":["antennae","legs"],"bee_group":{"antennae":"B","wings":"X","pattern":"X","legs":"F"},"action":"avoid","summary":"bad-avoid","bonus":1.180000000000001},{"rt":682.4000000953674,"stimulus":"\n                    <p><b>Action: <em>avoid</em></b></p>\n                    <p>This is the bee that you just saw.</p>\n                    <img src=\"bees-with-color/bee-A2DF.svg\" width=\"200\">\n                    <p><span class=\"redText\">Bad choice,</span> the bee was friendly.<br>Your bonus pay is unchanged, and remains at $0.52.</p>\n            ","response":0,"trial_type":"html-button-response","trial_index":82,"time_elapsed":363523,"internal_node_id":"0.0-4.0-1.35","subject_id":"5f9185f7dc47ff08f842398f","study_id":"6197b3f67c2b5cd3b6d9596a","session_id":"6197b9ed902ffd341c9f8d86","condition":"full-information","relevant_dimensions":["antennae","legs"],"bee_group":{"antennae":"B","wings":"X","pattern":"X","legs":"F"},"bonus":1.180000000000001},{"rt":1206.6000000238419,"stimulus":"bees-with-color/bee-A1SM.svg","response":0,"trial_type":"image-button-response","trial_index":83,"time_elapsed":364731,"internal_node_id":"0.0-4.0-0.36","subject_id":"5f9185f7dc47ff08f842398f","study_id":"6197b3f67c2b5cd3b6d9596a","session_id":"6197b9ed902ffd341c9f8d86","condition":"full-information","relevant_dimensions":["antennae","legs"],"bee_group":{"antennae":"B","wings":"X","pattern":"X","legs":"F"},"action":"harvest","summary":"good-harvest","bonus":1.180000000000001},{"rt":418.3000000715256,"stimulus":"\n                    <p><b>Action: <em>harvest</em></b></p>\n                    <p>This is the bee that you just saw.</p>\n                    <img src=\"bees-with-color/bee-A1SM.svg\" width=\"200\">\n                    <p><span class=\"greenText\"><b>Successful harvest!</b></span><br>Your pay has increased by $0.02. Your bonus pay is now $0.54.</p>\n            ","response":0,"trial_type":"html-button-response","trial_index":84,"time_elapsed":365151,"internal_node_id":"0.0-4.0-1.36","subject_id":"5f9185f7dc47ff08f842398f","study_id":"6197b3f67c2b5cd3b6d9596a","session_id":"6197b9ed902ffd341c9f8d86","condition":"full-information","relevant_dimensions":["antennae","legs"],"bee_group":{"antennae":"B","wings":"X","pattern":"X","legs":"F"},"bonus":1.180000000000001},{"rt":876.5,"stimulus":"bees-with-color/bee-B2DM.svg","response":0,"trial_type":"image-button-response","trial_index":85,"time_elapsed":366029,"internal_node_id":"0.0-4.0-0.37","subject_id":"5f9185f7dc47ff08f842398f","study_id":"6197b3f67c2b5cd3b6d9596a","session_id":"6197b9ed902ffd341c9f8d86","condition":"full-information","relevant_dimensions":["antennae","legs"],"bee_group":{"antennae":"B","wings":"X","pattern":"X","legs":"F"},"action":"harvest","summary":"good-harvest","bonus":1.180000000000001},{"rt":410.10000002384186,"stimulus":"\n                    <p><b>Action: <em>harvest</em></b></p>\n                    <p>This is the bee that you just saw.</p>\n                    <img src=\"bees-with-color/bee-B2DM.svg\" width=\"200\">\n                    <p><span class=\"greenText\"><b>Successful harvest!</b></span><br>Your pay has increased by $0.02. Your bonus pay is now $0.56.</p>\n            ","response":0,"trial_type":"html-button-response","trial_index":86,"time_elapsed":366441,"internal_node_id":"0.0-4.0-1.37","subject_id":"5f9185f7dc47ff08f842398f","study_id":"6197b3f67c2b5cd3b6d9596a","session_id":"6197b9ed902ffd341c9f8d86","condition":"full-information","relevant_dimensions":["antennae","legs"],"bee_group":{"antennae":"B","wings":"X","pattern":"X","legs":"F"},"bonus":1.180000000000001},{"rt":1739.1999999284744,"stimulus":"bees-with-color/bee-A2DM.svg","response":0,"trial_type":"image-button-response","trial_index":87,"time_elapsed":368181,"internal_node_id":"0.0-4.0-0.38","subject_id":"5f9185f7dc47ff08f842398f","study_id":"6197b3f67c2b5cd3b6d9596a","session_id":"6197b9ed902ffd341c9f8d86","condition":"full-information","relevant_dimensions":["antennae","legs"],"bee_group":{"antennae":"B","wings":"X","pattern":"X","legs":"F"},"action":"harvest","summary":"good-harvest","bonus":1.180000000000001},{"rt":489.89999997615814,"stimulus":"\n                    <p><b>Action: <em>harvest</em></b></p>\n                    <p>This is the bee that you just saw.</p>\n                    <img src=\"bees-with-color/bee-A2DM.svg\" width=\"200\">\n                    <p><span class=\"greenText\"><b>Successful harvest!</b></span><br>Your pay has increased by $0.02. Your bonus pay is now $0.58.</p>\n            ","response":0,"trial_type":"html-button-response","trial_index":88,"time_elapsed":368673,"internal_node_id":"0.0-4.0-1.38","subject_id":"5f9185f7dc47ff08f842398f","study_id":"6197b3f67c2b5cd3b6d9596a","session_id":"6197b9ed902ffd341c9f8d86","condition":"full-information","relevant_dimensions":["antennae","legs"],"bee_group":{"antennae":"B","wings":"X","pattern":"X","legs":"F"},"bonus":1.180000000000001},{"rt":1222.9000000953674,"stimulus":"bees-with-color/bee-B1SM.svg","response":0,"trial_type":"image-button-response","trial_index":89,"time_elapsed":369897,"internal_node_id":"0.0-4.0-0.39","subject_id":"5f9185f7dc47ff08f842398f","study_id":"6197b3f67c2b5cd3b6d9596a","session_id":"6197b9ed902ffd341c9f8d86","condition":"full-information","relevant_dimensions":["antennae","legs"],"bee_group":{"antennae":"B","wings":"X","pattern":"X","legs":"F"},"action":"harvest","summary":"good-harvest","bonus":1.180000000000001},{"rt":438,"stimulus":"\n                    <p><b>Action: <em>harvest</em></b></p>\n                    <p>This is the bee that you just saw.</p>\n                    <img src=\"bees-with-color/bee-B1SM.svg\" width=\"200\">\n                    <p><span class=\"greenText\"><b>Successful harvest!</b></span><br>Your pay has increased by $0.02. Your bonus pay is now $0.60.</p>\n            ","response":0,"trial_type":"html-button-response","trial_index":90,"time_elapsed":370338,"internal_node_id":"0.0-4.0-1.39","subject_id":"5f9185f7dc47ff08f842398f","study_id":"6197b3f67c2b5cd3b6d9596a","session_id":"6197b9ed902ffd341c9f8d86","condition":"full-information","relevant_dimensions":["antennae","legs"],"bee_group":{"antennae":"B","wings":"X","pattern":"X","legs":"F"},"bonus":1.180000000000001},{"rt":1386.3000000715256,"stimulus":"bees-with-color/bee-A1SF.svg","response":1,"trial_type":"image-button-response","trial_index":91,"time_elapsed":371725,"internal_node_id":"0.0-4.0-0.40","subject_id":"5f9185f7dc47ff08f842398f","study_id":"6197b3f67c2b5cd3b6d9596a","session_id":"6197b9ed902ffd341c9f8d86","condition":"full-information","relevant_dimensions":["antennae","legs"],"bee_group":{"antennae":"B","wings":"X","pattern":"X","legs":"F"},"action":"avoid","summary":"bad-avoid","bonus":1.180000000000001},{"rt":426.8000000715256,"stimulus":"\n                    <p><b>Action: <em>avoid</em></b></p>\n                    <p>This is the bee that you just saw.</p>\n                    <img src=\"bees-with-color/bee-A1SF.svg\" width=\"200\">\n                    <p><span class=\"redText\">Bad choice,</span> the bee was friendly.<br>Your bonus pay is unchanged, and remains at $0.60.</p>\n            ","response":0,"trial_type":"html-button-response","trial_index":92,"time_elapsed":372153,"internal_node_id":"0.0-4.0-1.40","subject_id":"5f9185f7dc47ff08f842398f","study_id":"6197b3f67c2b5cd3b6d9596a","session_id":"6197b9ed902ffd341c9f8d86","condition":"full-information","relevant_dimensions":["antennae","legs"],"bee_group":{"antennae":"B","wings":"X","pattern":"X","legs":"F"},"bonus":1.180000000000001},{"rt":1752.6000000238419,"stimulus":"bees-with-color/bee-A1DF.svg","response":1,"trial_type":"image-button-response","trial_index":93,"time_elapsed":373907,"internal_node_id":"0.0-4.0-0.41","subject_id":"5f9185f7dc47ff08f842398f","study_id":"6197b3f67c2b5cd3b6d9596a","session_id":"6197b9ed902ffd341c9f8d86","condition":"full-information","relevant_dimensions":["antennae","legs"],"bee_group":{"antennae":"B","wings":"X","pattern":"X","legs":"F"},"action":"avoid","summary":"bad-avoid","bonus":1.180000000000001},{"rt":622.7999999523163,"stimulus":"\n                    <p><b>Action: <em>avoid</em></b></p>\n                    <p>This is the bee that you just saw.</p>\n                    <img src=\"bees-with-color/bee-A1DF.svg\" width=\"200\">\n                    <p><span class=\"redText\">Bad choice,</span> the bee was friendly.<br>Your bonus pay is unchanged, and remains at $0.60.</p>\n            ","response":0,"trial_type":"html-button-response","trial_index":94,"time_elapsed":374531,"internal_node_id":"0.0-4.0-1.41","subject_id":"5f9185f7dc47ff08f842398f","study_id":"6197b3f67c2b5cd3b6d9596a","session_id":"6197b9ed902ffd341c9f8d86","condition":"full-information","relevant_dimensions":["antennae","legs"],"bee_group":{"antennae":"B","wings":"X","pattern":"X","legs":"F"},"bonus":1.180000000000001},{"rt":2714.100000023842,"stimulus":"bees-with-color/bee-B1DM.svg","response":0,"trial_type":"image-button-response","trial_index":95,"time_elapsed":377247,"internal_node_id":"0.0-4.0-0.42","subject_id":"5f9185f7dc47ff08f842398f","study_id":"6197b3f67c2b5cd3b6d9596a","session_id":"6197b9ed902ffd341c9f8d86","condition":"full-information","relevant_dimensions":["antennae","legs"],"bee_group":{"antennae":"B","wings":"X","pattern":"X","legs":"F"},"action":"harvest","summary":"good-harvest","bonus":1.180000000000001},{"rt":770.5,"stimulus":"\n                    <p><b>Action: <em>harvest</em></b></p>\n                    <p>This is the bee that you just saw.</p>\n                    <img src=\"bees-with-color/bee-B1DM.svg\" width=\"200\">\n                    <p><span class=\"greenText\"><b>Successful harvest!</b></span><br>Your pay has increased by $0.02. Your bonus pay is now $0.62.</p>\n            ","response":0,"trial_type":"html-button-response","trial_index":96,"time_elapsed":378019,"internal_node_id":"0.0-4.0-1.42","subject_id":"5f9185f7dc47ff08f842398f","study_id":"6197b3f67c2b5cd3b6d9596a","session_id":"6197b9ed902ffd341c9f8d86","condition":"full-information","relevant_dimensions":["antennae","legs"],"bee_group":{"antennae":"B","wings":"X","pattern":"X","legs":"F"},"bonus":1.180000000000001},{"rt":1579,"stimulus":"bees-with-color/bee-B1DF.svg","response":1,"trial_type":"image-button-response","trial_index":97,"time_elapsed":379599,"internal_node_id":"0.0-4.0-0.43","subject_id":"5f9185f7dc47ff08f842398f","study_id":"6197b3f67c2b5cd3b6d9596a","session_id":"6197b9ed902ffd341c9f8d86","condition":"full-information","relevant_dimensions":["antennae","legs"],"bee_group":{"antennae":"B","wings":"X","pattern":"X","legs":"F"},"action":"avoid","summary":"good-avoid","bonus":1.180000000000001},{"rt":586.6000000238419,"stimulus":"\n                    <p><b>Action: <em>avoid</em></b></p>\n                    <p>This is the bee that you just saw.</p>\n                    <img src=\"bees-with-color/bee-B1DF.svg\" width=\"200\">\n                    <p><span class=\"greenText\">Good choice!</span>  This bee would have stung you.<br>Your bonus pay is unchanged, and remains at $0.62.</p>\n            ","response":0,"trial_type":"html-button-response","trial_index":98,"time_elapsed":380187,"internal_node_id":"0.0-4.0-1.43","subject_id":"5f9185f7dc47ff08f842398f","study_id":"6197b3f67c2b5cd3b6d9596a","session_id":"6197b9ed902ffd341c9f8d86","condition":"full-information","relevant_dimensions":["antennae","legs"],"bee_group":{"antennae":"B","wings":"X","pattern":"X","legs":"F"},"bonus":1.180000000000001},{"rt":1194.5,"stimulus":"bees-with-color/bee-A2SM.svg","response":0,"trial_type":"image-button-response","trial_index":99,"time_elapsed":381383,"internal_node_id":"0.0-4.0-0.44","subject_id":"5f9185f7dc47ff08f842398f","study_id":"6197b3f67c2b5cd3b6d9596a","session_id":"6197b9ed902ffd341c9f8d86","condition":"full-information","relevant_dimensions":["antennae","legs"],"bee_group":{"antennae":"B","wings":"X","pattern":"X","legs":"F"},"action":"harvest","summary":"good-harvest","bonus":1.180000000000001},{"rt":740.6000000238419,"stimulus":"\n                    <p><b>Action: <em>harvest</em></b></p>\n                    <p>This is the bee that you just saw.</p>\n                    <img src=\"bees-with-color/bee-A2SM.svg\" width=\"200\">\n                    <p><span class=\"greenText\"><b>Successful harvest!</b></span><br>Your pay has increased by $0.02. Your bonus pay is now $0.64.</p>\n            ","response":0,"trial_type":"html-button-response","trial_index":100,"time_elapsed":382125,"internal_node_id":"0.0-4.0-1.44","subject_id":"5f9185f7dc47ff08f842398f","study_id":"6197b3f67c2b5cd3b6d9596a","session_id":"6197b9ed902ffd341c9f8d86","condition":"full-information","relevant_dimensions":["antennae","legs"],"bee_group":{"antennae":"B","wings":"X","pattern":"X","legs":"F"},"bonus":1.180000000000001},{"rt":1174.3999999761581,"stimulus":"bees-with-color/bee-A2SF.svg","response":1,"trial_type":"image-button-response","trial_index":101,"time_elapsed":383301,"internal_node_id":"0.0-4.0-0.45","subject_id":"5f9185f7dc47ff08f842398f","study_id":"6197b3f67c2b5cd3b6d9596a","session_id":"6197b9ed902ffd341c9f8d86","condition":"full-information","relevant_dimensions":["antennae","legs"],"bee_group":{"antennae":"B","wings":"X","pattern":"X","legs":"F"},"action":"avoid","summary":"bad-avoid","bonus":1.180000000000001},{"rt":499.10000002384186,"stimulus":"\n                    <p><b>Action: <em>avoid</em></b></p>\n                    <p>This is the bee that you just saw.</p>\n                    <img src=\"bees-with-color/bee-A2SF.svg\" width=\"200\">\n                    <p><span class=\"redText\">Bad choice,</span> the bee was friendly.<br>Your bonus pay is unchanged, and remains at $0.64.</p>\n            ","response":0,"trial_type":"html-button-response","trial_index":102,"time_elapsed":383801,"internal_node_id":"0.0-4.0-1.45","subject_id":"5f9185f7dc47ff08f842398f","study_id":"6197b3f67c2b5cd3b6d9596a","session_id":"6197b9ed902ffd341c9f8d86","condition":"full-information","relevant_dimensions":["antennae","legs"],"bee_group":{"antennae":"B","wings":"X","pattern":"X","legs":"F"},"bonus":1.180000000000001},{"rt":1114.5,"stimulus":"bees-with-color/bee-B2SF.svg","response":0,"trial_type":"image-button-response","trial_index":103,"time_elapsed":384917,"internal_node_id":"0.0-4.0-0.46","subject_id":"5f9185f7dc47ff08f842398f","study_id":"6197b3f67c2b5cd3b6d9596a","session_id":"6197b9ed902ffd341c9f8d86","condition":"full-information","relevant_dimensions":["antennae","legs"],"bee_group":{"antennae":"B","wings":"X","pattern":"X","legs":"F"},"action":"harvest","summary":"bad-harvest","bonus":1.180000000000001},{"rt":526.3000000715256,"stimulus":"\n                    <p><b>Action: <em>harvest</em></b></p>\n                    <p>This is the bee that you just saw.</p>\n                    <img src=\"bees-with-color/bee-B2SF.svg\" width=\"200\">\n                    <p><span class=\"redText\">Bad choice, the bee was angry.</span><br><b>You have been stung!</b><br>Your pay has been decreased by $0.10. Your bonus pay is now $0.54.</p>\n            ","response":0,"trial_type":"html-button-response","trial_index":104,"time_elapsed":385445,"internal_node_id":"0.0-4.0-1.46","subject_id":"5f9185f7dc47ff08f842398f","study_id":"6197b3f67c2b5cd3b6d9596a","session_id":"6197b9ed902ffd341c9f8d86","condition":"full-information","relevant_dimensions":["antennae","legs"],"bee_group":{"antennae":"B","wings":"X","pattern":"X","legs":"F"},"bonus":1.180000000000001},{"rt":1046.8999999761581,"stimulus":"bees-with-color/bee-A1DM.svg","response":0,"trial_type":"image-button-response","trial_index":105,"time_elapsed":386493,"internal_node_id":"0.0-4.0-0.47","subject_id":"5f9185f7dc47ff08f842398f","study_id":"6197b3f67c2b5cd3b6d9596a","session_id":"6197b9ed902ffd341c9f8d86","condition":"full-information","relevant_dimensions":["antennae","legs"],"bee_group":{"antennae":"B","wings":"X","pattern":"X","legs":"F"},"action":"harvest","summary":"good-harvest","bonus":1.180000000000001},{"rt":402,"stimulus":"\n                    <p><b>Action: <em>harvest</em></b></p>\n                    <p>This is the bee that you just saw.</p>\n                    <img src=\"bees-with-color/bee-A1DM.svg\" width=\"200\">\n                    <p><span class=\"greenText\"><b>Successful harvest!</b></span><br>Your pay has increased by $0.02. Your bonus pay is now $0.56.</p>\n            ","response":0,"trial_type":"html-button-response","trial_index":106,"time_elapsed":386897,"internal_node_id":"0.0-4.0-1.47","subject_id":"5f9185f7dc47ff08f842398f","study_id":"6197b3f67c2b5cd3b6d9596a","session_id":"6197b9ed902ffd341c9f8d86","condition":"full-information","relevant_dimensions":["antennae","legs"],"bee_group":{"antennae":"B","wings":"X","pattern":"X","legs":"F"},"bonus":1.180000000000001},{"rt":1154.7000000476837,"stimulus":"bees-with-color/bee-A2SF.svg","response":0,"trial_type":"image-button-response","trial_index":107,"time_elapsed":388053,"internal_node_id":"0.0-4.0-0.48","subject_id":"5f9185f7dc47ff08f842398f","study_id":"6197b3f67c2b5cd3b6d9596a","session_id":"6197b9ed902ffd341c9f8d86","condition":"full-information","relevant_dimensions":["antennae","legs"],"bee_group":{"antennae":"B","wings":"X","pattern":"X","legs":"F"},"action":"harvest","summary":"good-harvest","bonus":1.180000000000001},{"rt":458.7999999523163,"stimulus":"\n                    <p><b>Action: <em>harvest</em></b></p>\n                    <p>This is the bee that you just saw.</p>\n                    <img src=\"bees-with-color/bee-A2SF.svg\" width=\"200\">\n                    <p><span class=\"greenText\"><b>Successful harvest!</b></span><br>Your pay has increased by $0.02. Your bonus pay is now $0.58.</p>\n            ","response":0,"trial_type":"html-button-response","trial_index":108,"time_elapsed":388513,"internal_node_id":"0.0-4.0-1.48","subject_id":"5f9185f7dc47ff08f842398f","study_id":"6197b3f67c2b5cd3b6d9596a","session_id":"6197b9ed902ffd341c9f8d86","condition":"full-information","relevant_dimensions":["antennae","legs"],"bee_group":{"antennae":"B","wings":"X","pattern":"X","legs":"F"},"bonus":1.180000000000001},{"rt":1198.3999999761581,"stimulus":"bees-with-color/bee-A2DM.svg","response":0,"trial_type":"image-button-response","trial_index":109,"time_elapsed":389713,"internal_node_id":"0.0-4.0-0.49","subject_id":"5f9185f7dc47ff08f842398f","study_id":"6197b3f67c2b5cd3b6d9596a","session_id":"6197b9ed902ffd341c9f8d86","condition":"full-information","relevant_dimensions":["antennae","legs"],"bee_group":{"antennae":"B","wings":"X","pattern":"X","legs":"F"},"action":"harvest","summary":"good-harvest","bonus":1.180000000000001},{"rt":836.3000000715256,"stimulus":"\n                    <p><b>Action: <em>harvest</em></b></p>\n                    <p>This is the bee that you just saw.</p>\n                    <img src=\"bees-with-color/bee-A2DM.svg\" width=\"200\">\n                    <p><span class=\"greenText\"><b>Successful harvest!</b></span><br>Your pay has increased by $0.02. Your bonus pay is now $0.60.</p>\n            ","response":0,"trial_type":"html-button-response","trial_index":110,"time_elapsed":390551,"internal_node_id":"0.0-4.0-1.49","subject_id":"5f9185f7dc47ff08f842398f","study_id":"6197b3f67c2b5cd3b6d9596a","session_id":"6197b9ed902ffd341c9f8d86","condition":"full-information","relevant_dimensions":["antennae","legs"],"bee_group":{"antennae":"B","wings":"X","pattern":"X","legs":"F"},"bonus":1.180000000000001},{"rt":1246.6999999284744,"stimulus":"bees-with-color/bee-B1DM.svg","response":1,"trial_type":"image-button-response","trial_index":111,"time_elapsed":391799,"internal_node_id":"0.0-4.0-0.50","subject_id":"5f9185f7dc47ff08f842398f","study_id":"6197b3f67c2b5cd3b6d9596a","session_id":"6197b9ed902ffd341c9f8d86","condition":"full-information","relevant_dimensions":["antennae","legs"],"bee_group":{"antennae":"B","wings":"X","pattern":"X","legs":"F"},"action":"avoid","summary":"bad-avoid","bonus":1.180000000000001},{"rt":506.5,"stimulus":"\n                    <p><b>Action: <em>avoid</em></b></p>\n                    <p>This is the bee that you just saw.</p>\n                    <img src=\"bees-with-color/bee-B1DM.svg\" width=\"200\">\n                    <p><span class=\"redText\">Bad choice,</span> the bee was friendly.<br>Your bonus pay is unchanged, and remains at $0.60.</p>\n            ","response":0,"trial_type":"html-button-response","trial_index":112,"time_elapsed":392307,"internal_node_id":"0.0-4.0-1.50","subject_id":"5f9185f7dc47ff08f842398f","study_id":"6197b3f67c2b5cd3b6d9596a","session_id":"6197b9ed902ffd341c9f8d86","condition":"full-information","relevant_dimensions":["antennae","legs"],"bee_group":{"antennae":"B","wings":"X","pattern":"X","legs":"F"},"bonus":1.180000000000001},{"rt":1002.4000000953674,"stimulus":"bees-with-color/bee-A1DF.svg","response":1,"trial_type":"image-button-response","trial_index":113,"time_elapsed":393311,"internal_node_id":"0.0-4.0-0.51","subject_id":"5f9185f7dc47ff08f842398f","study_id":"6197b3f67c2b5cd3b6d9596a","session_id":"6197b9ed902ffd341c9f8d86","condition":"full-information","relevant_dimensions":["antennae","legs"],"bee_group":{"antennae":"B","wings":"X","pattern":"X","legs":"F"},"action":"avoid","summary":"bad-avoid","bonus":1.180000000000001},{"rt":610.2000000476837,"stimulus":"\n                    <p><b>Action: <em>avoid</em></b></p>\n                    <p>This is the bee that you just saw.</p>\n                    <img src=\"bees-with-color/bee-A1DF.svg\" width=\"200\">\n                    <p><span class=\"redText\">Bad choice,</span> the bee was friendly.<br>Your bonus pay is unchanged, and remains at $0.60.</p>\n            ","response":0,"trial_type":"html-button-response","trial_index":114,"time_elapsed":393923,"internal_node_id":"0.0-4.0-1.51","subject_id":"5f9185f7dc47ff08f842398f","study_id":"6197b3f67c2b5cd3b6d9596a","session_id":"6197b9ed902ffd341c9f8d86","condition":"full-information","relevant_dimensions":["antennae","legs"],"bee_group":{"antennae":"B","wings":"X","pattern":"X","legs":"F"},"bonus":1.180000000000001},{"rt":1034.6999999284744,"stimulus":"bees-with-color/bee-B1SM.svg","response":0,"trial_type":"image-button-response","trial_index":115,"time_elapsed":394959,"internal_node_id":"0.0-4.0-0.52","subject_id":"5f9185f7dc47ff08f842398f","study_id":"6197b3f67c2b5cd3b6d9596a","session_id":"6197b9ed902ffd341c9f8d86","condition":"full-information","relevant_dimensions":["antennae","legs"],"bee_group":{"antennae":"B","wings":"X","pattern":"X","legs":"F"},"action":"harvest","summary":"good-harvest","bonus":1.180000000000001},{"rt":425.89999997615814,"stimulus":"\n                    <p><b>Action: <em>harvest</em></b></p>\n                    <p>This is the bee that you just saw.</p>\n                    <img src=\"bees-with-color/bee-B1SM.svg\" width=\"200\">\n                    <p><span class=\"greenText\"><b>Successful harvest!</b></span><br>Your pay has increased by $0.02. Your bonus pay is now $0.62.</p>\n            ","response":0,"trial_type":"html-button-response","trial_index":116,"time_elapsed":395387,"internal_node_id":"0.0-4.0-1.52","subject_id":"5f9185f7dc47ff08f842398f","study_id":"6197b3f67c2b5cd3b6d9596a","session_id":"6197b9ed902ffd341c9f8d86","condition":"full-information","relevant_dimensions":["antennae","legs"],"bee_group":{"antennae":"B","wings":"X","pattern":"X","legs":"F"},"bonus":1.180000000000001},{"rt":1035,"stimulus":"bees-with-color/bee-B2DF.svg","response":1,"trial_type":"image-button-response","trial_index":117,"time_elapsed":396423,"internal_node_id":"0.0-4.0-0.53","subject_id":"5f9185f7dc47ff08f842398f","study_id":"6197b3f67c2b5cd3b6d9596a","session_id":"6197b9ed902ffd341c9f8d86","condition":"full-information","relevant_dimensions":["antennae","legs"],"bee_group":{"antennae":"B","wings":"X","pattern":"X","legs":"F"},"action":"avoid","summary":"good-avoid","bonus":1.180000000000001},{"rt":470.10000002384186,"stimulus":"\n                    <p><b>Action: <em>avoid</em></b></p>\n                    <p>This is the bee that you just saw.</p>\n                    <img src=\"bees-with-color/bee-B2DF.svg\" width=\"200\">\n                    <p><span class=\"greenText\">Good choice!</span>  This bee would have stung you.<br>Your bonus pay is unchanged, and remains at $0.62.</p>\n            ","response":0,"trial_type":"html-button-response","trial_index":118,"time_elapsed":396895,"internal_node_id":"0.0-4.0-1.53","subject_id":"5f9185f7dc47ff08f842398f","study_id":"6197b3f67c2b5cd3b6d9596a","session_id":"6197b9ed902ffd341c9f8d86","condition":"full-information","relevant_dimensions":["antennae","legs"],"bee_group":{"antennae":"B","wings":"X","pattern":"X","legs":"F"},"bonus":1.180000000000001},{"rt":1078.3999999761581,"stimulus":"bees-with-color/bee-B1DF.svg","response":1,"trial_type":"image-button-response","trial_index":119,"time_elapsed":397975,"internal_node_id":"0.0-4.0-0.54","subject_id":"5f9185f7dc47ff08f842398f","study_id":"6197b3f67c2b5cd3b6d9596a","session_id":"6197b9ed902ffd341c9f8d86","condition":"full-information","relevant_dimensions":["antennae","legs"],"bee_group":{"antennae":"B","wings":"X","pattern":"X","legs":"F"},"action":"avoid","summary":"good-avoid","bonus":1.180000000000001},{"rt":432.2999999523163,"stimulus":"\n                    <p><b>Action: <em>avoid</em></b></p>\n                    <p>This is the bee that you just saw.</p>\n                    <img src=\"bees-with-color/bee-B1DF.svg\" width=\"200\">\n                    <p><span class=\"greenText\">Good choice!</span>  This bee would have stung you.<br>Your bonus pay is unchanged, and remains at $0.62.</p>\n            ","response":0,"trial_type":"html-button-response","trial_index":120,"time_elapsed":398409,"internal_node_id":"0.0-4.0-1.54","subject_id":"5f9185f7dc47ff08f842398f","study_id":"6197b3f67c2b5cd3b6d9596a","session_id":"6197b9ed902ffd341c9f8d86","condition":"full-information","relevant_dimensions":["antennae","legs"],"bee_group":{"antennae":"B","wings":"X","pattern":"X","legs":"F"},"bonus":1.180000000000001},{"rt":1066.2000000476837,"stimulus":"bees-with-color/bee-A2DF.svg","response":0,"trial_type":"image-button-response","trial_index":121,"time_elapsed":399477,"internal_node_id":"0.0-4.0-0.55","subject_id":"5f9185f7dc47ff08f842398f","study_id":"6197b3f67c2b5cd3b6d9596a","session_id":"6197b9ed902ffd341c9f8d86","condition":"full-information","relevant_dimensions":["antennae","legs"],"bee_group":{"antennae":"B","wings":"X","pattern":"X","legs":"F"},"action":"harvest","summary":"good-harvest","bonus":1.180000000000001},{"rt":638.6000000238419,"stimulus":"\n                    <p><b>Action: <em>harvest</em></b></p>\n                    <p>This is the bee that you just saw.</p>\n                    <img src=\"bees-with-color/bee-A2DF.svg\" width=\"200\">\n                    <p><span class=\"greenText\"><b>Successful harvest!</b></span><br>Your pay has increased by $0.02. Your bonus pay is now $0.64.</p>\n            ","response":0,"trial_type":"html-button-response","trial_index":122,"time_elapsed":400117,"internal_node_id":"0.0-4.0-1.55","subject_id":"5f9185f7dc47ff08f842398f","study_id":"6197b3f67c2b5cd3b6d9596a","session_id":"6197b9ed902ffd341c9f8d86","condition":"full-information","relevant_dimensions":["antennae","legs"],"bee_group":{"antennae":"B","wings":"X","pattern":"X","legs":"F"},"bonus":1.180000000000001},{"rt":698.3999999761581,"stimulus":"bees-with-color/bee-A1DM.svg","response":0,"trial_type":"image-button-response","trial_index":123,"time_elapsed":400817,"internal_node_id":"0.0-4.0-0.56","subject_id":"5f9185f7dc47ff08f842398f","study_id":"6197b3f67c2b5cd3b6d9596a","session_id":"6197b9ed902ffd341c9f8d86","condition":"full-information","relevant_dimensions":["antennae","legs"],"bee_group":{"antennae":"B","wings":"X","pattern":"X","legs":"F"},"action":"harvest","summary":"good-harvest","bonus":1.180000000000001},{"rt":415.40000009536743,"stimulus":"\n                    <p><b>Action: <em>harvest</em></b></p>\n                    <p>This is the bee that you just saw.</p>\n                    <img src=\"bees-with-color/bee-A1DM.svg\" width=\"200\">\n                    <p><span class=\"greenText\"><b>Successful harvest!</b></span><br>Your pay has increased by $0.02. Your bonus pay is now $0.66.</p>\n            ","response":0,"trial_type":"html-button-response","trial_index":124,"time_elapsed":401233,"internal_node_id":"0.0-4.0-1.56","subject_id":"5f9185f7dc47ff08f842398f","study_id":"6197b3f67c2b5cd3b6d9596a","session_id":"6197b9ed902ffd341c9f8d86","condition":"full-information","relevant_dimensions":["antennae","legs"],"bee_group":{"antennae":"B","wings":"X","pattern":"X","legs":"F"},"bonus":1.180000000000001},{"rt":1127.3999999761581,"stimulus":"bees-with-color/bee-B2SF.svg","response":1,"trial_type":"image-button-response","trial_index":125,"time_elapsed":402362,"internal_node_id":"0.0-4.0-0.57","subject_id":"5f9185f7dc47ff08f842398f","study_id":"6197b3f67c2b5cd3b6d9596a","session_id":"6197b9ed902ffd341c9f8d86","condition":"full-information","relevant_dimensions":["antennae","legs"],"bee_group":{"antennae":"B","wings":"X","pattern":"X","legs":"F"},"action":"avoid","summary":"good-avoid","bonus":1.180000000000001},{"rt":478.1999999284744,"stimulus":"\n                    <p><b>Action: <em>avoid</em></b></p>\n                    <p>This is the bee that you just saw.</p>\n                    <img src=\"bees-with-color/bee-B2SF.svg\" width=\"200\">\n                    <p><span class=\"greenText\">Good choice!</span>  This bee would have stung you.<br>Your bonus pay is unchanged, and remains at $0.66.</p>\n            ","response":0,"trial_type":"html-button-response","trial_index":126,"time_elapsed":402841,"internal_node_id":"0.0-4.0-1.57","subject_id":"5f9185f7dc47ff08f842398f","study_id":"6197b3f67c2b5cd3b6d9596a","session_id":"6197b9ed902ffd341c9f8d86","condition":"full-information","relevant_dimensions":["antennae","legs"],"bee_group":{"antennae":"B","wings":"X","pattern":"X","legs":"F"},"bonus":1.180000000000001},{"rt":926.6999999284744,"stimulus":"bees-with-color/bee-B1SF.svg","response":1,"trial_type":"image-button-response","trial_index":127,"time_elapsed":403769,"internal_node_id":"0.0-4.0-0.58","subject_id":"5f9185f7dc47ff08f842398f","study_id":"6197b3f67c2b5cd3b6d9596a","session_id":"6197b9ed902ffd341c9f8d86","condition":"full-information","relevant_dimensions":["antennae","legs"],"bee_group":{"antennae":"B","wings":"X","pattern":"X","legs":"F"},"action":"avoid","summary":"good-avoid","bonus":1.180000000000001},{"rt":430.3000000715256,"stimulus":"\n                    <p><b>Action: <em>avoid</em></b></p>\n                    <p>This is the bee that you just saw.</p>\n                    <img src=\"bees-with-color/bee-B1SF.svg\" width=\"200\">\n                    <p><span class=\"greenText\">Good choice!</span>  This bee would have stung you.<br>Your bonus pay is unchanged, and remains at $0.66.</p>\n            ","response":0,"trial_type":"html-button-response","trial_index":128,"time_elapsed":404201,"internal_node_id":"0.0-4.0-1.58","subject_id":"5f9185f7dc47ff08f842398f","study_id":"6197b3f67c2b5cd3b6d9596a","session_id":"6197b9ed902ffd341c9f8d86","condition":"full-information","relevant_dimensions":["antennae","legs"],"bee_group":{"antennae":"B","wings":"X","pattern":"X","legs":"F"},"bonus":1.180000000000001},{"rt":882.7000000476837,"stimulus":"bees-with-color/bee-B2DM.svg","response":0,"trial_type":"image-button-response","trial_index":129,"time_elapsed":405085,"internal_node_id":"0.0-4.0-0.59","subject_id":"5f9185f7dc47ff08f842398f","study_id":"6197b3f67c2b5cd3b6d9596a","session_id":"6197b9ed902ffd341c9f8d86","condition":"full-information","relevant_dimensions":["antennae","legs"],"bee_group":{"antennae":"B","wings":"X","pattern":"X","legs":"F"},"action":"harvest","summary":"good-harvest","bonus":1.180000000000001},{"rt":427,"stimulus":"\n                    <p><b>Action: <em>harvest</em></b></p>\n                    <p>This is the bee that you just saw.</p>\n                    <img src=\"bees-with-color/bee-B2DM.svg\" width=\"200\">\n                    <p><span class=\"greenText\"><b>Successful harvest!</b></span><br>Your pay has increased by $0.02. Your bonus pay is now $0.68.</p>\n            ","response":0,"trial_type":"html-button-response","trial_index":130,"time_elapsed":405513,"internal_node_id":"0.0-4.0-1.59","subject_id":"5f9185f7dc47ff08f842398f","study_id":"6197b3f67c2b5cd3b6d9596a","session_id":"6197b9ed902ffd341c9f8d86","condition":"full-information","relevant_dimensions":["antennae","legs"],"bee_group":{"antennae":"B","wings":"X","pattern":"X","legs":"F"},"bonus":1.180000000000001},{"rt":1448.3999999761581,"stimulus":"bees-with-color/bee-A1SF.svg","response":0,"trial_type":"image-button-response","trial_index":131,"time_elapsed":406963,"internal_node_id":"0.0-4.0-0.60","subject_id":"5f9185f7dc47ff08f842398f","study_id":"6197b3f67c2b5cd3b6d9596a","session_id":"6197b9ed902ffd341c9f8d86","condition":"full-information","relevant_dimensions":["antennae","legs"],"bee_group":{"antennae":"B","wings":"X","pattern":"X","legs":"F"},"action":"harvest","summary":"good-harvest","bonus":1.180000000000001},{"rt":447.09999990463257,"stimulus":"\n                    <p><b>Action: <em>harvest</em></b></p>\n                    <p>This is the bee that you just saw.</p>\n                    <img src=\"bees-with-color/bee-A1SF.svg\" width=\"200\">\n                    <p><span class=\"greenText\"><b>Successful harvest!</b></span><br>Your pay has increased by $0.02. Your bonus pay is now $0.70.</p>\n            ","response":0,"trial_type":"html-button-response","trial_index":132,"time_elapsed":407411,"internal_node_id":"0.0-4.0-1.60","subject_id":"5f9185f7dc47ff08f842398f","study_id":"6197b3f67c2b5cd3b6d9596a","session_id":"6197b9ed902ffd341c9f8d86","condition":"full-information","relevant_dimensions":["antennae","legs"],"bee_group":{"antennae":"B","wings":"X","pattern":"X","legs":"F"},"bonus":1.180000000000001},{"rt":870.6000000238419,"stimulus":"bees-with-color/bee-B2SM.svg","response":0,"trial_type":"image-button-response","trial_index":133,"time_elapsed":408283,"internal_node_id":"0.0-4.0-0.61","subject_id":"5f9185f7dc47ff08f842398f","study_id":"6197b3f67c2b5cd3b6d9596a","session_id":"6197b9ed902ffd341c9f8d86","condition":"full-information","relevant_dimensions":["antennae","legs"],"bee_group":{"antennae":"B","wings":"X","pattern":"X","legs":"F"},"action":"harvest","summary":"good-harvest","bonus":1.180000000000001},{"rt":738.5,"stimulus":"\n                    <p><b>Action: <em>harvest</em></b></p>\n                    <p>This is the bee that you just saw.</p>\n                    <img src=\"bees-with-color/bee-B2SM.svg\" width=\"200\">\n                    <p><span class=\"greenText\"><b>Successful harvest!</b></span><br>Your pay has increased by $0.02. Your bonus pay is now $0.72.</p>\n            ","response":0,"trial_type":"html-button-response","trial_index":134,"time_elapsed":409023,"internal_node_id":"0.0-4.0-1.61","subject_id":"5f9185f7dc47ff08f842398f","study_id":"6197b3f67c2b5cd3b6d9596a","session_id":"6197b9ed902ffd341c9f8d86","condition":"full-information","relevant_dimensions":["antennae","legs"],"bee_group":{"antennae":"B","wings":"X","pattern":"X","legs":"F"},"bonus":1.180000000000001},{"rt":667,"stimulus":"bees-with-color/bee-A2SM.svg","response":0,"trial_type":"image-button-response","trial_index":135,"time_elapsed":409691,"internal_node_id":"0.0-4.0-0.62","subject_id":"5f9185f7dc47ff08f842398f","study_id":"6197b3f67c2b5cd3b6d9596a","session_id":"6197b9ed902ffd341c9f8d86","condition":"full-information","relevant_dimensions":["antennae","legs"],"bee_group":{"antennae":"B","wings":"X","pattern":"X","legs":"F"},"action":"harvest","summary":"good-harvest","bonus":1.180000000000001},{"rt":630.8000000715256,"stimulus":"\n                    <p><b>Action: <em>harvest</em></b></p>\n                    <p>This is the bee that you just saw.</p>\n                    <img src=\"bees-with-color/bee-A2SM.svg\" width=\"200\">\n                    <p><span class=\"greenText\"><b>Successful harvest!</b></span><br>Your pay has increased by $0.02. Your bonus pay is now $0.74.</p>\n            ","response":0,"trial_type":"html-button-response","trial_index":136,"time_elapsed":410323,"internal_node_id":"0.0-4.0-1.62","subject_id":"5f9185f7dc47ff08f842398f","study_id":"6197b3f67c2b5cd3b6d9596a","session_id":"6197b9ed902ffd341c9f8d86","condition":"full-information","relevant_dimensions":["antennae","legs"],"bee_group":{"antennae":"B","wings":"X","pattern":"X","legs":"F"},"bonus":1.180000000000001},{"rt":618.8000000715256,"stimulus":"bees-with-color/bee-A1SM.svg","response":0,"trial_type":"image-button-response","trial_index":137,"time_elapsed":410943,"internal_node_id":"0.0-4.0-0.63","subject_id":"5f9185f7dc47ff08f842398f","study_id":"6197b3f67c2b5cd3b6d9596a","session_id":"6197b9ed902ffd341c9f8d86","condition":"full-information","relevant_dimensions":["antennae","legs"],"bee_group":{"antennae":"B","wings":"X","pattern":"X","legs":"F"},"action":"harvest","summary":"good-harvest","bonus":1.180000000000001},{"rt":322.2000000476837,"stimulus":"\n                    <p><b>Action: <em>harvest</em></b></p>\n                    <p>This is the bee that you just saw.</p>\n                    <img src=\"bees-with-color/bee-A1SM.svg\" width=\"200\">\n                    <p><span class=\"greenText\"><b>Successful harvest!</b></span><br>Your pay has increased by $0.02. Your bonus pay is now $0.76.</p>\n            ","response":0,"trial_type":"html-button-response","trial_index":138,"time_elapsed":411267,"internal_node_id":"0.0-4.0-1.63","subject_id":"5f9185f7dc47ff08f842398f","study_id":"6197b3f67c2b5cd3b6d9596a","session_id":"6197b9ed902ffd341c9f8d86","condition":"full-information","relevant_dimensions":["antennae","legs"],"bee_group":{"antennae":"B","wings":"X","pattern":"X","legs":"F"},"bonus":1.180000000000001},{"rt":5175.100000023842,"stimulus":"You have completed the first part of this experiment.<br><br>You will now begin a shorter second part, in which you will receive no feedback.<br>The same rules regarding bonus pay apply.<br><br>Press any key to begin.","response":" ","trial_type":"html-keyboard-response","trial_index":139,"time_elapsed":416444,"internal_node_id":"0.0-5.0","subject_id":"5f9185f7dc47ff08f842398f","study_id":"6197b3f67c2b5cd3b6d9596a","session_id":"6197b9ed902ffd341c9f8d86","condition":"full-information","relevant_dimensions":["antennae","legs"],"bee_group":{"antennae":"B","wings":"X","pattern":"X","legs":"F"},"bonus":1.180000000000001},{"rt":2495.9000000953674,"stimulus":"bees-with-color/bee-A1DF.svg","response":1,"trial_type":"image-button-response","trial_index":140,"time_elapsed":418949,"internal_node_id":"0.0-6.0-0.0","subject_id":"5f9185f7dc47ff08f842398f","study_id":"6197b3f67c2b5cd3b6d9596a","session_id":"6197b9ed902ffd341c9f8d86","condition":"full-information","relevant_dimensions":["antennae","legs"],"bee_group":{"antennae":"B","wings":"X","pattern":"X","legs":"F"},"bonus":1.180000000000001},{"rt":2553.7000000476837,"stimulus":"bees-with-color/bee-A1SM.svg","response":0,"trial_type":"image-button-response","trial_index":141,"time_elapsed":421505,"internal_node_id":"0.0-6.0-0.1","subject_id":"5f9185f7dc47ff08f842398f","study_id":"6197b3f67c2b5cd3b6d9596a","session_id":"6197b9ed902ffd341c9f8d86","condition":"full-information","relevant_dimensions":["antennae","legs"],"bee_group":{"antennae":"B","wings":"X","pattern":"X","legs":"F"},"bonus":1.180000000000001},{"rt":1126,"stimulus":"bees-with-color/bee-B1DM.svg","response":0,"trial_type":"image-button-response","trial_index":142,"time_elapsed":422634,"internal_node_id":"0.0-6.0-0.2","subject_id":"5f9185f7dc47ff08f842398f","study_id":"6197b3f67c2b5cd3b6d9596a","session_id":"6197b9ed902ffd341c9f8d86","condition":"full-information","relevant_dimensions":["antennae","legs"],"bee_group":{"antennae":"B","wings":"X","pattern":"X","legs":"F"},"bonus":1.180000000000001},{"rt":615.1000000238419,"stimulus":"bees-with-color/bee-B1SM.svg","response":0,"trial_type":"image-button-response","trial_index":143,"time_elapsed":423251,"internal_node_id":"0.0-6.0-0.3","subject_id":"5f9185f7dc47ff08f842398f","study_id":"6197b3f67c2b5cd3b6d9596a","session_id":"6197b9ed902ffd341c9f8d86","condition":"full-information","relevant_dimensions":["antennae","legs"],"bee_group":{"antennae":"B","wings":"X","pattern":"X","legs":"F"},"bonus":1.180000000000001},{"rt":766.6999999284744,"stimulus":"bees-with-color/bee-B1DF.svg","response":1,"trial_type":"image-button-response","trial_index":144,"time_elapsed":424019,"internal_node_id":"0.0-6.0-0.4","subject_id":"5f9185f7dc47ff08f842398f","study_id":"6197b3f67c2b5cd3b6d9596a","session_id":"6197b9ed902ffd341c9f8d86","condition":"full-information","relevant_dimensions":["antennae","legs"],"bee_group":{"antennae":"B","wings":"X","pattern":"X","legs":"F"},"bonus":1.180000000000001},{"rt":606.3999999761581,"stimulus":"bees-with-color/bee-A2SF.svg","response":0,"trial_type":"image-button-response","trial_index":145,"time_elapsed":424628,"internal_node_id":"0.0-6.0-0.5","subject_id":"5f9185f7dc47ff08f842398f","study_id":"6197b3f67c2b5cd3b6d9596a","session_id":"6197b9ed902ffd341c9f8d86","condition":"full-information","relevant_dimensions":["antennae","legs"],"bee_group":{"antennae":"B","wings":"X","pattern":"X","legs":"F"},"bonus":1.180000000000001},{"rt":578.2000000476837,"stimulus":"bees-with-color/bee-A1SF.svg","response":0,"trial_type":"image-button-response","trial_index":146,"time_elapsed":425208,"internal_node_id":"0.0-6.0-0.6","subject_id":"5f9185f7dc47ff08f842398f","study_id":"6197b3f67c2b5cd3b6d9596a","session_id":"6197b9ed902ffd341c9f8d86","condition":"full-information","relevant_dimensions":["antennae","legs"],"bee_group":{"antennae":"B","wings":"X","pattern":"X","legs":"F"},"bonus":1.180000000000001},{"rt":1613.6000000238419,"stimulus":"bees-with-color/bee-B2SF.svg","response":1,"trial_type":"image-button-response","trial_index":147,"time_elapsed":426824,"internal_node_id":"0.0-6.0-0.7","subject_id":"5f9185f7dc47ff08f842398f","study_id":"6197b3f67c2b5cd3b6d9596a","session_id":"6197b9ed902ffd341c9f8d86","condition":"full-information","relevant_dimensions":["antennae","legs"],"bee_group":{"antennae":"B","wings":"X","pattern":"X","legs":"F"},"bonus":1.180000000000001},{"rt":769.7000000476837,"stimulus":"bees-with-color/bee-A2DF.svg","response":1,"trial_type":"image-button-response","trial_index":148,"time_elapsed":427596,"internal_node_id":"0.0-6.0-0.8","subject_id":"5f9185f7dc47ff08f842398f","study_id":"6197b3f67c2b5cd3b6d9596a","session_id":"6197b9ed902ffd341c9f8d86","condition":"full-information","relevant_dimensions":["antennae","legs"],"bee_group":{"antennae":"B","wings":"X","pattern":"X","legs":"F"},"bonus":1.180000000000001},{"rt":550.2999999523163,"stimulus":"bees-with-color/bee-A2DM.svg","response":0,"trial_type":"image-button-response","trial_index":149,"time_elapsed":428148,"internal_node_id":"0.0-6.0-0.9","subject_id":"5f9185f7dc47ff08f842398f","study_id":"6197b3f67c2b5cd3b6d9596a","session_id":"6197b9ed902ffd341c9f8d86","condition":"full-information","relevant_dimensions":["antennae","legs"],"bee_group":{"antennae":"B","wings":"X","pattern":"X","legs":"F"},"bonus":1.180000000000001},{"rt":917.8999999761581,"stimulus":"bees-with-color/bee-B2DF.svg","response":1,"trial_type":"image-button-response","trial_index":150,"time_elapsed":429067,"internal_node_id":"0.0-6.0-0.10","subject_id":"5f9185f7dc47ff08f842398f","study_id":"6197b3f67c2b5cd3b6d9596a","session_id":"6197b9ed902ffd341c9f8d86","condition":"full-information","relevant_dimensions":["antennae","legs"],"bee_group":{"antennae":"B","wings":"X","pattern":"X","legs":"F"},"bonus":1.180000000000001},{"rt":566.2000000476837,"stimulus":"bees-with-color/bee-B2DM.svg","response":0,"trial_type":"image-button-response","trial_index":151,"time_elapsed":429635,"internal_node_id":"0.0-6.0-0.11","subject_id":"5f9185f7dc47ff08f842398f","study_id":"6197b3f67c2b5cd3b6d9596a","session_id":"6197b9ed902ffd341c9f8d86","condition":"full-information","relevant_dimensions":["antennae","legs"],"bee_group":{"antennae":"B","wings":"X","pattern":"X","legs":"F"},"bonus":1.180000000000001},{"rt":558.6999999284744,"stimulus":"bees-with-color/bee-B2SM.svg","response":0,"trial_type":"image-button-response","trial_index":152,"time_elapsed":430196,"internal_node_id":"0.0-6.0-0.12","subject_id":"5f9185f7dc47ff08f842398f","study_id":"6197b3f67c2b5cd3b6d9596a","session_id":"6197b9ed902ffd341c9f8d86","condition":"full-information","relevant_dimensions":["antennae","legs"],"bee_group":{"antennae":"B","wings":"X","pattern":"X","legs":"F"},"bonus":1.180000000000001},{"rt":1036,"stimulus":"bees-with-color/bee-A2SM.svg","response":0,"trial_type":"image-button-response","trial_index":153,"time_elapsed":431234,"internal_node_id":"0.0-6.0-0.13","subject_id":"5f9185f7dc47ff08f842398f","study_id":"6197b3f67c2b5cd3b6d9596a","session_id":"6197b9ed902ffd341c9f8d86","condition":"full-information","relevant_dimensions":["antennae","legs"],"bee_group":{"antennae":"B","wings":"X","pattern":"X","legs":"F"},"bonus":1.180000000000001},{"rt":1070.1000000238419,"stimulus":"bees-with-color/bee-B1SF.svg","response":1,"trial_type":"image-button-response","trial_index":154,"time_elapsed":432306,"internal_node_id":"0.0-6.0-0.14","subject_id":"5f9185f7dc47ff08f842398f","study_id":"6197b3f67c2b5cd3b6d