[{"success":true,"trial_type":"fullscreen","trial_index":0,"time_elapsed":2419,"internal_node_id":"0.0-0.0","subject_id":"614072e717f769e6280307d3","study_id":"60edd13110225f80f9f3709b","session_id":"6196c1ee1e89e06b65dab966","condition":"full-information","relevant_dimensions":["pattern","legs"],"bee_group":{"antennae":"X","wings":"X","pattern":"S","legs":"F"},"bonus":0.9400000000000012},{"success":true,"timeout":false,"failed_images":[],"failed_audio":[],"failed_video":[],"trial_type":"preload","trial_index":1,"time_elapsed":2488,"internal_node_id":"0.0-1.0","subject_id":"614072e717f769e6280307d3","study_id":"60edd13110225f80f9f3709b","session_id":"6196c1ee1e89e06b65dab966","condition":"full-information","relevant_dimensions":["pattern","legs"],"bee_group":{"antennae":"X","wings":"X","pattern":"S","legs":"F"},"bonus":0.9400000000000012},{"rt":2173.2000000011176,"stimulus":"Welcome! Press any key to begin.","response":" ","trial_type":"html-keyboard-response","trial_index":2,"time_elapsed":4663,"internal_node_id":"0.0-2.0","subject_id":"614072e717f769e6280307d3","study_id":"60edd13110225f80f9f3709b","session_id":"6196c1ee1e89e06b65dab966","condition":"full-information","relevant_dimensions":["pattern","legs"],"bee_group":{"antennae":"X","wings":"X","pattern":"S","legs":"F"},"bonus":0.9400000000000012},{"view_history":[{"page_index":0,"viewing_time":1366.1000000014901},{"page_index":1,"viewing_time":6934.5999999996275},{"page_index":2,"viewing_time":1817.9000000003725},{"page_index":3,"viewing_time":1413.5},{"page_index":4,"viewing_time":808.5},{"page_index":5,"viewing_time":736.2999999988824},{"page_index":6,"viewing_time":1354.5999999996275},{"page_index":7,"viewing_time":1909.800000000745},{"page_index":8,"viewing_time":2298.0999999996275},{"page_index":9,"viewing_time":760.0999999996275},{"page_index":10,"viewing_time":622.8000000007451},{"page_index":11,"viewing_time":1667.0999999996275},{"page_index":12,"viewing_time":2126.9000000003725},{"page_index":13,"viewing_time":1291.199999999255},{"page_index":14,"viewing_time":525.7000000011176}],"rt":25633.5,"trial_type":"instructions","trial_index":3,"time_elapsed":30297,"internal_node_id":"0.0-3.0-0.0","subject_id":"614072e717f769e6280307d3","study_id":"60edd13110225f80f9f3709b","session_id":"6196c1ee1e89e06b65dab966","condition":"full-information","relevant_dimensions":["pattern","legs"],"bee_group":{"antennae":"X","wings":"X","pattern":"S","legs":"F"},"bonus":0.9400000000000012},{"rt":10338.89999999851,"response":{"Q0":["Two or six legs","Stripes or spots on body","Single or double wings","Antennae or no antennae"]},"question_order":[0],"trial_type":"survey-multi-select","trial_index":4,"time_elapsed":40641,"internal_node_id":"0.0-3.0-1.0","subject_id":"614072e717f769e6280307d3","study_id":"60edd13110225f80f9f3709b","session_id":"6196c1ee1e89e06b65dab966","condition":"full-information","relevant_dimensions":["pattern","legs"],"bee_group":{"antennae":"X","wings":"X","pattern":"S","legs":"F"},"correct":true,"bonus":0.9400000000000012},{"rt":50909.59999999963,"response":{"Q1":"No.","Q2":"Based on the four features of the bee.","Q3":"You do not learn if it was friendly or dangerous, and do not alter your bonus."},"question_order":[0,1,2],"trial_type":"survey-multi-choice","trial_index":5,"time_elapsed":91554,"internal_node_id":"0.0-3.0-2.0","subject_id":"614072e717f769e6280307d3","study_id":"60edd13110225f80f9f3709b","session_id":"6196c1ee1e89e06b65dab966","condition":"full-information","relevant_dimensions":["pattern","legs"],"bee_group":{"antennae":"X","wings":"X","pattern":"S","legs":"F"},"correct":false,"bonus":0.9400000000000012},{"rt":5936.199999999255,"stimulus":"<p>You did not answer all comprehension questions correctly.<br>Press <b>continue</b> to review the instructions again.</p>","response":0,"trial_type":"html-button-response","trial_index":6,"time_elapsed":97491,"internal_node_id":"0.0-3.0-3.0","subject_id":"614072e717f769e6280307d3","study_id":"60edd13110225f80f9f3709b","session_id":"6196c1ee1e89e06b65dab966","condition":"full-information","relevant_dimensions":["pattern","legs"],"bee_group":{"antennae":"X","wings":"X","pattern":"S","legs":"F"},"bonus":0.9400000000000012},{"view_history":[{"page_index":0,"viewing_time":2660.199999999255},{"page_index":1,"viewing_time":12557.099999999627},{"page_index":2,"viewing_time":962.5999999996275},{"page_index":3,"viewing_time":1994.2000000011176},{"page_index":4,"viewing_time":14238.299999998882},{"page_index":3,"viewing_time":2779.10000000149},{"page_index":2,"viewing_time":1091.5999999996275},{"page_index":1,"viewing_time":2844.5},{"page_index":0,"viewing_time":1569.4000000003725},{"page_index":1,"viewing_time":2123.5999999996275},{"page_index":2,"viewing_time":1286.0999999996275},{"page_index":3,"viewing_time":4000.4000000003725},{"page_index":4,"viewing_time":3090.699999999255},{"page_index":5,"viewing_time":2434.5999999996275},{"page_index":6,"viewing_time":9003.400000000373},{"page_index":7,"viewing_time":2329.800000000745},{"page_index":8,"viewing_time":1950},{"page_index":9,"viewing_time":671.1999999992549},{"page_index":10,"viewing_time":776.7000000011176},{"page_index":11,"viewing_time":8599.699999999255},{"page_index":12,"viewing_time":1566},{"page_index":13,"viewing_time":1197.0999999996275},{"page_index":14,"viewing_time":452.7000000011176}],"rt":80179.29999999888,"trial_type":"instructions","trial_index":7,"time_elapsed":177674,"internal_node_id":"0.0-3.0-4.0-0.0","subject_id":"614072e717f769e6280307d3","study_id":"60edd13110225f80f9f3709b","session_id":"6196c1ee1e89e06b65dab966","condition":"full-information","relevant_dimensions":["pattern","legs"],"bee_group":{"antennae":"X","wings":"X","pattern":"S","legs":"F"},"bonus":0.9400000000000012},{"rt":11288.099999999627,"response":{"Q0":["Two or six legs","Stripes or spots on body","Single or double wings","Antennae or no antennae"]},"question_order":[0],"trial_type":"survey-multi-select","trial_index":8,"time_elapsed":188965,"internal_node_id":"0.0-3.0-4.0-1.0","subject_id":"614072e717f769e6280307d3","study_id":"60edd13110225f80f9f3709b","session_id":"6196c1ee1e89e06b65dab966","condition":"full-information","relevant_dimensions":["pattern","legs"],"bee_group":{"antennae":"X","wings":"X","pattern":"S","legs":"F"},"correct":true,"bonus":0.9400000000000012},{"rt":20969,"response":{"Q1":"No.","Q2":"Based on the four features of the bee.","Q3":"You learn if it was friendly or dangerous, but do not alter your bonus."},"question_order":[0,1,2],"trial_type":"survey-multi-choice","trial_index":9,"time_elapsed":209936,"internal_node_id":"0.0-3.0-4.0-2.0","subject_id":"614072e717f769e6280307d3","study_id":"60edd13110225f80f9f3709b","session_id":"6196c1ee1e89e06b65dab966","condition":"full-information","relevant_dimensions":["pattern","legs"],"bee_group":{"antennae":"X","wings":"X","pattern":"S","legs":"F"},"correct":true,"bonus":0.9400000000000012},{"rt":6079.299999998882,"stimulus":"<p>Congrats, you got everything right<br>When you're ready, click the button below to continue to the experiment.</p>","response":0,"trial_type":"html-button-response","trial_index":10,"time_elapsed":216017,"internal_node_id":"0.0-3.0-4.0-3.0","subject_id":"614072e717f769e6280307d3","study_id":"60edd13110225f80f9f3709b","session_id":"6196c1ee1e89e06b65dab966","condition":"full-information","relevant_dimensions":["pattern","legs"],"bee_group":{"antennae":"X","wings":"X","pattern":"S","legs":"F"},"bonus":0.9400000000000012},{"rt":7779.9000000003725,"stimulus":"bees-with-color/bee-A2DM.svg","response":0,"trial_type":"image-button-response","trial_index":11,"time_elapsed":223799,"internal_node_id":"0.0-4.0-0.0","subject_id":"614072e717f769e6280307d3","study_id":"60edd13110225f80f9f3709b","session_id":"6196c1ee1e89e06b65dab966","condition":"full-information","relevant_dimensions":["pattern","legs"],"bee_group":{"antennae":"X","wings":"X","pattern":"S","legs":"F"},"action":"harvest","summary":"good-harvest","bonus":0.9400000000000012},{"rt":12664,"stimulus":"\n                    <p><b>Action: <em>harvest</em></b></p>\n                    <p>This is the bee that you just saw.</p>\n                    <img src=\"bees-with-color/bee-A2DM.svg\" width=\"200\">\n                    <p><span class=\"greenText\"><b>Successful harvest!</b></span><br>Your pay has increased by $0.02. Your bonus pay is now $0.56.</p>\n            ","response":0,"trial_type":"html-button-response","trial_index":12,"time_elapsed":236466,"internal_node_id":"0.0-4.0-1.0","subject_id":"614072e717f769e6280307d3","study_id":"60edd13110225f80f9f3709b","session_id":"6196c1ee1e89e06b65dab966","condition":"full-information","relevant_dimensions":["pattern","legs"],"bee_group":{"antennae":"X","wings":"X","pattern":"S","legs":"F"},"bonus":0.9400000000000012},{"rt":2952.300000000745,"stimulus":"bees-with-color/bee-A2DF.svg","response":0,"trial_type":"image-button-response","trial_index":13,"time_elapsed":239420,"internal_node_id":"0.0-4.0-0.1","subject_id":"614072e717f769e6280307d3","study_id":"60edd13110225f80f9f3709b","session_id":"6196c1ee1e89e06b65dab966","condition":"full-information","relevant_dimensions":["pattern","legs"],"bee_group":{"antennae":"X","wings":"X","pattern":"S","legs":"F"},"action":"harvest","summary":"good-harvest","bonus":0.9400000000000012},{"rt":9840.900000000373,"stimulus":"\n                    <p><b>Action: <em>harvest</em></b></p>\n                    <p>This is the bee that you just saw.</p>\n                    <img src=\"bees-with-color/bee-A2DF.svg\" width=\"200\">\n                    <p><span class=\"greenText\"><b>Successful harvest!</b></span><br>Your pay has increased by $0.02. Your bonus pay is now $0.58.</p>\n            ","response":0,"trial_type":"html-button-response","trial_index":14,"time_elapsed":249262,"internal_node_id":"0.0-4.0-1.1","subject_id":"614072e717f769e6280307d3","study_id":"60edd13110225f80f9f3709b","session_id":"6196c1ee1e89e06b65dab966","condition":"full-information","relevant_dimensions":["pattern","legs"],"bee_group":{"antennae":"X","wings":"X","pattern":"S","legs":"F"},"bonus":0.9400000000000012},{"rt":4957.39999999851,"stimulus":"bees-with-color/bee-A2SF.svg","response":1,"trial_type":"image-button-response","trial_index":15,"time_elapsed":254222,"internal_node_id":"0.0-4.0-0.2","subject_id":"614072e717f769e6280307d3","study_id":"60edd13110225f80f9f3709b","session_id":"6196c1ee1e89e06b65dab966","condition":"full-information","relevant_dimensions":["pattern","legs"],"bee_group":{"antennae":"X","wings":"X","pattern":"S","legs":"F"},"action":"avoid","summary":"good-avoid","bonus":0.9400000000000012},{"rt":9469.300000000745,"stimulus":"\n                    <p><b>Action: <em>avoid</em></b></p>\n                    <p>This is the bee that you just saw.</p>\n                    <img src=\"bees-with-color/bee-A2SF.svg\" width=\"200\">\n                    <p><span class=\"greenText\">Good choice!</span>  This bee would have stung you.<br>Your bonus pay is unchanged, and remains at $0.58.</p>\n            ","response":0,"trial_type":"html-button-response","trial_index":16,"time_elapsed":263693,"internal_node_id":"0.0-4.0-1.2","subject_id":"614072e717f769e6280307d3","study_id":"60edd13110225f80f9f3709b","session_id":"6196c1ee1e89e06b65dab966","condition":"full-information","relevant_dimensions":["pattern","legs"],"bee_group":{"antennae":"X","wings":"X","pattern":"S","legs":"F"},"bonus":0.9400000000000012},{"rt":1341.0999999996275,"stimulus":"bees-with-color/bee-A1DM.svg","response":0,"trial_type":"image-button-response","trial_index":17,"time_elapsed":265036,"internal_node_id":"0.0-4.0-0.3","subject_id":"614072e717f769e6280307d3","study_id":"60edd13110225f80f9f3709b","session_id":"6196c1ee1e89e06b65dab966","condition":"full-information","relevant_dimensions":["pattern","legs"],"bee_group":{"antennae":"X","wings":"X","pattern":"S","legs":"F"},"action":"harvest","summary":"good-harvest","bonus":0.9400000000000012},{"rt":8180.0999999996275,"stimulus":"\n                    <p><b>Action: <em>harvest</em></b></p>\n                    <p>This is the bee that you just saw.</p>\n                    <img src=\"bees-with-color/bee-A1DM.svg\" width=\"200\">\n                    <p><span class=\"greenText\"><b>Successful harvest!</b></span><br>Your pay has increased by $0.02. Your bonus pay is now $0.60.</p>\n            ","response":0,"trial_type":"html-button-response","trial_index":18,"time_elapsed":273217,"internal_node_id":"0.0-4.0-1.3","subject_id":"614072e717f769e6280307d3","study_id":"60edd13110225f80f9f3709b","session_id":"6196c1ee1e89e06b65dab966","condition":"full-information","relevant_dimensions":["pattern","legs"],"bee_group":{"antennae":"X","wings":"X","pattern":"S","legs":"F"},"bonus":0.9400000000000012},{"rt":1697.4000000003725,"stimulus":"bees-with-color/bee-A2SM.svg","response":1,"trial_type":"image-button-response","trial_index":19,"time_elapsed":274916,"internal_node_id":"0.0-4.0-0.4","subject_id":"614072e717f769e6280307d3","study_id":"60edd13110225f80f9f3709b","session_id":"6196c1ee1e89e06b65dab966","condition":"full-information","relevant_dimensions":["pattern","legs"],"bee_group":{"antennae":"X","wings":"X","pattern":"S","legs":"F"},"action":"avoid","summary":"bad-avoid","bonus":0.9400000000000012},{"rt":6293.60000000149,"stimulus":"\n                    <p><b>Action: <em>avoid</em></b></p>\n                    <p>This is the bee that you just saw.</p>\n                    <img src=\"bees-with-color/bee-A2SM.svg\" width=\"200\">\n                    <p><span class=\"redText\">Bad choice,</span> the bee was friendly.<br>Your bonus pay is unchanged, and remains at $0.60.</p>\n            ","response":0,"trial_type":"html-button-response","trial_index":20,"time_elapsed":281212,"internal_node_id":"0.0-4.0-1.4","subject_id":"614072e717f769e6280307d3","study_id":"60edd13110225f80f9f3709b","session_id":"6196c1ee1e89e06b65dab966","condition":"full-information","relevant_dimensions":["pattern","legs"],"bee_group":{"antennae":"X","wings":"X","pattern":"S","legs":"F"},"bonus":0.9400000000000012},{"rt":3937.800000000745,"stimulus":"bees-with-color/bee-B1DM.svg","response":0,"trial_type":"image-button-response","trial_index":21,"time_elapsed":285152,"internal_node_id":"0.0-4.0-0.5","subject_id":"614072e717f769e6280307d3","study_id":"60edd13110225f80f9f3709b","session_id":"6196c1ee1e89e06b65dab966","condition":"full-information","relevant_dimensions":["pattern","legs"],"bee_group":{"antennae":"X","wings":"X","pattern":"S","legs":"F"},"action":"harvest","summary":"good-harvest","bonus":0.9400000000000012},{"rt":6353.9000000003725,"stimulus":"\n                    <p><b>Action: <em>harvest</em></b></p>\n                    <p>This is the bee that you just saw.</p>\n                    <img src=\"bees-with-color/bee-B1DM.svg\" width=\"200\">\n                    <p><span class=\"greenText\"><b>Successful harvest!</b></span><br>Your pay has increased by $0.02. Your bonus pay is now $0.62.</p>\n            ","response":0,"trial_type":"html-button-response","trial_index":22,"time_elapsed":291507,"internal_node_id":"0.0-4.0-1.5","subject_id":"614072e717f769e6280307d3","study_id":"60edd13110225f80f9f3709b","session_id":"6196c1ee1e89e06b65dab966","condition":"full-information","relevant_dimensions":["pattern","legs"],"bee_group":{"antennae":"X","wings":"X","pattern":"S","legs":"F"},"bonus":0.9400000000000012},{"rt":2676.0999999996275,"stimulus":"bees-with-color/bee-A1DF.svg","response":1,"trial_type":"image-button-response","trial_index":23,"time_elapsed":294185,"internal_node_id":"0.0-4.0-0.6","subject_id":"614072e717f769e6280307d3","study_id":"60edd13110225f80f9f3709b","session_id":"6196c1ee1e89e06b65dab966","condition":"full-information","relevant_dimensions":["pattern","legs"],"bee_group":{"antennae":"X","wings":"X","pattern":"S","legs":"F"},"action":"avoid","summary":"bad-avoid","bonus":0.9400000000000012},{"rt":1377.800000000745,"stimulus":"\n                    <p><b>Action: <em>avoid</em></b></p>\n                    <p>This is the bee that you just saw.</p>\n                    <img src=\"bees-with-color/bee-A1DF.svg\" width=\"200\">\n                    <p><span class=\"redText\">Bad choice,</span> the bee was friendly.<br>Your bonus pay is unchanged, and remains at $0.62.</p>\n            ","response":0,"trial_type":"html-button-response","trial_index":24,"time_elapsed":295564,"internal_node_id":"0.0-4.0-1.6","subject_id":"614072e717f769e6280307d3","study_id":"60edd13110225f80f9f3709b","session_id":"6196c1ee1e89e06b65dab966","condition":"full-information","relevant_dimensions":["pattern","legs"],"bee_group":{"antennae":"X","wings":"X","pattern":"S","legs":"F"},"bonus":0.9400000000000012},{"rt":1422.300000000745,"stimulus":"bees-with-color/bee-B1SF.svg","response":1,"trial_type":"image-button-response","trial_index":25,"time_elapsed":296988,"internal_node_id":"0.0-4.0-0.7","subject_id":"614072e717f769e6280307d3","study_id":"60edd13110225f80f9f3709b","session_id":"6196c1ee1e89e06b65dab966","condition":"full-information","relevant_dimensions":["pattern","legs"],"bee_group":{"antennae":"X","wings":"X","pattern":"S","legs":"F"},"action":"avoid","summary":"good-avoid","bonus":0.9400000000000012},{"rt":2838.5,"stimulus":"\n                    <p><b>Action: <em>avoid</em></b></p>\n                    <p>This is the bee that you just saw.</p>\n                    <img src=\"bees-with-color/bee-B1SF.svg\" width=\"200\">\n                    <p><span class=\"greenText\">Good choice!</span>  This bee would have stung you.<br>Your bonus pay is unchanged, and remains at $0.62.</p>\n            ","response":0,"trial_type":"html-button-response","trial_index":26,"time_elapsed":299828,"internal_node_id":"0.0-4.0-1.7","subject_id":"614072e717f769e6280307d3","study_id":"60edd13110225f80f9f3709b","session_id":"6196c1ee1e89e06b65dab966","condition":"full-information","relevant_dimensions":["pattern","legs"],"bee_group":{"antennae":"X","wings":"X","pattern":"S","legs":"F"},"bonus":0.9400000000000012},{"rt":1559.9000000003725,"stimulus":"bees-with-color/bee-B2DF.svg","response":0,"trial_type":"image-button-response","trial_index":27,"time_elapsed":301390,"internal_node_id":"0.0-4.0-0.8","subject_id":"614072e717f769e6280307d3","study_id":"60edd13110225f80f9f3709b","session_id":"6196c1ee1e89e06b65dab966","condition":"full-information","relevant_dimensions":["pattern","legs"],"bee_group":{"antennae":"X","wings":"X","pattern":"S","legs":"F"},"action":"harvest","summary":"good-harvest","bonus":0.9400000000000012},{"rt":3882.0999999996275,"stimulus":"\n                    <p><b>Action: <em>harvest</em></b></p>\n                    <p>This is the bee that you just saw.</p>\n                    <img src=\"bees-with-color/bee-B2DF.svg\" width=\"200\">\n                    <p><span class=\"greenText\"><b>Successful harvest!</b></span><br>Your pay has increased by $0.02. Your bonus pay is now $0.64.</p>\n            ","response":0,"trial_type":"html-button-response","trial_index":28,"time_elapsed":305273,"internal_node_id":"0.0-4.0-1.8","subject_id":"614072e717f769e6280307d3","study_id":"60edd13110225f80f9f3709b","session_id":"6196c1ee1e89e06b65dab966","condition":"full-information","relevant_dimensions":["pattern","legs"],"bee_group":{"antennae":"X","wings":"X","pattern":"S","legs":"F"},"bonus":0.9400000000000012},{"rt":4189.0999999996275,"stimulus":"bees-with-color/bee-B1DF.svg","response":0,"trial_type":"image-button-response","trial_index":29,"time_elapsed":309464,"internal_node_id":"0.0-4.0-0.9","subject_id":"614072e717f769e6280307d3","study_id":"60edd13110225f80f9f3709b","session_id":"6196c1ee1e89e06b65dab966","condition":"full-information","relevant_dimensions":["pattern","legs"],"bee_group":{"antennae":"X","wings":"X","pattern":"S","legs":"F"},"action":"harvest","summary":"good-harvest","bonus":0.9400000000000012},{"rt":2401,"stimulus":"\n                    <p><b>Action: <em>harvest</em></b></p>\n                    <p>This is the bee that you just saw.</p>\n                    <img src=\"bees-with-color/bee-B1DF.svg\" width=\"200\">\n                    <p><span class=\"greenText\"><b>Successful harvest!</b></span><br>Your pay has increased by $0.02. Your bonus pay is now $0.66.</p>\n            ","response":0,"trial_type":"html-button-response","trial_index":30,"time_elapsed":311866,"internal_node_id":"0.0-4.0-1.9","subject_id":"614072e717f769e6280307d3","study_id":"60edd13110225f80f9f3709b","session_id":"6196c1ee1e89e06b65dab966","condition":"full-information","relevant_dimensions":["pattern","legs"],"bee_group":{"antennae":"X","wings":"X","pattern":"S","legs":"F"},"bonus":0.9400000000000012},{"rt":1899.800000000745,"stimulus":"bees-with-color/bee-B2SM.svg","response":1,"trial_type":"image-button-response","trial_index":31,"time_elapsed":313768,"internal_node_id":"0.0-4.0-0.10","subject_id":"614072e717f769e6280307d3","study_id":"60edd13110225f80f9f3709b","session_id":"6196c1ee1e89e06b65dab966","condition":"full-information","relevant_dimensions":["pattern","legs"],"bee_group":{"antennae":"X","wings":"X","pattern":"S","legs":"F"},"action":"avoid","summary":"bad-avoid","bonus":0.9400000000000012},{"rt":8048.300000000745,"stimulus":"\n                    <p><b>Action: <em>avoid</em></b></p>\n                    <p>This is the bee that you just saw.</p>\n                    <img src=\"bees-with-color/bee-B2SM.svg\" width=\"200\">\n                    <p><span class=\"redText\">Bad choice,</span> the bee was friendly.<br>Your bonus pay is unchanged, and remains at $0.66.</p>\n            ","response":0,"trial_type":"html-button-response","trial_index":32,"time_elapsed":321818,"internal_node_id":"0.0-4.0-1.10","subject_id":"614072e717f769e6280307d3","study_id":"60edd13110225f80f9f3709b","session_id":"6196c1ee1e89e06b65dab966","condition":"full-information","relevant_dimensions":["pattern","legs"],"bee_group":{"antennae":"X","wings":"X","pattern":"S","legs":"F"},"bonus":0.9400000000000012},{"rt":1611.800000000745,"stimulus":"bees-with-color/bee-A1SF.svg","response":1,"trial_type":"image-button-response","trial_index":33,"time_elapsed":323432,"internal_node_id":"0.0-4.0-0.11","subject_id":"614072e717f769e6280307d3","study_id":"60edd13110225f80f9f3709b","session_id":"6196c1ee1e89e06b65dab966","condition":"full-information","relevant_dimensions":["pattern","legs"],"bee_group":{"antennae":"X","wings":"X","pattern":"S","legs":"F"},"action":"avoid","summary":"good-avoid","bonus":0.9400000000000012},{"rt":1657.2999999988824,"stimulus":"\n                    <p><b>Action: <em>avoid</em></b></p>\n                    <p>This is the bee that you just saw.</p>\n                    <img src=\"bees-with-color/bee-A1SF.svg\" width=\"200\">\n                    <p><span class=\"greenText\">Good choice!</span>  This bee would have stung you.<br>Your bonus pay is unchanged, and remains at $0.66.</p>\n            ","response":0,"trial_type":"html-button-response","trial_index":34,"time_elapsed":325090,"internal_node_id":"0.0-4.0-1.11","subject_id":"614072e717f769e6280307d3","study_id":"60edd13110225f80f9f3709b","session_id":"6196c1ee1e89e06b65dab966","condition":"full-information","relevant_dimensions":["pattern","legs"],"bee_group":{"antennae":"X","wings":"X","pattern":"S","legs":"F"},"bonus":0.9400000000000012},{"rt":2231.5999999996275,"stimulus":"bees-with-color/bee-B2SF.svg","response":0,"trial_type":"image-button-response","trial_index":35,"time_elapsed":327323,"internal_node_id":"0.0-4.0-0.12","subject_id":"614072e717f769e6280307d3","study_id":"60edd13110225f80f9f3709b","session_id":"6196c1ee1e89e06b65dab966","condition":"full-information","relevant_dimensions":["pattern","legs"],"bee_group":{"antennae":"X","wings":"X","pattern":"S","legs":"F"},"action":"harvest","summary":"bad-harvest","bonus":0.9400000000000012},{"rt":5233.0999999996275,"stimulus":"\n                    <p><b>Action: <em>harvest</em></b></p>\n                    <p>This is the bee that you just saw.</p>\n                    <img src=\"bees-with-color/bee-B2SF.svg\" width=\"200\">\n                    <p><span class=\"redText\">Bad choice, the bee was angry.</span><br><b>You have been stung!</b><br>Your pay has been decreased by $0.10. Your bonus pay is now $0.56.</p>\n            ","response":0,"trial_type":"html-button-response","trial_index":36,"time_elapsed":332558,"internal_node_id":"0.0-4.0-1.12","subject_id":"614072e717f769e6280307d3","study_id":"60edd13110225f80f9f3709b","session_id":"6196c1ee1e89e06b65dab966","condition":"full-information","relevant_dimensions":["pattern","legs"],"bee_group":{"antennae":"X","wings":"X","pattern":"S","legs":"F"},"bonus":0.9400000000000012},{"rt":1397.800000000745,"stimulus":"bees-with-color/bee-B2DM.svg","response":0,"trial_type":"image-button-response","trial_index":37,"time_elapsed":333957,"internal_node_id":"0.0-4.0-0.13","subject_id":"614072e717f769e6280307d3","study_id":"60edd13110225f80f9f3709b","session_id":"6196c1ee1e89e06b65dab966","condition":"full-information","relevant_dimensions":["pattern","legs"],"bee_group":{"antennae":"X","wings":"X","pattern":"S","legs":"F"},"action":"harvest","summary":"good-harvest","bonus":0.9400000000000012},{"rt":3032.5,"stimulus":"\n                    <p><b>Action: <em>harvest</em></b></p>\n                    <p>This is the bee that you just saw.</p>\n                    <img src=\"bees-with-color/bee-B2DM.svg\" width=\"200\">\n                    <p><span class=\"greenText\"><b>Successful harvest!</b></span><br>Your pay has increased by $0.02. Your bonus pay is now $0.58.</p>\n            ","response":0,"trial_type":"html-button-response","trial_index":38,"time_elapsed":336991,"internal_node_id":"0.0-4.0-1.13","subject_id":"614072e717f769e6280307d3","study_id":"60edd13110225f80f9f3709b","session_id":"6196c1ee1e89e06b65dab966","condition":"full-information","relevant_dimensions":["pattern","legs"],"bee_group":{"antennae":"X","wings":"X","pattern":"S","legs":"F"},"bonus":0.9400000000000012},{"rt":2834,"stimulus":"bees-with-color/bee-A1SM.svg","response":0,"trial_type":"image-button-response","trial_index":39,"time_elapsed":339827,"internal_node_id":"0.0-4.0-0.14","subject_id":"614072e717f769e6280307d3","study_id":"60edd13110225f80f9f3709b","session_id":"6196c1ee1e89e06b65dab966","condition":"full-information","relevant_dimensions":["pattern","legs"],"bee_group":{"antennae":"X","wings":"X","pattern":"S","legs":"F"},"action":"harvest","summary":"good-harvest","bonus":0.9400000000000012},{"rt":3072.9000000003725,"stimulus":"\n                    <p><b>Action: <em>harvest</em></b></p>\n                    <p>This is the bee that you just saw.</p>\n                    <img src=\"bees-with-color/bee-A1SM.svg\" width=\"200\">\n                    <p><span class=\"greenText\"><b>Successful harvest!</b></span><br>Your pay has increased by $0.02. Your bonus pay is now $0.60.</p>\n            ","response":0,"trial_type":"html-button-response","trial_index":40,"time_elapsed":342901,"internal_node_id":"0.0-4.0-1.14","subject_id":"614072e717f769e6280307d3","study_id":"60edd13110225f80f9f3709b","session_id":"6196c1ee1e89e06b65dab966","condition":"full-information","relevant_dimensions":["pattern","legs"],"bee_group":{"antennae":"X","wings":"X","pattern":"S","legs":"F"},"bonus":0.9400000000000012},{"rt":1915.9000000003725,"stimulus":"bees-with-color/bee-B1SM.svg","response":0,"trial_type":"image-button-response","trial_index":41,"time_elapsed":344819,"internal_node_id":"0.0-4.0-0.15","subject_id":"614072e717f769e6280307d3","study_id":"60edd13110225f80f9f3709b","session_id":"6196c1ee1e89e06b65dab966","condition":"full-information","relevant_dimensions":["pattern","legs"],"bee_group":{"antennae":"X","wings":"X","pattern":"S","legs":"F"},"action":"harvest","summary":"good-harvest","bonus":0.9400000000000012},{"rt":1195.800000000745,"stimulus":"\n                    <p><b>Action: <em>harvest</em></b></p>\n                    <p>This is the bee that you just saw.</p>\n                    <img src=\"bees-with-color/bee-B1SM.svg\" width=\"200\">\n                    <p><span class=\"greenText\"><b>Successful harvest!</b></span><br>Your pay has increased by $0.02. Your bonus pay is now $0.62.</p>\n            ","response":0,"trial_type":"html-button-response","trial_index":42,"time_elapsed":346016,"internal_node_id":"0.0-4.0-1.15","subject_id":"614072e717f769e6280307d3","study_id":"60edd13110225f80f9f3709b","session_id":"6196c1ee1e89e06b65dab966","condition":"full-information","relevant_dimensions":["pattern","legs"],"bee_group":{"antennae":"X","wings":"X","pattern":"S","legs":"F"},"bonus":0.9400000000000012},{"rt":3930.5999999996275,"stimulus":"bees-with-color/bee-B2SM.svg","response":1,"trial_type":"image-button-response","trial_index":43,"time_elapsed":349948,"internal_node_id":"0.0-4.0-0.16","subject_id":"614072e717f769e6280307d3","study_id":"60edd13110225f80f9f3709b","session_id":"6196c1ee1e89e06b65dab966","condition":"full-information","relevant_dimensions":["pattern","legs"],"bee_group":{"antennae":"X","wings":"X","pattern":"S","legs":"F"},"action":"avoid","summary":"bad-avoid","bonus":0.9400000000000012},{"rt":3376.800000000745,"stimulus":"\n                    <p><b>Action: <em>avoid</em></b></p>\n                    <p>This is the bee that you just saw.</p>\n                    <img src=\"bees-with-color/bee-B2SM.svg\" width=\"200\">\n                    <p><span class=\"redText\">Bad choice,</span> the bee was friendly.<br>Your bonus pay is unchanged, and remains at $0.62.</p>\n            ","response":0,"trial_type":"html-button-response","trial_index":44,"time_elapsed":353326,"internal_node_id":"0.0-4.0-1.16","subject_id":"614072e717f769e6280307d3","study_id":"60edd13110225f80f9f3709b","session_id":"6196c1ee1e89e06b65dab966","condition":"full-information","relevant_dimensions":["pattern","legs"],"bee_group":{"antennae":"X","wings":"X","pattern":"S","legs":"F"},"bonus":0.9400000000000012},{"rt":1535.199999999255,"stimulus":"bees-with-color/bee-B1DF.svg","response":0,"trial_type":"image-button-response","trial_index":45,"time_elapsed":354863,"internal_node_id":"0.0-4.0-0.17","subject_id":"614072e717f769e6280307d3","study_id":"60edd13110225f80f9f3709b","session_id":"6196c1ee1e89e06b65dab966","condition":"full-information","relevant_dimensions":["pattern","legs"],"bee_group":{"antennae":"X","wings":"X","pattern":"S","legs":"F"},"action":"harvest","summary":"good-harvest","bonus":0.9400000000000012},{"rt":2150.5,"stimulus":"\n                    <p><b>Action: <em>harvest</em></b></p>\n                    <p>This is the bee that you just saw.</p>\n                    <img src=\"bees-with-color/bee-B1DF.svg\" width=\"200\">\n                    <p><span class=\"greenText\"><b>Successful harvest!</b></span><br>Your pay has increased by $0.02. Your bonus pay is now $0.64.</p>\n            ","response":0,"trial_type":"html-button-response","trial_index":46,"time_elapsed":357015,"internal_node_id":"0.0-4.0-1.17","subject_id":"614072e717f769e6280307d3","study_id":"60edd13110225f80f9f3709b","session_id":"6196c1ee1e89e06b65dab966","condition":"full-information","relevant_dimensions":["pattern","legs"],"bee_group":{"antennae":"X","wings":"X","pattern":"S","legs":"F"},"bonus":0.9400000000000012},{"rt":2061.5,"stimulus":"bees-with-color/bee-A1DM.svg","response":0,"trial_type":"image-button-response","trial_index":47,"time_elapsed":359078,"internal_node_id":"0.0-4.0-0.18","subject_id":"614072e717f769e6280307d3","study_id":"60edd13110225f80f9f3709b","session_id":"6196c1ee1e89e06b65dab966","condition":"full-information","relevant_dimensions":["pattern","legs"],"bee_group":{"antennae":"X","wings":"X","pattern":"S","legs":"F"},"action":"harvest","summary":"good-harvest","bonus":0.9400000000000012},{"rt":1280.7000000011176,"stimulus":"\n                    <p><b>Action: <em>harvest</em></b></p>\n                    <p>This is the bee that you just saw.</p>\n                    <img src=\"bees-with-color/bee-A1DM.svg\" width=\"200\">\n                    <p><span class=\"greenText\"><b>Successful harvest!</b></span><br>Your pay has increased by $0.02. Your bonus pay is now $0.66.</p>\n            ","response":0,"trial_type":"html-button-response","trial_index":48,"time_elapsed":360361,"internal_node_id":"0.0-4.0-1.18","subject_id":"614072e717f769e6280307d3","study_id":"60edd13110225f80f9f3709b","session_id":"6196c1ee1e89e06b65dab966","condition":"full-information","relevant_dimensions":["pattern","legs"],"bee_group":{"antennae":"X","wings":"X","pattern":"S","legs":"F"},"bonus":0.9400000000000012},{"rt":4560.5999999996275,"stimulus":"bees-with-color/bee-B1SM.svg","response":1,"trial_type":"image-button-response","trial_index":49,"time_elapsed":364923,"internal_node_id":"0.0-4.0-0.19","subject_id":"614072e717f769e6280307d3","study_id":"60edd13110225f80f9f3709b","session_id":"6196c1ee1e89e06b65dab966","condition":"full-information","relevant_dimensions":["pattern","legs"],"bee_group":{"antennae":"X","wings":"X","pattern":"S","legs":"F"},"action":"avoid","summary":"bad-avoid","bonus":0.9400000000000012},{"rt":1658.5999999996275,"stimulus":"\n                    <p><b>Action: <em>avoid</em></b></p>\n                    <p>This is the bee that you just saw.</p>\n                    <img src=\"bees-with-color/bee-B1SM.svg\" width=\"200\">\n                    <p><span class=\"redText\">Bad choice,</span> the bee was friendly.<br>Your bonus pay is unchanged, and remains at $0.66.</p>\n            ","response":0,"trial_type":"html-button-response","trial_index":50,"time_elapsed":366583,"internal_node_id":"0.0-4.0-1.19","subject_id":"614072e717f769e6280307d3","study_id":"60edd13110225f80f9f3709b","session_id":"6196c1ee1e89e06b65dab966","condition":"full-information","relevant_dimensions":["pattern","legs"],"bee_group":{"antennae":"X","wings":"X","pattern":"S","legs":"F"},"bonus":0.9400000000000012},{"rt":2093,"stimulus":"bees-with-color/bee-A2DF.svg","response":0,"trial_type":"image-button-response","trial_index":51,"time_elapsed":368677,"internal_node_id":"0.0-4.0-0.20","subject_id":"614072e717f769e6280307d3","study_id":"60edd13110225f80f9f3709b","session_id":"6196c1ee1e89e06b65dab966","condition":"full-information","relevant_dimensions":["pattern","legs"],"bee_group":{"antennae":"X","wings":"X","pattern":"S","legs":"F"},"action":"harvest","summary":"good-harvest","bonus":0.9400000000000012},{"rt":1180.800000000745,"stimulus":"\n                    <p><b>Action: <em>harvest</em></b></p>\n                    <p>This is the bee that you just saw.</p>\n                    <img src=\"bees-with-color/bee-A2DF.svg\" width=\"200\">\n                    <p><span class=\"greenText\"><b>Successful harvest!</b></span><br>Your pay has increased by $0.02. Your bonus pay is now $0.68.</p>\n            ","response":0,"trial_type":"html-button-response","trial_index":52,"time_elapsed":369859,"internal_node_id":"0.0-4.0-1.20","subject_id":"614072e717f769e6280307d3","study_id":"60edd13110225f80f9f3709b","session_id":"6196c1ee1e89e06b65dab966","condition":"full-information","relevant_dimensions":["pattern","legs"],"bee_group":{"antennae":"X","wings":"X","pattern":"S","legs":"F"},"bonus":0.9400000000000012},{"rt":1268.5999999996275,"stimulus":"bees-with-color/bee-B1SF.svg","response":0,"trial_type":"image-button-response","trial_index":53,"time_elapsed":371129,"internal_node_id":"0.0-4.0-0.21","subject_id":"614072e717f769e6280307d3","study_id":"60edd13110225f80f9f3709b","session_id":"6196c1ee1e89e06b65dab966","condition":"full-information","relevant_dimensions":["pattern","legs"],"bee_group":{"antennae":"X","wings":"X","pattern":"S","legs":"F"},"action":"harvest","summary":"bad-harvest","bonus":0.9400000000000012},{"rt":1875.4000000003725,"stimulus":"\n                    <p><b>Action: <em>harvest</em></b></p>\n                    <p>This is the bee that you just saw.</p>\n                    <img src=\"bees-with-color/bee-B1SF.svg\" width=\"200\">\n                    <p><span class=\"redText\">Bad choice, the bee was angry.</span><br><b>You have been stung!</b><br>Your pay has been decreased by $0.10. Your bonus pay is now $0.58.</p>\n            ","response":0,"trial_type":"html-button-response","trial_index":54,"time_elapsed":373006,"internal_node_id":"0.0-4.0-1.21","subject_id":"614072e717f769e6280307d3","study_id":"60edd13110225f80f9f3709b","session_id":"6196c1ee1e89e06b65dab966","condition":"full-information","relevant_dimensions":["pattern","legs"],"bee_group":{"antennae":"X","wings":"X","pattern":"S","legs":"F"},"bonus":0.9400000000000012},{"rt":1058.5,"stimulus":"bees-with-color/bee-B2DF.svg","response":0,"trial_type":"image-button-response","trial_index":55,"time_elapsed":374066,"internal_node_id":"0.0-4.0-0.22","subject_id":"614072e717f769e6280307d3","study_id":"60edd13110225f80f9f3709b","session_id":"6196c1ee1e89e06b65dab966","condition":"full-information","relevant_dimensions":["pattern","legs"],"bee_group":{"antennae":"X","wings":"X","pattern":"S","legs":"F"},"action":"harvest","summary":"good-harvest","bonus":0.9400000000000012},{"rt":1705.7999999988824,"stimulus":"\n                    <p><b>Action: <em>harvest</em></b></p>\n                    <p>This is the bee that you just saw.</p>\n                    <img src=\"bees-with-color/bee-B2DF.svg\" width=\"200\">\n                    <p><span class=\"greenText\"><b>Successful harvest!</b></span><br>Your pay has increased by $0.02. Your bonus pay is now $0.60.</p>\n            ","response":0,"trial_type":"html-button-response","trial_index":56,"time_elapsed":375773,"internal_node_id":"0.0-4.0-1.22","subject_id":"614072e717f769e6280307d3","study_id":"60edd13110225f80f9f3709b","session_id":"6196c1ee1e89e06b65dab966","condition":"full-information","relevant_dimensions":["pattern","legs"],"bee_group":{"antennae":"X","wings":"X","pattern":"S","legs":"F"},"bonus":0.9400000000000012},{"rt":6228.89999999851,"stimulus":"bees-with-color/bee-A1SF.svg","response":1,"trial_type":"image-button-response","trial_index":57,"time_elapsed":382004,"internal_node_id":"0.0-4.0-0.23","subject_id":"614072e717f769e6280307d3","study_id":"60edd13110225f80f9f3709b","session_id":"6196c1ee1e89e06b65dab966","condition":"full-information","relevant_dimensions":["pattern","legs"],"bee_group":{"antennae":"X","wings":"X","pattern":"S","legs":"F"},"action":"avoid","summary":"good-avoid","bonus":0.9400000000000012},{"rt":2514.300000000745,"stimulus":"\n                    <p><b>Action: <em>avoid</em></b></p>\n                    <p>This is the bee that you just saw.</p>\n                    <img src=\"bees-with-color/bee-A1SF.svg\" width=\"200\">\n                    <p><span class=\"greenText\">Good choice!</span>  This bee would have stung you.<br>Your bonus pay is unchanged, and remains at $0.60.</p>\n            ","response":0,"trial_type":"html-button-response","trial_index":58,"time_elapsed":384519,"internal_node_id":"0.0-4.0-1.23","subject_id":"614072e717f769e6280307d3","study_id":"60edd13110225f80f9f3709b","session_id":"6196c1ee1e89e06b65dab966","condition":"full-information","relevant_dimensions":["pattern","legs"],"bee_group":{"antennae":"X","wings":"X","pattern":"S","legs":"F"},"bonus":0.9400000000000012},{"rt":2764.800000000745,"stimulus":"bees-with-color/bee-A1SM.svg","response":1,"trial_type":"image-button-response","trial_index":59,"time_elapsed":387286,"internal_node_id":"0.0-4.0-0.24","subject_id":"614072e717f769e6280307d3","study_id":"60edd13110225f80f9f3709b","session_id":"6196c1ee1e89e06b65dab966","condition":"full-information","relevant_dimensions":["pattern","legs"],"bee_group":{"antennae":"X","wings":"X","pattern":"S","legs":"F"},"action":"avoid","summary":"bad-avoid","bonus":0.9400000000000012},{"rt":1519.2000000011176,"stimulus":"\n                    <p><b>Action: <em>avoid</em></b></p>\n                    <p>This is the bee that you just saw.</p>\n                    <img src=\"bees-with-color/bee-A1SM.svg\" width=\"200\">\n                    <p><span class=\"redText\">Bad choice,</span> the bee was friendly.<br>Your bonus pay is unchanged, and remains at $0.60.</p>\n            ","response":0,"trial_type":"html-button-response","trial_index":60,"time_elapsed":388807,"internal_node_id":"0.0-4.0-1.24","subject_id":"614072e717f769e6280307d3","study_id":"60edd13110225f80f9f3709b","session_id":"6196c1ee1e89e06b65dab966","condition":"full-information","relevant_dimensions":["pattern","legs"],"bee_group":{"antennae":"X","wings":"X","pattern":"S","legs":"F"},"bonus":0.9400000000000012},{"rt":4189.300000000745,"stimulus":"bees-with-color/bee-A2SM.svg","response":0,"trial_type":"image-button-response","trial_index":61,"time_elapsed":392998,"internal_node_id":"0.0-4.0-0.25","subject_id":"614072e717f769e6280307d3","study_id":"60edd13110225f80f9f3709b","session_id":"6196c1ee1e89e06b65dab966","condition":"full-information","relevant_dimensions":["pattern","legs"],"bee_group":{"antennae":"X","wings":"X","pattern":"S","legs":"F"},"action":"harvest","summary":"good-harvest","bonus":0.9400000000000012},{"rt":1194.8999999985099,"stimulus":"\n                    <p><b>Action: <em>harvest</em></b></p>\n                    <p>This is the bee that you just saw.</p>\n                    <img src=\"bees-with-color/bee-A2SM.svg\" width=\"200\">\n                    <p><span class=\"greenText\"><b>Successful harvest!</b></span><br>Your pay has increased by $0.02. Your bonus pay is now $0.62.</p>\n            ","response":0,"trial_type":"html-button-response","trial_index":62,"time_elapsed":394194,"internal_node_id":"0.0-4.0-1.25","subject_id":"614072e717f769e6280307d3","study_id":"60edd13110225f80f9f3709b","session_id":"6196c1ee1e89e06b65dab966","condition":"full-information","relevant_dimensions":["pattern","legs"],"bee_group":{"antennae":"X","wings":"X","pattern":"S","legs":"F"},"bonus":0.9400000000000012},{"rt":1285.5999999996275,"stimulus":"bees-with-color/bee-B2DM.svg","response":0,"trial_type":"image-button-response","trial_index":63,"time_elapsed":395482,"internal_node_id":"0.0-4.0-0.26","subject_id":"614072e717f769e6280307d3","study_id":"60edd13110225f80f9f3709b","session_id":"6196c1ee1e89e06b65dab966","condition":"full-information","relevant_dimensions":["pattern","legs"],"bee_group":{"antennae":"X","wings":"X","pattern":"S","legs":"F"},"action":"harvest","summary":"good-harvest","bonus":0.9400000000000012},{"rt":1276.7000000011176,"stimulus":"\n                    <p><b>Action: <em>harvest</em></b></p>\n                    <p>This is the bee that you just saw.</p>\n                    <img src=\"bees-with-color/bee-B2DM.svg\" width=\"200\">\n                    <p><span class=\"greenText\"><b>Successful harvest!</b></span><br>Your pay has increased by $0.02. Your bonus pay is now $0.64.</p>\n            ","response":0,"trial_type":"html-button-response","trial_index":64,"time_elapsed":396760,"internal_node_id":"0.0-4.0-1.26","subject_id":"614072e717f769e6280307d3","study_id":"60edd13110225f80f9f3709b","session_id":"6196c1ee1e89e06b65dab966","condition":"full-information","relevant_dimensions":["pattern","legs"],"bee_group":{"antennae":"X","wings":"X","pattern":"S","legs":"F"},"bonus":0.9400000000000012},{"rt":2352.5999999996275,"stimulus":"bees-with-color/bee-B2SF.svg","response":0,"trial_type":"image-button-response","trial_index":65,"time_elapsed":399114,"internal_node_id":"0.0-4.0-0.27","subject_id":"614072e717f769e6280307d3","study_id":"60edd13110225f80f9f3709b","session_id":"6196c1ee1e89e06b65dab966","condition":"full-information","relevant_dimensions":["pattern","legs"],"bee_group":{"antennae":"X","wings":"X","pattern":"S","legs":"F"},"action":"harvest","summary":"bad-harvest","bonus":0.9400000000000012},{"rt":1423.3999999985099,"stimulus":"\n                    <p><b>Action: <em>harvest</em></b></p>\n                    <p>This is the bee that you just saw.</p>\n                    <img src=\"bees-with-color/bee-B2SF.svg\" width=\"200\">\n                    <p><span class=\"redText\">Bad choice, the bee was angry.</span><br><b>You have been stung!</b><br>Your pay has been decreased by $0.10. Your bonus pay is now $0.54.</p>\n            ","response":0,"trial_type":"html-button-response","trial_index":66,"time_elapsed":400539,"internal_node_id":"0.0-4.0-1.27","subject_id":"614072e717f769e6280307d3","study_id":"60edd13110225f80f9f3709b","session_id":"6196c1ee1e89e06b65dab966","condition":"full-information","relevant_dimensions":["pattern","legs"],"bee_group":{"antennae":"X","wings":"X","pattern":"S","legs":"F"},"bonus":0.9400000000000012},{"rt":863.4000000003725,"stimulus":"bees-with-color/bee-B1DM.svg","response":0,"trial_type":"image-button-response","trial_index":67,"time_elapsed":401404,"internal_node_id":"0.0-4.0-0.28","subject_id":"614072e717f769e6280307d3","study_id":"60edd13110225f80f9f3709b","session_id":"6196c1ee1e89e06b65dab966","condition":"full-information","relevant_dimensions":["pattern","legs"],"bee_group":{"antennae":"X","wings":"X","pattern":"S","legs":"F"},"action":"harvest","summary":"good-harvest","bonus":0.9400000000000012},{"rt":1277,"stimulus":"\n                    <p><b>Action: <em>harvest</em></b></p>\n                    <p>This is the bee that you just saw.</p>\n                    <img src=\"bees-with-color/bee-B1DM.svg\" width=\"200\">\n                    <p><span class=\"greenText\"><b>Successful harvest!</b></span><br>Your pay has increased by $0.02. Your bonus pay is now $0.56.</p>\n            ","response":0,"trial_type":"html-button-response","trial_index":68,"time_elapsed":402682,"internal_node_id":"0.0-4.0-1.28","subject_id":"614072e717f769e6280307d3","study_id":"60edd13110225f80f9f3709b","session_id":"6196c1ee1e89e06b65dab966","condition":"full-information","relevant_dimensions":["pattern","legs"],"bee_group":{"antennae":"X","wings":"X","pattern":"S","legs":"F"},"bonus":0.9400000000000012},{"rt":1308.8999999985099,"stimulus":"bees-with-color/bee-A2DM.svg","response":0,"trial_type":"image-button-response","trial_index":69,"time_elapsed":403992,"internal_node_id":"0.0-4.0-0.29","subject_id":"614072e717f769e6280307d3","study_id":"60edd13110225f80f9f3709b","session_id":"6196c1ee1e89e06b65dab966","condition":"full-information","relevant_dimensions":["pattern","legs"],"bee_group":{"antennae":"X","wings":"X","pattern":"S","legs":"F"},"action":"harvest","summary":"good-harvest","bonus":0.9400000000000012},{"rt":1216.699999999255,"stimulus":"\n                    <p><b>Action: <em>harvest</em></b></p>\n                    <p>This is the bee that you just saw.</p>\n                    <img src=\"bees-with-color/bee-A2DM.svg\" width=\"200\">\n                    <p><span class=\"greenText\"><b>Successful harvest!</b></span><br>Your pay has increased by $0.02. Your bonus pay is now $0.58.</p>\n            ","response":0,"trial_type":"html-button-response","trial_index":70,"time_elapsed":405210,"internal_node_id":"0.0-4.0-1.29","subject_id":"614072e717f769e6280307d3","study_id":"60edd13110225f80f9f3709b","session_id":"6196c1ee1e89e06b65dab966","condition":"full-information","relevant_dimensions":["pattern","legs"],"bee_group":{"antennae":"X","wings":"X","pattern":"S","legs":"F"},"bonus":0.9400000000000012},{"rt":2368,"stimulus":"bees-with-color/bee-A1DF.svg","response":0,"trial_type":"image-button-response","trial_index":71,"time_elapsed":407579,"internal_node_id":"0.0-4.0-0.30","subject_id":"614072e717f769e6280307d3","study_id":"60edd13110225f80f9f3709b","session_id":"6196c1ee1e89e06b65dab966","condition":"full-information","relevant_dimensions":["pattern","legs"],"bee_group":{"antennae":"X","wings":"X","pattern":"S","legs":"F"},"action":"harvest","summary":"good-harvest","bonus":0.9400000000000012},{"rt":3761,"stimulus":"\n                    <p><b>Action: <em>harvest</em></b></p>\n                    <p>This is the bee that you just saw.</p>\n                    <img src=\"bees-with-color/bee-A1DF.svg\" width=\"200\">\n                    <p><span class=\"greenText\"><b>Successful harvest!</b></span><br>Your pay has increased by $0.02. Your bonus pay is now $0.60.</p>\n            ","response":0,"trial_type":"html-button-response","trial_index":72,"time_elapsed":411343,"internal_node_id":"0.0-4.0-1.30","subject_id":"614072e717f769e6280307d3","study_id":"60edd13110225f80f9f3709b","session_id":"6196c1ee1e89e06b65dab966","condition":"full-information","relevant_dimensions":["pattern","legs"],"bee_group":{"antennae":"X","wings":"X","pattern":"S","legs":"F"},"bonus":0.9400000000000012},{"rt":2725,"stimulus":"bees-with-color/bee-A2SF.svg","response":0,"trial_type":"image-button-response","trial_index":73,"time_elapsed":414069,"internal_node_id":"0.0-4.0-0.31","subject_id":"614072e717f769e6280307d3","study_id":"60edd13110225f80f9f3709b","session_id":"6196c1ee1e89e06b65dab966","condition":"full-information","relevant_dimensions":["pattern","legs"],"bee_group":{"antennae":"X","wings":"X","pattern":"S","legs":"F"},"action":"harvest","summary":"bad-harvest","bonus":0.9400000000000012},{"rt":1342,"stimulus":"\n                    <p><b>Action: <em>harvest</em></b></p>\n                    <p>This is the bee that you just saw.</p>\n                    <img src=\"bees-with-color/bee-A2SF.svg\" width=\"200\">\n                    <p><span class=\"redText\">Bad choice, the bee was angry.</span><br><b>You have been stung!</b><br>Your pay has been decreased by $0.10. Your bonus pay is now $0.50.</p>\n            ","response":0,"trial_type":"html-button-response","trial_index":74,"time_elapsed":415413,"internal_node_id":"0.0-4.0-1.31","subject_id":"614072e717f769e6280307d3","study_id":"60edd13110225f80f9f3709b","session_id":"6196c1ee1e89e06b65dab966","condition":"full-information","relevant_dimensions":["pattern","legs"],"bee_group":{"antennae":"X","wings":"X","pattern":"S","legs":"F"},"bonus":0.9400000000000012},{"rt":1575.699999999255,"stimulus":"bees-with-color/bee-A2SF.svg","response":0,"trial_type":"image-button-response","trial_index":75,"time_elapsed":416990,"internal_node_id":"0.0-4.0-0.32","subject_id":"614072e717f769e6280307d3","study_id":"60edd13110225f80f9f3709b","session_id":"6196c1ee1e89e06b65dab966","condition":"full-information","relevant_dimensions":["pattern","legs"],"bee_group":{"antennae":"X","wings":"X","pattern":"S","legs":"F"},"action":"harvest","summary":"bad-harvest","bonus":0.9400000000000012},{"rt":1180.0999999996275,"stimulus":"\n                    <p><b>Action: <em>harvest</em></b></p>\n                    <p>This is the bee that you just saw.</p>\n                    <img src=\"bees-with-color/bee-A2SF.svg\" width=\"200\">\n                    <p><span class=\"redText\">Bad choice, the bee was angry.</span><br><b>You have been stung!</b><br>Your pay has been decreased by $0.10. Your bonus pay is now $0.40.</p>\n            ","response":0,"trial_type":"html-button-response","trial_index":76,"time_elapsed":418171,"internal_node_id":"0.0-4.0-1.32","subject_id":"614072e717f769e6280307d3","study_id":"60edd13110225f80f9f3709b","session_id":"6196c1ee1e89e06b65dab966","condition":"full-information","relevant_dimensions":["pattern","legs"],"bee_group":{"antennae":"X","wings":"X","pattern":"S","legs":"F"},"bonus":0.9400000000000012},{"rt":1471.2000000011176,"stimulus":"bees-with-color/bee-A2DF.svg","response":0,"trial_type":"image-button-response","trial_index":77,"time_elapsed":419644,"internal_node_id":"0.0-4.0-0.33","subject_id":"614072e717f769e6280307d3","study_id":"60edd13110225f80f9f3709b","session_id":"6196c1ee1e89e06b65dab966","condition":"full-information","relevant_dimensions":["pattern","legs"],"bee_group":{"antennae":"X","wings":"X","pattern":"S","legs":"F"},"action":"harvest","summary":"good-harvest","bonus":0.9400000000000012},{"rt":1830.800000000745,"stimulus":"\n                    <p><b>Action: <em>harvest</em></b></p>\n                    <p>This is the bee that you just saw.</p>\n                    <img src=\"bees-with-color/bee-A2DF.svg\" width=\"200\">\n                    <p><span class=\"greenText\"><b>Successful harvest!</b></span><br>Your pay has increased by $0.02. Your bonus pay is now $0.42.</p>\n            ","response":0,"trial_type":"html-button-response","trial_index":78,"time_elapsed":421476,"internal_node_id":"0.0-4.0-1.33","subject_id":"614072e717f769e6280307d3","study_id":"60edd13110225f80f9f3709b","session_id":"6196c1ee1e89e06b65dab966","condition":"full-information","relevant_dimensions":["pattern","legs"],"bee_group":{"antennae":"X","wings":"X","pattern":"S","legs":"F"},"bonus":0.9400000000000012},{"rt":3096.9000000003725,"stimulus":"bees-with-color/bee-B1SM.svg","response":0,"trial_type":"image-button-response","trial_index":79,"time_elapsed":424575,"internal_node_id":"0.0-4.0-0.34","subject_id":"614072e717f769e6280307d3","study_id":"60edd13110225f80f9f3709b","session_id":"6196c1ee1e89e06b65dab966","condition":"full-information","relevant_dimensions":["pattern","legs"],"bee_group":{"antennae":"X","wings":"X","pattern":"S","legs":"F"},"action":"harvest","summary":"good-harvest","bonus":0.9400000000000012},{"rt":1491.2999999988824,"stimulus":"\n                    <p><b>Action: <em>harvest</em></b></p>\n                    <p>This is the bee that you just saw.</p>\n                    <img src=\"bees-with-color/bee-B1SM.svg\" width=\"200\">\n                    <p><span class=\"greenText\"><b>Successful harvest!</b></span><br>Your pay has increased by $0.02. Your bonus pay is now $0.44.</p>\n            ","response":0,"trial_type":"html-button-response","trial_index":80,"time_elapsed":426067,"internal_node_id":"0.0-4.0-1.34","subject_id":"614072e717f769e6280307d3","study_id":"60edd13110225f80f9f3709b","session_id":"6196c1ee1e89e06b65dab966","condition":"full-information","relevant_dimensions":["pattern","legs"],"bee_group":{"antennae":"X","wings":"X","pattern":"S","legs":"F"},"bonus":0.9400000000000012},{"rt":5063.300000000745,"stimulus":"bees-with-color/bee-A1DF.svg","response":0,"trial_type":"image-button-response","trial_index":81,"time_elapsed":431132,"internal_node_id":"0.0-4.0-0.35","subject_id":"614072e717f769e6280307d3","study_id":"60edd13110225f80f9f3709b","session_id":"6196c1ee1e89e06b65dab966","condition":"full-information","relevant_dimensions":["pattern","legs"],"bee_group":{"antennae":"X","wings":"X","pattern":"S","legs":"F"},"action":"harvest","summary":"good-harvest","bonus":0.9400000000000012},{"rt":1673.4000000003725,"stimulus":"\n                    <p><b>Action: <em>harvest</em></b></p>\n                    <p>This is the bee that you just saw.</p>\n                    <img src=\"bees-with-color/bee-A1DF.svg\" width=\"200\">\n                    <p><span class=\"greenText\"><b>Successful harvest!</b></span><br>Your pay has increased by $0.02. Your bonus pay is now $0.46.</p>\n            ","response":0,"trial_type":"html-button-response","trial_index":82,"time_elapsed":432807,"internal_node_id":"0.0-4.0-1.35","subject_id":"614072e717f769e6280307d3","study_id":"60edd13110225f80f9f3709b","session_id":"6196c1ee1e89e06b65dab966","condition":"full-information","relevant_dimensions":["pattern","legs"],"bee_group":{"antennae":"X","wings":"X","pattern":"S","legs":"F"},"bonus":0.9400000000000012},{"rt":1130.5,"stimulus":"bees-with-color/bee-B1DF.svg","response":0,"trial_type":"image-button-response","trial_index":83,"time_elapsed":433939,"internal_node_id":"0.0-4.0-0.36","subject_id":"614072e717f769e6280307d3","study_id":"60edd13110225f80f9f3709b","session_id":"6196c1ee1e89e06b65dab966","condition":"full-information","relevant_dimensions":["pattern","legs"],"bee_group":{"antennae":"X","wings":"X","pattern":"S","legs":"F"},"action":"harvest","summary":"good-harvest","bonus":0.9400000000000012},{"rt":1292.5,"stimulus":"\n                    <p><b>Action: <em>harvest</em></b></p>\n                    <p>This is the bee that you just saw.</p>\n                    <img src=\"bees-with-color/bee-B1DF.svg\" width=\"200\">\n                    <p><span class=\"greenText\"><b>Successful harvest!</b></span><br>Your pay has increased by $0.02. Your bonus pay is now $0.48.</p>\n            ","response":0,"trial_type":"html-button-response","trial_index":84,"time_elapsed":435233,"internal_node_id":"0.0-4.0-1.36","subject_id":"614072e717f769e6280307d3","study_id":"60edd13110225f80f9f3709b","session_id":"6196c1ee1e89e06b65dab966","condition":"full-information","relevant_dimensions":["pattern","legs"],"bee_group":{"antennae":"X","wings":"X","pattern":"S","legs":"F"},"bonus":0.9400000000000012},{"rt":1868.5999999996275,"stimulus":"bees-with-color/bee-A2DM.svg","response":0,"trial_type":"image-button-response","trial_index":85,"time_elapsed":437103,"internal_node_id":"0.0-4.0-0.37","subject_id":"614072e717f769e6280307d3","study_id":"60edd13110225f80f9f3709b","session_id":"6196c1ee1e89e06b65dab966","condition":"full-information","relevant_dimensions":["pattern","legs"],"bee_group":{"antennae":"X","wings":"X","pattern":"S","legs":"F"},"action":"harvest","summary":"good-harvest","bonus":0.9400000000000012},{"rt":1478.699999999255,"stimulus":"\n                    <p><b>Action: <em>harvest</em></b></p>\n                    <p>This is the bee that you just saw.</p>\n                    <img src=\"bees-with-color/bee-A2DM.svg\" width=\"200\">\n                    <p><span class=\"greenText\"><b>Successful harvest!</b></span><br>Your pay has increased by $0.02. Your bonus pay is now $0.50.</p>\n            ","response":0,"trial_type":"html-button-response","trial_index":86,"time_elapsed":438583,"internal_node_id":"0.0-4.0-1.37","subject_id":"614072e717f769e6280307d3","study_id":"60edd13110225f80f9f3709b","session_id":"6196c1ee1e89e06b65dab966","condition":"full-information","relevant_dimensions":["pattern","legs"],"bee_group":{"antennae":"X","wings":"X","pattern":"S","legs":"F"},"bonus":0.9400000000000012},{"rt":3428.699999999255,"stimulus":"bees-with-color/bee-A1SM.svg","response":0,"trial_type":"image-button-response","trial_index":87,"time_elapsed":442014,"internal_node_id":"0.0-4.0-0.38","subject_id":"614072e717f769e6280307d3","study_id":"60edd13110225f80f9f3709b","session_id":"6196c1ee1e89e06b65dab966","condition":"full-information","relevant_dimensions":["pattern","legs"],"bee_group":{"antennae":"X","wings":"X","pattern":"S","legs":"F"},"action":"harvest","summary":"good-harvest","bonus":0.9400000000000012},{"rt":1341.699999999255,"stimulus":"\n                    <p><b>Action: <em>harvest</em></b></p>\n                    <p>This is the bee that you just saw.</p>\n                    <img src=\"bees-with-color/bee-A1SM.svg\" width=\"200\">\n                    <p><span class=\"greenText\"><b>Successful harvest!</b></span><br>Your pay has increased by $0.02. Your bonus pay is now $0.52.</p>\n            ","response":0,"trial_type":"html-button-response","trial_index":88,"time_elapsed":443357,"internal_node_id":"0.0-4.0-1.38","subject_id":"614072e717f769e6280307d3","study_id":"60edd13110225f80f9f3709b","session_id":"6196c1ee1e89e06b65dab966","condition":"full-information","relevant_dimensions":["pattern","legs"],"bee_group":{"antennae":"X","wings":"X","pattern":"S","legs":"F"},"bonus":0.9400000000000012},{"rt":3428.5999999996275,"stimulus":"bees-with-color/bee-B2SF.svg","response":1,"trial_type":"image-button-response","trial_index":89,"time_elapsed":446787,"internal_node_id":"0.0-4.0-0.39","subject_id":"614072e717f769e6280307d3","study_id":"60edd13110225f80f9f3709b","session_id":"6196c1ee1e89e06b65dab966","condition":"full-information","relevant_dimensions":["pattern","legs"],"bee_group":{"antennae":"X","wings":"X","pattern":"S","legs":"F"},"action":"avoid","summary":"good-avoid","bonus":0.9400000000000012},{"rt":1567.800000000745,"stimulus":"\n                    <p><b>Action: <em>avoid</em></b></p>\n                    <p>This is the bee that you just saw.</p>\n                    <img src=\"bees-with-color/bee-B2SF.svg\" width=\"200\">\n                    <p><span class=\"greenText\">Good choice!</span>  This bee would have stung you.<br>Your bonus pay is unchanged, and remains at $0.52.</p>\n            ","response":0,"trial_type":"html-button-response","trial_index":90,"time_elapsed":448356,"internal_node_id":"0.0-4.0-1.39","subject_id":"614072e717f769e6280307d3","study_id":"60edd13110225f80f9f3709b","session_id":"6196c1ee1e89e06b65dab966","condition":"full-information","relevant_dimensions":["pattern","legs"],"bee_group":{"antennae":"X","wings":"X","pattern":"S","legs":"F"},"bonus":0.9400000000000012},{"rt":2199.199999999255,"stimulus":"bees-with-color/bee-A1SF.svg","response":0,"trial_type":"image-button-response","trial_index":91,"time_elapsed":450557,"internal_node_id":"0.0-4.0-0.40","subject_id":"614072e717f769e6280307d3","study_id":"60edd13110225f80f9f3709b","session_id":"6196c1ee1e89e06b65dab966","condition":"full-information","relevant_dimensions":["pattern","legs"],"bee_group":{"antennae":"X","wings":"X","pattern":"S","legs":"F"},"action":"harvest","summary":"bad-harvest","bonus":0.9400000000000012},{"rt":1547.8999999985099,"stimulus":"\n                    <p><b>Action: <em>harvest</em></b></p>\n                    <p>This is the bee that you just saw.</p>\n                    <img src=\"bees-with-color/bee-A1SF.svg\" width=\"200\">\n                    <p><span class=\"redText\">Bad choice, the bee was angry.</span><br><b>You have been stung!</b><br>Your pay has been decreased by $0.10. Your bonus pay is now $0.42.</p>\n            ","response":0,"trial_type":"html-button-response","trial_index":92,"time_elapsed":452106,"internal_node_id":"0.0-4.0-1.40","subject_id":"614072e717f769e6280307d3","study_id":"60edd13110225f80f9f3709b","session_id":"6196c1ee1e89e06b65dab966","condition":"full-information","relevant_dimensions":["pattern","legs"],"bee_group":{"antennae":"X","wings":"X","pattern":"S","legs":"F"},"bonus":0.9400000000000012},{"rt":2878.199999999255,"stimulus":"bees-with-color/bee-A2SM.svg","response":1,"trial_type":"image-button-response","trial_index":93,"time_elapsed":454986,"internal_node_id":"0.0-4.0-0.41","subject_id":"614072e717f769e6280307d3","study_id":"60edd13110225f80f9f3709b","session_id":"6196c1ee1e89e06b65dab966","condition":"full-information","relevant_dimensions":["pattern","legs"],"bee_group":{"antennae":"X","wings":"X","pattern":"S","legs":"F"},"action":"avoid","summary":"bad-avoid","bonus":0.9400000000000012},{"rt":1625,"stimulus":"\n                    <p><b>Action: <em>avoid</em></b></p>\n                    <p>This is the bee that you just saw.</p>\n                    <img src=\"bees-with-color/bee-A2SM.svg\" width=\"200\">\n                    <p><span class=\"redText\">Bad choice,</span> the bee was friendly.<br>Your bonus pay is unchanged, and remains at $0.42.</p>\n            ","response":0,"trial_type":"html-button-response","trial_index":94,"time_elapsed":456613,"internal_node_id":"0.0-4.0-1.41","subject_id":"614072e717f769e6280307d3","study_id":"60edd13110225f80f9f3709b","session_id":"6196c1ee1e89e06b65dab966","condition":"full-information","relevant_dimensions":["pattern","legs"],"bee_group":{"antennae":"X","wings":"X","pattern":"S","legs":"F"},"bonus":0.9400000000000012},{"rt":960.9000000003725,"stimulus":"bees-with-color/bee-A1DM.svg","response":0,"trial_type":"image-button-response","trial_index":95,"time_elapsed":457575,"internal_node_id":"0.0-4.0-0.42","subject_id":"614072e717f769e6280307d3","study_id":"60edd13110225f80f9f3709b","session_id":"6196c1ee1e89e06b65dab966","condition":"full-information","relevant_dimensions":["pattern","legs"],"bee_group":{"antennae":"X","wings":"X","pattern":"S","legs":"F"},"action":"harvest","summary":"good-harvest","bonus":0.9400000000000012},{"rt":1252.9000000003725,"stimulus":"\n                    <p><b>Action: <em>harvest</em></b></p>\n                    <p>This is the bee that you just saw.</p>\n                    <img src=\"bees-with-color/bee-A1DM.svg\" width=\"200\">\n                    <p><span class=\"greenText\"><b>Successful harvest!</b></span><br>Your pay has increased by $0.02. Your bonus pay is now $0.44.</p>\n            ","response":0,"trial_type":"html-button-response","trial_index":96,"time_elapsed":458829,"internal_node_id":"0.0-4.0-1.42","subject_id":"614072e717f769e6280307d3","study_id":"60edd13110225f80f9f3709b","session_id":"6196c1ee1e89e06b65dab966","condition":"full-information","relevant_dimensions":["pattern","legs"],"bee_group":{"antennae":"X","wings":"X","pattern":"S","legs":"F"},"bonus":0.9400000000000012},{"rt":1382.2999999988824,"stimulus":"bees-with-color/bee-B2SM.svg","response":0,"trial_type":"image-button-response","trial_index":97,"time_elapsed":460213,"internal_node_id":"0.0-4.0-0.43","subject_id":"614072e717f769e6280307d3","study_id":"60edd13110225f80f9f3709b","session_id":"6196c1ee1e89e06b65dab966","condition":"full-information","relevant_dimensions":["pattern","legs"],"bee_group":{"antennae":"X","wings":"X","pattern":"S","legs":"F"},"action":"harvest","summary":"good-harvest","bonus":0.9400000000000012},{"rt":1454.9000000003725,"stimulus":"\n                    <p><b>Action: <em>harvest</em></b></p>\n                    <p>This is the bee that you just saw.</p>\n                    <img src=\"bees-with-color/bee-B2SM.svg\" width=\"200\">\n                    <p><span class=\"greenText\"><b>Successful harvest!</b></span><br>Your pay has increased by $0.02. Your bonus pay is now $0.46.</p>\n            ","response":0,"trial_type":"html-button-response","trial_index":98,"time_elapsed":461669,"internal_node_id":"0.0-4.0-1.43","subject_id":"614072e717f769e6280307d3","study_id":"60edd13110225f80f9f3709b","session_id":"6196c1ee1e89e06b65dab966","condition":"full-information","relevant_dimensions":["pattern","legs"],"bee_group":{"antennae":"X","wings":"X","pattern":"S","legs":"F"},"bonus":0.9400000000000012},{"rt":1276.5999999996275,"stimulus":"bees-with-color/bee-B1SF.svg","response":1,"trial_type":"image-button-response","trial_index":99,"time_elapsed":462947,"internal_node_id":"0.0-4.0-0.44","subject_id":"614072e717f769e6280307d3","study_id":"60edd13110225f80f9f3709b","session_id":"6196c1ee1e89e06b65dab966","condition":"full-information","relevant_dimensions":["pattern","legs"],"bee_group":{"antennae":"X","wings":"X","pattern":"S","legs":"F"},"action":"avoid","summary":"good-avoid","bonus":0.9400000000000012},{"rt":1038.699999999255,"stimulus":"\n                    <p><b>Action: <em>avoid</em></b></p>\n                    <p>This is the bee that you just saw.</p>\n                    <img src=\"bees-with-color/bee-B1SF.svg\" width=\"200\">\n                    <p><span class=\"greenText\">Good choice!</span>  This bee would have stung you.<br>Your bonus pay is unchanged, and remains at $0.46.</p>\n            ","response":0,"trial_type":"html-button-response","trial_index":100,"time_elapsed":463987,"internal_node_id":"0.0-4.0-1.44","subject_id":"614072e717f769e6280307d3","study_id":"60edd13110225f80f9f3709b","session_id":"6196c1ee1e89e06b65dab966","condition":"full-information","relevant_dimensions":["pattern","legs"],"bee_group":{"antennae":"X","wings":"X","pattern":"S","legs":"F"},"bonus":0.9400000000000012},{"rt":1301.5,"stimulus":"bees-with-color/bee-B1DM.svg","response":0,"trial_type":"image-button-response","trial_index":101,"time_elapsed":465289,"internal_node_id":"0.0-4.0-0.45","subject_id":"614072e717f769e6280307d3","study_id":"60edd13110225f80f9f3709b","session_id":"6196c1ee1e89e06b65dab966","condition":"full-information","relevant_dimensions":["pattern","legs"],"bee_group":{"antennae":"X","wings":"X","pattern":"S","legs":"F"},"action":"harvest","summary":"good-harvest","bonus":0.9400000000000012},{"rt":1980.5999999996275,"stimulus":"\n                    <p><b>Action: <em>harvest</em></b></p>\n                    <p>This is the bee that you just saw.</p>\n                    <img src=\"bees-with-color/bee-B1DM.svg\" width=\"200\">\n                    <p><span class=\"greenText\"><b>Successful harvest!</b></span><br>Your pay has increased by $0.02. Your bonus pay is now $0.48.</p>\n            ","response":0,"trial_type":"html-button-response","trial_index":102,"time_elapsed":467271,"internal_node_id":"0.0-4.0-1.45","subject_id":"614072e717f769e6280307d3","study_id":"60edd13110225f80f9f3709b","session_id":"6196c1ee1e89e06b65dab966","condition":"full-information","relevant_dimensions":["pattern","legs"],"bee_group":{"antennae":"X","wings":"X","pattern":"S","legs":"F"},"bonus":0.9400000000000012},{"rt":1341,"stimulus":"bees-with-color/bee-B2DF.svg","response":0,"trial_type":"image-button-response","trial_index":103,"time_elapsed":468614,"internal_node_id":"0.0-4.0-0.46","subject_id":"614072e717f769e6280307d3","study_id":"60edd13110225f80f9f3709b","session_id":"6196c1ee1e89e06b65dab966","condition":"full-information","relevant_dimensions":["pattern","legs"],"bee_group":{"antennae":"X","wings":"X","pattern":"S","legs":"F"},"action":"harvest","summary":"good-harvest","bonus":0.9400000000000012},{"rt":1090.5,"stimulus":"\n                    <p><b>Action: <em>harvest</em></b></p>\n                    <p>This is the bee that you just saw.</p>\n                    <img src=\"bees-with-color/bee-B2DF.svg\" width=\"200\">\n                    <p><span class=\"greenText\"><b>Successful harvest!</b></span><br>Your pay has increased by $0.02. Your bonus pay is now $0.50.</p>\n            ","response":0,"trial_type":"html-button-response","trial_index":104,"time_elapsed":469706,"internal_node_id":"0.0-4.0-1.46","subject_id":"614072e717f769e6280307d3","study_id":"60edd13110225f80f9f3709b","session_id":"6196c1ee1e89e06b65dab966","condition":"full-information","relevant_dimensions":["pattern","legs"],"bee_group":{"antennae":"X","wings":"X","pattern":"S","legs":"F"},"bonus":0.9400000000000012},{"rt":1123.699999999255,"stimulus":"bees-with-color/bee-B2DM.svg","response":0,"trial_type":"image-button-response","trial_index":105,"time_elapsed":470831,"internal_node_id":"0.0-4.0-0.47","subject_id":"614072e717f769e6280307d3","study_id":"60edd13110225f80f9f3709b","session_id":"6196c1ee1e89e06b65dab966","condition":"full-information","relevant_dimensions":["pattern","legs"],"bee_group":{"antennae":"X","wings":"X","pattern":"S","legs":"F"},"action":"harvest","summary":"good-harvest","bonus":0.9400000000000012},{"rt":2050,"stimulus":"\n                    <p><b>Action: <em>harvest</em></b></p>\n                    <p>This is the bee that you just saw.</p>\n                    <img src=\"bees-with-color/bee-B2DM.svg\" width=\"200\">\n                    <p><span class=\"greenText\"><b>Successful harvest!</b></span><br>Your pay has increased by $0.02. Your bonus pay is now $0.52.</p>\n            ","response":0,"trial_type":"html-button-response","trial_index":106,"time_elapsed":472882,"internal_node_id":"0.0-4.0-1.47","subject_id":"614072e717f769e6280307d3","study_id":"60edd13110225f80f9f3709b","session_id":"6196c1ee1e89e06b65dab966","condition":"full-information","relevant_dimensions":["pattern","legs"],"bee_group":{"antennae":"X","wings":"X","pattern":"S","legs":"F"},"bonus":0.9400000000000012},{"rt":2028,"stimulus":"bees-with-color/bee-A1DF.svg","response":0,"trial_type":"image-button-response","trial_index":107,"time_elapsed":474912,"internal_node_id":"0.0-4.0-0.48","subject_id":"614072e717f769e6280307d3","study_id":"60edd13110225f80f9f3709b","session_id":"6196c1ee1e89e06b65dab966","condition":"full-information","relevant_dimensions":["pattern","legs"],"bee_group":{"antennae":"X","wings":"X","pattern":"S","legs":"F"},"action":"harvest","summary":"good-harvest","bonus":0.9400000000000012},{"rt":1026.0999999996275,"stimulus":"\n                    <p><b>Action: <em>harvest</em></b></p>\n                    <p>This is the bee that you just saw.</p>\n                    <img src=\"bees-with-color/bee-A1DF.svg\" width=\"200\">\n                    <p><span class=\"greenText\"><b>Successful harvest!</b></span><br>Your pay has increased by $0.02. Your bonus pay is now $0.54.</p>\n            ","response":0,"trial_type":"html-button-response","trial_index":108,"time_elapsed":475939,"internal_node_id":"0.0-4.0-1.48","subject_id":"614072e717f769e6280307d3","study_id":"60edd13110225f80f9f3709b","session_id":"6196c1ee1e89e06b65dab966","condition":"full-information","relevant_dimensions":["pattern","legs"],"bee_group":{"antennae":"X","wings":"X","pattern":"S","legs":"F"},"bonus":0.9400000000000012},{"rt":1167.2000000011176,"stimulus":"bees-with-color/bee-A2DM.svg","response":0,"trial_type":"image-button-response","trial_index":109,"time_elapsed":477108,"internal_node_id":"0.0-4.0-0.49","subject_id":"614072e717f769e6280307d3","study_id":"60edd13110225f80f9f3709b","session_id":"6196c1ee1e89e06b65dab966","condition":"full-information","relevant_dimensions":["pattern","legs"],"bee_group":{"antennae":"X","wings":"X","pattern":"S","legs":"F"},"action":"harvest","summary":"good-harvest","bonus":0.9400000000000012},{"rt":1083.199999999255,"stimulus":"\n                    <p><b>Action: <em>harvest</em></b></p>\n                    <p>This is the bee that you just saw.</p>\n                    <img src=\"bees-with-color/bee-A2DM.svg\" width=\"200\">\n                    <p><span class=\"greenText\"><b>Successful harvest!</b></span><br>Your pay has increased by $0.02. Your bonus pay is now $0.56.</p>\n            ","response":0,"trial_type":"html-button-response","trial_index":110,"time_elapsed":478193,"internal_node_id":"0.0-4.0-1.49","subject_id":"614072e717f769e6280307d3","study_id":"60edd13110225f80f9f3709b","session_id":"6196c1ee1e89e06b65dab966","condition":"full-information","relevant_dimensions":["pattern","legs"],"bee_group":{"antennae":"X","wings":"X","pattern":"S","legs":"F"},"bonus":0.9400000000000012},{"rt":4854.39999999851,"stimulus":"bees-with-color/bee-A2SM.svg","response":0,"trial_type":"image-button-response","trial_index":111,"time_elapsed":483049,"internal_node_id":"0.0-4.0-0.50","subject_id":"614072e717f769e6280307d3","study_id":"60edd13110225f80f9f3709b","session_id":"6196c1ee1e89e06b65dab966","condition":"full-information","relevant_dimensions":["pattern","legs"],"bee_group":{"antennae":"X","wings":"X","pattern":"S","legs":"F"},"action":"harvest","summary":"good-harvest","bonus":0.9400000000000012},{"rt":3034.5,"stimulus":"\n                    <p><b>Action: <em>harvest</em></b></p>\n                    <p>This is the bee that you just saw.</p>\n                    <img src=\"bees-with-color/bee-A2SM.svg\" width=\"200\">\n                    <p><span class=\"greenText\"><b>Successful harvest!</b></span><br>Your pay has increased by $0.02. Your bonus pay is now $0.58.</p>\n            ","response":0,"trial_type":"html-button-response","trial_index":112,"time_elapsed":486085,"internal_node_id":"0.0-4.0-1.50","subject_id":"614072e717f769e6280307d3","study_id":"60edd13110225f80f9f3709b","session_id":"6196c1ee1e89e06b65dab966","condition":"full-information","relevant_dimensions":["pattern","legs"],"bee_group":{"antennae":"X","wings":"X","pattern":"S","legs":"F"},"bonus":0.9400000000000012},{"rt":1519.4000000003725,"stimulus":"bees-with-color/bee-B1DM.svg","response":0,"trial_type":"image-button-response","trial_index":113,"time_elapsed":487606,"internal_node_id":"0.0-4.0-0.51","subject_id":"614072e717f769e6280307d3","study_id":"60edd13110225f80f9f3709b","session_id":"6196c1ee1e89e06b65dab966","condition":"full-information","relevant_dimensions":["pattern","legs"],"bee_group":{"antennae":"X","wings":"X","pattern":"S","legs":"F"},"action":"harvest","summary":"good-harvest","bonus":0.9400000000000012},{"rt":1357.9000000003725,"stimulus":"\n                    <p><b>Action: <em>harvest</em></b></p>\n                    <p>This is the bee that you just saw.</p>\n                    <img src=\"bees-with-color/bee-B1DM.svg\" width=\"200\">\n                    <p><span class=\"greenText\"><b>Successful harvest!</b></span><br>Your pay has increased by $0.02. Your bonus pay is now $0.60.</p>\n            ","response":0,"trial_type":"html-button-response","trial_index":114,"time_elapsed":488966,"internal_node_id":"0.0-4.0-1.51","subject_id":"614072e717f769e6280307d3","study_id":"60edd13110225f80f9f3709b","session_id":"6196c1ee1e89e06b65dab966","condition":"full-information","relevant_dimensions":["pattern","legs"],"bee_group":{"antennae":"X","wings":"X","pattern":"S","legs":"F"},"bonus":0.9400000000000012},{"rt":1866.699999999255,"stimulus":"bees-with-color/bee-A1SF.svg","response":1,"trial_type":"image-button-response","trial_index":115,"time_elapsed":490834,"internal_node_id":"0.0-4.0-0.52","subject_id":"614072e717f769e6280307d3","study_id":"60edd13110225f80f9f3709b","session_id":"6196c1ee1e89e06b65dab966","condition":"full-information","relevant_dimensions":["pattern","legs"],"bee_group":{"antennae":"X","wings":"X","pattern":"S","legs":"F"},"action":"avoid","summary":"good-avoid","bonus":0.9400000000000012},{"rt":1074.2999999988824,"stimulus":"\n                    <p><b>Action: <em>avoid</em></b></p>\n                    <p>This is the bee that you just saw.</p>\n                    <img src=\"bees-with-color/bee-A1SF.svg\" width=\"200\">\n                    <p><span class=\"greenText\">Good choice!</span>  This bee would have stung you.<br>Your bonus pay is unchanged, and remains at $0.60.</p>\n            ","response":0,"trial_type":"html-button-response","trial_index":116,"time_elapsed":491910,"internal_node_id":"0.0-4.0-1.52","subject_id":"614072e717f769e6280307d3","study_id":"60edd13110225f80f9f3709b","session_id":"6196c1ee1e89e06b65dab966","condition":"full-information","relevant_dimensions":["pattern","legs"],"bee_group":{"antennae":"X","wings":"X","pattern":"S","legs":"F"},"bonus":0.9400000000000012},{"rt":1276.800000000745,"stimulus":"bees-with-color/bee-A1DM.svg","response":0,"trial_type":"image-button-response","trial_index":117,"time_elapsed":493189,"internal_node_id":"0.0-4.0-0.53","subject_id":"614072e717f769e6280307d3","study_id":"60edd13110225f80f9f3709b","session_id":"6196c1ee1e89e06b65dab966","condition":"full-information","relevant_dimensions":["pattern","legs"],"bee_group":{"antennae":"X","wings":"X","pattern":"S","legs":"F"},"action":"harvest","summary":"good-harvest","bonus":0.9400000000000012},{"rt":1308.699999999255,"stimulus":"\n                    <p><b>Action: <em>harvest</em></b></p>\n                    <p>This is the bee that you just saw.</p>\n                    <img src=\"bees-with-color/bee-A1DM.svg\" width=\"200\">\n                    <p><span class=\"greenText\"><b>Successful harvest!</b></span><br>Your pay has increased by $0.02. Your bonus pay is now $0.62.</p>\n            ","response":0,"trial_type":"html-button-response","trial_index":118,"time_elapsed":494499,"internal_node_id":"0.0-4.0-1.53","subject_id":"614072e717f769e6280307d3","study_id":"60edd13110225f80f9f3709b","session_id":"6196c1ee1e89e06b65dab966","condition":"full-information","relevant_dimensions":["pattern","legs"],"bee_group":{"antennae":"X","wings":"X","pattern":"S","legs":"F"},"bonus":0.9400000000000012},{"rt":1535.6000000014901,"stimulus":"bees-with-color/bee-B1DF.svg","response":0,"trial_type":"image-button-response","trial_index":119,"time_elapsed":496036,"internal_node_id":"0.0-4.0-0.54","subject_id":"614072e717f769e6280307d3","study_id":"60edd13110225f80f9f3709b","session_id":"6196c1ee1e89e06b65dab966","condition":"full-information","relevant_dimensions":["pattern","legs"],"bee_group":{"antennae":"X","wings":"X","pattern":"S","legs":"F"},"action":"harvest","summary":"good-harvest","bonus":0.9400000000000012},{"rt":1300.699999999255,"stimulus":"\n                    <p><b>Action: <em>harvest</em></b></p>\n                    <p>This is the bee that you just saw.</p>\n                    <img src=\"bees-with-color/bee-B1DF.svg\" width=\"200\">\n                    <p><span class=\"greenText\"><b>Successful harvest!</b></span><br>Your pay has increased by $0.02. Your bonus pay is now $0.64.</p>\n            ","response":0,"trial_type":"html-button-response","trial_index":120,"time_elapsed":497339,"internal_node_id":"0.0-4.0-1.54","subject_id":"614072e717f769e6280307d3","study_id":"60edd13110225f80f9f3709b","session_id":"6196c1ee1e89e06b65dab966","condition":"full-information","relevant_dimensions":["pattern","legs"],"bee_group":{"antennae":"X","wings":"X","pattern":"S","legs":"F"},"bonus":0.9400000000000012},{"rt":2133.60000000149,"stimulus":"bees-with-color/bee-A2SF.svg","response":1,"trial_type":"image-button-response","trial_index":121,"time_elapsed":499474,"internal_node_id":"0.0-4.0-0.55","subject_id":"614072e717f769e6280307d3","study_id":"60edd13110225f80f9f3709b","session_id":"6196c1ee1e89e06b65dab966","condition":"full-information","relevant_dimensions":["pattern","legs"],"bee_group":{"antennae":"X","wings":"X","pattern":"S","legs":"F"},"action":"avoid","summary":"good-avoid","bonus":0.9400000000000012},{"rt":1106.800000000745,"stimulus":"\n                    <p><b>Action: <em>avoid</em></b></p>\n                    <p>This is the bee that you just saw.</p>\n                    <img src=\"bees-with-color/bee-A2SF.svg\" width=\"200\">\n                    <p><span class=\"greenText\">Good choice!</span>  This bee would have stung you.<br>Your bonus pay is unchanged, and remains at $0.64.</p>\n            ","response":0,"trial_type":"html-button-response","trial_index":122,"time_elapsed":500583,"internal_node_id":"0.0-4.0-1.55","subject_id":"614072e717f769e6280307d3","study_id":"60edd13110225f80f9f3709b","session_id":"6196c1ee1e89e06b65dab966","condition":"full-information","relevant_dimensions":["pattern","legs"],"bee_group":{"antennae":"X","wings":"X","pattern":"S","legs":"F"},"bonus":0.9400000000000012},{"rt":1483.2999999988824,"stimulus":"bees-with-color/bee-B2SM.svg","response":1,"trial_type":"image-button-response","trial_index":123,"time_elapsed":502068,"internal_node_id":"0.0-4.0-0.56","subject_id":"614072e717f769e6280307d3","study_id":"60edd13110225f80f9f3709b","session_id":"6196c1ee1e89e06b65dab966","condition":"full-information","relevant_dimensions":["pattern","legs"],"bee_group":{"antennae":"X","wings":"X","pattern":"S","legs":"F"},"action":"avoid","summary":"bad-avoid","bonus":0.9400000000000012},{"rt":1413.4000000003725,"stimulus":"\n                    <p><b>Action: <em>avoid</em></b></p>\n                    <p>This is the bee that you just saw.</p>\n                    <img src=\"bees-with-color/bee-B2SM.svg\" width=\"200\">\n                    <p><span class=\"redText\">Bad choice,</span> the bee was friendly.<br>Your bonus pay is unchanged, and remains at $0.64.</p>\n            ","response":0,"trial_type":"html-button-response","trial_index":124,"time_elapsed":503483,"internal_node_id":"0.0-4.0-1.56","subject_id":"614072e717f769e6280307d3","study_id":"60edd13110225f80f9f3709b","session_id":"6196c1ee1e89e06b65dab966","condition":"full-information","relevant_dimensions":["pattern","legs"],"bee_group":{"antennae":"X","wings":"X","pattern":"S","legs":"F"},"bonus":0.9400000000000012},{"rt":1065.699999999255,"stimulus":"bees-with-color/bee-B2DM.svg","response":0,"trial_type":"image-button-response","trial_index":125,"time_elapsed":504551,"internal_node_id":"0.0-4.0-0.57","subject_id":"614072e717f769e6280307d3","study_id":"60edd13110225f80f9f3709b","session_id":"6196c1ee1e89e06b65dab966","condition":"full-information","relevant_dimensions":["pattern","legs"],"bee_group":{"antennae":"X","wings":"X","pattern":"S","legs":"F"},"action":"harvest","summary":"good-harvest","bonus":0.9400000000000012},{"rt":1086.300000000745,"stimulus":"\n                    <p><b>Action: <em>harvest</em></b></p>\n                    <p>This is the bee that you just saw.</p>\n                    <img src=\"bees-with-color/bee-B2DM.svg\" width=\"200\">\n                    <p><span class=\"greenText\"><b>Successful harvest!</b></span><br>Your pay has increased by $0.02. Your bonus pay is now $0.66.</p>\n            ","response":0,"trial_type":"html-button-response","trial_index":126,"time_elapsed":505639,"internal_node_id":"0.0-4.0-1.57","subject_id":"614072e717f769e6280307d3","study_id":"60edd13110225f80f9f3709b","session_id":"6196c1ee1e89e06b65dab966","condition":"full-information","relevant_dimensions":["pattern","legs"],"bee_group":{"antennae":"X","wings":"X","pattern":"S","legs":"F"},"bonus":0.9400000000000012},{"rt":3752.300000000745,"stimulus":"bees-with-color/bee-B1SF.svg","response":1,"trial_type":"image-button-response","trial_index":127,"time_elapsed":509393,"internal_node_id":"0.0-4.0-0.58","subject_id":"614072e717f769e6280307d3","study_id":"60edd13110225f80f9f3709b","session_id":"6196c1ee1e89e06b65dab966","condition":"full-information","relevant_dimensions":["pattern","legs"],"bee_group":{"antennae":"X","wings":"X","pattern":"S","legs":"F"},"action":"avoid","summary":"good-avoid","bonus":0.9400000000000012},{"rt":1021.1999999992549,"stimulus":"\n                    <p><b>Action: <em>avoid</em></b></p>\n                    <p>This is the bee that you just saw.</p>\n                    <img src=\"bees-with-color/bee-B1SF.svg\" width=\"200\">\n                    <p><span class=\"greenText\">Good choice!</span>  This bee would have stung you.<br>Your bonus pay is unchanged, and remains at $0.66.</p>\n            ","response":0,"trial_type":"html-button-response","trial_index":128,"time_elapsed":510416,"internal_node_id":"0.0-4.0-1.58","subject_id":"614072e717f769e6280307d3","study_id":"60edd13110225f80f9f3709b","session_id":"6196c1ee1e89e06b65dab966","condition":"full-information","relevant_dimensions":["pattern","legs"],"bee_group":{"antennae":"X","wings":"X","pattern":"S","legs":"F"},"bonus":0.9400000000000012},{"rt":1114.699999999255,"stimulus":"bees-with-color/bee-A2DF.svg","response":0,"trial_type":"image-button-response","trial_index":129,"time_elapsed":511533,"internal_node_id":"0.0-4.0-0.59","subject_id":"614072e717f769e6280307d3","study_id":"60edd13110225f80f9f3709b","session_id":"6196c1ee1e89e06b65dab966","condition":"full-information","relevant_dimensions":["pattern","legs"],"bee_group":{"antennae":"X","wings":"X","pattern":"S","legs":"F"},"action":"harvest","summary":"good-harvest","bonus":0.9400000000000012},{"rt":1495,"stimulus":"\n                    <p><b>Action: <em>harvest</em></b></p>\n                    <p>This is the bee that you just saw.</p>\n                    <img src=\"bees-with-color/bee-A2DF.svg\" width=\"200\">\n                    <p><span class=\"greenText\"><b>Successful harvest!</b></span><br>Your pay has increased by $0.02. Your bonus pay is now $0.68.</p>\n            ","response":0,"trial_type":"html-button-response","trial_index":130,"time_elapsed":513029,"internal_node_id":"0.0-4.0-1.59","subject_id":"614072e717f769e6280307d3","study_id":"60edd13110225f80f9f3709b","session_id":"6196c1ee1e89e06b65dab966","condition":"full-information","relevant_dimensions":["pattern","legs"],"bee_group":{"antennae":"X","wings":"X","pattern":"S","legs":"F"},"bonus":0.9400000000000012},{"rt":4006.7000000011176,"stimulus":"bees-with-color/bee-A1SM.svg","response":0,"trial_type":"image-button-response","trial_index":131,"time_elapsed":517038,"internal_node_id":"0.0-4.0-0.60","subject_id":"614072e717f769e6280307d3","study_id":"60edd13110225f80f9f3709b","session_id":"6196c1ee1e89e06b65dab966","condition":"full-information","relevant_dimensions":["pattern","legs"],"bee_group":{"antennae":"X","wings":"X","pattern":"S","legs":"F"},"action":"harvest","summary":"good-harvest","bonus":0.9400000000000012},{"rt":1494.300000000745,"stimulus":"\n                    <p><b>Action: <em>harvest</em></b></p>\n                    <p>This is the bee that you just saw.</p>\n                    <img src=\"bees-with-color/bee-A1SM.svg\" width=\"200\">\n                    <p><span class=\"greenText\"><b>Successful harvest!</b></span><br>Your pay has increased by $0.02. Your bonus pay is now $0.70.</p>\n            ","response":0,"trial_type":"html-button-response","trial_index":132,"time_elapsed":518535,"internal_node_id":"0.0-4.0-1.60","subject_id":"614072e717f769e6280307d3","study_id":"60edd13110225f80f9f3709b","session_id":"6196c1ee1e89e06b65dab966","condition":"full-information","relevant_dimensions":["pattern","legs"],"bee_group":{"antennae":"X","wings":"X","pattern":"S","legs":"F"},"bonus":0.9400000000000012},{"rt":6041.60000000149,"stimulus":"bees-with-color/bee-B2SF.svg","response":1,"trial_type":"image-button-response","trial_index":133,"time_elapsed":524578,"internal_node_id":"0.0-4.0-0.61","subject_id":"614072e717f769e6280307d3","study_id":"60edd13110225f80f9f3709b","session_id":"6196c1ee1e89e06b65dab966","condition":"full-information","relevant_dimensions":["pattern","legs"],"bee_group":{"antennae":"X","wings":"X","pattern":"S","legs":"F"},"action":"avoid","summary":"good-avoid","bonus":0.9400000000000012},{"rt":1293,"stimulus":"\n                    <p><b>Action: <em>avoid</em></b></p>\n                    <p>This is the bee that you just saw.</p>\n                    <img src=\"bees-with-color/bee-B2SF.svg\" width=\"200\">\n                    <p><span class=\"greenText\">Good choice!</span>  This bee would have stung you.<br>Your bonus pay is unchanged, and remains at $0.70.</p>\n            ","response":0,"trial_type":"html-button-response","trial_index":134,"time_elapsed":525873,"internal_node_id":"0.0-4.0-1.61","subject_id":"614072e717f769e6280307d3","study_id":"60edd13110225f80f9f3709b","session_id":"6196c1ee1e89e06b65dab966","condition":"full-information","relevant_dimensions":["pattern","legs"],"bee_group":{"antennae":"X","wings":"X","pattern":"S","legs":"F"},"bonus":0.9400000000000012},{"rt":993.5,"stimulus":"bees-with-color/bee-B2DF.svg","response":0,"trial_type":"image-button-response","trial_index":135,"time_elapsed":526868,"internal_node_id":"0.0-4.0-0.62","subject_id":"614072e717f769e6280307d3","study_id":"60edd13110225f80f9f3709b","session_id":"6196c1ee1e89e06b65dab966","condition":"full-information","relevant_dimensions":["pattern","legs"],"bee_group":{"antennae":"X","wings":"X","pattern":"S","legs":"F"},"action":"harvest","summary":"good-harvest","bonus":0.9400000000000012},{"rt":1235.8999999985099,"stimulus":"\n                    <p><b>Action: <em>harvest</em></b></p>\n                    <p>This is the bee that you just saw.</p>\n                    <img src=\"bees-with-color/bee-B2DF.svg\" width=\"200\">\n                    <p><span class=\"greenText\"><b>Successful harvest!</b></span><br>Your pay has increased by $0.02. Your bonus pay is now $0.72.</p>\n            ","response":0,"trial_type":"html-button-response","trial_index":136,"time_elapsed":528105,"internal_node_id":"0.0-4.0-1.62","subject_id":"614072e717f769e6280307d3","study_id":"60edd13110225f80f9f3709b","session_id":"6196c1ee1e89e06b65dab966","condition":"full-information","relevant_dimensions":["pattern","legs"],"bee_group":{"antennae":"X","wings":"X","pattern":"S","legs":"F"},"bonus":0.9400000000000012},{"rt":5209.0999999996275,"stimulus":"bees-with-color/bee-B1SM.svg","response":1,"trial_type":"image-button-response","trial_index":137,"time_elapsed":533316,"internal_node_id":"0.0-4.0-0.63","subject_id":"614072e717f769e6280307d3","study_id":"60edd13110225f80f9f3709b","session_id":"6196c1ee1e89e06b65dab966","condition":"full-information","relevant_dimensions":["pattern","legs"],"bee_group":{"antennae":"X","wings":"X","pattern":"S","legs":"F"},"action":"avoid","summary":"bad-avoid","bonus":0.9400000000000012},{"rt":1155.4000000003725,"stimulus":"\n                    <p><b>Action: <em>avoid</em></b></p>\n                    <p>This is the bee that you just saw.</p>\n                    <img src=\"bees-with-color/bee-B1SM.svg\" width=\"200\">\n                    <p><span class=\"redText\">Bad choice,</span> the bee was friendly.<br>Your bonus pay is unchanged, and remains at $0.72.</p>\n            ","response":0,"trial_type":"html-button-response","trial_index":138,"time_elapsed":534473,"internal_node_id":"0.0-4.0-1.63","subject_id":"614072e717f769e6280307d3","study_id":"60edd13110225f80f9f3709b","session_id":"6196c1ee1e89e06b65dab966","condition":"full-information","relevant_dimensions":["pattern","legs"],"bee_group":{"antennae":"X","wings":"X","pattern":"S","legs":"F"},"bonus":0.9400000000000012},{"rt":27279.300000000745,"stimulus":"You have completed the first part of this experiment.<br><br>You will now begin a shorter second part, in which you will receive no feedback.<br>The same rules regarding bonus pay apply.<br><br>Press any key to begin.","response":" ","trial_type":"html-keyboard-response","trial_index":139,"time_elapsed":561755,"internal_node_id":"0.0-5.0","subject_id":"614072e717f769e6280307d3","study_id":"60edd13110225f80f9f3709b","session_id":"6196c1ee1e89e06b65dab966","condition":"full-information","relevant_dimensions":["pattern","legs"],"bee_group":{"antennae":"X","wings":"X","pattern":"S","legs":"F"},"bonus":0.9400000000000012},{"rt":7695,"stimulus":"bees-with-color/bee-A1SF.svg","response":1,"trial_type":"image-button-response","trial_index":140,"time_elapsed":569460,"internal_node_id":"0.0-6.0-0.0","subject_id":"614072e717f769e6280307d3","study_id":"60edd13110225f80f9f3709b","session_id":"6196c1ee1e89e06b65dab966","condition":"full-information","relevant_dimensions":["pattern","legs"],"bee_group":{"antennae":"X","wings":"X","pattern":"S","legs":"F"},"bonus":0.9400000000000012},{"rt":3177.5,"stimulus":"bees-with-color/bee-B1SM.svg","response":1,"trial_type":"image-button-response","trial_index":141,"time_elapsed":572641,"internal_node_id":"0.0-6.0-0.1","subject_id":"614072e717f769e6280307d3","study_id":"60edd13110225f80f9f3709b","session_id":"6196c1ee1e89e06b65dab966","condition":"full-information","relevant_dimensions":["pattern","legs"],"bee_group":{"antennae":"X","wings":"X","pattern":"S","legs":"F"},"bonus":0.9400000000000012},{"rt":1505.9000000003725,"stimulus":"bees-with-color/bee-A1DM.svg","response":0,"trial_type":"image-button-response","trial_index":142,"time_elapsed":574149,"internal_node_id":"0.0-6.0-0.2","subject_id":"614072e717f769e6280307d3","study_id":"60edd13110225f80f9f3709b","session_id":"6196c1ee1e89e06b65dab966","condition":"full-information","relevant_dimensions":["pattern","legs"],"bee_group":{"antennae":"X","wings":"X","pattern":"S","legs":"F"},"bonus":0.9400000000000012},{"rt":4900.199999999255,"stimulus":"bees-with-color/bee-B2SF.svg","response":1,"trial_type":"image-button-response","trial_index":143,"time_elapsed":579052,"internal_node_id":"0.0-6.0-0.3","subject_id":"614072e717f769e6280307d3","study_id":"60edd13110225f80f9f3709b","session_id":"6196c1ee1e89e06b65dab966","condition":"full-information","relevant_dimensions":["pattern","legs"],"bee_group":{"antennae":"X","wings":"X","pattern":"S","legs":"F"},"bonus":0.9400000000000012},{"rt":1170.3999999985099,"stimulus":"bees-with-color/bee-A2SM.svg","response":1,"trial_type":"image-button-response","trial_index":144,"time_elapsed":580225,"internal_node_id":"0.0-6.0-0.4","subject_id":"614072e717f769e6280307d3","study_id":"60edd13110225f80f9f3709b","session_id":"6196c1ee1e89e06b65dab966","condition":"full-information","relevant_dimensions":["pattern","legs"],"bee_group":{"antennae":"X","wings":"X","pattern":"S","legs":"F"},"bonus":0.9400000000000012},{"rt":1162.800000000745,"stimulus":"bees-with-color/bee-B1DM.svg","response":0,"trial_type":"image-button-response","trial_index":145,"time_elapsed":581390,"internal_node_id":"0.0-6.0-0.5","subject_id":"614072e717f769e6280307d3","study_id":"60edd13110225f80f9f3709b","session_id":"6196c1ee1e89e06b65dab966","condition":"full-information","relevant_dimensions":["pattern","legs"],"bee_group":{"antennae":"X","wings":"X","pattern":"S","legs":"F"},"bonus":0.9400000000000012},{"rt":1874.199999999255,"stimulus":"bees-with-color/bee-B2SM.svg","response":1,"trial_type":"image-button-response","trial_index":146,"time_elapsed":583267,"internal_node_id":"0.0-6.0-0.6","subject_id":"614072e717f769e6280307d3","study_id":"60edd13110225f80f9f3709b","session_id":"6196c1ee1e89e06b65dab966","condition":"full-information","relevant_dimensions":["pattern","legs"],"bee_group":{"antennae":"X","wings":"X","pattern":"S","legs":"F"},"bonus":0.9400000000000012},{"rt":1130.4000000003725,"stimulus":"bees-with-color/bee-B2DF.svg","response":0,"trial_type":"image-button-response","trial_index":147,"time_elapsed":584400,"internal_node_id":"0.0-6.0-0.7","subject_id":"614072e717f769e6280307d3","study_id":"60edd13110225f80f9f3709b","session_id":"6196c1ee1e89e06b65dab966","condition":"full-information","relevant_dimensions":["pattern","legs"],"bee_group":{"antennae":"X","wings":"X","pattern":"S","legs":"F"},"bonus":0.9400000000000012},{"rt":940.2000000011176,"stimulus":"bees-with-color/bee-B2DM.svg","response":0,"trial_type":"image-button-response","trial_index":148,"time_elapsed":585342,"internal_node_id":"0.0-6.0-0.8","subject_id":"614072e717f769e6280307d3","study_id":"60edd13110225f80f9f3709b","session_id":"6196c1ee1e89e06b65dab966","condition":"full-information","relevant_dimensions":["pattern","legs"],"bee_group":{"antennae":"X","wings":"X","pattern":"S","legs":"F"},"bonus":0.9400000000000012},{"rt":1355.800000000745,"stimulus":"bees-with-color/bee-A2DF.svg","response":0,"trial_type":"image-button-response","trial_index":149,"time_elapsed":586700,"internal_node_id":"0.0-6.0-0.9","subject_id":"614072e717f769e6280307d3","study_id":"60edd13110225f80f9f3709b","session_id":"6196c1ee1e89e06b65dab966","condition":"full-information","relevant_dimensions":["pattern","legs"],"bee_group":{"antennae":"X","wings":"X","pattern":"S","legs":"F"},"bonus":0.9400000000000012},{"rt":881.3000000007451,"stimulus":"bees-with-color/bee-A1DF.svg","response":0,"trial_type":"image-button-response","trial_index":150,"time_elapsed":587583,"internal_node_id":"0.0-6.0-0.10","subject_id":"614072e717f769e6280307d3","study_id":"60edd13110225f80f9f3709b","session_id":"6196c1ee1e89e06b65dab966","condition":"full-information","relevant_dimensions":["pattern","legs"],"bee_group":{"antennae":"X","wings":"X","pattern":"S","legs":"F"},"bonus":0.9400000000000012},{"rt":1826,"stimulus":"bees-with-color/bee-A2SF.svg","response":0,"trial_type":"image-button-response","trial_index":151,"time_elapsed":589411,"internal_node_id":"0.0-6.0-0.11","subject_id":"614072e717f769e6280307d3","study_id":"60edd13110225f80f9f3709b","session_id":"6196c1ee1e89e06b65dab966","condition":"full-information","relevant_dimensions":["pattern","legs"],"bee_group":{"antennae":"X","wings":"X","pattern":"S","legs":"F"},"bonus":0.9400000000000012},{"rt":5333.9000000003725,"stimulus":"bees-with-color/bee-A1SM.svg","response":1,"trial_type":"image-button-response","trial_index":152,"time_elapsed":594747,"internal_node_id":"0.0-6.0-0.12","subject_id":"614072e717f769e6280307d3","study_id":"60edd13110225f80f9f3709b","session_id":"6196c1ee1e89e06b65dab966","condition":"full-information","relevant_dimensions":["pattern","legs"],"bee_group":{"antennae":"X","wings":"X","pattern":"S","legs":"F"},"bonus":0.9400000000000012},{"rt":2901.699999999255,"stimulus":"bees-with-color/bee-B1DF.svg","response":0,"trial_type":"image-button-response","trial_index":153,"time_elapsed":597651,"internal_node_id":"0.0-6.0-0.13","subject_id":"614072e717f769e6280307d3","study_id":"60edd13110225f80f9f3709b","session_id":"6196c1ee1e89e06b65dab966","condition":"full-information","relevant_dimensions":["pattern","legs"],"bee_group":{"antennae":"X","wings":"X","pattern":"S","legs":"F"},"bonus":0.9400000000000012},{"rt":3938.2000000011176,"stimulus":"bees-with-color/bee-B1SF.svg","response":1,"trial_type":"image-button-response","trial_index":154,"time_elapsed":601592,"internal_node_id":"0.0-6.0-0.14","subject_id":"614072e717f769e6280307d3","study_id":"60edd13110225f80f9f3709b","session_id":"6196c1ee1e89e06b65dab966","condition":"f