[{"success":true,"trial_type":"fullscreen","trial_index":0,"time_elapsed":77368,"internal_node_id":"0.0-0.0","subject_id":"6169c0667a27823dc8059c88","study_id":"60edd13110225f80f9f3709b","session_id":"6196c1e8b14ba7e07c7505bc","condition":"contingent","relevant_dimensions":["pattern","legs"],"bee_group":{"antennae":"X","wings":"X","pattern":"S","legs":"M"},"bonus":1.6800000000000013},{"success":true,"timeout":false,"failed_images":[],"failed_audio":[],"failed_video":[],"trial_type":"preload","trial_index":1,"time_elapsed":79521,"internal_node_id":"0.0-1.0","subject_id":"6169c0667a27823dc8059c88","study_id":"60edd13110225f80f9f3709b","session_id":"6196c1e8b14ba7e07c7505bc","condition":"contingent","relevant_dimensions":["pattern","legs"],"bee_group":{"antennae":"X","wings":"X","pattern":"S","legs":"M"},"bonus":1.6800000000000013},{"rt":4344.800000011921,"stimulus":"Welcome! Press any key to begin.","response":"arrowdown","trial_type":"html-keyboard-response","trial_index":2,"time_elapsed":83867,"internal_node_id":"0.0-2.0","subject_id":"6169c0667a27823dc8059c88","study_id":"60edd13110225f80f9f3709b","session_id":"6196c1e8b14ba7e07c7505bc","condition":"contingent","relevant_dimensions":["pattern","legs"],"bee_group":{"antennae":"X","wings":"X","pattern":"S","legs":"M"},"bonus":1.6800000000000013},{"view_history":[{"page_index":0,"viewing_time":9819.299999952316},{"page_index":1,"viewing_time":19983.200000047684},{"page_index":2,"viewing_time":19552.5},{"page_index":3,"viewing_time":32727.69999998808},{"page_index":4,"viewing_time":9424},{"page_index":5,"viewing_time":12408.300000011921},{"page_index":6,"viewing_time":14016.5},{"page_index":7,"viewing_time":9384.099999964237},{"page_index":8,"viewing_time":88239.5},{"page_index":9,"viewing_time":19352.400000035763},{"page_index":10,"viewing_time":18696.099999964237},{"page_index":11,"viewing_time":25079.5},{"page_index":12,"viewing_time":15264.199999988079},{"page_index":13,"viewing_time":2007.800000011921},{"page_index":14,"viewing_time":7504.300000011921}],"rt":303460.1999999881,"trial_type":"instructions","trial_index":3,"time_elapsed":387328,"internal_node_id":"0.0-3.0-0.0","subject_id":"6169c0667a27823dc8059c88","study_id":"60edd13110225f80f9f3709b","session_id":"6196c1e8b14ba7e07c7505bc","condition":"contingent","relevant_dimensions":["pattern","legs"],"bee_group":{"antennae":"X","wings":"X","pattern":"S","legs":"M"},"bonus":1.6800000000000013},{"rt":19519.80000001192,"response":{"Q0":["Two or six legs","Stripes or spots on body","Single or double wings","Antennae or no antennae"]},"question_order":[0],"trial_type":"survey-multi-select","trial_index":4,"time_elapsed":406857,"internal_node_id":"0.0-3.0-1.0","subject_id":"6169c0667a27823dc8059c88","study_id":"60edd13110225f80f9f3709b","session_id":"6196c1e8b14ba7e07c7505bc","condition":"contingent","relevant_dimensions":["pattern","legs"],"bee_group":{"antennae":"X","wings":"X","pattern":"S","legs":"M"},"correct":true,"bonus":1.6800000000000013},{"rt":24866.5,"response":{"Q1":"No.","Q2":"Based on the four features of the bee.","Q3":"You do not learn if it was friendly or dangerous, and do not alter your bonus."},"question_order":[0,1,2],"trial_type":"survey-multi-choice","trial_index":5,"time_elapsed":431729,"internal_node_id":"0.0-3.0-2.0","subject_id":"6169c0667a27823dc8059c88","study_id":"60edd13110225f80f9f3709b","session_id":"6196c1e8b14ba7e07c7505bc","condition":"contingent","relevant_dimensions":["pattern","legs"],"bee_group":{"antennae":"X","wings":"X","pattern":"S","legs":"M"},"correct":true,"bonus":1.6800000000000013},{"rt":6986.200000047684,"stimulus":"<p>Congrats, you got everything right<br>When you're ready, click the button below to continue to the experiment.</p>","response":0,"trial_type":"html-button-response","trial_index":6,"time_elapsed":438720,"internal_node_id":"0.0-3.0-3.0","subject_id":"6169c0667a27823dc8059c88","study_id":"60edd13110225f80f9f3709b","session_id":"6196c1e8b14ba7e07c7505bc","condition":"contingent","relevant_dimensions":["pattern","legs"],"bee_group":{"antennae":"X","wings":"X","pattern":"S","legs":"M"},"bonus":1.6800000000000013},{"rt":19844.900000035763,"stimulus":"bees-with-color/bee-A2SF.svg","response":0,"trial_type":"image-button-response","trial_index":7,"time_elapsed":458568,"internal_node_id":"0.0-4.0-0.0","subject_id":"6169c0667a27823dc8059c88","study_id":"60edd13110225f80f9f3709b","session_id":"6196c1e8b14ba7e07c7505bc","condition":"contingent","relevant_dimensions":["pattern","legs"],"bee_group":{"antennae":"X","wings":"X","pattern":"S","legs":"M"},"action":"harvest","summary":"good-harvest","bonus":1.6800000000000013},{"rt":27996.5,"stimulus":"\n                    <p><b>Action: <em>harvest</em></b></p>\n                    <p>This is the bee that you just saw.</p>\n                    <img src=\"bees-with-color/bee-A2SF.svg\" width=\"200\">\n                    <p><span class=\"greenText\"><b>Successful harvest!</b></span><br>Your pay has increased by $0.02. Your bonus pay is now $0.56.</p>\n            ","response":0,"trial_type":"html-button-response","trial_index":8,"time_elapsed":486568,"internal_node_id":"0.0-4.0-1.0","subject_id":"6169c0667a27823dc8059c88","study_id":"60edd13110225f80f9f3709b","session_id":"6196c1e8b14ba7e07c7505bc","condition":"contingent","relevant_dimensions":["pattern","legs"],"bee_group":{"antennae":"X","wings":"X","pattern":"S","legs":"M"},"bonus":1.6800000000000013},{"rt":44708.90000003576,"stimulus":"bees-with-color/bee-A1DM.svg","response":0,"trial_type":"image-button-response","trial_index":9,"time_elapsed":531280,"internal_node_id":"0.0-4.0-0.1","subject_id":"6169c0667a27823dc8059c88","study_id":"60edd13110225f80f9f3709b","session_id":"6196c1e8b14ba7e07c7505bc","condition":"contingent","relevant_dimensions":["pattern","legs"],"bee_group":{"antennae":"X","wings":"X","pattern":"S","legs":"M"},"action":"harvest","summary":"good-harvest","bonus":1.6800000000000013},{"rt":35092.89999997616,"stimulus":"\n                    <p><b>Action: <em>harvest</em></b></p>\n                    <p>This is the bee that you just saw.</p>\n                    <img src=\"bees-with-color/bee-A1DM.svg\" width=\"200\">\n                    <p><span class=\"greenText\"><b>Successful harvest!</b></span><br>Your pay has increased by $0.02. Your bonus pay is now $0.58.</p>\n            ","response":0,"trial_type":"html-button-response","trial_index":10,"time_elapsed":566376,"internal_node_id":"0.0-4.0-1.1","subject_id":"6169c0667a27823dc8059c88","study_id":"60edd13110225f80f9f3709b","session_id":"6196c1e8b14ba7e07c7505bc","condition":"contingent","relevant_dimensions":["pattern","legs"],"bee_group":{"antennae":"X","wings":"X","pattern":"S","legs":"M"},"bonus":1.6800000000000013},{"rt":13332.299999952316,"stimulus":"bees-with-color/bee-B1DF.svg","response":0,"trial_type":"image-button-response","trial_index":11,"time_elapsed":579711,"internal_node_id":"0.0-4.0-0.2","subject_id":"6169c0667a27823dc8059c88","study_id":"60edd13110225f80f9f3709b","session_id":"6196c1e8b14ba7e07c7505bc","condition":"contingent","relevant_dimensions":["pattern","legs"],"bee_group":{"antennae":"X","wings":"X","pattern":"S","legs":"M"},"action":"harvest","summary":"good-harvest","bonus":1.6800000000000013},{"rt":45718.69999998808,"stimulus":"\n                    <p><b>Action: <em>harvest</em></b></p>\n                    <p>This is the bee that you just saw.</p>\n                    <img src=\"bees-with-color/bee-B1DF.svg\" width=\"200\">\n                    <p><span class=\"greenText\"><b>Successful harvest!</b></span><br>Your pay has increased by $0.02. Your bonus pay is now $0.60.</p>\n            ","response":0,"trial_type":"html-button-response","trial_index":12,"time_elapsed":625432,"internal_node_id":"0.0-4.0-1.2","subject_id":"6169c0667a27823dc8059c88","study_id":"60edd13110225f80f9f3709b","session_id":"6196c1e8b14ba7e07c7505bc","condition":"contingent","relevant_dimensions":["pattern","legs"],"bee_group":{"antennae":"X","wings":"X","pattern":"S","legs":"M"},"bonus":1.6800000000000013},{"rt":7797.100000023842,"stimulus":"bees-with-color/bee-A1DF.svg","response":0,"trial_type":"image-button-response","trial_index":13,"time_elapsed":633231,"internal_node_id":"0.0-4.0-0.3","subject_id":"6169c0667a27823dc8059c88","study_id":"60edd13110225f80f9f3709b","session_id":"6196c1e8b14ba7e07c7505bc","condition":"contingent","relevant_dimensions":["pattern","legs"],"bee_group":{"antennae":"X","wings":"X","pattern":"S","legs":"M"},"action":"harvest","summary":"good-harvest","bonus":1.6800000000000013},{"rt":32198.600000023842,"stimulus":"\n                    <p><b>Action: <em>harvest</em></b></p>\n                    <p>This is the bee that you just saw.</p>\n                    <img src=\"bees-with-color/bee-A1DF.svg\" width=\"200\">\n                    <p><span class=\"greenText\"><b>Successful harvest!</b></span><br>Your pay has increased by $0.02. Your bonus pay is now $0.62.</p>\n            ","response":0,"trial_type":"html-button-response","trial_index":14,"time_elapsed":665432,"internal_node_id":"0.0-4.0-1.3","subject_id":"6169c0667a27823dc8059c88","study_id":"60edd13110225f80f9f3709b","session_id":"6196c1e8b14ba7e07c7505bc","condition":"contingent","relevant_dimensions":["pattern","legs"],"bee_group":{"antennae":"X","wings":"X","pattern":"S","legs":"M"},"bonus":1.6800000000000013},{"rt":6524.200000047684,"stimulus":"bees-with-color/bee-A2SM.svg","response":0,"trial_type":"image-button-response","trial_index":15,"time_elapsed":671960,"internal_node_id":"0.0-4.0-0.4","subject_id":"6169c0667a27823dc8059c88","study_id":"60edd13110225f80f9f3709b","session_id":"6196c1e8b14ba7e07c7505bc","condition":"contingent","relevant_dimensions":["pattern","legs"],"bee_group":{"antennae":"X","wings":"X","pattern":"S","legs":"M"},"action":"harvest","summary":"bad-harvest","bonus":1.6800000000000013},{"rt":42325.700000047684,"stimulus":"\n                    <p><b>Action: <em>harvest</em></b></p>\n                    <p>This is the bee that you just saw.</p>\n                    <img src=\"bees-with-color/bee-A2SM.svg\" width=\"200\">\n                    <p><span class=\"redText\">Bad choice, the bee was angry.</span><br><b>You have been stung!</b><br>Your pay has been decreased by $0.10. Your bonus pay is now $0.52.</p>\n            ","response":0,"trial_type":"html-button-response","trial_index":16,"time_elapsed":714286,"internal_node_id":"0.0-4.0-1.4","subject_id":"6169c0667a27823dc8059c88","study_id":"60edd13110225f80f9f3709b","session_id":"6196c1e8b14ba7e07c7505bc","condition":"contingent","relevant_dimensions":["pattern","legs"],"bee_group":{"antennae":"X","wings":"X","pattern":"S","legs":"M"},"bonus":1.6800000000000013},{"rt":8382.799999952316,"stimulus":"bees-with-color/bee-A2DF.svg","response":0,"trial_type":"image-button-response","trial_index":17,"time_elapsed":722671,"internal_node_id":"0.0-4.0-0.5","subject_id":"6169c0667a27823dc8059c88","study_id":"60edd13110225f80f9f3709b","session_id":"6196c1e8b14ba7e07c7505bc","condition":"contingent","relevant_dimensions":["pattern","legs"],"bee_group":{"antennae":"X","wings":"X","pattern":"S","legs":"M"},"action":"harvest","summary":"good-harvest","bonus":1.6800000000000013},{"rt":29605.600000023842,"stimulus":"\n                    <p><b>Action: <em>harvest</em></b></p>\n                    <p>This is the bee that you just saw.</p>\n                    <img src=\"bees-with-color/bee-A2DF.svg\" width=\"200\">\n                    <p><span class=\"greenText\"><b>Successful harvest!</b></span><br>Your pay has increased by $0.02. Your bonus pay is now $0.54.</p>\n            ","response":0,"trial_type":"html-button-response","trial_index":18,"time_elapsed":752279,"internal_node_id":"0.0-4.0-1.5","subject_id":"6169c0667a27823dc8059c88","study_id":"60edd13110225f80f9f3709b","session_id":"6196c1e8b14ba7e07c7505bc","condition":"contingent","relevant_dimensions":["pattern","legs"],"bee_group":{"antennae":"X","wings":"X","pattern":"S","legs":"M"},"bonus":1.6800000000000013},{"rt":10845.699999988079,"stimulus":"bees-with-color/bee-B1SF.svg","response":0,"trial_type":"image-button-response","trial_index":19,"time_elapsed":763127,"internal_node_id":"0.0-4.0-0.6","subject_id":"6169c0667a27823dc8059c88","study_id":"60edd13110225f80f9f3709b","session_id":"6196c1e8b14ba7e07c7505bc","condition":"contingent","relevant_dimensions":["pattern","legs"],"bee_group":{"antennae":"X","wings":"X","pattern":"S","legs":"M"},"action":"harvest","summary":"good-harvest","bonus":1.6800000000000013},{"rt":25726.30000001192,"stimulus":"\n                    <p><b>Action: <em>harvest</em></b></p>\n                    <p>This is the bee that you just saw.</p>\n                    <img src=\"bees-with-color/bee-B1SF.svg\" width=\"200\">\n                    <p><span class=\"greenText\"><b>Successful harvest!</b></span><br>Your pay has increased by $0.02. Your bonus pay is now $0.56.</p>\n            ","response":0,"trial_type":"html-button-response","trial_index":20,"time_elapsed":788855,"internal_node_id":"0.0-4.0-1.6","subject_id":"6169c0667a27823dc8059c88","study_id":"60edd13110225f80f9f3709b","session_id":"6196c1e8b14ba7e07c7505bc","condition":"contingent","relevant_dimensions":["pattern","legs"],"bee_group":{"antennae":"X","wings":"X","pattern":"S","legs":"M"},"bonus":1.6800000000000013},{"rt":22278.5,"stimulus":"bees-with-color/bee-A1SM.svg","response":0,"trial_type":"image-button-response","trial_index":21,"time_elapsed":811136,"internal_node_id":"0.0-4.0-0.7","subject_id":"6169c0667a27823dc8059c88","study_id":"60edd13110225f80f9f3709b","session_id":"6196c1e8b14ba7e07c7505bc","condition":"contingent","relevant_dimensions":["pattern","legs"],"bee_group":{"antennae":"X","wings":"X","pattern":"S","legs":"M"},"action":"harvest","summary":"bad-harvest","bonus":1.6800000000000013},{"rt":13117.5,"stimulus":"\n                    <p><b>Action: <em>harvest</em></b></p>\n                    <p>This is the bee that you just saw.</p>\n                    <img src=\"bees-with-color/bee-A1SM.svg\" width=\"200\">\n                    <p><span class=\"redText\">Bad choice, the bee was angry.</span><br><b>You have been stung!</b><br>Your pay has been decreased by $0.10. Your bonus pay is now $0.46.</p>\n            ","response":0,"trial_type":"html-button-response","trial_index":22,"time_elapsed":824255,"internal_node_id":"0.0-4.0-1.7","subject_id":"6169c0667a27823dc8059c88","study_id":"60edd13110225f80f9f3709b","session_id":"6196c1e8b14ba7e07c7505bc","condition":"contingent","relevant_dimensions":["pattern","legs"],"bee_group":{"antennae":"X","wings":"X","pattern":"S","legs":"M"},"bonus":1.6800000000000013},{"rt":5078.399999976158,"stimulus":"bees-with-color/bee-B1SM.svg","response":0,"trial_type":"image-button-response","trial_index":23,"time_elapsed":829337,"internal_node_id":"0.0-4.0-0.8","subject_id":"6169c0667a27823dc8059c88","study_id":"60edd13110225f80f9f3709b","session_id":"6196c1e8b14ba7e07c7505bc","condition":"contingent","relevant_dimensions":["pattern","legs"],"bee_group":{"antennae":"X","wings":"X","pattern":"S","legs":"M"},"action":"harvest","summary":"bad-harvest","bonus":1.6800000000000013},{"rt":21900.900000035763,"stimulus":"\n                    <p><b>Action: <em>harvest</em></b></p>\n                    <p>This is the bee that you just saw.</p>\n                    <img src=\"bees-with-color/bee-B1SM.svg\" width=\"200\">\n                    <p><span class=\"redText\">Bad choice, the bee was angry.</span><br><b>You have been stung!</b><br>Your pay has been decreased by $0.10. Your bonus pay is now $0.36.</p>\n            ","response":0,"trial_type":"html-button-response","trial_index":24,"time_elapsed":851240,"internal_node_id":"0.0-4.0-1.8","subject_id":"6169c0667a27823dc8059c88","study_id":"60edd13110225f80f9f3709b","session_id":"6196c1e8b14ba7e07c7505bc","condition":"contingent","relevant_dimensions":["pattern","legs"],"bee_group":{"antennae":"X","wings":"X","pattern":"S","legs":"M"},"bonus":1.6800000000000013},{"rt":3125.699999988079,"stimulus":"bees-with-color/bee-B2DM.svg","response":0,"trial_type":"image-button-response","trial_index":25,"time_elapsed":854368,"internal_node_id":"0.0-4.0-0.9","subject_id":"6169c0667a27823dc8059c88","study_id":"60edd13110225f80f9f3709b","session_id":"6196c1e8b14ba7e07c7505bc","condition":"contingent","relevant_dimensions":["pattern","legs"],"bee_group":{"antennae":"X","wings":"X","pattern":"S","legs":"M"},"action":"harvest","summary":"good-harvest","bonus":1.6800000000000013},{"rt":3173.900000035763,"stimulus":"\n                    <p><b>Action: <em>harvest</em></b></p>\n                    <p>This is the bee that you just saw.</p>\n                    <img src=\"bees-with-color/bee-B2DM.svg\" width=\"200\">\n                    <p><span class=\"greenText\"><b>Successful harvest!</b></span><br>Your pay has increased by $0.02. Your bonus pay is now $0.38.</p>\n            ","response":0,"trial_type":"html-button-response","trial_index":26,"time_elapsed":857544,"internal_node_id":"0.0-4.0-1.9","subject_id":"6169c0667a27823dc8059c88","study_id":"60edd13110225f80f9f3709b","session_id":"6196c1e8b14ba7e07c7505bc","condition":"contingent","relevant_dimensions":["pattern","legs"],"bee_group":{"antennae":"X","wings":"X","pattern":"S","legs":"M"},"bonus":1.6800000000000013},{"rt":2357.899999976158,"stimulus":"bees-with-color/bee-B2SM.svg","response":1,"trial_type":"image-button-response","trial_index":27,"time_elapsed":859904,"internal_node_id":"0.0-4.0-0.10","subject_id":"6169c0667a27823dc8059c88","study_id":"60edd13110225f80f9f3709b","session_id":"6196c1e8b14ba7e07c7505bc","condition":"contingent","relevant_dimensions":["pattern","legs"],"bee_group":{"antennae":"X","wings":"X","pattern":"S","legs":"M"},"action":"avoid","summary":"good-avoid","bonus":1.6800000000000013},{"rt":1637.0999999642372,"stimulus":"\n                    <p><b>Action: <em>avoid</em></b></p>\n                    <p>This is the bee that you just saw.</p>\n                    <img src=\"bees-with-color/bee-B2SM.svg\" width=\"200\">\n                    <p><br>Your bonus pay is unchanged, and remains at $0.38.</p>\n            ","response":0,"trial_type":"html-button-response","trial_index":28,"time_elapsed":861544,"internal_node_id":"0.0-4.0-1.10","subject_id":"6169c0667a27823dc8059c88","study_id":"60edd13110225f80f9f3709b","session_id":"6196c1e8b14ba7e07c7505bc","condition":"contingent","relevant_dimensions":["pattern","legs"],"bee_group":{"antennae":"X","wings":"X","pattern":"S","legs":"M"},"bonus":1.6800000000000013},{"rt":1685,"stimulus":"bees-with-color/bee-B1DM.svg","response":0,"trial_type":"image-button-response","trial_index":29,"time_elapsed":863231,"internal_node_id":"0.0-4.0-0.11","subject_id":"6169c0667a27823dc8059c88","study_id":"60edd13110225f80f9f3709b","session_id":"6196c1e8b14ba7e07c7505bc","condition":"contingent","relevant_dimensions":["pattern","legs"],"bee_group":{"antennae":"X","wings":"X","pattern":"S","legs":"M"},"action":"harvest","summary":"good-harvest","bonus":1.6800000000000013},{"rt":926,"stimulus":"\n                    <p><b>Action: <em>harvest</em></b></p>\n                    <p>This is the bee that you just saw.</p>\n                    <img src=\"bees-with-color/bee-B1DM.svg\" width=\"200\">\n                    <p><span class=\"greenText\"><b>Successful harvest!</b></span><br>Your pay has increased by $0.02. Your bonus pay is now $0.40.</p>\n            ","response":0,"trial_type":"html-button-response","trial_index":30,"time_elapsed":864159,"internal_node_id":"0.0-4.0-1.11","subject_id":"6169c0667a27823dc8059c88","study_id":"60edd13110225f80f9f3709b","session_id":"6196c1e8b14ba7e07c7505bc","condition":"contingent","relevant_dimensions":["pattern","legs"],"bee_group":{"antennae":"X","wings":"X","pattern":"S","legs":"M"},"bonus":1.6800000000000013},{"rt":1839,"stimulus":"bees-with-color/bee-B2DF.svg","response":0,"trial_type":"image-button-response","trial_index":31,"time_elapsed":866001,"internal_node_id":"0.0-4.0-0.12","subject_id":"6169c0667a27823dc8059c88","study_id":"60edd13110225f80f9f3709b","session_id":"6196c1e8b14ba7e07c7505bc","condition":"contingent","relevant_dimensions":["pattern","legs"],"bee_group":{"antennae":"X","wings":"X","pattern":"S","legs":"M"},"action":"harvest","summary":"good-harvest","bonus":1.6800000000000013},{"rt":909.3000000119209,"stimulus":"\n                    <p><b>Action: <em>harvest</em></b></p>\n                    <p>This is the bee that you just saw.</p>\n                    <img src=\"bees-with-color/bee-B2DF.svg\" width=\"200\">\n                    <p><span class=\"greenText\"><b>Successful harvest!</b></span><br>Your pay has increased by $0.02. Your bonus pay is now $0.42.</p>\n            ","response":0,"trial_type":"html-button-response","trial_index":32,"time_elapsed":866912,"internal_node_id":"0.0-4.0-1.12","subject_id":"6169c0667a27823dc8059c88","study_id":"60edd13110225f80f9f3709b","session_id":"6196c1e8b14ba7e07c7505bc","condition":"contingent","relevant_dimensions":["pattern","legs"],"bee_group":{"antennae":"X","wings":"X","pattern":"S","legs":"M"},"bonus":1.6800000000000013},{"rt":2021.4000000357628,"stimulus":"bees-with-color/bee-B2SF.svg","response":0,"trial_type":"image-button-response","trial_index":33,"time_elapsed":868936,"internal_node_id":"0.0-4.0-0.13","subject_id":"6169c0667a27823dc8059c88","study_id":"60edd13110225f80f9f3709b","session_id":"6196c1e8b14ba7e07c7505bc","condition":"contingent","relevant_dimensions":["pattern","legs"],"bee_group":{"antennae":"X","wings":"X","pattern":"S","legs":"M"},"action":"harvest","summary":"good-harvest","bonus":1.6800000000000013},{"rt":933.5,"stimulus":"\n                    <p><b>Action: <em>harvest</em></b></p>\n                    <p>This is the bee that you just saw.</p>\n                    <img src=\"bees-with-color/bee-B2SF.svg\" width=\"200\">\n                    <p><span class=\"greenText\"><b>Successful harvest!</b></span><br>Your pay has increased by $0.02. Your bonus pay is now $0.44.</p>\n            ","response":0,"trial_type":"html-button-response","trial_index":34,"time_elapsed":869871,"internal_node_id":"0.0-4.0-1.13","subject_id":"6169c0667a27823dc8059c88","study_id":"60edd13110225f80f9f3709b","session_id":"6196c1e8b14ba7e07c7505bc","condition":"contingent","relevant_dimensions":["pattern","legs"],"bee_group":{"antennae":"X","wings":"X","pattern":"S","legs":"M"},"bonus":1.6800000000000013},{"rt":2030.0999999642372,"stimulus":"bees-with-color/bee-A2DM.svg","response":0,"trial_type":"image-button-response","trial_index":35,"time_elapsed":871903,"internal_node_id":"0.0-4.0-0.14","subject_id":"6169c0667a27823dc8059c88","study_id":"60edd13110225f80f9f3709b","session_id":"6196c1e8b14ba7e07c7505bc","condition":"contingent","relevant_dimensions":["pattern","legs"],"bee_group":{"antennae":"X","wings":"X","pattern":"S","legs":"M"},"action":"harvest","summary":"good-harvest","bonus":1.6800000000000013},{"rt":974.1999999880791,"stimulus":"\n                    <p><b>Action: <em>harvest</em></b></p>\n                    <p>This is the bee that you just saw.</p>\n                    <img src=\"bees-with-color/bee-A2DM.svg\" width=\"200\">\n                    <p><span class=\"greenText\"><b>Successful harvest!</b></span><br>Your pay has increased by $0.02. Your bonus pay is now $0.46.</p>\n            ","response":0,"trial_type":"html-button-response","trial_index":36,"time_elapsed":872879,"internal_node_id":"0.0-4.0-1.14","subject_id":"6169c0667a27823dc8059c88","study_id":"60edd13110225f80f9f3709b","session_id":"6196c1e8b14ba7e07c7505bc","condition":"contingent","relevant_dimensions":["pattern","legs"],"bee_group":{"antennae":"X","wings":"X","pattern":"S","legs":"M"},"bonus":1.6800000000000013},{"rt":1790.800000011921,"stimulus":"bees-with-color/bee-A1SF.svg","response":0,"trial_type":"image-button-response","trial_index":37,"time_elapsed":874671,"internal_node_id":"0.0-4.0-0.15","subject_id":"6169c0667a27823dc8059c88","study_id":"60edd13110225f80f9f3709b","session_id":"6196c1e8b14ba7e07c7505bc","condition":"contingent","relevant_dimensions":["pattern","legs"],"bee_group":{"antennae":"X","wings":"X","pattern":"S","legs":"M"},"action":"harvest","summary":"good-harvest","bonus":1.6800000000000013},{"rt":854,"stimulus":"\n                    <p><b>Action: <em>harvest</em></b></p>\n                    <p>This is the bee that you just saw.</p>\n                    <img src=\"bees-with-color/bee-A1SF.svg\" width=\"200\">\n                    <p><span class=\"greenText\"><b>Successful harvest!</b></span><br>Your pay has increased by $0.02. Your bonus pay is now $0.48.</p>\n            ","response":0,"trial_type":"html-button-response","trial_index":38,"time_elapsed":875527,"internal_node_id":"0.0-4.0-1.15","subject_id":"6169c0667a27823dc8059c88","study_id":"60edd13110225f80f9f3709b","session_id":"6196c1e8b14ba7e07c7505bc","condition":"contingent","relevant_dimensions":["pattern","legs"],"bee_group":{"antennae":"X","wings":"X","pattern":"S","legs":"M"},"bonus":1.6800000000000013},{"rt":1398.800000011921,"stimulus":"bees-with-color/bee-B2SF.svg","response":0,"trial_type":"image-button-response","trial_index":39,"time_elapsed":876928,"internal_node_id":"0.0-4.0-0.16","subject_id":"6169c0667a27823dc8059c88","study_id":"60edd13110225f80f9f3709b","session_id":"6196c1e8b14ba7e07c7505bc","condition":"contingent","relevant_dimensions":["pattern","legs"],"bee_group":{"antennae":"X","wings":"X","pattern":"S","legs":"M"},"action":"harvest","summary":"good-harvest","bonus":1.6800000000000013},{"rt":933.5,"stimulus":"\n                    <p><b>Action: <em>harvest</em></b></p>\n                    <p>This is the bee that you just saw.</p>\n                    <img src=\"bees-with-color/bee-B2SF.svg\" width=\"200\">\n                    <p><span class=\"greenText\"><b>Successful harvest!</b></span><br>Your pay has increased by $0.02. Your bonus pay is now $0.50.</p>\n            ","response":0,"trial_type":"html-button-response","trial_index":40,"time_elapsed":877863,"internal_node_id":"0.0-4.0-1.16","subject_id":"6169c0667a27823dc8059c88","study_id":"60edd13110225f80f9f3709b","session_id":"6196c1e8b14ba7e07c7505bc","condition":"contingent","relevant_dimensions":["pattern","legs"],"bee_group":{"antennae":"X","wings":"X","pattern":"S","legs":"M"},"bonus":1.6800000000000013},{"rt":1743.699999988079,"stimulus":"bees-with-color/bee-B2DM.svg","response":0,"trial_type":"image-button-response","trial_index":41,"time_elapsed":879608,"internal_node_id":"0.0-4.0-0.17","subject_id":"6169c0667a27823dc8059c88","study_id":"60edd13110225f80f9f3709b","session_id":"6196c1e8b14ba7e07c7505bc","condition":"contingent","relevant_dimensions":["pattern","legs"],"bee_group":{"antennae":"X","wings":"X","pattern":"S","legs":"M"},"action":"harvest","summary":"good-harvest","bonus":1.6800000000000013},{"rt":845,"stimulus":"\n                    <p><b>Action: <em>harvest</em></b></p>\n                    <p>This is the bee that you just saw.</p>\n                    <img src=\"bees-with-color/bee-B2DM.svg\" width=\"200\">\n                    <p><span class=\"greenText\"><b>Successful harvest!</b></span><br>Your pay has increased by $0.02. Your bonus pay is now $0.52.</p>\n            ","response":0,"trial_type":"html-button-response","trial_index":42,"time_elapsed":880455,"internal_node_id":"0.0-4.0-1.17","subject_id":"6169c0667a27823dc8059c88","study_id":"60edd13110225f80f9f3709b","session_id":"6196c1e8b14ba7e07c7505bc","condition":"contingent","relevant_dimensions":["pattern","legs"],"bee_group":{"antennae":"X","wings":"X","pattern":"S","legs":"M"},"bonus":1.6800000000000013},{"rt":1565.7999999523163,"stimulus":"bees-with-color/bee-A1SF.svg","response":0,"trial_type":"image-button-response","trial_index":43,"time_elapsed":882023,"internal_node_id":"0.0-4.0-0.18","subject_id":"6169c0667a27823dc8059c88","study_id":"60edd13110225f80f9f3709b","session_id":"6196c1e8b14ba7e07c7505bc","condition":"contingent","relevant_dimensions":["pattern","legs"],"bee_group":{"antennae":"X","wings":"X","pattern":"S","legs":"M"},"action":"harvest","summary":"good-harvest","bonus":1.6800000000000013},{"rt":814.3000000119209,"stimulus":"\n                    <p><b>Action: <em>harvest</em></b></p>\n                    <p>This is the bee that you just saw.</p>\n                    <img src=\"bees-with-color/bee-A1SF.svg\" width=\"200\">\n                    <p><span class=\"greenText\"><b>Successful harvest!</b></span><br>Your pay has increased by $0.02. Your bonus pay is now $0.54.</p>\n            ","response":0,"trial_type":"html-button-response","trial_index":44,"time_elapsed":882839,"internal_node_id":"0.0-4.0-1.18","subject_id":"6169c0667a27823dc8059c88","study_id":"60edd13110225f80f9f3709b","session_id":"6196c1e8b14ba7e07c7505bc","condition":"contingent","relevant_dimensions":["pattern","legs"],"bee_group":{"antennae":"X","wings":"X","pattern":"S","legs":"M"},"bonus":1.6800000000000013},{"rt":1078.5,"stimulus":"bees-with-color/bee-B1SF.svg","response":0,"trial_type":"image-button-response","trial_index":45,"time_elapsed":883919,"internal_node_id":"0.0-4.0-0.19","subject_id":"6169c0667a27823dc8059c88","study_id":"60edd13110225f80f9f3709b","session_id":"6196c1e8b14ba7e07c7505bc","condition":"contingent","relevant_dimensions":["pattern","legs"],"bee_group":{"antennae":"X","wings":"X","pattern":"S","legs":"M"},"action":"harvest","summary":"good-harvest","bonus":1.6800000000000013},{"rt":886.3999999761581,"stimulus":"\n                    <p><b>Action: <em>harvest</em></b></p>\n                    <p>This is the bee that you just saw.</p>\n                    <img src=\"bees-with-color/bee-B1SF.svg\" width=\"200\">\n                    <p><span class=\"greenText\"><b>Successful harvest!</b></span><br>Your pay has increased by $0.02. Your bonus pay is now $0.56.</p>\n            ","response":0,"trial_type":"html-button-response","trial_index":46,"time_elapsed":884807,"internal_node_id":"0.0-4.0-1.19","subject_id":"6169c0667a27823dc8059c88","study_id":"60edd13110225f80f9f3709b","session_id":"6196c1e8b14ba7e07c7505bc","condition":"contingent","relevant_dimensions":["pattern","legs"],"bee_group":{"antennae":"X","wings":"X","pattern":"S","legs":"M"},"bonus":1.6800000000000013},{"rt":1478.699999988079,"stimulus":"bees-with-color/bee-A1DM.svg","response":0,"trial_type":"image-button-response","trial_index":47,"time_elapsed":886287,"internal_node_id":"0.0-4.0-0.20","subject_id":"6169c0667a27823dc8059c88","study_id":"60edd13110225f80f9f3709b","session_id":"6196c1e8b14ba7e07c7505bc","condition":"contingent","relevant_dimensions":["pattern","legs"],"bee_group":{"antennae":"X","wings":"X","pattern":"S","legs":"M"},"action":"harvest","summary":"good-harvest","bonus":1.6800000000000013},{"rt":798.6000000238419,"stimulus":"\n                    <p><b>Action: <em>harvest</em></b></p>\n                    <p>This is the bee that you just saw.</p>\n                    <img src=\"bees-with-color/bee-A1DM.svg\" width=\"200\">\n                    <p><span class=\"greenText\"><b>Successful harvest!</b></span><br>Your pay has increased by $0.02. Your bonus pay is now $0.58.</p>\n            ","response":0,"trial_type":"html-button-response","trial_index":48,"time_elapsed":887088,"internal_node_id":"0.0-4.0-1.20","subject_id":"6169c0667a27823dc8059c88","study_id":"60edd13110225f80f9f3709b","session_id":"6196c1e8b14ba7e07c7505bc","condition":"contingent","relevant_dimensions":["pattern","legs"],"bee_group":{"antennae":"X","wings":"X","pattern":"S","legs":"M"},"bonus":1.6800000000000013},{"rt":1726.199999988079,"stimulus":"bees-with-color/bee-B2SM.svg","response":1,"trial_type":"image-button-response","trial_index":49,"time_elapsed":888816,"internal_node_id":"0.0-4.0-0.21","subject_id":"6169c0667a27823dc8059c88","study_id":"60edd13110225f80f9f3709b","session_id":"6196c1e8b14ba7e07c7505bc","condition":"contingent","relevant_dimensions":["pattern","legs"],"bee_group":{"antennae":"X","wings":"X","pattern":"S","legs":"M"},"action":"avoid","summary":"good-avoid","bonus":1.6800000000000013},{"rt":862,"stimulus":"\n                    <p><b>Action: <em>avoid</em></b></p>\n                    <p>This is the bee that you just saw.</p>\n                    <img src=\"bees-with-color/bee-B2SM.svg\" width=\"200\">\n                    <p><br>Your bonus pay is unchanged, and remains at $0.58.</p>\n            ","response":0,"trial_type":"html-button-response","trial_index":50,"time_elapsed":889680,"internal_node_id":"0.0-4.0-1.21","subject_id":"6169c0667a27823dc8059c88","study_id":"60edd13110225f80f9f3709b","session_id":"6196c1e8b14ba7e07c7505bc","condition":"contingent","relevant_dimensions":["pattern","legs"],"bee_group":{"antennae":"X","wings":"X","pattern":"S","legs":"M"},"bonus":1.6800000000000013},{"rt":1173.800000011921,"stimulus":"bees-with-color/bee-B1DF.svg","response":0,"trial_type":"image-button-response","trial_index":51,"time_elapsed":890856,"internal_node_id":"0.0-4.0-0.22","subject_id":"6169c0667a27823dc8059c88","study_id":"60edd13110225f80f9f3709b","session_id":"6196c1e8b14ba7e07c7505bc","condition":"contingent","relevant_dimensions":["pattern","legs"],"bee_group":{"antennae":"X","wings":"X","pattern":"S","legs":"M"},"action":"harvest","summary":"good-harvest","bonus":1.6800000000000013},{"rt":734.6999999880791,"stimulus":"\n                    <p><b>Action: <em>harvest</em></b></p>\n                    <p>This is the bee that you just saw.</p>\n                    <img src=\"bees-with-color/bee-B1DF.svg\" width=\"200\">\n                    <p><span class=\"greenText\"><b>Successful harvest!</b></span><br>Your pay has increased by $0.02. Your bonus pay is now $0.60.</p>\n            ","response":0,"trial_type":"html-button-response","trial_index":52,"time_elapsed":891592,"internal_node_id":"0.0-4.0-1.22","subject_id":"6169c0667a27823dc8059c88","study_id":"60edd13110225f80f9f3709b","session_id":"6196c1e8b14ba7e07c7505bc","condition":"contingent","relevant_dimensions":["pattern","legs"],"bee_group":{"antennae":"X","wings":"X","pattern":"S","legs":"M"},"bonus":1.6800000000000013},{"rt":1413.8999999761581,"stimulus":"bees-with-color/bee-B1SM.svg","response":1,"trial_type":"image-button-response","trial_index":53,"time_elapsed":893008,"internal_node_id":"0.0-4.0-0.23","subject_id":"6169c0667a27823dc8059c88","study_id":"60edd13110225f80f9f3709b","session_id":"6196c1e8b14ba7e07c7505bc","condition":"contingent","relevant_dimensions":["pattern","legs"],"bee_group":{"antennae":"X","wings":"X","pattern":"S","legs":"M"},"action":"avoid","summary":"good-avoid","bonus":1.6800000000000013},{"rt":964.9000000357628,"stimulus":"\n                    <p><b>Action: <em>avoid</em></b></p>\n                    <p>This is the bee that you just saw.</p>\n                    <img src=\"bees-with-color/bee-B1SM.svg\" width=\"200\">\n                    <p><br>Your bonus pay is unchanged, and remains at $0.60.</p>\n            ","response":0,"trial_type":"html-button-response","trial_index":54,"time_elapsed":893976,"internal_node_id":"0.0-4.0-1.23","subject_id":"6169c0667a27823dc8059c88","study_id":"60edd13110225f80f9f3709b","session_id":"6196c1e8b14ba7e07c7505bc","condition":"contingent","relevant_dimensions":["pattern","legs"],"bee_group":{"antennae":"X","wings":"X","pattern":"S","legs":"M"},"bonus":1.6800000000000013},{"rt":1877.800000011921,"stimulus":"bees-with-color/bee-A2SF.svg","response":0,"trial_type":"image-button-response","trial_index":55,"time_elapsed":895855,"internal_node_id":"0.0-4.0-0.24","subject_id":"6169c0667a27823dc8059c88","study_id":"60edd13110225f80f9f3709b","session_id":"6196c1e8b14ba7e07c7505bc","condition":"contingent","relevant_dimensions":["pattern","legs"],"bee_group":{"antennae":"X","wings":"X","pattern":"S","legs":"M"},"action":"harvest","summary":"good-harvest","bonus":1.6800000000000013},{"rt":854.2000000476837,"stimulus":"\n                    <p><b>Action: <em>harvest</em></b></p>\n                    <p>This is the bee that you just saw.</p>\n                    <img src=\"bees-with-color/bee-A2SF.svg\" width=\"200\">\n                    <p><span class=\"greenText\"><b>Successful harvest!</b></span><br>Your pay has increased by $0.02. Your bonus pay is now $0.62.</p>\n            ","response":0,"trial_type":"html-button-response","trial_index":56,"time_elapsed":896711,"internal_node_id":"0.0-4.0-1.24","subject_id":"6169c0667a27823dc8059c88","study_id":"60edd13110225f80f9f3709b","session_id":"6196c1e8b14ba7e07c7505bc","condition":"contingent","relevant_dimensions":["pattern","legs"],"bee_group":{"antennae":"X","wings":"X","pattern":"S","legs":"M"},"bonus":1.6800000000000013},{"rt":1686.2000000476837,"stimulus":"bees-with-color/bee-A2SM.svg","response":1,"trial_type":"image-button-response","trial_index":57,"time_elapsed":898399,"internal_node_id":"0.0-4.0-0.25","subject_id":"6169c0667a27823dc8059c88","study_id":"60edd13110225f80f9f3709b","session_id":"6196c1e8b14ba7e07c7505bc","condition":"contingent","relevant_dimensions":["pattern","legs"],"bee_group":{"antennae":"X","wings":"X","pattern":"S","legs":"M"},"action":"avoid","summary":"good-avoid","bonus":1.6800000000000013},{"rt":2318.399999976158,"stimulus":"\n                    <p><b>Action: <em>avoid</em></b></p>\n                    <p>This is the bee that you just saw.</p>\n                    <img src=\"bees-with-color/bee-A2SM.svg\" width=\"200\">\n                    <p><br>Your bonus pay is unchanged, and remains at $0.62.</p>\n            ","response":0,"trial_type":"html-button-response","trial_index":58,"time_elapsed":900720,"internal_node_id":"0.0-4.0-1.25","subject_id":"6169c0667a27823dc8059c88","study_id":"60edd13110225f80f9f3709b","session_id":"6196c1e8b14ba7e07c7505bc","condition":"contingent","relevant_dimensions":["pattern","legs"],"bee_group":{"antennae":"X","wings":"X","pattern":"S","legs":"M"},"bonus":1.6800000000000013},{"rt":1085.3999999761581,"stimulus":"bees-with-color/bee-A2DM.svg","response":0,"trial_type":"image-button-response","trial_index":59,"time_elapsed":901808,"internal_node_id":"0.0-4.0-0.26","subject_id":"6169c0667a27823dc8059c88","study_id":"60edd13110225f80f9f3709b","session_id":"6196c1e8b14ba7e07c7505bc","condition":"contingent","relevant_dimensions":["pattern","legs"],"bee_group":{"antennae":"X","wings":"X","pattern":"S","legs":"M"},"action":"harvest","summary":"good-harvest","bonus":1.6800000000000013},{"rt":878.1000000238419,"stimulus":"\n                    <p><b>Action: <em>harvest</em></b></p>\n                    <p>This is the bee that you just saw.</p>\n                    <img src=\"bees-with-color/bee-A2DM.svg\" width=\"200\">\n                    <p><span class=\"greenText\"><b>Successful harvest!</b></span><br>Your pay has increased by $0.02. Your bonus pay is now $0.64.</p>\n            ","response":0,"trial_type":"html-button-response","trial_index":60,"time_elapsed":902688,"internal_node_id":"0.0-4.0-1.26","subject_id":"6169c0667a27823dc8059c88","study_id":"60edd13110225f80f9f3709b","session_id":"6196c1e8b14ba7e07c7505bc","condition":"contingent","relevant_dimensions":["pattern","legs"],"bee_group":{"antennae":"X","wings":"X","pattern":"S","legs":"M"},"bonus":1.6800000000000013},{"rt":2165.199999988079,"stimulus":"bees-with-color/bee-B2DF.svg","response":0,"trial_type":"image-button-response","trial_index":61,"time_elapsed":904856,"internal_node_id":"0.0-4.0-0.27","subject_id":"6169c0667a27823dc8059c88","study_id":"60edd13110225f80f9f3709b","session_id":"6196c1e8b14ba7e07c7505bc","condition":"contingent","relevant_dimensions":["pattern","legs"],"bee_group":{"antennae":"X","wings":"X","pattern":"S","legs":"M"},"action":"harvest","summary":"good-harvest","bonus":1.6800000000000013},{"rt":830.2000000476837,"stimulus":"\n                    <p><b>Action: <em>harvest</em></b></p>\n                    <p>This is the bee that you just saw.</p>\n                    <img src=\"bees-with-color/bee-B2DF.svg\" width=\"200\">\n                    <p><span class=\"greenText\"><b>Successful harvest!</b></span><br>Your pay has increased by $0.02. Your bonus pay is now $0.66.</p>\n            ","response":0,"trial_type":"html-button-response","trial_index":62,"time_elapsed":905688,"internal_node_id":"0.0-4.0-1.27","subject_id":"6169c0667a27823dc8059c88","study_id":"60edd13110225f80f9f3709b","session_id":"6196c1e8b14ba7e07c7505bc","condition":"contingent","relevant_dimensions":["pattern","legs"],"bee_group":{"antennae":"X","wings":"X","pattern":"S","legs":"M"},"bonus":1.6800000000000013},{"rt":1405.6000000238419,"stimulus":"bees-with-color/bee-B1DM.svg","response":0,"trial_type":"image-button-response","trial_index":63,"time_elapsed":907096,"internal_node_id":"0.0-4.0-0.28","subject_id":"6169c0667a27823dc8059c88","study_id":"60edd13110225f80f9f3709b","session_id":"6196c1e8b14ba7e07c7505bc","condition":"contingent","relevant_dimensions":["pattern","legs"],"bee_group":{"antennae":"X","wings":"X","pattern":"S","legs":"M"},"action":"harvest","summary":"good-harvest","bonus":1.6800000000000013},{"rt":766,"stimulus":"\n                    <p><b>Action: <em>harvest</em></b></p>\n                    <p>This is the bee that you just saw.</p>\n                    <img src=\"bees-with-color/bee-B1DM.svg\" width=\"200\">\n                    <p><span class=\"greenText\"><b>Successful harvest!</b></span><br>Your pay has increased by $0.02. Your bonus pay is now $0.68.</p>\n            ","response":0,"trial_type":"html-button-response","trial_index":64,"time_elapsed":907864,"internal_node_id":"0.0-4.0-1.28","subject_id":"6169c0667a27823dc8059c88","study_id":"60edd13110225f80f9f3709b","session_id":"6196c1e8b14ba7e07c7505bc","condition":"contingent","relevant_dimensions":["pattern","legs"],"bee_group":{"antennae":"X","wings":"X","pattern":"S","legs":"M"},"bonus":1.6800000000000013},{"rt":1132.800000011921,"stimulus":"bees-with-color/bee-A2DF.svg","response":0,"trial_type":"image-button-response","trial_index":65,"time_elapsed":908999,"internal_node_id":"0.0-4.0-0.29","subject_id":"6169c0667a27823dc8059c88","study_id":"60edd13110225f80f9f3709b","session_id":"6196c1e8b14ba7e07c7505bc","condition":"contingent","relevant_dimensions":["pattern","legs"],"bee_group":{"antennae":"X","wings":"X","pattern":"S","legs":"M"},"action":"harvest","summary":"good-harvest","bonus":1.6800000000000013},{"rt":710.4000000357628,"stimulus":"\n                    <p><b>Action: <em>harvest</em></b></p>\n                    <p>This is the bee that you just saw.</p>\n                    <img src=\"bees-with-color/bee-A2DF.svg\" width=\"200\">\n                    <p><span class=\"greenText\"><b>Successful harvest!</b></span><br>Your pay has increased by $0.02. Your bonus pay is now $0.70.</p>\n            ","response":0,"trial_type":"html-button-response","trial_index":66,"time_elapsed":909712,"internal_node_id":"0.0-4.0-1.29","subject_id":"6169c0667a27823dc8059c88","study_id":"60edd13110225f80f9f3709b","session_id":"6196c1e8b14ba7e07c7505bc","condition":"contingent","relevant_dimensions":["pattern","legs"],"bee_group":{"antennae":"X","wings":"X","pattern":"S","legs":"M"},"bonus":1.6800000000000013},{"rt":1005.6999999880791,"stimulus":"bees-with-color/bee-A1DF.svg","response":0,"trial_type":"image-button-response","trial_index":67,"time_elapsed":910719,"internal_node_id":"0.0-4.0-0.30","subject_id":"6169c0667a27823dc8059c88","study_id":"60edd13110225f80f9f3709b","session_id":"6196c1e8b14ba7e07c7505bc","condition":"contingent","relevant_dimensions":["pattern","legs"],"bee_group":{"antennae":"X","wings":"X","pattern":"S","legs":"M"},"action":"harvest","summary":"good-harvest","bonus":1.6800000000000013},{"rt":879.1999999880791,"stimulus":"\n                    <p><b>Action: <em>harvest</em></b></p>\n                    <p>This is the bee that you just saw.</p>\n                    <img src=\"bees-with-color/bee-A1DF.svg\" width=\"200\">\n                    <p><span class=\"greenText\"><b>Successful harvest!</b></span><br>Your pay has increased by $0.02. Your bonus pay is now $0.72.</p>\n            ","response":0,"trial_type":"html-button-response","trial_index":68,"time_elapsed":911600,"internal_node_id":"0.0-4.0-1.30","subject_id":"6169c0667a27823dc8059c88","study_id":"60edd13110225f80f9f3709b","session_id":"6196c1e8b14ba7e07c7505bc","condition":"contingent","relevant_dimensions":["pattern","legs"],"bee_group":{"antennae":"X","wings":"X","pattern":"S","legs":"M"},"bonus":1.6800000000000013},{"rt":1141.9000000357628,"stimulus":"bees-with-color/bee-A1SM.svg","response":1,"trial_type":"image-button-response","trial_index":69,"time_elapsed":912743,"internal_node_id":"0.0-4.0-0.31","subject_id":"6169c0667a27823dc8059c88","study_id":"60edd13110225f80f9f3709b","session_id":"6196c1e8b14ba7e07c7505bc","condition":"contingent","relevant_dimensions":["pattern","legs"],"bee_group":{"antennae":"X","wings":"X","pattern":"S","legs":"M"},"action":"avoid","summary":"good-avoid","bonus":1.6800000000000013},{"rt":702.8000000119209,"stimulus":"\n                    <p><b>Action: <em>avoid</em></b></p>\n                    <p>This is the bee that you just saw.</p>\n                    <img src=\"bees-with-color/bee-A1SM.svg\" width=\"200\">\n                    <p><br>Your bonus pay is unchanged, and remains at $0.72.</p>\n            ","response":0,"trial_type":"html-button-response","trial_index":70,"time_elapsed":913448,"internal_node_id":"0.0-4.0-1.31","subject_id":"6169c0667a27823dc8059c88","study_id":"60edd13110225f80f9f3709b","session_id":"6196c1e8b14ba7e07c7505bc","condition":"contingent","relevant_dimensions":["pattern","legs"],"bee_group":{"antennae":"X","wings":"X","pattern":"S","legs":"M"},"bonus":1.6800000000000013},{"rt":1310.5999999642372,"stimulus":"bees-with-color/bee-B1DF.svg","response":0,"trial_type":"image-button-response","trial_index":71,"time_elapsed":914760,"internal_node_id":"0.0-4.0-0.32","subject_id":"6169c0667a27823dc8059c88","study_id":"60edd13110225f80f9f3709b","session_id":"6196c1e8b14ba7e07c7505bc","condition":"contingent","relevant_dimensions":["pattern","legs"],"bee_group":{"antennae":"X","wings":"X","pattern":"S","legs":"M"},"action":"harvest","summary":"good-harvest","bonus":1.6800000000000013},{"rt":726,"stimulus":"\n                    <p><b>Action: <em>harvest</em></b></p>\n                    <p>This is the bee that you just saw.</p>\n                    <img src=\"bees-with-color/bee-B1DF.svg\" width=\"200\">\n                    <p><span class=\"greenText\"><b>Successful harvest!</b></span><br>Your pay has increased by $0.02. Your bonus pay is now $0.74.</p>\n            ","response":0,"trial_type":"html-button-response","trial_index":72,"time_elapsed":915488,"internal_node_id":"0.0-4.0-1.32","subject_id":"6169c0667a27823dc8059c88","study_id":"60edd13110225f80f9f3709b","session_id":"6196c1e8b14ba7e07c7505bc","condition":"contingent","relevant_dimensions":["pattern","legs"],"bee_group":{"antennae":"X","wings":"X","pattern":"S","legs":"M"},"bonus":1.6800000000000013},{"rt":2814.399999976158,"stimulus":"bees-with-color/bee-A1DF.svg","response":0,"trial_type":"image-button-response","trial_index":73,"time_elapsed":918304,"internal_node_id":"0.0-4.0-0.33","subject_id":"6169c0667a27823dc8059c88","study_id":"60edd13110225f80f9f3709b","session_id":"6196c1e8b14ba7e07c7505bc","condition":"contingent","relevant_dimensions":["pattern","legs"],"bee_group":{"antennae":"X","wings":"X","pattern":"S","legs":"M"},"action":"harvest","summary":"good-harvest","bonus":1.6800000000000013},{"rt":765.8000000119209,"stimulus":"\n                    <p><b>Action: <em>harvest</em></b></p>\n                    <p>This is the bee that you just saw.</p>\n                    <img src=\"bees-with-color/bee-A1DF.svg\" width=\"200\">\n                    <p><span class=\"greenText\"><b>Successful harvest!</b></span><br>Your pay has increased by $0.02. Your bonus pay is now $0.76.</p>\n            ","response":0,"trial_type":"html-button-response","trial_index":74,"time_elapsed":919071,"internal_node_id":"0.0-4.0-1.33","subject_id":"6169c0667a27823dc8059c88","study_id":"60edd13110225f80f9f3709b","session_id":"6196c1e8b14ba7e07c7505bc","condition":"contingent","relevant_dimensions":["pattern","legs"],"bee_group":{"antennae":"X","wings":"X","pattern":"S","legs":"M"},"bonus":1.6800000000000013},{"rt":1310.0999999642372,"stimulus":"bees-with-color/bee-B2SM.svg","response":1,"trial_type":"image-button-response","trial_index":75,"time_elapsed":920383,"internal_node_id":"0.0-4.0-0.34","subject_id":"6169c0667a27823dc8059c88","study_id":"60edd13110225f80f9f3709b","session_id":"6196c1e8b14ba7e07c7505bc","condition":"contingent","relevant_dimensions":["pattern","legs"],"bee_group":{"antennae":"X","wings":"X","pattern":"S","legs":"M"},"action":"avoid","summary":"good-avoid","bonus":1.6800000000000013},{"rt":686.1999999880791,"stimulus":"\n                    <p><b>Action: <em>avoid</em></b></p>\n                    <p>This is the bee that you just saw.</p>\n                    <img src=\"bees-with-color/bee-B2SM.svg\" width=\"200\">\n                    <p><br>Your bonus pay is unchanged, and remains at $0.76.</p>\n            ","response":0,"trial_type":"html-button-response","trial_index":76,"time_elapsed":921071,"internal_node_id":"0.0-4.0-1.34","subject_id":"6169c0667a27823dc8059c88","study_id":"60edd13110225f80f9f3709b","session_id":"6196c1e8b14ba7e07c7505bc","condition":"contingent","relevant_dimensions":["pattern","legs"],"bee_group":{"antennae":"X","wings":"X","pattern":"S","legs":"M"},"bonus":1.6800000000000013},{"rt":1246.3999999761581,"stimulus":"bees-with-color/bee-A2SM.svg","response":1,"trial_type":"image-button-response","trial_index":77,"time_elapsed":922319,"internal_node_id":"0.0-4.0-0.35","subject_id":"6169c0667a27823dc8059c88","study_id":"60edd13110225f80f9f3709b","session_id":"6196c1e8b14ba7e07c7505bc","condition":"contingent","relevant_dimensions":["pattern","legs"],"bee_group":{"antennae":"X","wings":"X","pattern":"S","legs":"M"},"action":"avoid","summary":"good-avoid","bonus":1.6800000000000013},{"rt":791.3000000119209,"stimulus":"\n                    <p><b>Action: <em>avoid</em></b></p>\n                    <p>This is the bee that you just saw.</p>\n                    <img src=\"bees-with-color/bee-A2SM.svg\" width=\"200\">\n                    <p><br>Your bonus pay is unchanged, and remains at $0.76.</p>\n            ","response":0,"trial_type":"html-button-response","trial_index":78,"time_elapsed":923112,"internal_node_id":"0.0-4.0-1.35","subject_id":"6169c0667a27823dc8059c88","study_id":"60edd13110225f80f9f3709b","session_id":"6196c1e8b14ba7e07c7505bc","condition":"contingent","relevant_dimensions":["pattern","legs"],"bee_group":{"antennae":"X","wings":"X","pattern":"S","legs":"M"},"bonus":1.6800000000000013},{"rt":1734,"stimulus":"bees-with-color/bee-A2SF.svg","response":0,"trial_type":"image-button-response","trial_index":79,"time_elapsed":924847,"internal_node_id":"0.0-4.0-0.36","subject_id":"6169c0667a27823dc8059c88","study_id":"60edd13110225f80f9f3709b","session_id":"6196c1e8b14ba7e07c7505bc","condition":"contingent","relevant_dimensions":["pattern","legs"],"bee_group":{"antennae":"X","wings":"X","pattern":"S","legs":"M"},"action":"harvest","summary":"good-harvest","bonus":1.6800000000000013},{"rt":726.3000000119209,"stimulus":"\n                    <p><b>Action: <em>harvest</em></b></p>\n                    <p>This is the bee that you just saw.</p>\n                    <img src=\"bees-with-color/bee-A2SF.svg\" width=\"200\">\n                    <p><span class=\"greenText\"><b>Successful harvest!</b></span><br>Your pay has increased by $0.02. Your bonus pay is now $0.78.</p>\n            ","response":0,"trial_type":"html-button-response","trial_index":80,"time_elapsed":925576,"internal_node_id":"0.0-4.0-1.36","subject_id":"6169c0667a27823dc8059c88","study_id":"60edd13110225f80f9f3709b","session_id":"6196c1e8b14ba7e07c7505bc","condition":"contingent","relevant_dimensions":["pattern","legs"],"bee_group":{"antennae":"X","wings":"X","pattern":"S","legs":"M"},"bonus":1.6800000000000013},{"rt":2526.100000023842,"stimulus":"bees-with-color/bee-B1SF.svg","response":0,"trial_type":"image-button-response","trial_index":81,"time_elapsed":928104,"internal_node_id":"0.0-4.0-0.37","subject_id":"6169c0667a27823dc8059c88","study_id":"60edd13110225f80f9f3709b","session_id":"6196c1e8b14ba7e07c7505bc","condition":"contingent","relevant_dimensions":["pattern","legs"],"bee_group":{"antennae":"X","wings":"X","pattern":"S","legs":"M"},"action":"harvest","summary":"good-harvest","bonus":1.6800000000000013},{"rt":662,"stimulus":"\n                    <p><b>Action: <em>harvest</em></b></p>\n                    <p>This is the bee that you just saw.</p>\n                    <img src=\"bees-with-color/bee-B1SF.svg\" width=\"200\">\n                    <p><span class=\"greenText\"><b>Successful harvest!</b></span><br>Your pay has increased by $0.02. Your bonus pay is now $0.80.</p>\n            ","response":0,"trial_type":"html-button-response","trial_index":82,"time_elapsed":928768,"internal_node_id":"0.0-4.0-1.37","subject_id":"6169c0667a27823dc8059c88","study_id":"60edd13110225f80f9f3709b","session_id":"6196c1e8b14ba7e07c7505bc","condition":"contingent","relevant_dimensions":["pattern","legs"],"bee_group":{"antennae":"X","wings":"X","pattern":"S","legs":"M"},"bonus":1.6800000000000013},{"rt":925.0999999642372,"stimulus":"bees-with-color/bee-B1DM.svg","response":0,"trial_type":"image-button-response","trial_index":83,"time_elapsed":929695,"internal_node_id":"0.0-4.0-0.38","subject_id":"6169c0667a27823dc8059c88","study_id":"60edd13110225f80f9f3709b","session_id":"6196c1e8b14ba7e07c7505bc","condition":"contingent","relevant_dimensions":["pattern","legs"],"bee_group":{"antennae":"X","wings":"X","pattern":"S","legs":"M"},"action":"harvest","summary":"good-harvest","bonus":1.6800000000000013},{"rt":662.1000000238419,"stimulus":"\n                    <p><b>Action: <em>harvest</em></b></p>\n                    <p>This is the bee that you just saw.</p>\n                    <img src=\"bees-with-color/bee-B1DM.svg\" width=\"200\">\n                    <p><span class=\"greenText\"><b>Successful harvest!</b></span><br>Your pay has increased by $0.02. Your bonus pay is now $0.82.</p>\n            ","response":0,"trial_type":"html-button-response","trial_index":84,"time_elapsed":930359,"internal_node_id":"0.0-4.0-1.38","subject_id":"6169c0667a27823dc8059c88","study_id":"60edd13110225f80f9f3709b","session_id":"6196c1e8b14ba7e07c7505bc","condition":"contingent","relevant_dimensions":["pattern","legs"],"bee_group":{"antennae":"X","wings":"X","pattern":"S","legs":"M"},"bonus":1.6800000000000013},{"rt":1030.5,"stimulus":"bees-with-color/bee-A2DM.svg","response":0,"trial_type":"image-button-response","trial_index":85,"time_elapsed":931391,"internal_node_id":"0.0-4.0-0.39","subject_id":"6169c0667a27823dc8059c88","study_id":"60edd13110225f80f9f3709b","session_id":"6196c1e8b14ba7e07c7505bc","condition":"contingent","relevant_dimensions":["pattern","legs"],"bee_group":{"antennae":"X","wings":"X","pattern":"S","legs":"M"},"action":"harvest","summary":"good-harvest","bonus":1.6800000000000013},{"rt":653.8999999761581,"stimulus":"\n                    <p><b>Action: <em>harvest</em></b></p>\n                    <p>This is the bee that you just saw.</p>\n                    <img src=\"bees-with-color/bee-A2DM.svg\" width=\"200\">\n                    <p><span class=\"greenText\"><b>Successful harvest!</b></span><br>Your pay has increased by $0.02. Your bonus pay is now $0.84.</p>\n            ","response":0,"trial_type":"html-button-response","trial_index":86,"time_elapsed":932047,"internal_node_id":"0.0-4.0-1.39","subject_id":"6169c0667a27823dc8059c88","study_id":"60edd13110225f80f9f3709b","session_id":"6196c1e8b14ba7e07c7505bc","condition":"contingent","relevant_dimensions":["pattern","legs"],"bee_group":{"antennae":"X","wings":"X","pattern":"S","legs":"M"},"bonus":1.6800000000000013},{"rt":975.4000000357628,"stimulus":"bees-with-color/bee-B2DM.svg","response":0,"trial_type":"image-button-response","trial_index":87,"time_elapsed":933024,"internal_node_id":"0.0-4.0-0.40","subject_id":"6169c0667a27823dc8059c88","study_id":"60edd13110225f80f9f3709b","session_id":"6196c1e8b14ba7e07c7505bc","condition":"contingent","relevant_dimensions":["pattern","legs"],"bee_group":{"antennae":"X","wings":"X","pattern":"S","legs":"M"},"action":"harvest","summary":"good-harvest","bonus":1.6800000000000013},{"rt":701.6000000238419,"stimulus":"\n                    <p><b>Action: <em>harvest</em></b></p>\n                    <p>This is the bee that you just saw.</p>\n                    <img src=\"bees-with-color/bee-B2DM.svg\" width=\"200\">\n                    <p><span class=\"greenText\"><b>Successful harvest!</b></span><br>Your pay has increased by $0.02. Your bonus pay is now $0.86.</p>\n            ","response":0,"trial_type":"html-button-response","trial_index":88,"time_elapsed":933728,"internal_node_id":"0.0-4.0-1.40","subject_id":"6169c0667a27823dc8059c88","study_id":"60edd13110225f80f9f3709b","session_id":"6196c1e8b14ba7e07c7505bc","condition":"contingent","relevant_dimensions":["pattern","legs"],"bee_group":{"antennae":"X","wings":"X","pattern":"S","legs":"M"},"bonus":1.6800000000000013},{"rt":1390,"stimulus":"bees-with-color/bee-A1DM.svg","response":0,"trial_type":"image-button-response","trial_index":89,"time_elapsed":935120,"internal_node_id":"0.0-4.0-0.41","subject_id":"6169c0667a27823dc8059c88","study_id":"60edd13110225f80f9f3709b","session_id":"6196c1e8b14ba7e07c7505bc","condition":"contingent","relevant_dimensions":["pattern","legs"],"bee_group":{"antennae":"X","wings":"X","pattern":"S","legs":"M"},"action":"harvest","summary":"good-harvest","bonus":1.6800000000000013},{"rt":1084.8999999761581,"stimulus":"\n                    <p><b>Action: <em>harvest</em></b></p>\n                    <p>This is the bee that you just saw.</p>\n                    <img src=\"bees-with-color/bee-A1DM.svg\" width=\"200\">\n                    <p><span class=\"greenText\"><b>Successful harvest!</b></span><br>Your pay has increased by $0.02. Your bonus pay is now $0.88.</p>\n            ","response":0,"trial_type":"html-button-response","trial_index":90,"time_elapsed":936208,"internal_node_id":"0.0-4.0-1.41","subject_id":"6169c0667a27823dc8059c88","study_id":"60edd13110225f80f9f3709b","session_id":"6196c1e8b14ba7e07c7505bc","condition":"contingent","relevant_dimensions":["pattern","legs"],"bee_group":{"antennae":"X","wings":"X","pattern":"S","legs":"M"},"bonus":1.6800000000000013},{"rt":1188.9000000357628,"stimulus":"bees-with-color/bee-B2DF.svg","response":0,"trial_type":"image-button-response","trial_index":91,"time_elapsed":937399,"internal_node_id":"0.0-4.0-0.42","subject_id":"6169c0667a27823dc8059c88","study_id":"60edd13110225f80f9f3709b","session_id":"6196c1e8b14ba7e07c7505bc","condition":"contingent","relevant_dimensions":["pattern","legs"],"bee_group":{"antennae":"X","wings":"X","pattern":"S","legs":"M"},"action":"harvest","summary":"good-harvest","bonus":1.6800000000000013},{"rt":694.0999999642372,"stimulus":"\n                    <p><b>Action: <em>harvest</em></b></p>\n                    <p>This is the bee that you just saw.</p>\n                    <img src=\"bees-with-color/bee-B2DF.svg\" width=\"200\">\n                    <p><span class=\"greenText\"><b>Successful harvest!</b></span><br>Your pay has increased by $0.02. Your bonus pay is now $0.90.</p>\n            ","response":0,"trial_type":"html-button-response","trial_index":92,"time_elapsed":938095,"internal_node_id":"0.0-4.0-1.42","subject_id":"6169c0667a27823dc8059c88","study_id":"60edd13110225f80f9f3709b","session_id":"6196c1e8b14ba7e07c7505bc","condition":"contingent","relevant_dimensions":["pattern","legs"],"bee_group":{"antennae":"X","wings":"X","pattern":"S","legs":"M"},"bonus":1.6800000000000013},{"rt":1333.699999988079,"stimulus":"bees-with-color/bee-A1SF.svg","response":0,"trial_type":"image-button-response","trial_index":93,"time_elapsed":939431,"internal_node_id":"0.0-4.0-0.43","subject_id":"6169c0667a27823dc8059c88","study_id":"60edd13110225f80f9f3709b","session_id":"6196c1e8b14ba7e07c7505bc","condition":"contingent","relevant_dimensions":["pattern","legs"],"bee_group":{"antennae":"X","wings":"X","pattern":"S","legs":"M"},"action":"harvest","summary":"good-harvest","bonus":1.6800000000000013},{"rt":661.6000000238419,"stimulus":"\n                    <p><b>Action: <em>harvest</em></b></p>\n                    <p>This is the bee that you just saw.</p>\n                    <img src=\"bees-with-color/bee-A1SF.svg\" width=\"200\">\n                    <p><span class=\"greenText\"><b>Successful harvest!</b></span><br>Your pay has increased by $0.02. Your bonus pay is now $0.92.</p>\n            ","response":0,"trial_type":"html-button-response","trial_index":94,"time_elapsed":940096,"internal_node_id":"0.0-4.0-1.43","subject_id":"6169c0667a27823dc8059c88","study_id":"60edd13110225f80f9f3709b","session_id":"6196c1e8b14ba7e07c7505bc","condition":"contingent","relevant_dimensions":["pattern","legs"],"bee_group":{"antennae":"X","wings":"X","pattern":"S","legs":"M"},"bonus":1.6800000000000013},{"rt":1133.1000000238419,"stimulus":"bees-with-color/bee-B1SM.svg","response":1,"trial_type":"image-button-response","trial_index":95,"time_elapsed":941231,"internal_node_id":"0.0-4.0-0.44","subject_id":"6169c0667a27823dc8059c88","study_id":"60edd13110225f80f9f3709b","session_id":"6196c1e8b14ba7e07c7505bc","condition":"contingent","relevant_dimensions":["pattern","legs"],"bee_group":{"antennae":"X","wings":"X","pattern":"S","legs":"M"},"action":"avoid","summary":"good-avoid","bonus":1.6800000000000013},{"rt":686.1000000238419,"stimulus":"\n                    <p><b>Action: <em>avoid</em></b></p>\n                    <p>This is the bee that you just saw.</p>\n                    <img src=\"bees-with-color/bee-B1SM.svg\" width=\"200\">\n                    <p><br>Your bonus pay is unchanged, and remains at $0.92.</p>\n            ","response":0,"trial_type":"html-button-response","trial_index":96,"time_elapsed":941919,"internal_node_id":"0.0-4.0-1.44","subject_id":"6169c0667a27823dc8059c88","study_id":"60edd13110225f80f9f3709b","session_id":"6196c1e8b14ba7e07c7505bc","condition":"contingent","relevant_dimensions":["pattern","legs"],"bee_group":{"antennae":"X","wings":"X","pattern":"S","legs":"M"},"bonus":1.6800000000000013},{"rt":1262.7999999523163,"stimulus":"bees-with-color/bee-B2SF.svg","response":0,"trial_type":"image-button-response","trial_index":97,"time_elapsed":943184,"internal_node_id":"0.0-4.0-0.45","subject_id":"6169c0667a27823dc8059c88","study_id":"60edd13110225f80f9f3709b","session_id":"6196c1e8b14ba7e07c7505bc","condition":"contingent","relevant_dimensions":["pattern","legs"],"bee_group":{"antennae":"X","wings":"X","pattern":"S","legs":"M"},"action":"harvest","summary":"good-harvest","bonus":1.6800000000000013},{"rt":661.3999999761581,"stimulus":"\n                    <p><b>Action: <em>harvest</em></b></p>\n                    <p>This is the bee that you just saw.</p>\n                    <img src=\"bees-with-color/bee-B2SF.svg\" width=\"200\">\n                    <p><span class=\"greenText\"><b>Successful harvest!</b></span><br>Your pay has increased by $0.02. Your bonus pay is now $0.94.</p>\n            ","response":0,"trial_type":"html-button-response","trial_index":98,"time_elapsed":943848,"internal_node_id":"0.0-4.0-1.45","subject_id":"6169c0667a27823dc8059c88","study_id":"60edd13110225f80f9f3709b","session_id":"6196c1e8b14ba7e07c7505bc","condition":"contingent","relevant_dimensions":["pattern","legs"],"bee_group":{"antennae":"X","wings":"X","pattern":"S","legs":"M"},"bonus":1.6800000000000013},{"rt":949.3000000119209,"stimulus":"bees-with-color/bee-A2DF.svg","response":0,"trial_type":"image-button-response","trial_index":99,"time_elapsed":944799,"internal_node_id":"0.0-4.0-0.46","subject_id":"6169c0667a27823dc8059c88","study_id":"60edd13110225f80f9f3709b","session_id":"6196c1e8b14ba7e07c7505bc","condition":"contingent","relevant_dimensions":["pattern","legs"],"bee_group":{"antennae":"X","wings":"X","pattern":"S","legs":"M"},"action":"harvest","summary":"good-harvest","bonus":1.6800000000000013},{"rt":533.3000000119209,"stimulus":"\n                    <p><b>Action: <em>harvest</em></b></p>\n                    <p>This is the bee that you just saw.</p>\n                    <img src=\"bees-with-color/bee-A2DF.svg\" width=\"200\">\n                    <p><span class=\"greenText\"><b>Successful harvest!</b></span><br>Your pay has increased by $0.02. Your bonus pay is now $0.96.</p>\n            ","response":0,"trial_type":"html-button-response","trial_index":100,"time_elapsed":945335,"internal_node_id":"0.0-4.0-1.46","subject_id":"6169c0667a27823dc8059c88","study_id":"60edd13110225f80f9f3709b","session_id":"6196c1e8b14ba7e07c7505bc","condition":"contingent","relevant_dimensions":["pattern","legs"],"bee_group":{"antennae":"X","wings":"X","pattern":"S","legs":"M"},"bonus":1.6800000000000013},{"rt":1102.5,"stimulus":"bees-with-color/bee-A1SM.svg","response":1,"trial_type":"image-button-response","trial_index":101,"time_elapsed":946440,"internal_node_id":"0.0-4.0-0.47","subject_id":"6169c0667a27823dc8059c88","study_id":"60edd13110225f80f9f3709b","session_id":"6196c1e8b14ba7e07c7505bc","condition":"contingent","relevant_dimensions":["pattern","legs"],"bee_group":{"antennae":"X","wings":"X","pattern":"S","legs":"M"},"action":"avoid","summary":"good-avoid","bonus":1.6800000000000013},{"rt":1149.199999988079,"stimulus":"\n                    <p><b>Action: <em>avoid</em></b></p>\n                    <p>This is the bee that you just saw.</p>\n                    <img src=\"bees-with-color/bee-A1SM.svg\" width=\"200\">\n                    <p><br>Your bonus pay is unchanged, and remains at $0.96.</p>\n            ","response":0,"trial_type":"html-button-response","trial_index":102,"time_elapsed":947592,"internal_node_id":"0.0-4.0-1.47","subject_id":"6169c0667a27823dc8059c88","study_id":"60edd13110225f80f9f3709b","session_id":"6196c1e8b14ba7e07c7505bc","condition":"contingent","relevant_dimensions":["pattern","legs"],"bee_group":{"antennae":"X","wings":"X","pattern":"S","legs":"M"},"bonus":1.6800000000000013},{"rt":1229.699999988079,"stimulus":"bees-with-color/bee-A2SM.svg","response":1,"trial_type":"image-button-response","trial_index":103,"time_elapsed":948824,"internal_node_id":"0.0-4.0-0.48","subject_id":"6169c0667a27823dc8059c88","study_id":"60edd13110225f80f9f3709b","session_id":"6196c1e8b14ba7e07c7505bc","condition":"contingent","relevant_dimensions":["pattern","legs"],"bee_group":{"antennae":"X","wings":"X","pattern":"S","legs":"M"},"action":"avoid","summary":"good-avoid","bonus":1.6800000000000013},{"rt":597.2000000476837,"stimulus":"\n                    <p><b>Action: <em>avoid</em></b></p>\n                    <p>This is the bee that you just saw.</p>\n                    <img src=\"bees-with-color/bee-A2SM.svg\" width=\"200\">\n                    <p><br>Your bonus pay is unchanged, and remains at $0.96.</p>\n            ","response":0,"trial_type":"html-button-response","trial_index":104,"time_elapsed":949424,"internal_node_id":"0.0-4.0-1.48","subject_id":"6169c0667a27823dc8059c88","study_id":"60edd13110225f80f9f3709b","session_id":"6196c1e8b14ba7e07c7505bc","condition":"contingent","relevant_dimensions":["pattern","legs"],"bee_group":{"antennae":"X","wings":"X","pattern":"S","legs":"M"},"bonus":1.6800000000000013},{"rt":949.5,"stimulus":"bees-with-color/bee-B2SF.svg","response":0,"trial_type":"image-button-response","trial_index":105,"time_elapsed":950376,"internal_node_id":"0.0-4.0-0.49","subject_id":"6169c0667a27823dc8059c88","study_id":"60edd13110225f80f9f3709b","session_id":"6196c1e8b14ba7e07c7505bc","condition":"contingent","relevant_dimensions":["pattern","legs"],"bee_group":{"antennae":"X","wings":"X","pattern":"S","legs":"M"},"action":"harvest","summary":"good-harvest","bonus":1.6800000000000013},{"rt":2685.199999988079,"stimulus":"\n                    <p><b>Action: <em>harvest</em></b></p>\n                    <p>This is the bee that you just saw.</p>\n                    <img src=\"bees-with-color/bee-B2SF.svg\" width=\"200\">\n                    <p><span class=\"greenText\"><b>Successful harvest!</b></span><br>Your pay has increased by $0.02. Your bonus pay is now $0.98.</p>\n            ","response":0,"trial_type":"html-button-response","trial_index":106,"time_elapsed":953063,"internal_node_id":"0.0-4.0-1.49","subject_id":"6169c0667a27823dc8059c88","study_id":"60edd13110225f80f9f3709b","session_id":"6196c1e8b14ba7e07c7505bc","condition":"contingent","relevant_dimensions":["pattern","legs"],"bee_group":{"antennae":"X","wings":"X","pattern":"S","legs":"M"},"bonus":1.6800000000000013},{"rt":1374.699999988079,"stimulus":"bees-with-color/bee-A2DM.svg","response":0,"trial_type":"image-button-response","trial_index":107,"time_elapsed":954439,"internal_node_id":"0.0-4.0-0.50","subject_id":"6169c0667a27823dc8059c88","study_id":"60edd13110225f80f9f3709b","session_id":"6196c1e8b14ba7e07c7505bc","condition":"contingent","relevant_dimensions":["pattern","legs"],"bee_group":{"antennae":"X","wings":"X","pattern":"S","legs":"M"},"action":"harvest","summary":"good-harvest","bonus":1.6800000000000013},{"rt":790.8999999761581,"stimulus":"\n                    <p><b>Action: <em>harvest</em></b></p>\n                    <p>This is the bee that you just saw.</p>\n                    <img src=\"bees-with-color/bee-A2DM.svg\" width=\"200\">\n                    <p><span class=\"greenText\"><b>Successful harvest!</b></span><br>Your pay has increased by $0.02. Your bonus pay is now $1.00.</p>\n            ","response":0,"trial_type":"html-button-response","trial_index":108,"time_elapsed":955232,"internal_node_id":"0.0-4.0-1.50","subject_id":"6169c0667a27823dc8059c88","study_id":"60edd13110225f80f9f3709b","session_id":"6196c1e8b14ba7e07c7505bc","condition":"contingent","relevant_dimensions":["pattern","legs"],"bee_group":{"antennae":"X","wings":"X","pattern":"S","legs":"M"},"bonus":1.6800000000000013},{"rt":885.6999999880791,"stimulus":"bees-with-color/bee-B1DF.svg","response":0,"trial_type":"image-button-response","trial_index":109,"time_elapsed":956119,"internal_node_id":"0.0-4.0-0.51","subject_id":"6169c0667a27823dc8059c88","study_id":"60edd13110225f80f9f3709b","session_id":"6196c1e8b14ba7e07c7505bc","condition":"contingent","relevant_dimensions":["pattern","legs"],"bee_group":{"antennae":"X","wings":"X","pattern":"S","legs":"M"},"action":"harvest","summary":"good-harvest","bonus":1.6800000000000013},{"rt":750.6999999880791,"stimulus":"\n                    <p><b>Action: <em>harvest</em></b></p>\n                    <p>This is the bee that you just saw.</p>\n                    <img src=\"bees-with-color/bee-B1DF.svg\" width=\"200\">\n                    <p><span class=\"greenText\"><b>Successful harvest!</b></span><br>Your pay has increased by $0.02. Your bonus pay is now $1.02.</p>\n            ","response":0,"trial_type":"html-button-response","trial_index":110,"time_elapsed":956871,"internal_node_id":"0.0-4.0-1.51","subject_id":"6169c0667a27823dc8059c88","study_id":"60edd13110225f80f9f3709b","session_id":"6196c1e8b14ba7e07c7505bc","condition":"contingent","relevant_dimensions":["pattern","legs"],"bee_group":{"antennae":"X","wings":"X","pattern":"S","legs":"M"},"bonus":1.6800000000000013},{"rt":1174.0999999642372,"stimulus":"bees-with-color/bee-B2SM.svg","response":1,"trial_type":"image-button-response","trial_index":111,"time_elapsed":958047,"internal_node_id":"0.0-4.0-0.52","subject_id":"6169c0667a27823dc8059c88","study_id":"60edd13110225f80f9f3709b","session_id":"6196c1e8b14ba7e07c7505bc","condition":"contingent","relevant_dimensions":["pattern","legs"],"bee_group":{"antennae":"X","wings":"X","pattern":"S","legs":"M"},"action":"avoid","summary":"good-avoid","bonus":1.6800000000000013},{"rt":726.4000000357628,"stimulus":"\n                    <p><b>Action: <em>avoid</em></b></p>\n                    <p>This is the bee that you just saw.</p>\n                    <img src=\"bees-with-color/bee-B2SM.svg\" width=\"200\">\n                    <p><br>Your bonus pay is unchanged, and remains at $1.02.</p>\n            ","response":0,"trial_type":"html-button-response","trial_index":112,"time_elapsed":958776,"internal_node_id":"0.0-4.0-1.52","subject_id":"6169c0667a27823dc8059c88","study_id":"60edd13110225f80f9f3709b","session_id":"6196c1e8b14ba7e07c7505bc","condition":"contingent","relevant_dimensions":["pattern","legs"],"bee_group":{"antennae":"X","wings":"X","pattern":"S","legs":"M"},"bonus":1.6800000000000013},{"rt":954.1000000238419,"stimulus":"bees-with-color/bee-B1DM.svg","response":0,"trial_type":"image-button-response","trial_index":113,"time_elapsed":959735,"internal_node_id":"0.0-4.0-0.53","subject_id":"6169c0667a27823dc8059c88","study_id":"60edd13110225f80f9f3709b","session_id":"6196c1e8b14ba7e07c7505bc","condition":"contingent","relevant_dimensions":["pattern","legs"],"bee_group":{"antennae":"X","wings":"X","pattern":"S","legs":"M"},"action":"harvest","summary":"good-harvest","bonus":1.6800000000000013},{"rt":734.6999999880791,"stimulus":"\n                    <p><b>Action: <em>harvest</em></b></p>\n                    <p>This is the bee that you just saw.</p>\n                    <img src=\"bees-with-color/bee-B1DM.svg\" width=\"200\">\n                    <p><span class=\"greenText\"><b>Successful harvest!</b></span><br>Your pay has increased by $0.02. Your bonus pay is now $1.04.</p>\n            ","response":0,"trial_type":"html-button-response","trial_index":114,"time_elapsed":960472,"internal_node_id":"0.0-4.0-1.53","subject_id":"6169c0667a27823dc8059c88","study_id":"60edd13110225f80f9f3709b","session_id":"6196c1e8b14ba7e07c7505bc","condition":"contingent","relevant_dimensions":["pattern","legs"],"bee_group":{"antennae":"X","wings":"X","pattern":"S","legs":"M"},"bonus":1.6800000000000013},{"rt":1253.6000000238419,"stimulus":"bees-with-color/bee-B1SF.svg","response":0,"trial_type":"image-button-response","trial_index":115,"time_elapsed":961727,"internal_node_id":"0.0-4.0-0.54","subject_id":"6169c0667a27823dc8059c88","study_id":"60edd13110225f80f9f3709b","session_id":"6196c1e8b14ba7e07c7505bc","condition":"contingent","relevant_dimensions":["pattern","legs"],"bee_group":{"antennae":"X","wings":"X","pattern":"S","legs":"M"},"action":"harvest","summary":"good-harvest","bonus":1.6800000000000013},{"rt":934.5,"stimulus":"\n                    <p><b>Action: <em>harvest</em></b></p>\n                    <p>This is the bee that you just saw.</p>\n                    <img src=\"bees-with-color/bee-B1SF.svg\" width=\"200\">\n                    <p><span class=\"greenText\"><b>Successful harvest!</b></span><br>Your pay has increased by $0.02. Your bonus pay is now $1.06.</p>\n            ","response":0,"trial_type":"html-button-response","trial_index":116,"time_elapsed":962663,"internal_node_id":"0.0-4.0-1.54","subject_id":"6169c0667a27823dc8059c88","study_id":"60edd13110225f80f9f3709b","session_id":"6196c1e8b14ba7e07c7505bc","condition":"contingent","relevant_dimensions":["pattern","legs"],"bee_group":{"antennae":"X","wings":"X","pattern":"S","legs":"M"},"bonus":1.6800000000000013},{"rt":1727.199999988079,"stimulus":"bees-with-color/bee-B2DF.svg","response":0,"trial_type":"image-button-response","trial_index":117,"time_elapsed":964392,"internal_node_id":"0.0-4.0-0.55","subject_id":"6169c0667a27823dc8059c88","study_id":"60edd13110225f80f9f3709b","session_id":"6196c1e8b14ba7e07c7505bc","condition":"contingent","relevant_dimensions":["pattern","legs"],"bee_group":{"antennae":"X","wings":"X","pattern":"S","legs":"M"},"action":"harvest","summary":"good-harvest","bonus":1.6800000000000013},{"rt":717.8000000119209,"stimulus":"\n                    <p><b>Action: <em>harvest</em></b></p>\n                    <p>This is the bee that you just saw.</p>\n                    <img src=\"bees-with-color/bee-B2DF.svg\" width=\"200\">\n                    <p><span class=\"greenText\"><b>Successful harvest!</b></span><br>Your pay has increased by $0.02. Your bonus pay is now $1.08.</p>\n            ","response":0,"trial_type":"html-button-response","trial_index":118,"time_elapsed":965112,"internal_node_id":"0.0-4.0-1.55","subject_id":"6169c0667a27823dc8059c88","study_id":"60edd13110225f80f9f3709b","session_id":"6196c1e8b14ba7e07c7505bc","condition":"contingent","relevant_dimensions":["pattern","legs"],"bee_group":{"antennae":"X","wings":"X","pattern":"S","legs":"M"},"bonus":1.6800000000000013},{"rt":957.3999999761581,"stimulus":"bees-with-color/bee-B1SM.svg","response":1,"trial_type":"image-button-response","trial_index":119,"time_elapsed":966071,"internal_node_id":"0.0-4.0-0.56","subject_id":"6169c0667a27823dc8059c88","study_id":"60edd13110225f80f9f3709b","session_id":"6196c1e8b14ba7e07c7505bc","condition":"contingent","relevant_dimensions":["pattern","legs"],"bee_group":{"antennae":"X","wings":"X","pattern":"S","legs":"M"},"action":"avoid","summary":"good-avoid","bonus":1.6800000000000013},{"rt":701.8999999761581,"stimulus":"\n                    <p><b>Action: <em>avoid</em></b></p>\n                    <p>This is the bee that you just saw.</p>\n                    <img src=\"bees-with-color/bee-B1SM.svg\" width=\"200\">\n                    <p><br>Your bonus pay is unchanged, and remains at $1.08.</p>\n            ","response":0,"trial_type":"html-button-response","trial_index":120,"time_elapsed":966775,"internal_node_id":"0.0-4.0-1.56","subject_id":"6169c0667a27823dc8059c88","study_id":"60edd13110225f80f9f3709b","session_id":"6196c1e8b14ba7e07c7505bc","condition":"contingent","relevant_dimensions":["pattern","legs"],"bee_group":{"antennae":"X","wings":"X","pattern":"S","legs":"M"},"bonus":1.6800000000000013},{"rt":1078.9000000357628,"stimulus":"bees-with-color/bee-A2SF.svg","response":0,"trial_type":"image-button-response","trial_index":121,"time_elapsed":967855,"internal_node_id":"0.0-4.0-0.57","subject_id":"6169c0667a27823dc8059c88","study_id":"60edd13110225f80f9f3709b","session_id":"6196c1e8b14ba7e07c7505bc","condition":"contingent","relevant_dimensions":["pattern","legs"],"bee_group":{"antennae":"X","wings":"X","pattern":"S","legs":"M"},"action":"harvest","summary":"good-harvest","bonus":1.6800000000000013},{"rt":662.1999999880791,"stimulus":"\n                    <p><b>Action: <em>harvest</em></b></p>\n                    <p>This is the bee that you just saw.</p>\n                    <img src=\"bees-with-color/bee-A2SF.svg\" width=\"200\">\n                    <p><span class=\"greenText\"><b>Successful harvest!</b></span><br>Your pay has increased by $0.02. Your bonus pay is now $1.10.</p>\n            ","response":0,"trial_type":"html-button-response","trial_index":122,"time_elapsed":968520,"internal_node_id":"0.0-4.0-1.57","subject_id":"6169c0667a27823dc8059c88","study_id":"60edd13110225f80f9f3709b","session_id":"6196c1e8b14ba7e07c7505bc","condition":"contingent","relevant_dimensions":["pattern","legs"],"bee_group":{"antennae":"X","wings":"X","pattern":"S","legs":"M"},"bonus":1.6800000000000013},{"rt":1054.6000000238419,"stimulus":"bees-with-color/bee-A1SF.svg","response":0,"trial_type":"image-button-response","trial_index":123,"time_elapsed":969576,"internal_node_id":"0.0-4.0-0.58","subject_id":"6169c0667a27823dc8059c88","study_id":"60edd13110225f80f9f3709b","session_id":"6196c1e8b14ba7e07c7505bc","condition":"contingent","relevant_dimensions":["pattern","legs"],"bee_group":{"antennae":"X","wings":"X","pattern":"S","legs":"M"},"action":"harvest","summary":"good-harvest","bonus":1.6800000000000013},{"rt":581.4000000357628,"stimulus":"\n                    <p><b>Action: <em>harvest</em></b></p>\n                    <p>This is the bee that you just saw.</p>\n                    <img src=\"bees-with-color/bee-A1SF.svg\" width=\"200\">\n                    <p><span class=\"greenText\"><b>Successful harvest!</b></span><br>Your pay has increased by $0.02. Your bonus pay is now $1.12.</p>\n            ","response":0,"trial_type":"html-button-response","trial_index":124,"time_elapsed":970159,"internal_node_id":"0.0-4.0-1.58","subject_id":"6169c0667a27823dc8059c88","study_id":"60edd13110225f80f9f3709b","session_id":"6196c1e8b14ba7e07c7505bc","condition":"contingent","relevant_dimensions":["pattern","legs"],"bee_group":{"antennae":"X","wings":"X","pattern":"S","legs":"M"},"bonus":1.6800000000000013},{"rt":1150.699999988079,"stimulus":"bees-with-color/bee-A1SM.svg","response":1,"trial_type":"image-button-response","trial_index":125,"time_elapsed":971312,"internal_node_id":"0.0-4.0-0.59","subject_id":"6169c0667a27823dc8059c88","study_id":"60edd13110225f80f9f3709b","session_id":"6196c1e8b14ba7e07c7505bc","condition":"contingent","relevant_dimensions":["pattern","legs"],"bee_group":{"antennae":"X","wings":"X","pattern":"S","legs":"M"},"action":"avoid","summary":"good-avoid","bonus":1.6800000000000013},{"rt":678,"stimulus":"\n                    <p><b>Action: <em>avoid</em></b></p>\n                    <p>This is the bee that you just saw.</p>\n                    <img src=\"bees-with-color/bee-A1SM.svg\" width=\"200\">\n                    <p><br>Your bonus pay is unchanged, and remains at $1.12.</p>\n            ","response":0,"trial_type":"html-button-response","trial_index":126,"time_elapsed":971992,"internal_node_id":"0.0-4.0-1.59","subject_id":"6169c0667a27823dc8059c88","study_id":"60edd13110225f80f9f3709b","session_id":"6196c1e8b14ba7e07c7505bc","condition":"contingent","relevant_dimensions":["pattern","legs"],"bee_group":{"antennae":"X","wings":"X","pattern":"S","legs":"M"},"bonus":1.6800000000000013},{"rt":894.6999999880791,"stimulus":"bees-with-color/bee-A1DM.svg","response":0,"trial_type":"image-button-response","trial_index":127,"time_elapsed":972888,"internal_node_id":"0.0-4.0-0.60","subject_id":"6169c0667a27823dc8059c88","study_id":"60edd13110225f80f9f3709b","session_id":"6196c1e8b14ba7e07c7505bc","condition":"contingent","relevant_dimensions":["pattern","legs"],"bee_group":{"antennae":"X","wings":"X","pattern":"S","legs":"M"},"action":"harvest","summary":"good-harvest","bonus":1.6800000000000013},{"rt":933.6000000238419,"stimulus":"\n                    <p><b>Action: <em>harvest</em></b></p>\n                    <p>This is the bee that you just saw.</p>\n                    <img src=\"bees-with-color/bee-A1DM.svg\" width=\"200\">\n                    <p><span class=\"greenText\"><b>Successful harvest!</b></span><br>Your pay has increased by $0.02. Your bonus pay is now $1.14.</p>\n            ","response":0,"trial_type":"html-button-response","trial_index":128,"time_elapsed":973824,"internal_node_id":"0.0-4.0-1.60","subject_id":"6169c0667a27823dc8059c88","study_id":"60edd13110225f80f9f3709b","session_id":"6196c1e8b14ba7e07c7505bc","condition":"contingent","relevant_dimensions":["pattern","legs"],"bee_group":{"antennae":"X","wings":"X","pattern":"S","legs":"M"},"bonus":1.6800000000000013},{"rt":742.1999999880791,"stimulus":"bees-with-color/bee-B2DM.svg","response":0,"trial_type":"image-button-response","trial_index":129,"time_elapsed":974568,"internal_node_id":"0.0-4.0-0.61","subject_id":"6169c0667a27823dc8059c88","study_id":"60edd13110225f80f9f3709b","session_id":"6196c1e8b14ba7e07c7505bc","condition":"contingent","relevant_dimensions":["pattern","legs"],"bee_group":{"antennae":"X","wings":"X","pattern":"S","legs":"M"},"action":"harvest","summary":"good-harvest","bonus":1.6800000000000013},{"rt":910.1999999880791,"stimulus":"\n                    <p><b>Action: <em>harvest</em></b></p>\n                    <p>This is the bee that you just saw.</p>\n                    <img src=\"bees-with-color/bee-B2DM.svg\" width=\"200\">\n                    <p><span class=\"greenText\"><b>Successful harvest!</b></span><br>Your pay has increased by $0.02. Your bonus pay is now $1.16.</p>\n            ","response":0,"trial_type":"html-button-response","trial_index":130,"time_elapsed":975480,"internal_node_id":"0.0-4.0-1.61","subject_id":"6169c0667a27823dc8059c88","study_id":"60edd13110225f80f9f3709b","session_id":"6196c1e8b14ba7e07c7505bc","condition":"contingent","relevant_dimensions":["pattern","legs"],"bee_group":{"antennae":"X","wings":"X","pattern":"S","legs":"M"},"bonus":1.6800000000000013},{"rt":909.2999999523163,"stimulus":"bees-with-color/bee-A1DF.svg","response":0,"trial_type":"image-button-response","trial_index":131,"time_elapsed":976391,"internal_node_id":"0.0-4.0-0.62","subject_id":"6169c0667a27823dc8059c88","study_id":"60edd13110225f80f9f3709b","session_id":"6196c1e8b14ba7e07c7505bc","condition":"contingent","relevant_dimensions":["pattern","legs"],"bee_group":{"antennae":"X","wings":"X","pattern":"S","legs":"M"},"action":"harvest","summary":"good-harvest","bonus":1.6800000000000013},{"rt":1102.7000000476837,"stimulus":"\n                    <p><b>Action: <em>harvest</em></b></p>\n                    <p>This is the bee that you just saw.</p>\n                    <img src=\"bees-with-color/bee-A1DF.svg\" width=\"200\">\n                    <p><span class=\"greenText\"><b>Successful harvest!</b></span><br>Your pay has increased by $0.02. Your bonus pay is now $1.18.</p>\n            ","response":0,"trial_type":"html-button-response","trial_index":132,"time_elapsed":977496,"internal_node_id":"0.0-4.0-1.62","subject_id":"6169c0667a27823dc8059c88","study_id":"60edd13110225f80f9f3709b","session_id":"6196c1e8b14ba7e07c7505bc","condition":"contingent","relevant_dimensions":["pattern","legs"],"bee_group":{"antennae":"X","wings":"X","pattern":"S","legs":"M"},"bonus":1.6800000000000013},{"rt":757.8000000119209,"stimulus":"bees-with-color/bee-A2DF.svg","response":0,"trial_type":"image-button-response","trial_index":133,"time_elapsed":978256,"internal_node_id":"0.0-4.0-0.63","subject_id":"6169c0667a27823dc8059c88","study_id":"60edd13110225f80f9f3709b","session_id":"6196c1e8b14ba7e07c7505bc","condition":"contingent","relevant_dimensions":["pattern","legs"],"bee_group":{"antennae":"X","wings":"X","pattern":"S","legs":"M"},"action":"harvest","summary":"good-harvest","bonus":1.6800000000000013},{"rt":612.8000000119209,"stimulus":"\n                    <p><b>Action: <em>harvest</em></b></p>\n                    <p>This is the bee that you just saw.</p>\n                    <img src=\"bees-with-color/bee-A2DF.svg\" width=\"200\">\n                    <p><span class=\"greenText\"><b>Successful harvest!</b></span><br>Your pay has increased by $0.02. Your bonus pay is now $1.20.</p>\n            ","response":0,"trial_type":"html-button-response","trial_index":134,"time_elapsed":978871,"internal_node_id":"0.0-4.0-1.63","subject_id":"6169c0667a27823dc8059c88","study_id":"60edd13110225f80f9f3709b","session_id":"6196c1e8b14ba7e07c7505bc","condition":"contingent","relevant_dimensions":["pattern","legs"],"bee_group":{"antennae":"X","wings":"X","pattern":"S","legs":"M"},"bonus":1.6800000000000013},{"rt":27862.899999976158,"stimulus":"You have completed the first part of this experiment.<br><br>You will now begin a shorter second part, in which you will receive no feedback.<br>The same rules regarding bonus pay apply.<br><br>Press any key to begin.","response":"arrowdown","trial_type":"html-keyboard-response","trial_index":135,"time_elapsed":1006736,"internal_node_id":"0.0-5.0","subject_id":"6169c0667a27823dc8059c88","study_id":"60edd13110225f80f9f3709b","session_id":"6196c1e8b14ba7e07c7505bc","condition":"contingent","relevant_dimensions":["pattern","legs"],"bee_group":{"antennae":"X","wings":"X","pattern":"S","legs":"M"},"bonus":1.6800000000000013},{"rt":5439.5,"stimulus":"bees-with-color/bee-A1SF.svg","response":0,"trial_type":"image-button-response","trial_index":136,"time_elapsed":1012191,"internal_node_id":"0.0-6.0-0.0","subject_id":"6169c0667a27823dc8059c88","study_id":"60edd13110225f80f9f3709b","session_id":"6196c1e8b14ba7e07c7505bc","condition":"contingent","relevant_dimensions":["pattern","legs"],"bee_group":{"antennae":"X","wings":"X","pattern":"S","legs":"M"},"bonus":1.6800000000000013},{"rt":10117.899999976158,"stimulus":"bees-with-color/bee-A2SF.svg","response":0,"trial_type":"image-button-response","trial_index":137,"time_elapsed":1022312,"internal_node_id":"0.0-6.0-0.1","subject_id":"6169c0667a27823dc8059c88","study_id":"60edd13110225f80f9f3709b","session_id":"6196c1e8b14ba7e07c7505bc","condition":"contingent","relevant_dimensions":["pattern","legs"],"bee_group":{"antennae":"X","wings":"X","pattern":"S","legs":"M"},"bonus":1.6800000000000013},{"rt":1405.800000011921,"stimulus":"bees-with-color/bee-B2SF.svg","response":0,"trial_type":"image-button-response","trial_index":138,"time_elapsed":1023720,"internal_node_id":"0.0-6.0-0.2","subject_id":"6169c0667a27823dc8059c88","study_id":"60edd13110225f80f9f3709b","session_id":"6196c1e8b14ba7e07c7505bc","condition":"contingent","relevant_dimensions":["pattern","legs"],"bee_group":{"antennae":"X","wings":"X","pattern":"S","legs":"M"},"bonus":1.6800000000000013},{"rt":1309.3999999761581,"stimulus":"bees-with-color/bee-A2DM.svg","response":0,"trial_type":"image-button-response","trial_index":139,"time_elapsed":1025032,"internal_node_id":"0.0-6.0-0.3","subject_id":"6169c0667a27823dc8059c88","study_id":"60edd13110225f80f9f3709b","session_id":"6196c1e8b14ba7e07c7505bc","condition":"contingent","relevant_dimensions":["pattern","legs"],"bee_group":{"antennae":"X","wings":"X","pattern":"S","legs":"M"},"bonus":1.6800000000000013},{"rt":1949.3999999761581,"stimulus":"bees-with-color/bee-B1DF.svg","response":0,"trial_type":"image-button-response","trial_index":140,"time_elapsed":1026984,"internal_node_id":"0.0-6.0-0.4","subject_id":"6169c0667a27823dc8059c88","study_id":"60edd13110225f80f9f3709b","session_id":"6196c1e8b14ba7e07c7505bc","condition":"contingent","relevant_dimensions":["pattern","legs"],"bee_group":{"antennae":"X","wings":"X","pattern":"S","legs":"M"},"bonus":1.6800000000000013},{"rt":982.1000000238419,"stimulus":"bees-with-color/bee-A1SM.svg","response":1,"trial_type":"image-button-response","trial_index":141,"time_elapsed":1027968,"internal_node_id":"0.0-6.0-0.5","subject_id":"6169c0667a27823dc8059c88","study_id":"60edd13110225f80f9f3709b","session_id":"6196c1e8b14ba7e07c7505bc","condition":"contingent","relevant_dimensions":["pattern","legs"],"bee_group":{"antennae":"X","wings":"X","pattern":"S","legs":"M"},"bonus":1.6800000000000013},{"rt":1045.5,"stimulus":"bees-with-color/bee-B1DM.svg","response":0,"trial_type":"image-button-response","trial_index":142,"time_elapsed":1029016,"internal_node_id":"0.0-6.0-0.6","subject_id":"6169c0667a27823dc8059c88","study_id":"60edd13110225f80f9f3709b","session_id":"6196c1e8b14ba7e07c7505bc","condition":"contingent","relevant_dimensions":["pattern","legs"],"bee_group":{"antennae":"X","wings":"X","pattern":"S","legs":"M"},"bonus":1.6800000000000013},{"rt":1262.199999988079,"stimulus":"bees-with-color/bee-B1SM.svg","response":1,"trial_type":"image-button-response","trial_index":143,"time_elapsed":1030280,"internal_node_id":"0.0-6.0-0.7","subject_id":"6169c0667a27823dc8059c88","study_id":"60edd13110225f80f9f3709b","session_id":"6196c1e8b14ba7e07c7505bc","condition":"contingent","relevant_dimensions":["pattern","legs"],"bee_group":{"antennae":"X","wings":"X","pattern":"S","legs":"M"},"bonus":1.6800000000000013},{"rt":1053.300000011921,"stimulus":"bees-with-color/bee-A2DF.svg","response":0,"trial_type":"image-button-response","trial_index":144,"time_elapsed":1031336,"internal_node_id":"0.0-6.0-0.8","subject_id":"6169c0667a27823dc8059c88","study_id":"60edd13110225f80f9f3709b","session_id":"6196c1e8b14ba7e07c7505bc","condition":"contingent","relevant_dimensions":["pattern","legs"],"bee_group":{"antennae":"X","wings":"X","pattern":"S","legs":"M"},"bonus":1.6800000000000013},{"rt":934,"stimulus":"bees-with-color/bee-A1DF.svg","response":0,"trial_type":"image-button-response","trial_index":145,"time_elapsed":1032272,"internal_node_id":"0.0-6.0-0.9","subject_id":"6169c0667a27823dc8059c88","study_id":"60edd13110225f80f9f3709b","session_id":"6196c1e8b14ba7e07c7505bc","condition":"contingent","relevant_dimensions":["pattern","legs"],"bee_group":{"antennae":"X","wings":"X","pattern":"S","legs":"M"},"bonus":1.6800000000000013},{"rt":997.6000000238419,"stimulus":"bees-with-color/bee-A2SM.svg","response":1,"trial_type":"image-button-response","trial_index":146,"time_elapsed":1033271,"internal_node_id":"0.0-6.0-0.10","subject_id":"6169c0667a27823dc8059c88","study_id":"60edd13110225f80f9f3709b","session_id":"6196c1e8b14ba7e07c7505bc","condition":"contingent","relevant_dimensions":["pattern","legs"],"bee_group":{"antennae":"X","wings":"X","pattern":"S","legs":"M"},"bonus":1.6800000000000013},{"rt":2229.699999988079,"stimulus":"bees-with-color/bee-B1SF.svg","response":0,"trial_type":"image-button-response","trial_index":147,"time_elapsed":1035503,"internal_node_id":"0.0-6.0-0.11","subject_id":"6169c0667a27823dc8059c88","study_id":"60edd13110225f80f9f3709b","session_id":"6196c1e8b14ba7e07c7505bc","condition":"contingent","relevant_dimensions":["pattern","legs"],"bee_group":{"antennae":"X","wings":"X","pattern":"S","legs":"M"},"bonus":1.6800000000000013},{"rt":1230.199999988079,"stimulus":"bees-with-color/bee-A1DM.svg","response":0,"trial_type":"image-button-response","trial_index":148,"time_elapsed":1036735,"internal_node_id":"0.0-6.0-0.12","subject_id":"6169c0667a27823dc8059c88","study_id":"60edd13110225f80f9f3709b","session_id":"6196c1e8b14ba7e07c7505bc","condition":"contingent","relevant_dimensions":["pattern","legs"],"bee_group":{"antennae":"X","wings":"X","pattern":"S","legs":"M"},"bonus":1.6800000000000013},{"rt":686.3999999761581,"stimulus":"bees-with-color/bee-B2DF.svg","response":0,"trial_type":"image-button-response","trial_index":149,"time_elapsed":1037424,"internal_node_id":"0.0-6.0-0.13","subject_id":"6169c0667a27823dc8059c88","study_id":"60edd13110225f80f9f3709b","session_id":"6196c1e8b14ba7e07c7505bc","condition":"contingent","relevant_dimensions":["pattern","legs"],"bee_group":{"antennae":"X","wings":"X","pattern":"S","legs":"M"},"bonus":1.6800000000000013},{"rt":877.2000000476837,"stimulus":"bees-with-color/bee-B2SM.svg","response":1,"trial_type":"image-button-response","trial_index":150,"time_elapsed":1038303,"internal_node_id":"0.0-6.0-0.14","subject_id":"6169c0667a27823dc8059c88","study_id":"60edd13110225f80f9f3709b","session_id":"6196c1e8b14ba7e07c7505bc","condition":"contingent","relevant_dimensions":["pattern","legs"],"bee_group":{"antennae":"X","wings":"X","pattern":"S","legs":"M"},"bonus":1.6800000000000013},{"rt":974.1000000238419,"stimulus":"bees-with-color/bee-B2DM.svg","response":0,"trial_type":"image-button-response","trial_index":151,"time_elapsed":1039280,"internal_node_id":"0.0-6.0-0.15","subject_id":"6169c0667a27823dc8059c88","study_id":"60edd13110225f80f9f3709b","session_id":"6196c1e8b14ba7e07c7505bc","condition":"contingent","relevant_dimensions":["pattern","legs"],"bee_group":{"antennae":"X","wings":"X","pattern":"S","legs":"M"},"bonus":1.6800000000000013},{"rt":2078.300000011921,"stimulus":"bees-with-color/bee-A2SF.svg","response":0,"trial_type":"image-button-response","trial_index":152,"time_elapsed":1041360,"internal_node_id":"0.0-6.0-0.16","subject_id":"6169c0667a27823dc8059c88","study_id":"60edd13110225f80f9f3709b","session_id":"6196c1e8b14ba7e07c7505bc","condition":"contingent","relevant_dimensions":["pattern","legs"],"bee_group":{"antennae":"X","wings":"X","pattern":"S","legs":"M"},"bonus":1.6800000000000013},{"rt":692.5999999642372,"stimulus":"bees-with-color/bee-B1DF.svg","response":0,"trial_type":"image-button-response","trial_index":153,"time_elapsed":1042055,"internal_node_id":"0.0-6.0-0.17","subject_id":"6169c0667a27823dc8059c88","study_id":"60edd13110225f80f9f3709b","session_id":"6196c1e8b14ba7e07c7505bc","condition":"contingent","relevant_dimensions":["pattern","legs"],"bee_group":{"antennae":"X","wings":"X","pattern":"S","legs":"M"},"bonus":1.6800000000000013},{"rt":878.1999999880791,"stimulus":"bees-with-color/bee-B2SM.svg","response":1,"trial_type":"image-button-response","trial_index":154,"time_elapsed":1042935,"internal_node_id":"0.0-6.0-0.18","subject_id":"6169c0667a27823dc8059c88","study_id":"60edd13110225f80f9f3709b","session_id":"6196c1e8b14ba7e07c7505bc","condition":"contingent","relevant_dimensions":["pattern","legs"],"bee_group":{"antennae":"X","wings":"X","pattern":"S","legs":"M"},"bonus":1.6800000000000013},{"rt":1023,"stimulus":"bees-with-color/bee-A1DF.svg","response":0,"trial_type":"image-button-response","trial_index":155,"time_elapsed":1043960,"internal_node_id":"0.0-6.0-0.19","subject_id":"6169c0667a27823dc8059c88","study_id":"60edd13110225f80f9f3709b","session_id":"6196c1e8b14ba7e07c7505bc","condition":"contingent","relevant_dimensions":["pattern","legs"],"bee_group":{"antennae":"X","wings":"X","pattern":"S","legs":"M"},"bonus":1.6800000000000013},{"rt":1205.5,"stimulus":"bees-with-color/bee-B1SM.svg","response":1,"trial_type":"image-button-response","trial_index":156,"time_elapsed":1045168,"internal_node_id":"0.0-6.0-0.20","subject_id":"6169c0667a27823dc8059c88","study_id":"60edd13110225f80f9f3709b","session_id":"6196c1e8b14ba7e07c7505bc","condition":"contingent","relevant_dimensions":["pattern","legs"],"bee_group":{"antennae":"X","wings":"X","pattern":"S","legs":"M"},"bonus":1.6800000000000013},{"rt":749.8000000119209,"stimulus":"bees-with-color/bee-B1DM.svg","response":0,"trial_type":"image-button-response","trial_index":157,"time_elapsed":1045920,"internal_node_id":"0.0-6.0-0.21","subject_id":"6169c0667a27823dc8059c88","study_id":"60edd13110225f80f9f3709b","session_id":"6196c1e8b14ba7e07c7505bc","condition":"contingent","relevant_dimensions":["pattern","legs"],"bee_group":{"antennae":"X","wings":"X","pattern":"S","legs":"M"},"bonus":1.6800000000000013},{"rt":1316.9000000357628,"stimulus":"bees-with-color/bee-B2DF.svg","response":0,"trial_type":"image-button-response","trial_index":158,"time_elapsed":1047239,"internal_node_id":"0.0-6.0-0.22","subject_id":"6169c0667a27823dc8059c88","study_id":"60edd13110225f80f9f3709b","session_id":"6196c1e8b14ba7e07c7505bc","condition":"contingent","relevant_dimensions":["pattern","legs"],"bee_group":{"antennae":"X","wings":"X","pattern":"S","legs":"M"},"bonus":1.6800000000000013},{"rt":982.9000000357628,"stimulus":"bees-with-color/bee-A1DM.svg","response":0,"trial_type":"image-button-response","trial_index":159,"time_elapsed":1048223,"internal_node_id":"0.0-6.0-0.23","subject_id":"6169c0667a27823dc8059c88","study_id":"60edd13110225f80f9f3709b","session_id":"6196c1e8b14ba7e07c7505bc","condition":"contingent","relevant_dimensions":["pattern","legs"],"bee_group":{"antennae":"X","wings":"X","pattern":"S","legs":"M"},"bonus":1.6800000000000013},{"rt":790.0999999642372,"stimulus":"bees-with-color/bee-B2DM.svg","response":0,"trial_type":"image-button-response","trial_index":160,"time_elapsed":1049016,"internal_node_id":"0.0-6.0-0.24","subject_id":"6169c0667a27823dc8059c88","study_id":"60edd13110225f80f9f3709b","session_id":"6196c1e8b14ba7e07c7505bc","condition":"contingent","relevant_dimensions":["pattern","legs"],"bee_group":{"antennae":"X","wings":"X","pattern":"S","legs":"M"},"bonus":1.6800000000000013},{"rt":1181.6000000238419,"stimulus":"bees-with-color/bee-B2SF.svg","response":0,"trial_type":"image-button-response","trial_index":161,"time_elapsed":1050200,"internal_node_id":"0.0-6.0-0.25","subject_id":"6169c0667a27823dc8059c88","study_id":"60edd13110225f80f9f3709b","session_id":"6196c1e8b14ba7e07c7505bc","condition":"contingent","relevant_dimens