[{"success":true,"trial_type":"fullscreen","trial_index":0,"time_elapsed":5944,"internal_node_id":"0.0-0.0","subject_id":"613a99cc4a787a8d30ddd7e8","study_id":"60edd13110225f80f9f3709b","session_id":"6196ca372f4a8e76b44f8ae8","condition":"contingent","relevant_dimensions":["wings","pattern"],"bee_group":{"antennae":"X","wings":"2","pattern":"S","legs":"X"},"bonus":1.1600000000000008},{"success":true,"timeout":false,"failed_images":[],"failed_audio":[],"failed_video":[],"trial_type":"preload","trial_index":1,"time_elapsed":21633,"internal_node_id":"0.0-1.0","subject_id":"613a99cc4a787a8d30ddd7e8","study_id":"60edd13110225f80f9f3709b","session_id":"6196ca372f4a8e76b44f8ae8","condition":"contingent","relevant_dimensions":["wings","pattern"],"bee_group":{"antennae":"X","wings":"2","pattern":"S","legs":"X"},"bonus":1.1600000000000008},{"rt":2795.2999999970198,"stimulus":"Welcome! Press any key to begin.","response":" ","trial_type":"html-keyboard-response","trial_index":2,"time_elapsed":24430,"internal_node_id":"0.0-2.0","subject_id":"613a99cc4a787a8d30ddd7e8","study_id":"60edd13110225f80f9f3709b","session_id":"6196ca372f4a8e76b44f8ae8","condition":"contingent","relevant_dimensions":["wings","pattern"],"bee_group":{"antennae":"X","wings":"2","pattern":"S","legs":"X"},"bonus":1.1600000000000008},{"view_history":[{"page_index":0,"viewing_time":10698.09999999404},{"page_index":1,"viewing_time":27394.60000000894},{"page_index":2,"viewing_time":18504},{"page_index":3,"viewing_time":22751.69999998808},{"page_index":4,"viewing_time":9455.90000000596},{"page_index":5,"viewing_time":11576},{"page_index":6,"viewing_time":14911.70000000298},{"page_index":7,"viewing_time":7583.899999991059},{"page_index":8,"viewing_time":4744},{"page_index":9,"viewing_time":4944},{"page_index":10,"viewing_time":4520},{"page_index":11,"viewing_time":15255.60000000894},{"page_index":12,"viewing_time":15911.79999999702},{"page_index":13,"viewing_time":1112},{"page_index":14,"viewing_time":3488.0999999940395}],"rt":172852.29999999702,"trial_type":"instructions","trial_index":3,"time_elapsed":197283,"internal_node_id":"0.0-3.0-0.0","subject_id":"613a99cc4a787a8d30ddd7e8","study_id":"60edd13110225f80f9f3709b","session_id":"6196ca372f4a8e76b44f8ae8","condition":"contingent","relevant_dimensions":["wings","pattern"],"bee_group":{"antennae":"X","wings":"2","pattern":"S","legs":"X"},"bonus":1.1600000000000008},{"rt":14554.5,"response":{"Q0":["Two or six legs","Stripes or spots on body","Single or double wings","Antennae or no antennae"]},"question_order":[0],"trial_type":"survey-multi-select","trial_index":4,"time_elapsed":211843,"internal_node_id":"0.0-3.0-1.0","subject_id":"613a99cc4a787a8d30ddd7e8","study_id":"60edd13110225f80f9f3709b","session_id":"6196ca372f4a8e76b44f8ae8","condition":"contingent","relevant_dimensions":["wings","pattern"],"bee_group":{"antennae":"X","wings":"2","pattern":"S","legs":"X"},"correct":true,"bonus":1.1600000000000008},{"rt":28977.79999999702,"response":{"Q1":"No.","Q2":"Based on the four features of the bee.","Q3":"You do not learn if it was friendly or dangerous, and do not alter your bonus."},"question_order":[0,1,2],"trial_type":"survey-multi-choice","trial_index":5,"time_elapsed":240826,"internal_node_id":"0.0-3.0-2.0","subject_id":"613a99cc4a787a8d30ddd7e8","study_id":"60edd13110225f80f9f3709b","session_id":"6196ca372f4a8e76b44f8ae8","condition":"contingent","relevant_dimensions":["wings","pattern"],"bee_group":{"antennae":"X","wings":"2","pattern":"S","legs":"X"},"correct":true,"bonus":1.1600000000000008},{"rt":5138.70000000298,"stimulus":"<p>Congrats, you got everything right<br>When you're ready, click the button below to continue to the experiment.</p>","response":0,"trial_type":"html-button-response","trial_index":6,"time_elapsed":245971,"internal_node_id":"0.0-3.0-3.0","subject_id":"613a99cc4a787a8d30ddd7e8","study_id":"60edd13110225f80f9f3709b","session_id":"6196ca372f4a8e76b44f8ae8","condition":"contingent","relevant_dimensions":["wings","pattern"],"bee_group":{"antennae":"X","wings":"2","pattern":"S","legs":"X"},"bonus":1.1600000000000008},{"rt":11340.60000000894,"stimulus":"bees-with-color/bee-B1DF.svg","response":1,"trial_type":"image-button-response","trial_index":7,"time_elapsed":257314,"internal_node_id":"0.0-4.0-0.0","subject_id":"613a99cc4a787a8d30ddd7e8","study_id":"60edd13110225f80f9f3709b","session_id":"6196ca372f4a8e76b44f8ae8","condition":"contingent","relevant_dimensions":["wings","pattern"],"bee_group":{"antennae":"X","wings":"2","pattern":"S","legs":"X"},"action":"avoid","summary":"bad-avoid","bonus":1.1600000000000008},{"rt":9536.90000000596,"stimulus":"\n                    <p><b>Action: <em>avoid</em></b></p>\n                    <p>This is the bee that you just saw.</p>\n                    <img src=\"bees-with-color/bee-B1DF.svg\" width=\"200\">\n                    <p><br>Your bonus pay is unchanged, and remains at $0.54.</p>\n            ","response":0,"trial_type":"html-button-response","trial_index":8,"time_elapsed":266874,"internal_node_id":"0.0-4.0-1.0","subject_id":"613a99cc4a787a8d30ddd7e8","study_id":"60edd13110225f80f9f3709b","session_id":"6196ca372f4a8e76b44f8ae8","condition":"contingent","relevant_dimensions":["wings","pattern"],"bee_group":{"antennae":"X","wings":"2","pattern":"S","legs":"X"},"bonus":1.1600000000000008},{"rt":5093.0999999940395,"stimulus":"bees-with-color/bee-A2DM.svg","response":1,"trial_type":"image-button-response","trial_index":9,"time_elapsed":271969,"internal_node_id":"0.0-4.0-0.1","subject_id":"613a99cc4a787a8d30ddd7e8","study_id":"60edd13110225f80f9f3709b","session_id":"6196ca372f4a8e76b44f8ae8","condition":"contingent","relevant_dimensions":["wings","pattern"],"bee_group":{"antennae":"X","wings":"2","pattern":"S","legs":"X"},"action":"avoid","summary":"bad-avoid","bonus":1.1600000000000008},{"rt":1205.5,"stimulus":"\n                    <p><b>Action: <em>avoid</em></b></p>\n                    <p>This is the bee that you just saw.</p>\n                    <img src=\"bees-with-color/bee-A2DM.svg\" width=\"200\">\n                    <p><br>Your bonus pay is unchanged, and remains at $0.54.</p>\n            ","response":0,"trial_type":"html-button-response","trial_index":10,"time_elapsed":273177,"internal_node_id":"0.0-4.0-1.1","subject_id":"613a99cc4a787a8d30ddd7e8","study_id":"60edd13110225f80f9f3709b","session_id":"6196ca372f4a8e76b44f8ae8","condition":"contingent","relevant_dimensions":["wings","pattern"],"bee_group":{"antennae":"X","wings":"2","pattern":"S","legs":"X"},"bonus":1.1600000000000008},{"rt":1100.6000000089407,"stimulus":"bees-with-color/bee-B1SF.svg","response":0,"trial_type":"image-button-response","trial_index":11,"time_elapsed":274281,"internal_node_id":"0.0-4.0-0.2","subject_id":"613a99cc4a787a8d30ddd7e8","study_id":"60edd13110225f80f9f3709b","session_id":"6196ca372f4a8e76b44f8ae8","condition":"contingent","relevant_dimensions":["wings","pattern"],"bee_group":{"antennae":"X","wings":"2","pattern":"S","legs":"X"},"action":"harvest","summary":"good-harvest","bonus":1.1600000000000008},{"rt":2293.7999999970198,"stimulus":"\n                    <p><b>Action: <em>harvest</em></b></p>\n                    <p>This is the bee that you just saw.</p>\n                    <img src=\"bees-with-color/bee-B1SF.svg\" width=\"200\">\n                    <p><span class=\"greenText\"><b>Successful harvest!</b></span><br>Your pay has increased by $0.02. Your bonus pay is now $0.56.</p>\n            ","response":0,"trial_type":"html-button-response","trial_index":12,"time_elapsed":276578,"internal_node_id":"0.0-4.0-1.2","subject_id":"613a99cc4a787a8d30ddd7e8","study_id":"60edd13110225f80f9f3709b","session_id":"6196ca372f4a8e76b44f8ae8","condition":"contingent","relevant_dimensions":["wings","pattern"],"bee_group":{"antennae":"X","wings":"2","pattern":"S","legs":"X"},"bonus":1.1600000000000008},{"rt":1277.0999999940395,"stimulus":"bees-with-color/bee-A2SM.svg","response":0,"trial_type":"image-button-response","trial_index":13,"time_elapsed":277857,"internal_node_id":"0.0-4.0-0.3","subject_id":"613a99cc4a787a8d30ddd7e8","study_id":"60edd13110225f80f9f3709b","session_id":"6196ca372f4a8e76b44f8ae8","condition":"contingent","relevant_dimensions":["wings","pattern"],"bee_group":{"antennae":"X","wings":"2","pattern":"S","legs":"X"},"action":"harvest","summary":"bad-harvest","bonus":1.1600000000000008},{"rt":2885.9000000059605,"stimulus":"\n                    <p><b>Action: <em>harvest</em></b></p>\n                    <p>This is the bee that you just saw.</p>\n                    <img src=\"bees-with-color/bee-A2SM.svg\" width=\"200\">\n                    <p><span class=\"redText\">Bad choice, the bee was angry.</span><br><b>You have been stung!</b><br>Your pay has been decreased by $0.10. Your bonus pay is now $0.46.</p>\n            ","response":0,"trial_type":"html-button-response","trial_index":14,"time_elapsed":280746,"internal_node_id":"0.0-4.0-1.3","subject_id":"613a99cc4a787a8d30ddd7e8","study_id":"60edd13110225f80f9f3709b","session_id":"6196ca372f4a8e76b44f8ae8","condition":"contingent","relevant_dimensions":["wings","pattern"],"bee_group":{"antennae":"X","wings":"2","pattern":"S","legs":"X"},"bonus":1.1600000000000008},{"rt":3741.6000000089407,"stimulus":"bees-with-color/bee-A1SM.svg","response":0,"trial_type":"image-button-response","trial_index":15,"time_elapsed":284489,"internal_node_id":"0.0-4.0-0.4","subject_id":"613a99cc4a787a8d30ddd7e8","study_id":"60edd13110225f80f9f3709b","session_id":"6196ca372f4a8e76b44f8ae8","condition":"contingent","relevant_dimensions":["wings","pattern"],"bee_group":{"antennae":"X","wings":"2","pattern":"S","legs":"X"},"action":"harvest","summary":"good-harvest","bonus":1.1600000000000008},{"rt":1557.7000000029802,"stimulus":"\n                    <p><b>Action: <em>harvest</em></b></p>\n                    <p>This is the bee that you just saw.</p>\n                    <img src=\"bees-with-color/bee-A1SM.svg\" width=\"200\">\n                    <p><span class=\"greenText\"><b>Successful harvest!</b></span><br>Your pay has increased by $0.02. Your bonus pay is now $0.48.</p>\n            ","response":0,"trial_type":"html-button-response","trial_index":16,"time_elapsed":286050,"internal_node_id":"0.0-4.0-1.4","subject_id":"613a99cc4a787a8d30ddd7e8","study_id":"60edd13110225f80f9f3709b","session_id":"6196ca372f4a8e76b44f8ae8","condition":"contingent","relevant_dimensions":["wings","pattern"],"bee_group":{"antennae":"X","wings":"2","pattern":"S","legs":"X"},"bonus":1.1600000000000008},{"rt":4645.300000011921,"stimulus":"bees-with-color/bee-A1DM.svg","response":1,"trial_type":"image-button-response","trial_index":17,"time_elapsed":290698,"internal_node_id":"0.0-4.0-0.5","subject_id":"613a99cc4a787a8d30ddd7e8","study_id":"60edd13110225f80f9f3709b","session_id":"6196ca372f4a8e76b44f8ae8","condition":"contingent","relevant_dimensions":["wings","pattern"],"bee_group":{"antennae":"X","wings":"2","pattern":"S","legs":"X"},"action":"avoid","summary":"bad-avoid","bonus":1.1600000000000008},{"rt":1165.800000011921,"stimulus":"\n                    <p><b>Action: <em>avoid</em></b></p>\n                    <p>This is the bee that you just saw.</p>\n                    <img src=\"bees-with-color/bee-A1DM.svg\" width=\"200\">\n                    <p><br>Your bonus pay is unchanged, and remains at $0.48.</p>\n            ","response":0,"trial_type":"html-button-response","trial_index":18,"time_elapsed":291865,"internal_node_id":"0.0-4.0-1.5","subject_id":"613a99cc4a787a8d30ddd7e8","study_id":"60edd13110225f80f9f3709b","session_id":"6196ca372f4a8e76b44f8ae8","condition":"contingent","relevant_dimensions":["wings","pattern"],"bee_group":{"antennae":"X","wings":"2","pattern":"S","legs":"X"},"bonus":1.1600000000000008},{"rt":1901.4000000059605,"stimulus":"bees-with-color/bee-A2SF.svg","response":0,"trial_type":"image-button-response","trial_index":19,"time_elapsed":293770,"internal_node_id":"0.0-4.0-0.6","subject_id":"613a99cc4a787a8d30ddd7e8","study_id":"60edd13110225f80f9f3709b","session_id":"6196ca372f4a8e76b44f8ae8","condition":"contingent","relevant_dimensions":["wings","pattern"],"bee_group":{"antennae":"X","wings":"2","pattern":"S","legs":"X"},"action":"harvest","summary":"bad-harvest","bonus":1.1600000000000008},{"rt":965.9000000059605,"stimulus":"\n                    <p><b>Action: <em>harvest</em></b></p>\n                    <p>This is the bee that you just saw.</p>\n                    <img src=\"bees-with-color/bee-A2SF.svg\" width=\"200\">\n                    <p><span class=\"redText\">Bad choice, the bee was angry.</span><br><b>You have been stung!</b><br>Your pay has been decreased by $0.10. Your bonus pay is now $0.38.</p>\n            ","response":0,"trial_type":"html-button-response","trial_index":20,"time_elapsed":294737,"internal_node_id":"0.0-4.0-1.6","subject_id":"613a99cc4a787a8d30ddd7e8","study_id":"60edd13110225f80f9f3709b","session_id":"6196ca372f4a8e76b44f8ae8","condition":"contingent","relevant_dimensions":["wings","pattern"],"bee_group":{"antennae":"X","wings":"2","pattern":"S","legs":"X"},"bonus":1.1600000000000008},{"rt":1414.2000000029802,"stimulus":"bees-with-color/bee-A1SF.svg","response":1,"trial_type":"image-button-response","trial_index":21,"time_elapsed":296154,"internal_node_id":"0.0-4.0-0.7","subject_id":"613a99cc4a787a8d30ddd7e8","study_id":"60edd13110225f80f9f3709b","session_id":"6196ca372f4a8e76b44f8ae8","condition":"contingent","relevant_dimensions":["wings","pattern"],"bee_group":{"antennae":"X","wings":"2","pattern":"S","legs":"X"},"action":"avoid","summary":"bad-avoid","bonus":1.1600000000000008},{"rt":1205.9000000059605,"stimulus":"\n                    <p><b>Action: <em>avoid</em></b></p>\n                    <p>This is the bee that you just saw.</p>\n                    <img src=\"bees-with-color/bee-A1SF.svg\" width=\"200\">\n                    <p><br>Your bonus pay is unchanged, and remains at $0.38.</p>\n            ","response":0,"trial_type":"html-button-response","trial_index":22,"time_elapsed":297361,"internal_node_id":"0.0-4.0-1.7","subject_id":"613a99cc4a787a8d30ddd7e8","study_id":"60edd13110225f80f9f3709b","session_id":"6196ca372f4a8e76b44f8ae8","condition":"contingent","relevant_dimensions":["wings","pattern"],"bee_group":{"antennae":"X","wings":"2","pattern":"S","legs":"X"},"bonus":1.1600000000000008},{"rt":1173.7000000029802,"stimulus":"bees-with-color/bee-B2DM.svg","response":0,"trial_type":"image-button-response","trial_index":23,"time_elapsed":298537,"internal_node_id":"0.0-4.0-0.8","subject_id":"613a99cc4a787a8d30ddd7e8","study_id":"60edd13110225f80f9f3709b","session_id":"6196ca372f4a8e76b44f8ae8","condition":"contingent","relevant_dimensions":["wings","pattern"],"bee_group":{"antennae":"X","wings":"2","pattern":"S","legs":"X"},"action":"harvest","summary":"good-harvest","bonus":1.1600000000000008},{"rt":917.5999999940395,"stimulus":"\n                    <p><b>Action: <em>harvest</em></b></p>\n                    <p>This is the bee that you just saw.</p>\n                    <img src=\"bees-with-color/bee-B2DM.svg\" width=\"200\">\n                    <p><span class=\"greenText\"><b>Successful harvest!</b></span><br>Your pay has increased by $0.02. Your bonus pay is now $0.40.</p>\n            ","response":0,"trial_type":"html-button-response","trial_index":24,"time_elapsed":299457,"internal_node_id":"0.0-4.0-1.8","subject_id":"613a99cc4a787a8d30ddd7e8","study_id":"60edd13110225f80f9f3709b","session_id":"6196ca372f4a8e76b44f8ae8","condition":"contingent","relevant_dimensions":["wings","pattern"],"bee_group":{"antennae":"X","wings":"2","pattern":"S","legs":"X"},"bonus":1.1600000000000008},{"rt":1685.7000000029802,"stimulus":"bees-with-color/bee-A2DF.svg","response":1,"trial_type":"image-button-response","trial_index":25,"time_elapsed":301146,"internal_node_id":"0.0-4.0-0.9","subject_id":"613a99cc4a787a8d30ddd7e8","study_id":"60edd13110225f80f9f3709b","session_id":"6196ca372f4a8e76b44f8ae8","condition":"contingent","relevant_dimensions":["wings","pattern"],"bee_group":{"antennae":"X","wings":"2","pattern":"S","legs":"X"},"action":"avoid","summary":"bad-avoid","bonus":1.1600000000000008},{"rt":853.7999999970198,"stimulus":"\n                    <p><b>Action: <em>avoid</em></b></p>\n                    <p>This is the bee that you just saw.</p>\n                    <img src=\"bees-with-color/bee-A2DF.svg\" width=\"200\">\n                    <p><br>Your bonus pay is unchanged, and remains at $0.40.</p>\n            ","response":0,"trial_type":"html-button-response","trial_index":26,"time_elapsed":302001,"internal_node_id":"0.0-4.0-1.9","subject_id":"613a99cc4a787a8d30ddd7e8","study_id":"60edd13110225f80f9f3709b","session_id":"6196ca372f4a8e76b44f8ae8","condition":"contingent","relevant_dimensions":["wings","pattern"],"bee_group":{"antennae":"X","wings":"2","pattern":"S","legs":"X"},"bonus":1.1600000000000008},{"rt":1158.2000000029802,"stimulus":"bees-with-color/bee-B2SM.svg","response":0,"trial_type":"image-button-response","trial_index":27,"time_elapsed":303161,"internal_node_id":"0.0-4.0-0.10","subject_id":"613a99cc4a787a8d30ddd7e8","study_id":"60edd13110225f80f9f3709b","session_id":"6196ca372f4a8e76b44f8ae8","condition":"contingent","relevant_dimensions":["wings","pattern"],"bee_group":{"antennae":"X","wings":"2","pattern":"S","legs":"X"},"action":"harvest","summary":"bad-harvest","bonus":1.1600000000000008},{"rt":1021.7999999970198,"stimulus":"\n                    <p><b>Action: <em>harvest</em></b></p>\n                    <p>This is the bee that you just saw.</p>\n                    <img src=\"bees-with-color/bee-B2SM.svg\" width=\"200\">\n                    <p><span class=\"redText\">Bad choice, the bee was angry.</span><br><b>You have been stung!</b><br>Your pay has been decreased by $0.10. Your bonus pay is now $0.30.</p>\n            ","response":0,"trial_type":"html-button-response","trial_index":28,"time_elapsed":304185,"internal_node_id":"0.0-4.0-1.10","subject_id":"613a99cc4a787a8d30ddd7e8","study_id":"60edd13110225f80f9f3709b","session_id":"6196ca372f4a8e76b44f8ae8","condition":"contingent","relevant_dimensions":["wings","pattern"],"bee_group":{"antennae":"X","wings":"2","pattern":"S","legs":"X"},"bonus":1.1600000000000008},{"rt":1942.5999999940395,"stimulus":"bees-with-color/bee-B2SF.svg","response":1,"trial_type":"image-button-response","trial_index":29,"time_elapsed":306129,"internal_node_id":"0.0-4.0-0.11","subject_id":"613a99cc4a787a8d30ddd7e8","study_id":"60edd13110225f80f9f3709b","session_id":"6196ca372f4a8e76b44f8ae8","condition":"contingent","relevant_dimensions":["wings","pattern"],"bee_group":{"antennae":"X","wings":"2","pattern":"S","legs":"X"},"action":"avoid","summary":"good-avoid","bonus":1.1600000000000008},{"rt":1126.3999999910593,"stimulus":"\n                    <p><b>Action: <em>avoid</em></b></p>\n                    <p>This is the bee that you just saw.</p>\n                    <img src=\"bees-with-color/bee-B2SF.svg\" width=\"200\">\n                    <p><br>Your bonus pay is unchanged, and remains at $0.30.</p>\n            ","response":0,"trial_type":"html-button-response","trial_index":30,"time_elapsed":307257,"internal_node_id":"0.0-4.0-1.11","subject_id":"613a99cc4a787a8d30ddd7e8","study_id":"60edd13110225f80f9f3709b","session_id":"6196ca372f4a8e76b44f8ae8","condition":"contingent","relevant_dimensions":["wings","pattern"],"bee_group":{"antennae":"X","wings":"2","pattern":"S","legs":"X"},"bonus":1.1600000000000008},{"rt":2302.6000000089407,"stimulus":"bees-with-color/bee-B1SM.svg","response":0,"trial_type":"image-button-response","trial_index":31,"time_elapsed":309561,"internal_node_id":"0.0-4.0-0.12","subject_id":"613a99cc4a787a8d30ddd7e8","study_id":"60edd13110225f80f9f3709b","session_id":"6196ca372f4a8e76b44f8ae8","condition":"contingent","relevant_dimensions":["wings","pattern"],"bee_group":{"antennae":"X","wings":"2","pattern":"S","legs":"X"},"action":"harvest","summary":"good-harvest","bonus":1.1600000000000008},{"rt":1270.4000000059605,"stimulus":"\n                    <p><b>Action: <em>harvest</em></b></p>\n                    <p>This is the bee that you just saw.</p>\n                    <img src=\"bees-with-color/bee-B1SM.svg\" width=\"200\">\n                    <p><span class=\"greenText\"><b>Successful harvest!</b></span><br>Your pay has increased by $0.02. Your bonus pay is now $0.32.</p>\n            ","response":0,"trial_type":"html-button-response","trial_index":32,"time_elapsed":310833,"internal_node_id":"0.0-4.0-1.12","subject_id":"613a99cc4a787a8d30ddd7e8","study_id":"60edd13110225f80f9f3709b","session_id":"6196ca372f4a8e76b44f8ae8","condition":"contingent","relevant_dimensions":["wings","pattern"],"bee_group":{"antennae":"X","wings":"2","pattern":"S","legs":"X"},"bonus":1.1600000000000008},{"rt":1822.2000000029802,"stimulus":"bees-with-color/bee-B1DM.svg","response":0,"trial_type":"image-button-response","trial_index":33,"time_elapsed":312657,"internal_node_id":"0.0-4.0-0.13","subject_id":"613a99cc4a787a8d30ddd7e8","study_id":"60edd13110225f80f9f3709b","session_id":"6196ca372f4a8e76b44f8ae8","condition":"contingent","relevant_dimensions":["wings","pattern"],"bee_group":{"antennae":"X","wings":"2","pattern":"S","legs":"X"},"action":"harvest","summary":"good-harvest","bonus":1.1600000000000008},{"rt":2030.5,"stimulus":"\n                    <p><b>Action: <em>harvest</em></b></p>\n                    <p>This is the bee that you just saw.</p>\n                    <img src=\"bees-with-color/bee-B1DM.svg\" width=\"200\">\n                    <p><span class=\"greenText\"><b>Successful harvest!</b></span><br>Your pay has increased by $0.02. Your bonus pay is now $0.34.</p>\n            ","response":0,"trial_type":"html-button-response","trial_index":34,"time_elapsed":314689,"internal_node_id":"0.0-4.0-1.13","subject_id":"613a99cc4a787a8d30ddd7e8","study_id":"60edd13110225f80f9f3709b","session_id":"6196ca372f4a8e76b44f8ae8","condition":"contingent","relevant_dimensions":["wings","pattern"],"bee_group":{"antennae":"X","wings":"2","pattern":"S","legs":"X"},"bonus":1.1600000000000008},{"rt":2462,"stimulus":"bees-with-color/bee-A1DF.svg","response":0,"trial_type":"image-button-response","trial_index":35,"time_elapsed":317153,"internal_node_id":"0.0-4.0-0.14","subject_id":"613a99cc4a787a8d30ddd7e8","study_id":"60edd13110225f80f9f3709b","session_id":"6196ca372f4a8e76b44f8ae8","condition":"contingent","relevant_dimensions":["wings","pattern"],"bee_group":{"antennae":"X","wings":"2","pattern":"S","legs":"X"},"action":"harvest","summary":"good-harvest","bonus":1.1600000000000008},{"rt":998.2999999970198,"stimulus":"\n                    <p><b>Action: <em>harvest</em></b></p>\n                    <p>This is the bee that you just saw.</p>\n                    <img src=\"bees-with-color/bee-A1DF.svg\" width=\"200\">\n                    <p><span class=\"greenText\"><b>Successful harvest!</b></span><br>Your pay has increased by $0.02. Your bonus pay is now $0.36.</p>\n            ","response":0,"trial_type":"html-button-response","trial_index":36,"time_elapsed":318153,"internal_node_id":"0.0-4.0-1.14","subject_id":"613a99cc4a787a8d30ddd7e8","study_id":"60edd13110225f80f9f3709b","session_id":"6196ca372f4a8e76b44f8ae8","condition":"contingent","relevant_dimensions":["wings","pattern"],"bee_group":{"antennae":"X","wings":"2","pattern":"S","legs":"X"},"bonus":1.1600000000000008},{"rt":1358.0999999940395,"stimulus":"bees-with-color/bee-B2DF.svg","response":0,"trial_type":"image-button-response","trial_index":37,"time_elapsed":319513,"internal_node_id":"0.0-4.0-0.15","subject_id":"613a99cc4a787a8d30ddd7e8","study_id":"60edd13110225f80f9f3709b","session_id":"6196ca372f4a8e76b44f8ae8","condition":"contingent","relevant_dimensions":["wings","pattern"],"bee_group":{"antennae":"X","wings":"2","pattern":"S","legs":"X"},"action":"harvest","summary":"good-harvest","bonus":1.1600000000000008},{"rt":1054.5,"stimulus":"\n                    <p><b>Action: <em>harvest</em></b></p>\n                    <p>This is the bee that you just saw.</p>\n                    <img src=\"bees-with-color/bee-B2DF.svg\" width=\"200\">\n                    <p><span class=\"greenText\"><b>Successful harvest!</b></span><br>Your pay has increased by $0.02. Your bonus pay is now $0.38.</p>\n            ","response":0,"trial_type":"html-button-response","trial_index":38,"time_elapsed":320569,"internal_node_id":"0.0-4.0-1.15","subject_id":"613a99cc4a787a8d30ddd7e8","study_id":"60edd13110225f80f9f3709b","session_id":"6196ca372f4a8e76b44f8ae8","condition":"contingent","relevant_dimensions":["wings","pattern"],"bee_group":{"antennae":"X","wings":"2","pattern":"S","legs":"X"},"bonus":1.1600000000000008},{"rt":1014.3999999910593,"stimulus":"bees-with-color/bee-B1DF.svg","response":0,"trial_type":"image-button-response","trial_index":39,"time_elapsed":321585,"internal_node_id":"0.0-4.0-0.16","subject_id":"613a99cc4a787a8d30ddd7e8","study_id":"60edd13110225f80f9f3709b","session_id":"6196ca372f4a8e76b44f8ae8","condition":"contingent","relevant_dimensions":["wings","pattern"],"bee_group":{"antennae":"X","wings":"2","pattern":"S","legs":"X"},"action":"harvest","summary":"good-harvest","bonus":1.1600000000000008},{"rt":1038.3999999910593,"stimulus":"\n                    <p><b>Action: <em>harvest</em></b></p>\n                    <p>This is the bee that you just saw.</p>\n                    <img src=\"bees-with-color/bee-B1DF.svg\" width=\"200\">\n                    <p><span class=\"greenText\"><b>Successful harvest!</b></span><br>Your pay has increased by $0.02. Your bonus pay is now $0.40.</p>\n            ","response":0,"trial_type":"html-button-response","trial_index":40,"time_elapsed":322625,"internal_node_id":"0.0-4.0-1.16","subject_id":"613a99cc4a787a8d30ddd7e8","study_id":"60edd13110225f80f9f3709b","session_id":"6196ca372f4a8e76b44f8ae8","condition":"contingent","relevant_dimensions":["wings","pattern"],"bee_group":{"antennae":"X","wings":"2","pattern":"S","legs":"X"},"bonus":1.1600000000000008},{"rt":1102.7000000029802,"stimulus":"bees-with-color/bee-B1SF.svg","response":1,"trial_type":"image-button-response","trial_index":41,"time_elapsed":323729,"internal_node_id":"0.0-4.0-0.17","subject_id":"613a99cc4a787a8d30ddd7e8","study_id":"60edd13110225f80f9f3709b","session_id":"6196ca372f4a8e76b44f8ae8","condition":"contingent","relevant_dimensions":["wings","pattern"],"bee_group":{"antennae":"X","wings":"2","pattern":"S","legs":"X"},"action":"avoid","summary":"bad-avoid","bonus":1.1600000000000008},{"rt":1086.1000000089407,"stimulus":"\n                    <p><b>Action: <em>avoid</em></b></p>\n                    <p>This is the bee that you just saw.</p>\n                    <img src=\"bees-with-color/bee-B1SF.svg\" width=\"200\">\n                    <p><br>Your bonus pay is unchanged, and remains at $0.40.</p>\n            ","response":0,"trial_type":"html-button-response","trial_index":42,"time_elapsed":324817,"internal_node_id":"0.0-4.0-1.17","subject_id":"613a99cc4a787a8d30ddd7e8","study_id":"60edd13110225f80f9f3709b","session_id":"6196ca372f4a8e76b44f8ae8","condition":"contingent","relevant_dimensions":["wings","pattern"],"bee_group":{"antennae":"X","wings":"2","pattern":"S","legs":"X"},"bonus":1.1600000000000008},{"rt":1094.5999999940395,"stimulus":"bees-with-color/bee-B2SM.svg","response":1,"trial_type":"image-button-response","trial_index":43,"time_elapsed":325913,"internal_node_id":"0.0-4.0-0.18","subject_id":"613a99cc4a787a8d30ddd7e8","study_id":"60edd13110225f80f9f3709b","session_id":"6196ca372f4a8e76b44f8ae8","condition":"contingent","relevant_dimensions":["wings","pattern"],"bee_group":{"antennae":"X","wings":"2","pattern":"S","legs":"X"},"action":"avoid","summary":"good-avoid","bonus":1.1600000000000008},{"rt":774.2999999970198,"stimulus":"\n                    <p><b>Action: <em>avoid</em></b></p>\n                    <p>This is the bee that you just saw.</p>\n                    <img src=\"bees-with-color/bee-B2SM.svg\" width=\"200\">\n                    <p><br>Your bonus pay is unchanged, and remains at $0.40.</p>\n            ","response":0,"trial_type":"html-button-response","trial_index":44,"time_elapsed":326689,"internal_node_id":"0.0-4.0-1.18","subject_id":"613a99cc4a787a8d30ddd7e8","study_id":"60edd13110225f80f9f3709b","session_id":"6196ca372f4a8e76b44f8ae8","condition":"contingent","relevant_dimensions":["wings","pattern"],"bee_group":{"antennae":"X","wings":"2","pattern":"S","legs":"X"},"bonus":1.1600000000000008},{"rt":822.4000000059605,"stimulus":"bees-with-color/bee-B2DM.svg","response":0,"trial_type":"image-button-response","trial_index":45,"time_elapsed":327513,"internal_node_id":"0.0-4.0-0.19","subject_id":"613a99cc4a787a8d30ddd7e8","study_id":"60edd13110225f80f9f3709b","session_id":"6196ca372f4a8e76b44f8ae8","condition":"contingent","relevant_dimensions":["wings","pattern"],"bee_group":{"antennae":"X","wings":"2","pattern":"S","legs":"X"},"action":"harvest","summary":"good-harvest","bonus":1.1600000000000008},{"rt":1086,"stimulus":"\n                    <p><b>Action: <em>harvest</em></b></p>\n                    <p>This is the bee that you just saw.</p>\n                    <img src=\"bees-with-color/bee-B2DM.svg\" width=\"200\">\n                    <p><span class=\"greenText\"><b>Successful harvest!</b></span><br>Your pay has increased by $0.02. Your bonus pay is now $0.42.</p>\n            ","response":0,"trial_type":"html-button-response","trial_index":46,"time_elapsed":328601,"internal_node_id":"0.0-4.0-1.19","subject_id":"613a99cc4a787a8d30ddd7e8","study_id":"60edd13110225f80f9f3709b","session_id":"6196ca372f4a8e76b44f8ae8","condition":"contingent","relevant_dimensions":["wings","pattern"],"bee_group":{"antennae":"X","wings":"2","pattern":"S","legs":"X"},"bonus":1.1600000000000008},{"rt":1214.300000011921,"stimulus":"bees-with-color/bee-A1SM.svg","response":1,"trial_type":"image-button-response","trial_index":47,"time_elapsed":329817,"internal_node_id":"0.0-4.0-0.20","subject_id":"613a99cc4a787a8d30ddd7e8","study_id":"60edd13110225f80f9f3709b","session_id":"6196ca372f4a8e76b44f8ae8","condition":"contingent","relevant_dimensions":["wings","pattern"],"bee_group":{"antennae":"X","wings":"2","pattern":"S","legs":"X"},"action":"avoid","summary":"bad-avoid","bonus":1.1600000000000008},{"rt":958.2999999970198,"stimulus":"\n                    <p><b>Action: <em>avoid</em></b></p>\n                    <p>This is the bee that you just saw.</p>\n                    <img src=\"bees-with-color/bee-A1SM.svg\" width=\"200\">\n                    <p><br>Your bonus pay is unchanged, and remains at $0.42.</p>\n            ","response":0,"trial_type":"html-button-response","trial_index":48,"time_elapsed":330777,"internal_node_id":"0.0-4.0-1.20","subject_id":"613a99cc4a787a8d30ddd7e8","study_id":"60edd13110225f80f9f3709b","session_id":"6196ca372f4a8e76b44f8ae8","condition":"contingent","relevant_dimensions":["wings","pattern"],"bee_group":{"antennae":"X","wings":"2","pattern":"S","legs":"X"},"bonus":1.1600000000000008},{"rt":806.5999999940395,"stimulus":"bees-with-color/bee-B2DF.svg","response":0,"trial_type":"image-button-response","trial_index":49,"time_elapsed":331585,"internal_node_id":"0.0-4.0-0.21","subject_id":"613a99cc4a787a8d30ddd7e8","study_id":"60edd13110225f80f9f3709b","session_id":"6196ca372f4a8e76b44f8ae8","condition":"contingent","relevant_dimensions":["wings","pattern"],"bee_group":{"antennae":"X","wings":"2","pattern":"S","legs":"X"},"action":"harvest","summary":"good-harvest","bonus":1.1600000000000008},{"rt":1022.2000000029802,"stimulus":"\n                    <p><b>Action: <em>harvest</em></b></p>\n                    <p>This is the bee that you just saw.</p>\n                    <img src=\"bees-with-color/bee-B2DF.svg\" width=\"200\">\n                    <p><span class=\"greenText\"><b>Successful harvest!</b></span><br>Your pay has increased by $0.02. Your bonus pay is now $0.44.</p>\n            ","response":0,"trial_type":"html-button-response","trial_index":50,"time_elapsed":332609,"internal_node_id":"0.0-4.0-1.21","subject_id":"613a99cc4a787a8d30ddd7e8","study_id":"60edd13110225f80f9f3709b","session_id":"6196ca372f4a8e76b44f8ae8","condition":"contingent","relevant_dimensions":["wings","pattern"],"bee_group":{"antennae":"X","wings":"2","pattern":"S","legs":"X"},"bonus":1.1600000000000008},{"rt":2342.4000000059605,"stimulus":"bees-with-color/bee-A2DM.svg","response":0,"trial_type":"image-button-response","trial_index":51,"time_elapsed":334953,"internal_node_id":"0.0-4.0-0.22","subject_id":"613a99cc4a787a8d30ddd7e8","study_id":"60edd13110225f80f9f3709b","session_id":"6196ca372f4a8e76b44f8ae8","condition":"contingent","relevant_dimensions":["wings","pattern"],"bee_group":{"antennae":"X","wings":"2","pattern":"S","legs":"X"},"action":"harvest","summary":"good-harvest","bonus":1.1600000000000008},{"rt":726.2000000029802,"stimulus":"\n                    <p><b>Action: <em>harvest</em></b></p>\n                    <p>This is the bee that you just saw.</p>\n                    <img src=\"bees-with-color/bee-A2DM.svg\" width=\"200\">\n                    <p><span class=\"greenText\"><b>Successful harvest!</b></span><br>Your pay has increased by $0.02. Your bonus pay is now $0.46.</p>\n            ","response":0,"trial_type":"html-button-response","trial_index":52,"time_elapsed":335681,"internal_node_id":"0.0-4.0-1.22","subject_id":"613a99cc4a787a8d30ddd7e8","study_id":"60edd13110225f80f9f3709b","session_id":"6196ca372f4a8e76b44f8ae8","condition":"contingent","relevant_dimensions":["wings","pattern"],"bee_group":{"antennae":"X","wings":"2","pattern":"S","legs":"X"},"bonus":1.1600000000000008},{"rt":1070,"stimulus":"bees-with-color/bee-A2SF.svg","response":1,"trial_type":"image-button-response","trial_index":53,"time_elapsed":336753,"internal_node_id":"0.0-4.0-0.23","subject_id":"613a99cc4a787a8d30ddd7e8","study_id":"60edd13110225f80f9f3709b","session_id":"6196ca372f4a8e76b44f8ae8","condition":"contingent","relevant_dimensions":["wings","pattern"],"bee_group":{"antennae":"X","wings":"2","pattern":"S","legs":"X"},"action":"avoid","summary":"good-avoid","bonus":1.1600000000000008},{"rt":790.0999999940395,"stimulus":"\n                    <p><b>Action: <em>avoid</em></b></p>\n                    <p>This is the bee that you just saw.</p>\n                    <img src=\"bees-with-color/bee-A2SF.svg\" width=\"200\">\n                    <p><br>Your bonus pay is unchanged, and remains at $0.46.</p>\n            ","response":0,"trial_type":"html-button-response","trial_index":54,"time_elapsed":337545,"internal_node_id":"0.0-4.0-1.23","subject_id":"613a99cc4a787a8d30ddd7e8","study_id":"60edd13110225f80f9f3709b","session_id":"6196ca372f4a8e76b44f8ae8","condition":"contingent","relevant_dimensions":["wings","pattern"],"bee_group":{"antennae":"X","wings":"2","pattern":"S","legs":"X"},"bonus":1.1600000000000008},{"rt":1350.4000000059605,"stimulus":"bees-with-color/bee-A2SM.svg","response":1,"trial_type":"image-button-response","trial_index":55,"time_elapsed":338897,"internal_node_id":"0.0-4.0-0.24","subject_id":"613a99cc4a787a8d30ddd7e8","study_id":"60edd13110225f80f9f3709b","session_id":"6196ca372f4a8e76b44f8ae8","condition":"contingent","relevant_dimensions":["wings","pattern"],"bee_group":{"antennae":"X","wings":"2","pattern":"S","legs":"X"},"action":"avoid","summary":"good-avoid","bonus":1.1600000000000008},{"rt":822.1000000089407,"stimulus":"\n                    <p><b>Action: <em>avoid</em></b></p>\n                    <p>This is the bee that you just saw.</p>\n                    <img src=\"bees-with-color/bee-A2SM.svg\" width=\"200\">\n                    <p><br>Your bonus pay is unchanged, and remains at $0.46.</p>\n            ","response":0,"trial_type":"html-button-response","trial_index":56,"time_elapsed":339721,"internal_node_id":"0.0-4.0-1.24","subject_id":"613a99cc4a787a8d30ddd7e8","study_id":"60edd13110225f80f9f3709b","session_id":"6196ca372f4a8e76b44f8ae8","condition":"contingent","relevant_dimensions":["wings","pattern"],"bee_group":{"antennae":"X","wings":"2","pattern":"S","legs":"X"},"bonus":1.1600000000000008},{"rt":806.2999999970198,"stimulus":"bees-with-color/bee-A1DF.svg","response":0,"trial_type":"image-button-response","trial_index":57,"time_elapsed":340529,"internal_node_id":"0.0-4.0-0.25","subject_id":"613a99cc4a787a8d30ddd7e8","study_id":"60edd13110225f80f9f3709b","session_id":"6196ca372f4a8e76b44f8ae8","condition":"contingent","relevant_dimensions":["wings","pattern"],"bee_group":{"antennae":"X","wings":"2","pattern":"S","legs":"X"},"action":"harvest","summary":"good-harvest","bonus":1.1600000000000008},{"rt":934.0999999940395,"stimulus":"\n                    <p><b>Action: <em>harvest</em></b></p>\n                    <p>This is the bee that you just saw.</p>\n                    <img src=\"bees-with-color/bee-A1DF.svg\" width=\"200\">\n                    <p><span class=\"greenText\"><b>Successful harvest!</b></span><br>Your pay has increased by $0.02. Your bonus pay is now $0.48.</p>\n            ","response":0,"trial_type":"html-button-response","trial_index":58,"time_elapsed":341464,"internal_node_id":"0.0-4.0-1.25","subject_id":"613a99cc4a787a8d30ddd7e8","study_id":"60edd13110225f80f9f3709b","session_id":"6196ca372f4a8e76b44f8ae8","condition":"contingent","relevant_dimensions":["wings","pattern"],"bee_group":{"antennae":"X","wings":"2","pattern":"S","legs":"X"},"bonus":1.1600000000000008},{"rt":1262.3999999910593,"stimulus":"bees-with-color/bee-B2SF.svg","response":1,"trial_type":"image-button-response","trial_index":59,"time_elapsed":342728,"internal_node_id":"0.0-4.0-0.26","subject_id":"613a99cc4a787a8d30ddd7e8","study_id":"60edd13110225f80f9f3709b","session_id":"6196ca372f4a8e76b44f8ae8","condition":"contingent","relevant_dimensions":["wings","pattern"],"bee_group":{"antennae":"X","wings":"2","pattern":"S","legs":"X"},"action":"avoid","summary":"good-avoid","bonus":1.1600000000000008},{"rt":1270.2000000029802,"stimulus":"\n                    <p><b>Action: <em>avoid</em></b></p>\n                    <p>This is the bee that you just saw.</p>\n                    <img src=\"bees-with-color/bee-B2SF.svg\" width=\"200\">\n                    <p><br>Your bonus pay is unchanged, and remains at $0.48.</p>\n            ","response":0,"trial_type":"html-button-response","trial_index":60,"time_elapsed":344001,"internal_node_id":"0.0-4.0-1.26","subject_id":"613a99cc4a787a8d30ddd7e8","study_id":"60edd13110225f80f9f3709b","session_id":"6196ca372f4a8e76b44f8ae8","condition":"contingent","relevant_dimensions":["wings","pattern"],"bee_group":{"antennae":"X","wings":"2","pattern":"S","legs":"X"},"bonus":1.1600000000000008},{"rt":4045.9000000059605,"stimulus":"bees-with-color/bee-B1SM.svg","response":1,"trial_type":"image-button-response","trial_index":61,"time_elapsed":348048,"internal_node_id":"0.0-4.0-0.27","subject_id":"613a99cc4a787a8d30ddd7e8","study_id":"60edd13110225f80f9f3709b","session_id":"6196ca372f4a8e76b44f8ae8","condition":"contingent","relevant_dimensions":["wings","pattern"],"bee_group":{"antennae":"X","wings":"2","pattern":"S","legs":"X"},"action":"avoid","summary":"bad-avoid","bonus":1.1600000000000008},{"rt":862,"stimulus":"\n                    <p><b>Action: <em>avoid</em></b></p>\n                    <p>This is the bee that you just saw.</p>\n                    <img src=\"bees-with-color/bee-B1SM.svg\" width=\"200\">\n                    <p><br>Your bonus pay is unchanged, and remains at $0.48.</p>\n            ","response":0,"trial_type":"html-button-response","trial_index":62,"time_elapsed":348912,"internal_node_id":"0.0-4.0-1.27","subject_id":"613a99cc4a787a8d30ddd7e8","study_id":"60edd13110225f80f9f3709b","session_id":"6196ca372f4a8e76b44f8ae8","condition":"contingent","relevant_dimensions":["wings","pattern"],"bee_group":{"antennae":"X","wings":"2","pattern":"S","legs":"X"},"bonus":1.1600000000000008},{"rt":909.7000000029802,"stimulus":"bees-with-color/bee-A2DF.svg","response":0,"trial_type":"image-button-response","trial_index":63,"time_elapsed":349824,"internal_node_id":"0.0-4.0-0.28","subject_id":"613a99cc4a787a8d30ddd7e8","study_id":"60edd13110225f80f9f3709b","session_id":"6196ca372f4a8e76b44f8ae8","condition":"contingent","relevant_dimensions":["wings","pattern"],"bee_group":{"antennae":"X","wings":"2","pattern":"S","legs":"X"},"action":"harvest","summary":"good-harvest","bonus":1.1600000000000008},{"rt":958.0999999940395,"stimulus":"\n                    <p><b>Action: <em>harvest</em></b></p>\n                    <p>This is the bee that you just saw.</p>\n                    <img src=\"bees-with-color/bee-A2DF.svg\" width=\"200\">\n                    <p><span class=\"greenText\"><b>Successful harvest!</b></span><br>Your pay has increased by $0.02. Your bonus pay is now $0.50.</p>\n            ","response":0,"trial_type":"html-button-response","trial_index":64,"time_elapsed":350784,"internal_node_id":"0.0-4.0-1.28","subject_id":"613a99cc4a787a8d30ddd7e8","study_id":"60edd13110225f80f9f3709b","session_id":"6196ca372f4a8e76b44f8ae8","condition":"contingent","relevant_dimensions":["wings","pattern"],"bee_group":{"antennae":"X","wings":"2","pattern":"S","legs":"X"},"bonus":1.1600000000000008},{"rt":1213.7000000029802,"stimulus":"bees-with-color/bee-A1SF.svg","response":1,"trial_type":"image-button-response","trial_index":65,"time_elapsed":352000,"internal_node_id":"0.0-4.0-0.29","subject_id":"613a99cc4a787a8d30ddd7e8","study_id":"60edd13110225f80f9f3709b","session_id":"6196ca372f4a8e76b44f8ae8","condition":"contingent","relevant_dimensions":["wings","pattern"],"bee_group":{"antennae":"X","wings":"2","pattern":"S","legs":"X"},"action":"avoid","summary":"bad-avoid","bonus":1.1600000000000008},{"rt":838,"stimulus":"\n                    <p><b>Action: <em>avoid</em></b></p>\n                    <p>This is the bee that you just saw.</p>\n                    <img src=\"bees-with-color/bee-A1SF.svg\" width=\"200\">\n                    <p><br>Your bonus pay is unchanged, and remains at $0.50.</p>\n            ","response":0,"trial_type":"html-button-response","trial_index":66,"time_elapsed":352840,"internal_node_id":"0.0-4.0-1.29","subject_id":"613a99cc4a787a8d30ddd7e8","study_id":"60edd13110225f80f9f3709b","session_id":"6196ca372f4a8e76b44f8ae8","condition":"contingent","relevant_dimensions":["wings","pattern"],"bee_group":{"antennae":"X","wings":"2","pattern":"S","legs":"X"},"bonus":1.1600000000000008},{"rt":718.2999999970198,"stimulus":"bees-with-color/bee-A1DM.svg","response":0,"trial_type":"image-button-response","trial_index":67,"time_elapsed":353560,"internal_node_id":"0.0-4.0-0.30","subject_id":"613a99cc4a787a8d30ddd7e8","study_id":"60edd13110225f80f9f3709b","session_id":"6196ca372f4a8e76b44f8ae8","condition":"contingent","relevant_dimensions":["wings","pattern"],"bee_group":{"antennae":"X","wings":"2","pattern":"S","legs":"X"},"action":"harvest","summary":"good-harvest","bonus":1.1600000000000008},{"rt":821.9000000059605,"stimulus":"\n                    <p><b>Action: <em>harvest</em></b></p>\n                    <p>This is the bee that you just saw.</p>\n                    <img src=\"bees-with-color/bee-A1DM.svg\" width=\"200\">\n                    <p><span class=\"greenText\"><b>Successful harvest!</b></span><br>Your pay has increased by $0.02. Your bonus pay is now $0.52.</p>\n            ","response":0,"trial_type":"html-button-response","trial_index":68,"time_elapsed":354384,"internal_node_id":"0.0-4.0-1.30","subject_id":"613a99cc4a787a8d30ddd7e8","study_id":"60edd13110225f80f9f3709b","session_id":"6196ca372f4a8e76b44f8ae8","condition":"contingent","relevant_dimensions":["wings","pattern"],"bee_group":{"antennae":"X","wings":"2","pattern":"S","legs":"X"},"bonus":1.1600000000000008},{"rt":1854.2000000029802,"stimulus":"bees-with-color/bee-B1DM.svg","response":0,"trial_type":"image-button-response","trial_index":69,"time_elapsed":356240,"internal_node_id":"0.0-4.0-0.31","subject_id":"613a99cc4a787a8d30ddd7e8","study_id":"60edd13110225f80f9f3709b","session_id":"6196ca372f4a8e76b44f8ae8","condition":"contingent","relevant_dimensions":["wings","pattern"],"bee_group":{"antennae":"X","wings":"2","pattern":"S","legs":"X"},"action":"harvest","summary":"good-harvest","bonus":1.1600000000000008},{"rt":790.3000000119209,"stimulus":"\n                    <p><b>Action: <em>harvest</em></b></p>\n                    <p>This is the bee that you just saw.</p>\n                    <img src=\"bees-with-color/bee-B1DM.svg\" width=\"200\">\n                    <p><span class=\"greenText\"><b>Successful harvest!</b></span><br>Your pay has increased by $0.02. Your bonus pay is now $0.54.</p>\n            ","response":0,"trial_type":"html-button-response","trial_index":70,"time_elapsed":357032,"internal_node_id":"0.0-4.0-1.31","subject_id":"613a99cc4a787a8d30ddd7e8","study_id":"60edd13110225f80f9f3709b","session_id":"6196ca372f4a8e76b44f8ae8","condition":"contingent","relevant_dimensions":["wings","pattern"],"bee_group":{"antennae":"X","wings":"2","pattern":"S","legs":"X"},"bonus":1.1600000000000008},{"rt":1494.5,"stimulus":"bees-with-color/bee-B1SM.svg","response":1,"trial_type":"image-button-response","trial_index":71,"time_elapsed":358528,"internal_node_id":"0.0-4.0-0.32","subject_id":"613a99cc4a787a8d30ddd7e8","study_id":"60edd13110225f80f9f3709b","session_id":"6196ca372f4a8e76b44f8ae8","condition":"contingent","relevant_dimensions":["wings","pattern"],"bee_group":{"antennae":"X","wings":"2","pattern":"S","legs":"X"},"action":"avoid","summary":"bad-avoid","bonus":1.1600000000000008},{"rt":1022.5,"stimulus":"\n                    <p><b>Action: <em>avoid</em></b></p>\n                    <p>This is the bee that you just saw.</p>\n                    <img src=\"bees-with-color/bee-B1SM.svg\" width=\"200\">\n                    <p><br>Your bonus pay is unchanged, and remains at $0.54.</p>\n            ","response":0,"trial_type":"html-button-response","trial_index":72,"time_elapsed":359552,"internal_node_id":"0.0-4.0-1.32","subject_id":"613a99cc4a787a8d30ddd7e8","study_id":"60edd13110225f80f9f3709b","session_id":"6196ca372f4a8e76b44f8ae8","condition":"contingent","relevant_dimensions":["wings","pattern"],"bee_group":{"antennae":"X","wings":"2","pattern":"S","legs":"X"},"bonus":1.1600000000000008},{"rt":926,"stimulus":"bees-with-color/bee-B1SF.svg","response":1,"trial_type":"image-button-response","trial_index":73,"time_elapsed":360480,"internal_node_id":"0.0-4.0-0.33","subject_id":"613a99cc4a787a8d30ddd7e8","study_id":"60edd13110225f80f9f3709b","session_id":"6196ca372f4a8e76b44f8ae8","condition":"contingent","relevant_dimensions":["wings","pattern"],"bee_group":{"antennae":"X","wings":"2","pattern":"S","legs":"X"},"action":"avoid","summary":"bad-avoid","bonus":1.1600000000000008},{"rt":806.5,"stimulus":"\n                    <p><b>Action: <em>avoid</em></b></p>\n                    <p>This is the bee that you just saw.</p>\n                    <img src=\"bees-with-color/bee-B1SF.svg\" width=\"200\">\n                    <p><br>Your bonus pay is unchanged, and remains at $0.54.</p>\n            ","response":0,"trial_type":"html-button-response","trial_index":74,"time_elapsed":361288,"internal_node_id":"0.0-4.0-1.33","subject_id":"613a99cc4a787a8d30ddd7e8","study_id":"60edd13110225f80f9f3709b","session_id":"6196ca372f4a8e76b44f8ae8","condition":"contingent","relevant_dimensions":["wings","pattern"],"bee_group":{"antennae":"X","wings":"2","pattern":"S","legs":"X"},"bonus":1.1600000000000008},{"rt":766.7999999970198,"stimulus":"bees-with-color/bee-B2DF.svg","response":0,"trial_type":"image-button-response","trial_index":75,"time_elapsed":362056,"internal_node_id":"0.0-4.0-0.34","subject_id":"613a99cc4a787a8d30ddd7e8","study_id":"60edd13110225f80f9f3709b","session_id":"6196ca372f4a8e76b44f8ae8","condition":"contingent","relevant_dimensions":["wings","pattern"],"bee_group":{"antennae":"X","wings":"2","pattern":"S","legs":"X"},"action":"harvest","summary":"good-harvest","bonus":1.1600000000000008},{"rt":1022.3999999910593,"stimulus":"\n                    <p><b>Action: <em>harvest</em></b></p>\n                    <p>This is the bee that you just saw.</p>\n                    <img src=\"bees-with-color/bee-B2DF.svg\" width=\"200\">\n                    <p><span class=\"greenText\"><b>Successful harvest!</b></span><br>Your pay has increased by $0.02. Your bonus pay is now $0.56.</p>\n            ","response":0,"trial_type":"html-button-response","trial_index":76,"time_elapsed":363080,"internal_node_id":"0.0-4.0-1.34","subject_id":"613a99cc4a787a8d30ddd7e8","study_id":"60edd13110225f80f9f3709b","session_id":"6196ca372f4a8e76b44f8ae8","condition":"contingent","relevant_dimensions":["wings","pattern"],"bee_group":{"antennae":"X","wings":"2","pattern":"S","legs":"X"},"bonus":1.1600000000000008},{"rt":1094.5,"stimulus":"bees-with-color/bee-A1SM.svg","response":1,"trial_type":"image-button-response","trial_index":77,"time_elapsed":364176,"internal_node_id":"0.0-4.0-0.35","subject_id":"613a99cc4a787a8d30ddd7e8","study_id":"60edd13110225f80f9f3709b","session_id":"6196ca372f4a8e76b44f8ae8","condition":"contingent","relevant_dimensions":["wings","pattern"],"bee_group":{"antennae":"X","wings":"2","pattern":"S","legs":"X"},"action":"avoid","summary":"bad-avoid","bonus":1.1600000000000008},{"rt":726.4000000059605,"stimulus":"\n                    <p><b>Action: <em>avoid</em></b></p>\n                    <p>This is the bee that you just saw.</p>\n                    <img src=\"bees-with-color/bee-A1SM.svg\" width=\"200\">\n                    <p><br>Your bonus pay is unchanged, and remains at $0.56.</p>\n            ","response":0,"trial_type":"html-button-response","trial_index":78,"time_elapsed":364904,"internal_node_id":"0.0-4.0-1.35","subject_id":"613a99cc4a787a8d30ddd7e8","study_id":"60edd13110225f80f9f3709b","session_id":"6196ca372f4a8e76b44f8ae8","condition":"contingent","relevant_dimensions":["wings","pattern"],"bee_group":{"antennae":"X","wings":"2","pattern":"S","legs":"X"},"bonus":1.1600000000000008},{"rt":1078.5999999940395,"stimulus":"bees-with-color/bee-A2SF.svg","response":1,"trial_type":"image-button-response","trial_index":79,"time_elapsed":365984,"internal_node_id":"0.0-4.0-0.36","subject_id":"613a99cc4a787a8d30ddd7e8","study_id":"60edd13110225f80f9f3709b","session_id":"6196ca372f4a8e76b44f8ae8","condition":"contingent","relevant_dimensions":["wings","pattern"],"bee_group":{"antennae":"X","wings":"2","pattern":"S","legs":"X"},"action":"avoid","summary":"good-avoid","bonus":1.1600000000000008},{"rt":758.2999999970198,"stimulus":"\n                    <p><b>Action: <em>avoid</em></b></p>\n                    <p>This is the bee that you just saw.</p>\n                    <img src=\"bees-with-color/bee-A2SF.svg\" width=\"200\">\n                    <p><br>Your bonus pay is unchanged, and remains at $0.56.</p>\n            ","response":0,"trial_type":"html-button-response","trial_index":80,"time_elapsed":366744,"internal_node_id":"0.0-4.0-1.36","subject_id":"613a99cc4a787a8d30ddd7e8","study_id":"60edd13110225f80f9f3709b","session_id":"6196ca372f4a8e76b44f8ae8","condition":"contingent","relevant_dimensions":["wings","pattern"],"bee_group":{"antennae":"X","wings":"2","pattern":"S","legs":"X"},"bonus":1.1600000000000008},{"rt":822.5,"stimulus":"bees-with-color/bee-B2SF.svg","response":1,"trial_type":"image-button-response","trial_index":81,"time_elapsed":367568,"internal_node_id":"0.0-4.0-0.37","subject_id":"613a99cc4a787a8d30ddd7e8","study_id":"60edd13110225f80f9f3709b","session_id":"6196ca372f4a8e76b44f8ae8","condition":"contingent","relevant_dimensions":["wings","pattern"],"bee_group":{"antennae":"X","wings":"2","pattern":"S","legs":"X"},"action":"avoid","summary":"good-avoid","bonus":1.1600000000000008},{"rt":1070.4000000059605,"stimulus":"\n                    <p><b>Action: <em>avoid</em></b></p>\n                    <p>This is the bee that you just saw.</p>\n                    <img src=\"bees-with-color/bee-B2SF.svg\" width=\"200\">\n                    <p><br>Your bonus pay is unchanged, and remains at $0.56.</p>\n            ","response":0,"trial_type":"html-button-response","trial_index":82,"time_elapsed":368640,"internal_node_id":"0.0-4.0-1.37","subject_id":"613a99cc4a787a8d30ddd7e8","study_id":"60edd13110225f80f9f3709b","session_id":"6196ca372f4a8e76b44f8ae8","condition":"contingent","relevant_dimensions":["wings","pattern"],"bee_group":{"antennae":"X","wings":"2","pattern":"S","legs":"X"},"bonus":1.1600000000000008},{"rt":822.5,"stimulus":"bees-with-color/bee-A1DM.svg","response":0,"trial_type":"image-button-response","trial_index":83,"time_elapsed":369464,"internal_node_id":"0.0-4.0-0.38","subject_id":"613a99cc4a787a8d30ddd7e8","study_id":"60edd13110225f80f9f3709b","session_id":"6196ca372f4a8e76b44f8ae8","condition":"contingent","relevant_dimensions":["wings","pattern"],"bee_group":{"antennae":"X","wings":"2","pattern":"S","legs":"X"},"action":"harvest","summary":"good-harvest","bonus":1.1600000000000008},{"rt":702.4000000059605,"stimulus":"\n                    <p><b>Action: <em>harvest</em></b></p>\n                    <p>This is the bee that you just saw.</p>\n                    <img src=\"bees-with-color/bee-A1DM.svg\" width=\"200\">\n                    <p><span class=\"greenText\"><b>Successful harvest!</b></span><br>Your pay has increased by $0.02. Your bonus pay is now $0.58.</p>\n            ","response":0,"trial_type":"html-button-response","trial_index":84,"time_elapsed":370168,"internal_node_id":"0.0-4.0-1.38","subject_id":"613a99cc4a787a8d30ddd7e8","study_id":"60edd13110225f80f9f3709b","session_id":"6196ca372f4a8e76b44f8ae8","condition":"contingent","relevant_dimensions":["wings","pattern"],"bee_group":{"antennae":"X","wings":"2","pattern":"S","legs":"X"},"bonus":1.1600000000000008},{"rt":710.5,"stimulus":"bees-with-color/bee-A2DM.svg","response":1,"trial_type":"image-button-response","trial_index":85,"time_elapsed":370880,"internal_node_id":"0.0-4.0-0.39","subject_id":"613a99cc4a787a8d30ddd7e8","study_id":"60edd13110225f80f9f3709b","session_id":"6196ca372f4a8e76b44f8ae8","condition":"contingent","relevant_dimensions":["wings","pattern"],"bee_group":{"antennae":"X","wings":"2","pattern":"S","legs":"X"},"action":"avoid","summary":"bad-avoid","bonus":1.1600000000000008},{"rt":1262.300000011921,"stimulus":"\n                    <p><b>Action: <em>avoid</em></b></p>\n                    <p>This is the bee that you just saw.</p>\n                    <img src=\"bees-with-color/bee-A2DM.svg\" width=\"200\">\n                    <p><br>Your bonus pay is unchanged, and remains at $0.58.</p>\n            ","response":0,"trial_type":"html-button-response","trial_index":86,"time_elapsed":372144,"internal_node_id":"0.0-4.0-1.39","subject_id":"613a99cc4a787a8d30ddd7e8","study_id":"60edd13110225f80f9f3709b","session_id":"6196ca372f4a8e76b44f8ae8","condition":"contingent","relevant_dimensions":["wings","pattern"],"bee_group":{"antennae":"X","wings":"2","pattern":"S","legs":"X"},"bonus":1.1600000000000008},{"rt":726.5999999940395,"stimulus":"bees-with-color/bee-A1DF.svg","response":0,"trial_type":"image-button-response","trial_index":87,"time_elapsed":372872,"internal_node_id":"0.0-4.0-0.40","subject_id":"613a99cc4a787a8d30ddd7e8","study_id":"60edd13110225f80f9f3709b","session_id":"6196ca372f4a8e76b44f8ae8","condition":"contingent","relevant_dimensions":["wings","pattern"],"bee_group":{"antennae":"X","wings":"2","pattern":"S","legs":"X"},"action":"harvest","summary":"good-harvest","bonus":1.1600000000000008},{"rt":646.2000000029802,"stimulus":"\n                    <p><b>Action: <em>harvest</em></b></p>\n                    <p>This is the bee that you just saw.</p>\n                    <img src=\"bees-with-color/bee-A1DF.svg\" width=\"200\">\n                    <p><span class=\"greenText\"><b>Successful harvest!</b></span><br>Your pay has increased by $0.02. Your bonus pay is now $0.60.</p>\n            ","response":0,"trial_type":"html-button-response","trial_index":88,"time_elapsed":373520,"internal_node_id":"0.0-4.0-1.40","subject_id":"613a99cc4a787a8d30ddd7e8","study_id":"60edd13110225f80f9f3709b","session_id":"6196ca372f4a8e76b44f8ae8","condition":"contingent","relevant_dimensions":["wings","pattern"],"bee_group":{"antennae":"X","wings":"2","pattern":"S","legs":"X"},"bonus":1.1600000000000008},{"rt":774.2000000029802,"stimulus":"bees-with-color/bee-A2DF.svg","response":0,"trial_type":"image-button-response","trial_index":89,"time_elapsed":374296,"internal_node_id":"0.0-4.0-0.41","subject_id":"613a99cc4a787a8d30ddd7e8","study_id":"60edd13110225f80f9f3709b","session_id":"6196ca372f4a8e76b44f8ae8","condition":"contingent","relevant_dimensions":["wings","pattern"],"bee_group":{"antennae":"X","wings":"2","pattern":"S","legs":"X"},"action":"harvest","summary":"good-harvest","bonus":1.1600000000000008},{"rt":566.0999999940395,"stimulus":"\n                    <p><b>Action: <em>harvest</em></b></p>\n                    <p>This is the bee that you just saw.</p>\n                    <img src=\"bees-with-color/bee-A2DF.svg\" width=\"200\">\n                    <p><span class=\"greenText\"><b>Successful harvest!</b></span><br>Your pay has increased by $0.02. Your bonus pay is now $0.62.</p>\n            ","response":0,"trial_type":"html-button-response","trial_index":90,"time_elapsed":374864,"internal_node_id":"0.0-4.0-1.41","subject_id":"613a99cc4a787a8d30ddd7e8","study_id":"60edd13110225f80f9f3709b","session_id":"6196ca372f4a8e76b44f8ae8","condition":"contingent","relevant_dimensions":["wings","pattern"],"bee_group":{"antennae":"X","wings":"2","pattern":"S","legs":"X"},"bonus":1.1600000000000008},{"rt":734.6000000089407,"stimulus":"bees-with-color/bee-B2DM.svg","response":0,"trial_type":"image-button-response","trial_index":91,"time_elapsed":375600,"internal_node_id":"0.0-4.0-0.42","subject_id":"613a99cc4a787a8d30ddd7e8","study_id":"60edd13110225f80f9f3709b","session_id":"6196ca372f4a8e76b44f8ae8","condition":"contingent","relevant_dimensions":["wings","pattern"],"bee_group":{"antennae":"X","wings":"2","pattern":"S","legs":"X"},"action":"harvest","summary":"good-harvest","bonus":1.1600000000000008},{"rt":614.3000000119209,"stimulus":"\n                    <p><b>Action: <em>harvest</em></b></p>\n                    <p>This is the bee that you just saw.</p>\n                    <img src=\"bees-with-color/bee-B2DM.svg\" width=\"200\">\n                    <p><span class=\"greenText\"><b>Successful harvest!</b></span><br>Your pay has increased by $0.02. Your bonus pay is now $0.64.</p>\n            ","response":0,"trial_type":"html-button-response","trial_index":92,"time_elapsed":376216,"internal_node_id":"0.0-4.0-1.42","subject_id":"613a99cc4a787a8d30ddd7e8","study_id":"60edd13110225f80f9f3709b","session_id":"6196ca372f4a8e76b44f8ae8","condition":"contingent","relevant_dimensions":["wings","pattern"],"bee_group":{"antennae":"X","wings":"2","pattern":"S","legs":"X"},"bonus":1.1600000000000008},{"rt":1478.2999999970198,"stimulus":"bees-with-color/bee-A2SM.svg","response":1,"trial_type":"image-button-response","trial_index":93,"time_elapsed":377696,"internal_node_id":"0.0-4.0-0.43","subject_id":"613a99cc4a787a8d30ddd7e8","study_id":"60edd13110225f80f9f3709b","session_id":"6196ca372f4a8e76b44f8ae8","condition":"contingent","relevant_dimensions":["wings","pattern"],"bee_group":{"antennae":"X","wings":"2","pattern":"S","legs":"X"},"action":"avoid","summary":"good-avoid","bonus":1.1600000000000008},{"rt":622.3000000119209,"stimulus":"\n                    <p><b>Action: <em>avoid</em></b></p>\n                    <p>This is the bee that you just saw.</p>\n                    <img src=\"bees-with-color/bee-A2SM.svg\" width=\"200\">\n                    <p><br>Your bonus pay is unchanged, and remains at $0.64.</p>\n            ","response":0,"trial_type":"html-button-response","trial_index":94,"time_elapsed":378320,"internal_node_id":"0.0-4.0-1.43","subject_id":"613a99cc4a787a8d30ddd7e8","study_id":"60edd13110225f80f9f3709b","session_id":"6196ca372f4a8e76b44f8ae8","condition":"contingent","relevant_dimensions":["wings","pattern"],"bee_group":{"antennae":"X","wings":"2","pattern":"S","legs":"X"},"bonus":1.1600000000000008},{"rt":950.5999999940395,"stimulus":"bees-with-color/bee-A1SF.svg","response":1,"trial_type":"image-button-response","trial_index":95,"time_elapsed":379272,"internal_node_id":"0.0-4.0-0.44","subject_id":"613a99cc4a787a8d30ddd7e8","study_id":"60edd13110225f80f9f3709b","session_id":"6196ca372f4a8e76b44f8ae8","condition":"contingent","relevant_dimensions":["wings","pattern"],"bee_group":{"antennae":"X","wings":"2","pattern":"S","legs":"X"},"action":"avoid","summary":"bad-avoid","bonus":1.1600000000000008},{"rt":662.2000000029802,"stimulus":"\n                    <p><b>Action: <em>avoid</em></b></p>\n                    <p>This is the bee that you just saw.</p>\n                    <img src=\"bees-with-color/bee-A1SF.svg\" width=\"200\">\n                    <p><br>Your bonus pay is unchanged, and remains at $0.64.</p>\n            ","response":0,"trial_type":"html-button-response","trial_index":96,"time_elapsed":379936,"internal_node_id":"0.0-4.0-1.44","subject_id":"613a99cc4a787a8d30ddd7e8","study_id":"60edd13110225f80f9f3709b","session_id":"6196ca372f4a8e76b44f8ae8","condition":"contingent","relevant_dimensions":["wings","pattern"],"bee_group":{"antennae":"X","wings":"2","pattern":"S","legs":"X"},"bonus":1.1600000000000008},{"rt":814.2999999970198,"stimulus":"bees-with-color/bee-B2SM.svg","response":1,"trial_type":"image-button-response","trial_index":97,"time_elapsed":380752,"internal_node_id":"0.0-4.0-0.45","subject_id":"613a99cc4a787a8d30ddd7e8","study_id":"60edd13110225f80f9f3709b","session_id":"6196ca372f4a8e76b44f8ae8","condition":"contingent","relevant_dimensions":["wings","pattern"],"bee_group":{"antennae":"X","wings":"2","pattern":"S","legs":"X"},"action":"avoid","summary":"good-avoid","bonus":1.1600000000000008},{"rt":678.0999999940395,"stimulus":"\n                    <p><b>Action: <em>avoid</em></b></p>\n                    <p>This is the bee that you just saw.</p>\n                    <img src=\"bees-with-color/bee-B2SM.svg\" width=\"200\">\n                    <p><br>Your bonus pay is unchanged, and remains at $0.64.</p>\n            ","response":0,"trial_type":"html-button-response","trial_index":98,"time_elapsed":381432,"internal_node_id":"0.0-4.0-1.45","subject_id":"613a99cc4a787a8d30ddd7e8","study_id":"60edd13110225f80f9f3709b","session_id":"6196ca372f4a8e76b44f8ae8","condition":"contingent","relevant_dimensions":["wings","pattern"],"bee_group":{"antennae":"X","wings":"2","pattern":"S","legs":"X"},"bonus":1.1600000000000008},{"rt":910.5,"stimulus":"bees-with-color/bee-B1DF.svg","response":0,"trial_type":"image-button-response","trial_index":99,"time_elapsed":382344,"internal_node_id":"0.0-4.0-0.46","subject_id":"613a99cc4a787a8d30ddd7e8","study_id":"60edd13110225f80f9f3709b","session_id":"6196ca372f4a8e76b44f8ae8","condition":"contingent","relevant_dimensions":["wings","pattern"],"bee_group":{"antennae":"X","wings":"2","pattern":"S","legs":"X"},"action":"harvest","summary":"good-harvest","bonus":1.1600000000000008},{"rt":638.2000000029802,"stimulus":"\n                    <p><b>Action: <em>harvest</em></b></p>\n                    <p>This is the bee that you just saw.</p>\n                    <img src=\"bees-with-color/bee-B1DF.svg\" width=\"200\">\n                    <p><span class=\"greenText\"><b>Successful harvest!</b></span><br>Your pay has increased by $0.02. Your bonus pay is now $0.66.</p>\n            ","response":0,"trial_type":"html-button-response","trial_index":100,"time_elapsed":382984,"internal_node_id":"0.0-4.0-1.46","subject_id":"613a99cc4a787a8d30ddd7e8","study_id":"60edd13110225f80f9f3709b","session_id":"6196ca372f4a8e76b44f8ae8","condition":"contingent","relevant_dimensions":["wings","pattern"],"bee_group":{"antennae":"X","wings":"2","pattern":"S","legs":"X"},"bonus":1.1600000000000008},{"rt":734.4000000059605,"stimulus":"bees-with-color/bee-B1DM.svg","response":0,"trial_type":"image-button-response","trial_index":101,"time_elapsed":383720,"internal_node_id":"0.0-4.0-0.47","subject_id":"613a99cc4a787a8d30ddd7e8","study_id":"60edd13110225f80f9f3709b","session_id":"6196ca372f4a8e76b44f8ae8","condition":"contingent","relevant_dimensions":["wings","pattern"],"bee_group":{"antennae":"X","wings":"2","pattern":"S","legs":"X"},"action":"harvest","summary":"good-harvest","bonus":1.1600000000000008},{"rt":606.0999999940395,"stimulus":"\n                    <p><b>Action: <em>harvest</em></b></p>\n                    <p>This is the bee that you just saw.</p>\n                    <img src=\"bees-with-color/bee-B1DM.svg\" width=\"200\">\n                    <p><span class=\"greenText\"><b>Successful harvest!</b></span><br>Your pay has increased by $0.02. Your bonus pay is now $0.68.</p>\n            ","response":0,"trial_type":"html-button-response","trial_index":102,"time_elapsed":384328,"internal_node_id":"0.0-4.0-1.47","subject_id":"613a99cc4a787a8d30ddd7e8","study_id":"60edd13110225f80f9f3709b","session_id":"6196ca372f4a8e76b44f8ae8","condition":"contingent","relevant_dimensions":["wings","pattern"],"bee_group":{"antennae":"X","wings":"2","pattern":"S","legs":"X"},"bonus":1.1600000000000008},{"rt":710,"stimulus":"bees-with-color/bee-A1DM.svg","response":0,"trial_type":"image-button-response","trial_index":103,"time_elapsed":385040,"internal_node_id":"0.0-4.0-0.48","subject_id":"613a99cc4a787a8d30ddd7e8","study_id":"60edd13110225f80f9f3709b","session_id":"6196ca372f4a8e76b44f8ae8","condition":"contingent","relevant_dimensions":["wings","pattern"],"bee_group":{"antennae":"X","wings":"2","pattern":"S","legs":"X"},"action":"harvest","summary":"good-harvest","bonus":1.1600000000000008},{"rt":894.2000000029802,"stimulus":"\n                    <p><b>Action: <em>harvest</em></b></p>\n                    <p>This is the bee that you just saw.</p>\n                    <img src=\"bees-with-color/bee-A1DM.svg\" width=\"200\">\n                    <p><span class=\"greenText\"><b>Successful harvest!</b></span><br>Your pay has increased by $0.02. Your bonus pay is now $0.70.</p>\n            ","response":0,"trial_type":"html-button-response","trial_index":104,"time_elapsed":385936,"internal_node_id":"0.0-4.0-1.48","subject_id":"613a99cc4a787a8d30ddd7e8","study_id":"60edd13110225f80f9f3709b","session_id":"6196ca372f4a8e76b44f8ae8","condition":"contingent","relevant_dimensions":["wings","pattern"],"bee_group":{"antennae":"X","wings":"2","pattern":"S","legs":"X"},"bonus":1.1600000000000008},{"rt":1310.3999999910593,"stimulus":"bees-with-color/bee-B1SF.svg","response":1,"trial_type":"image-button-response","trial_index":105,"time_elapsed":387248,"internal_node_id":"0.0-4.0-0.49","subject_id":"613a99cc4a787a8d30ddd7e8","study_id":"60edd13110225f80f9f3709b","session_id":"6196ca372f4a8e76b44f8ae8","condition":"contingent","relevant_dimensions":["wings","pattern"],"bee_group":{"antennae":"X","wings":"2","pattern":"S","legs":"X"},"action":"avoid","summary":"bad-avoid","bonus":1.1600000000000008},{"rt":1134.4000000059605,"stimulus":"\n                    <p><b>Action: <em>avoid</em></b></p>\n                    <p>This is the bee that you just saw.</p>\n                    <img src=\"bees-with-color/bee-B1SF.svg\" width=\"200\">\n                    <p><br>Your bonus pay is unchanged, and remains at $0.70.</p>\n            ","response":0,"trial_type":"html-button-response","trial_index":106,"time_elapsed":388384,"internal_node_id":"0.0-4.0-1.49","subject_id":"613a99cc4a787a8d30ddd7e8","study_id":"60edd13110225f80f9f3709b","session_id":"6196ca372f4a8e76b44f8ae8","condition":"contingent","relevant_dimensions":["wings","pattern"],"bee_group":{"antennae":"X","wings":"2","pattern":"S","legs":"X"},"bonus":1.1600000000000008},{"rt":1046,"stimulus":"bees-with-color/bee-B1SM.svg","response":1,"trial_type":"image-button-response","trial_index":107,"time_elapsed":389432,"internal_node_id":"0.0-4.0-0.50","subject_id":"613a99cc4a787a8d30ddd7e8","study_id":"60edd13110225f80f9f3709b","session_id":"6196ca372f4a8e76b44f8ae8","condition":"contingent","relevant_dimensions":["wings","pattern"],"bee_group":{"antennae":"X","wings":"2","pattern":"S","legs":"X"},"action":"avoid","summary":"bad-avoid","bonus":1.1600000000000008},{"rt":566.0999999940395,"stimulus":"\n                    <p><b>Action: <em>avoid</em></b></p>\n                    <p>This is the bee that you just saw.</p>\n                    <img src=\"bees-with-color/bee-B1SM.svg\" width=\"200\">\n                    <p><br>Your bonus pay is unchanged, and remains at $0.70.</p>\n            ","response":0,"trial_type":"html-button-response","trial_index":108,"time_elapsed":390000,"internal_node_id":"0.0-4.0-1.50","subject_id":"613a99cc4a787a8d30ddd7e8","study_id":"60edd13110225f80f9f3709b","session_id":"6196ca372f4a8e76b44f8ae8","condition":"contingent","relevant_dimensions":["wings","pattern"],"bee_group":{"antennae":"X","wings":"2","pattern":"S","legs":"X"},"bonus":1.1600000000000008},{"rt":774.3999999910593,"stimulus":"bees-with-color/bee-A2SM.svg","response":1,"trial_type":"image-button-response","trial_index":109,"time_elapsed":390776,"internal_node_id":"0.0-4.0-0.51","subject_id":"613a99cc4a787a8d30ddd7e8","study_id":"60edd13110225f80f9f3709b","session_id":"6196ca372f4a8e76b44f8ae8","condition":"contingent","relevant_dimensions":["wings","pattern"],"bee_group":{"antennae":"X","wings":"2","pattern":"S","legs":"X"},"action":"avoid","summary":"good-avoid","bonus":1.1600000000000008},{"rt":621.8999999910593,"stimulus":"\n                    <p><b>Action: <em>avoid</em></b></p>\n                    <p>This is the bee that you just saw.</p>\n                    <img src=\"bees-with-color/bee-A2SM.svg\" width=\"200\">\n                    <p><br>Your bonus pay is unchanged, and remains at $0.70.</p>\n            ","response":0,"trial_type":"html-button-response","trial_index":110,"time_elapsed":391400,"internal_node_id":"0.0-4.0-1.51","subject_id":"613a99cc4a787a8d30ddd7e8","study_id":"60edd13110225f80f9f3709b","session_id":"6196ca372f4a8e76b44f8ae8","condition":"contingent","relevant_dimensions":["wings","pattern"],"bee_group":{"antennae":"X","wings":"2","pattern":"S","legs":"X"},"bonus":1.1600000000000008},{"rt":734.2999999970198,"stimulus":"bees-with-color/bee-B1DF.svg","response":0,"trial_type":"image-button-response","trial_index":111,"time_elapsed":392136,"internal_node_id":"0.0-4.0-0.52","subject_id":"613a99cc4a787a8d30ddd7e8","study_id":"60edd13110225f80f9f3709b","session_id":"6196ca372f4a8e76b44f8ae8","condition":"contingent","relevant_dimensions":["wings","pattern"],"bee_group":{"antennae":"X","wings":"2","pattern":"S","legs":"X"},"action":"harvest","summary":"good-harvest","bonus":1.1600000000000008},{"rt":797.7000000029802,"stimulus":"\n                    <p><b>Action: <em>harvest</em></b></p>\n                    <p>This is the bee that you just saw.</p>\n                    <img src=\"bees-with-color/bee-B1DF.svg\" width=\"200\">\n                    <p><span class=\"greenText\"><b>Successful harvest!</b></span><br>Your pay has increased by $0.02. Your bonus pay is now $0.72.</p>\n            ","response":0,"trial_type":"html-button-response","trial_index":112,"time_elapsed":392936,"internal_node_id":"0.0-4.0-1.52","subject_id":"613a99cc4a787a8d30ddd7e8","study_id":"60edd13110225f80f9f3709b","session_id":"6196ca372f4a8e76b44f8ae8","condition":"contingent","relevant_dimensions":["wings","pattern"],"bee_group":{"antennae":"X","wings":"2","pattern":"S","legs":"X"},"bonus":1.1600000000000008},{"rt":950.2999999970198,"stimulus":"bees-with-color/bee-A2DF.svg","response":0,"trial_type":"image-button-response","trial_index":113,"time_elapsed":393888,"internal_node_id":"0.0-4.0-0.53","subject_id":"613a99cc4a787a8d30ddd7e8","study_id":"60edd13110225f80f9f3709b","session_id":"6196ca372f4a8e76b44f8ae8","condition":"contingent","relevant_dimensions":["wings","pattern"],"bee_group":{"antennae":"X","wings":"2","pattern":"S","legs":"X"},"action":"harvest","summary":"good-harvest","bonus":1.1600000000000008},{"rt":582.4000000059605,"stimulus":"\n                    <p><b>Action: <em>harvest</em></b></p>\n                    <p>This is the bee that you just saw.</p>\n                    <img src=\"bees-with-color/bee-A2DF.svg\" width=\"200\">\n                    <p><span class=\"greenText\"><b>Successful harvest!</b></span><br>Your pay has increased by $0.02. Your bonus pay is now $0.74.</p>\n            ","response":0,"trial_type":"html-button-response","trial_index":114,"time_elapsed":394472,"internal_node_id":"0.0-4.0-1.53","subject_id":"613a99cc4a787a8d30ddd7e8","study_id":"60edd13110225f80f9f3709b","session_id":"6196ca372f4a8e76b44f8ae8","condition":"contingent","relevant_dimensions":["wings","pattern"],"bee_group":{"antennae":"X","wings":"2","pattern":"S","legs":"X"},"bonus":1.1600000000000008},{"rt":790.7000000029802,"stimulus":"bees-with-color/bee-B2DM.svg","response":0,"trial_type":"image-button-response","trial_index":115,"time_elapsed":395264,"internal_node_id":"0.0-4.0-0.54","subject_id":"613a99cc4a787a8d30ddd7e8","study_id":"60edd13110225f80f9f3709b","session_id":"6196ca372f4a8e76b44f8ae8","condition":"contingent","relevant_dimensions":["wings","pattern"],"bee_group":{"antennae":"X","wings":"2","pattern":"S","legs":"X"},"action":"harvest","summary":"good-harvest","bonus":1.1600000000000008},{"rt":550.7000000029802,"stimulus":"\n                    <p><b>Action: <em>harvest</em></b></p>\n                    <p>This is the bee that you just saw.</p>\n                    <img src=\"bees-with-color/bee-B2DM.svg\" width=\"200\">\n                    <p><span class=\"greenText\"><b>Successful harvest!</b></span><br>Your pay has increased by $0.02. Your bonus pay is now $0.76.</p>\n            ","response":0,"trial_type":"html-button-response","trial_index":116,"time_elapsed":395816,"internal_node_id":"0.0-4.0-1.54","subject_id":"613a99cc4a787a8d30ddd7e8","study_id":"60edd13110225f80f9f3709b","session_id":"6196ca372f4a8e76b44f8ae8","condition":"contingent","relevant_dimensions":["wings","pattern"],"bee_group":{"antennae":"X","wings":"2","pattern":"S","legs":"X"},"bonus":1.1600000000000008},{"rt":886.6000000089407,"stimulus":"bees-with-color/bee-B2SM.svg","response":1,"trial_type":"image-button-response","trial_index":117,"time_elapsed":396704,"internal_node_id":"0.0-4.0-0.55","subject_id":"613a99cc4a787a8d30ddd7e8","study_id":"60edd13110225f80f9f3709b","session_id":"6196ca372f4a8e76b44f8ae8","condition":"contingent","relevant_dimensions":["wings","pattern"],"bee_group":{"antennae":"X","wings":"2","pattern":"S","legs":"X"},"action":"avoid","summary":"good-avoid","bonus":1.1600000000000008},{"rt":614.4000000059605,"stimulus":"\n                    <p><b>Action: <em>avoid</em></b></p>\n                    <p>This is the bee that you just saw.</p>\n                    <img src=\"bees-with-color/bee-B2SM.svg\" width=\"200\">\n                    <p><br>Your bonus pay is unchanged, and remains at $0.76.</p>\n            ","response":0,"trial_type":"html-button-response","trial_index":118,"time_elapsed":397320,"internal_node_id":"0.0-4.0-1.55","subject_id":"613a99cc4a787a8d30ddd7e8","study_id":"60edd13110225f80f9f3709b","session_id":"6196ca372f4a8e76b44f8ae8","condition":"contingent","relevant_dimensions":["wings","pattern"],"bee_group":{"antennae":"X","wings":"2","pattern":"S","legs":"X"},"bonus":1.1600000000000008},{"rt":606.6000000089407,"stimulus":"bees-with-color/bee-B1DM.svg","response":0,"trial_type":"image-button-response","trial_index":119,"time_elapsed":397928,"internal_node_id":"0.0-4.0-0.56","subject_id":"613a99cc4a787a8d30ddd7e8","study_id":"60edd13110225f80f9f3709b","session_id":"6196ca372f4a8e76b44f8ae8","condition":"contingent","relevant_dimensions":["wings","pattern"],"bee_group":{"antennae":"X","wings":"2","pattern":"S","legs":"X"},"action":"harvest","summary":"good-harvest","bonus":1.1600000000000008},{"rt":574.5,"stimulus":"\n                    <p><b>Action: <em>harvest</em></b></p>\n                    <p>This is the bee that you just saw.</p>\n                    <img src=\"bees-with-color/bee-B1DM.svg\" width=\"200\">\n                    <p><span class=\"greenText\"><b>Successful harvest!</b></span><br>Your pay has increased by $0.02. Your bonus pay is now $0.78.</p>\n            ","response":0,"trial_type":"html-button-response","trial_index":120,"time_elapsed":398504,"internal_node_id":"0.0-4.0-1.56","subject_id":"613a99cc4a787a8d30ddd7e8","study_id":"60edd13110225f80f9f3709b","session_id":"6196ca372f4a8e76b44f8ae8","condition":"contingent","relevant_dimensions":["wings","pattern"],"bee_group":{"antennae":"X","wings":"2","pattern":"S","legs":"X"},"bonus":1.1600000000000008},{"rt":726.5,"stimulus":"bees-with-color/bee-A1SF.svg","response":1,"trial_type":"image-button-response","trial_index":121,"time_elapsed":399232,"internal_node_id":"0.0-4.0-0.57","subject_id":"613a99cc4a787a8d30ddd7e8","study_id":"60edd13110225f80f9f3709b","session_id":"6196ca372f4a8e76b44f8ae8","condition":"contingent","relevant_dimensions":["wings","pattern"],"bee_group":{"antennae":"X","wings":"2","pattern":"S","legs":"X"},"action":"avoid","summary":"bad-avoid","bonus":1.1600000000000008},{"rt":798.2000000029802,"stimulus":"\n                    <p><b>Action: <em>avoid</em></b></p>\n                    <p>This is the bee that you just saw.</p>\n                    <img src=\"bees-with-color/bee-A1SF.svg\" width=\"200\">\n                    <p><br>Your bonus pay is unchanged, and remains at $0.78.</p>\n            ","response":0,"trial_type":"html-button-response","trial_index":122,"time_elapsed":400031,"internal_node_id":"0.0-4.0-1.57","subject_id":"613a99cc4a787a8d30ddd7e8","study_id":"60edd13110225f80f9f3709b","session_id":"6196ca372f4a8e76b44f8ae8","condition":"contingent","relevant_dimensions":["wings","pattern"],"bee_group":{"antennae":"X","wings":"2","pattern":"S","legs":"X"},"bonus":1.1600000000000008},{"rt":782.7999999970198,"stimulus":"bees-with-color/bee-A2SF.svg","response":1,"trial_type":"image-button-response","trial_index":123,"time_elapsed":400816,"internal_node_id":"0.0-4.0-0.58","subject_id":"613a99cc4a787a8d30ddd7e8","study_id":"60edd13110225f80f9f3709b","session_id":"6196ca372f4a8e76b44f8ae8","condition":"contingent","relevant_dimensions":["wings","pattern"],"bee_group":{"antennae":"X","wings":"2","pattern":"S","legs":"X"},"action":"avoid","summary":"good-avoid","bonus":1.1600000000000008},{"rt":622.3999999910593,"stimulus":"\n                    <p><b>Action: <em>avoid</em></b></p>\n                    <p>This is the bee that you just saw.</p>\n                    <img src=\"bees-with-color/bee-A2SF.svg\" width=\"200\">\n                    <p><br>Your bonus pay is unchanged, and remains at $0.78.</p>\n            ","response":0,"trial_type":"html-button-response","trial_index":124,"time_elapsed":401440,"internal_node_id":"0.0-4.0-1.58","subject_id":"613a99cc4a787a8d30ddd7e8","study_id":"60edd13110225f80f9f3709b","session_id":"6196ca372f4a8e76b44f8ae8","condition":"contingent","relevant_dimensions":["wings","pattern"],"bee_group":{"antennae":"X","wings":"2","pattern":"S","legs":"X"},"bonus":1.1600000000000008},{"rt":646.2999999970198,"stimulus":"bees-with-color/bee-B2DF.svg","response":0,"trial_type":"image-button-response","trial_index":125,"time_elapsed":402088,"internal_node_id":"0.0-4.0-0.59","subject_id":"613a99cc4a787a8d30ddd7e8","study_id":"60edd13110225f80f9f3709b","session_id":"6196ca372f4a8e76b44f8ae8","condition":"contingent","relevant_dimensions":["wings","pattern"],"bee_group":{"antennae":"X","wings":"2","pattern":"S","legs":"X"},"action":"harvest","summary":"good-harvest","bonus":1.1600000000000008},{"rt":550.2999999970198,"stimulus":"\n                    <p><b>Action: <em>harvest</em></b></p>\n                    <p>This is the bee that you just saw.</p>\n                    <img src=\"bees-with-color/bee-B2DF.svg\" width=\"200\">\n                    <p><span class=\"greenText\"><b>Successful harvest!</b></span><br>Your pay has increased by $0.02. Your bonus pay is now $0.80.</p>\n            ","response":0,"trial_type":"html-button-response","trial_index":126,"time_elapsed":402640,"internal_node_id":"0.0-4.0-1.59","subject_id":"613a99cc4a787a8d30ddd7e8","study_id":"60edd13110225f80f9f3709b","session_id":"6196ca372f4a8e76b44f8ae8","condition":"contingent","relevant_dimensions":["wings","pattern"],"bee_group":{"antennae":"X","wings":"2","pattern":"S","legs":"X"},"bonus":1.1600000000000008},{"rt":686.5,"stimulus":"bees-with-color/bee-B2SF.svg","response":1,"trial_type":"image-button-response","trial_index":127,"time_elapsed":403328,"internal_node_id":"0.0-4.0-0.60","subject_id":"613a99cc4a787a8d30ddd7e8","study_id":"60edd13110225f80f9f3709b","session_id":"6196ca372f4a8e76b44f8ae8","condition":"contingent","relevant_dimensions":["wings","pattern"],"bee_group":{"antennae":"X","wings":"2","pattern":"S","legs":"X"},"action":"avoid","summary":"good-avoid","bonus":1.1600000000000008},{"rt":558.2999999970198,"stimulus":"\n                    <p><b>Action: <em>avoid</em></b></p>\n                    <p>This is the bee that you just saw.</p>\n                    <img src=\"bees-with-color/bee-B2SF.svg\" width=\"200\">\n                    <p><br>Your bonus pay is unchanged, and remains at $0.80.</p>\n            ","response":0,"trial_type":"html-button-response","trial_index":128,"time_elapsed":403888,"internal_node_id":"0.0-4.0-1.60","subject_id":"613a99cc4a787a8d30ddd7e8","study_id":"60edd13110225f80f9f3709b","session_id":"6196ca372f4a8e76b44f8ae8","condition":"contingent","relevant_dimensions":["wings","pattern"],"bee_group":{"antennae":"X","wings":"2","pattern":"S","legs":"X"},"bonus":1.1600000000000008},{"rt":790.5,"stimulus":"bees-with-color/bee-A1SM.svg","response":1,"trial_type":"image-button-response","trial_index":129,"time_elapsed":404680,"internal_node_id":"0.0-4.0-0.61","subject_id":"613a99cc4a787a8d30ddd7e8","study_id":"60edd13110225f80f9f3709b","session_id":"6196ca372f4a8e76b44f8ae8","condition":"contingent","relevant_dimensions":["wings","pattern"],"bee_group":{"antennae":"X","wings":"2","pattern":"S","legs":"X"},"action":"avoid","summary":"bad-avoid","bonus":1.1600000000000008},{"rt":726.2999999970198,"stimulus":"\n                    <p><b>Action: <em>avoid</em></b></p>\n                    <p>This is the bee that you just saw.</p>\n                    <img src=\"bees-with-color/bee-A1SM.svg\" width=\"200\">\n                    <p><br>Your bonus pay is unchanged, and remains at $0.80.</p>\n            ","response":0,"trial_type":"html-button-response","trial_index":130,"time_elapsed":405408,"internal_node_id":"0.0-4.0-1.61","subject_id":"613a99cc4a787a8d30ddd7e8","study_id":"60edd13110225f80f9f3709b","session_id":"6196ca372f4a8e76b44f8ae8","condition":"contingent","relevant_dimensions":["wings","pattern"],"bee_group":{"antennae":"X","wings":"2","pattern":"S","legs":"X"},"bonus":1.1600000000000008},{"rt":806.5,"stimulus":"bees-with-color/bee-A2DM.svg","response":0,"trial_type":"image-button-response","trial_index":131,"time_elapsed":406216,"internal_node_id":"0.0-4.0-0.62","subject_id":"613a99cc4a787a8d30ddd7e8","study_id":"60edd13110225f80f9f3709b","session_id":"6196ca372f4a8e76b44f8ae8","condition":"contingent","relevant_dimensions":["wings","pattern"],"bee_group":{"antennae":"X","wings":"2","pattern":"S","legs":"X"},"action":"harvest","summary":"good-harvest","bonus":1.1600000000000008},{"rt":582.2000000029802,"stimulus":"\n                    <p><b>Action: <em>harvest</em></b></p>\n                    <p>This is the bee that you just saw.</p>\n                    <img src=\"bees-with-color/bee-A2DM.svg\" width=\"200\">\n                    <p><span class=\"greenText\"><b>Successful harvest!</b></span><br>Your pay has increased by $0.02. Your bonus pay is now $0.82.</p>\n            ","response":0,"trial_type":"html-button-response","trial_index":132,"time_elapsed":406800,"internal_node_id":"0.0-4.0-1.62","subject_id":"613a99cc4a787a8d30ddd7e8","study_id":"60edd13110225f80f9f3709b","session_id":"6196ca372f4a8e76b44f8ae8","condition":"contingent","relevant_dimensions":["wings","pattern"],"bee_group":{"antennae":"X","wings":"2","pattern":"S","legs":"X"},"bonus":1.1600000000000008},{"rt":758.6000000089407,"stimulus":"bees-with-color/bee-A1DF.svg","response":0,"trial_type":"image-button-response","trial_index":133,"time_elapsed":407560,"internal_node_id":"0.0-4.0-0.63","subject_id":"613a99cc4a787a8d30ddd7e8","study_id":"60edd13110225f80f9f3709b","session_id":"6196ca372f4a8e76b44f8ae8","condition":"contingent","relevant_dimensions":["wings","pattern"],"bee_group":{"antennae":"X","wings":"2","pattern":"S","legs":"X"},"action":"harvest","summary":"good-harvest","bonus":1.1600000000000008},{"rt":566.0999999940395,"stimulus":"\n                    <p><b>Action: <em>harvest</em></b></p>\n                    <p>This is the bee that you just saw.</p>\n                    <img src=\"bees-with-color/bee-A1DF.svg\" width=\"200\">\n                    <p><span class=\"greenText\"><b>Successful harvest!</b></span><br>Your pay has increased by $0.02. Your bonus pay is now $0.84.</p>\n            ","response":0,"trial_type":"html-button-response","trial_index":134,"time_elapsed":408128,"internal_node_id":"0.0-4.0-1.63","subject_id":"613a99cc4a787a8d30ddd7e8","study_id":"60edd13110225f80f9f3709b","session_id":"6196ca372f4a8e76b44f8ae8","condition":"contingent","relevant_dimensions":["wings","pattern"],"bee_group":{"antennae":"X","wings":"2","pattern":"S","legs":"X"},"bonus":1.1600000000000008},{"rt":8848.10000000894,"stimulus":"You have completed the first part of this experiment.<br><br>You will now begin a shorter second part, in which you will receive no feedback.<br>The same rules regarding bonus pay apply.<br><br>Press any key to begin.","response":" ","trial_type":"html-keyboard-response","trial_index":135,"time_elapsed":416978,"internal_node_id":"0.0-5.0","subject_id":"613a99cc4a787a8d30ddd7e8","study_id":"60edd13110225f80f9f3709b","session_id":"6196ca372f4a8e76b44f8ae8","condition":"contingent","relevant_dimensions":["wings","pattern"],"bee_group":{"antennae":"X","wings":"2","pattern":"S","legs":"X"},"bonus":1.1600000000000008},{"rt":1461.9000000059605,"stimulus":"bees-with-color/bee-A2DM.svg","response":0,"trial_type":"image-button-response","trial_index":136,"time_elapsed":418448,"internal_node_id":"0.0-6.0-0.0","subject_id":"613a99cc4a787a8d30ddd7e8","study_id":"60edd13110225f80f9f3709b","session_id":"6196ca372f4a8e76b44f8ae8","condition":"contingent","relevant_dimensions":["wings","pattern"],"bee_group":{"antennae":"X","wings":"2","pattern":"S","legs":"X"},"bonus":1.1600000000000008},{"rt":2493.4000000059605,"stimulus":"bees-with-color/bee-B1DF.svg","response":0,"trial_type":"image-button-response","trial_index":137,"time_elapsed":420944,"internal_node_id":"0.0-6.0-0.1","subject_id":"613a99cc4a787a8d30ddd7e8","study_id":"60edd13110225f80f9f3709b","session_id":"6196ca372f4a8e76b44f8ae8","condition":"contingent","relevant_dimensions":["wings","pattern"],"bee_group":{"antennae":"X","wings":"2","pattern":"S","legs":"X"},"bonus":1.1600000000000008},{"rt":973.5,"stimulus":"bees-with-color/bee-A1SF.svg","response":1,"trial_type":"image-button-response","trial_index":138,"time_elapsed":421920,"internal_node_id":"0.0-6.0-0.2","subject_id":"613a99cc4a787a8d30ddd7e8","study_id":"60edd13110225f80f9f3709b","session_id":"6196ca372f4a8e76b44f8ae8","condition":"contingent","relevant_dimensions":["wings","pattern"],"bee_group":{"antennae":"X","wings":"2","pattern":"S","legs":"X"},"bonus":1.1600000000000008},{"rt":621.6000000089407,"stimulus":"bees-with-color/bee-A1DF.svg","response":0,"trial_type":"image-button-response","trial_index":139,"time_elapsed":422544,"internal_node_id":"0.0-6.0-0.3","subject_id":"613a99cc4a787a8d30ddd7e8","study_id":"60edd13110225f80f9f3709b","session_id":"6196ca372f4a8e76b44f8ae8","condition":"contingent","relevant_dimensions":["wings","pattern"],"bee_group":{"antennae":"X","wings":"2","pattern":"S","legs":"X"},"bonus":1.1600000000000008},{"rt":989.5,"stimulus":"bees-with-color/bee-A1SM.svg","response":1,"trial_type":"image-button-response","trial_index":140,"time_elapsed":423536,"internal_node_id":"0.0-6.0-0.4","subject_id":"613a99cc4a787a8d30ddd7e8","study_id":"60edd13110225f80f9f3709b","session_id":"6196ca372f4a8e76b44f8ae8","condition":"contingent","relevant_dimensions":["wings","pattern"],"bee_group":{"antennae":"X","wings":"2","pattern":"S","legs":"X"},"bonus":1.1600000000000008},{"rt":645.3000000119209,"stimulus":"bees-with-color/bee-A2SF.svg","response":1,"trial_type":"image-button-response","trial_index":141,"time_elapsed":424184,"internal_node_id":"0.0-6.0-0.5","subject_id":"613a99cc4a787a8d30ddd7e8","study_id":"60edd13110225f80f9f3709b","session_id":"6196ca372f4a8e76b44f8ae8","condition":"contingent","relevant_dimensions":["wings","pattern"],"bee_group":{"antennae":"X","wings":"2","pattern":"S","legs":"X"},"bonus":1.1600000000000008},{"rt":637.5,"stimulus":"bees-with-color/bee-B2SM.svg","response":1,"trial_type":"image-button-response","trial_index":142,"time_elapsed":424824,"internal_node_id":"0.0-6.0-0.6","subject_id":"613a99cc4a787a8d30ddd7e8","study_id":"60edd13110225f80f9f3709b","session_id":"6196ca372f4a8e76b44f8ae8","condition":"contingent","relevant_dimensions":["wings","pattern"],"bee_group":{"antennae":"X","wings":"2","pattern":"S","legs":"X"},"bonus":1.1600000000000008},{"rt":757.5999999940395,"stimulus":"bees-with-color/bee-B2DF.svg","response":0,"trial_type":"image-button-response","trial_index":143,"time_elapsed":425584,"internal_node_id":"0.0-6.0-0.7","subject_id":"613a99cc4a787a8d30ddd7e8","study_id":"60edd13110225f80f9f3709b","session_id":"6196ca372f4a8e76b44f8ae8","condition":"contingent","relevant_dimensions":["wings","pattern"],"bee_group":{"antennae":"X","wings":"2","pattern":"S","legs":"X"},"bonus":1.1600000000000008},{"rt":749.1000000089407,"stimulus":"bees-with-color/bee-B2DM.svg","response":0,"trial_type":"image-button-response","trial_index":144,"time_elapsed":426335,"internal_node_id":"0.0-6.0-0.8","subject_id":"613a99cc4a787a8d30ddd7e8","study_id":"60edd13110225f80f9f3709b","session_id":"6196ca372f4a8e76b44f8ae8","condition":"contingent","relevant_dimensions":["wings","pattern"],"bee_group":{"antennae":"X","wings":"2","pattern":"S","legs":"X"},"bonus":1.1600000000000008},{"rt":870,"stimulus":"bees-with-color/bee-A2SM.svg","response":1,"trial_type":"image-button-response","trial_index":145,"time_elapsed":427208,"internal_node_id":"0.0-6.0-0.9","subject_id":"613a99cc4a787a8d30ddd7e8","study_id":"60edd13110225f80f9f3709b","session_id":"6196ca372f4a8e76b44f8ae8","condition":"contingent","relevant_dimensions":["wings","pattern"],"bee_group":{"antennae":"X","wings":"2","pattern":"S","legs":"X"},"bonus":1.1600000000000008},{"rt":781.9000000059605,"stimulus":"bees-with-color/bee-B1SF.svg","response":1,"trial_type":"image-button-response","trial_index":146,"time_elapsed":427992,"internal_node_id":"0.0-6.0-0.10","subject_id":"613a99cc4a787a8d30ddd7e8","study_id":"60edd13110225f80f9f3709b","session_id":"6196ca372f4a8e76b44f8ae8","condition":"contingent","relevant_dimensions":["wings","pattern"],"bee_group":{"antennae":"X","wings":"2","pattern":"S","legs":"X"},"bonus":1.1600000000000008},{"rt":741.2999999970198,"stimulus":"bees-with-color/bee-B1DM.svg","response":0,"trial_type":"image-button-response","trial_index":147,"time_elapsed":428736,"internal_node_id":"0.0-6.0-0.11","subject_id":"613a99cc4a787a8d30ddd7e8","study_id":"60edd13110225f80f9f3709b","session_id":"6196ca372f4a8e76b44f8ae8","condition":"contingent","relevant_dimensions":["wings","pattern"],"bee_group":{"antennae":"X","wings":"2","pattern":"S","legs":"X"},"bonus":1.1600000000000008},{"rt":757.7999999970198,"stimulus":"bees-with-color/bee-A2DF.svg","response":0,"trial_type":"image-button-response","trial_index":148,"time_elapsed":429496,"internal_node_id":"0.0-6.0-0.12","subject_id":"613a99cc4a787a8d30ddd7e8","study_id":"60edd13110225f80f9f3709b","session_id":"6196ca372f4a8e76b44f8ae8","condition":"contingent","relevant_dimensions":["wings","pattern"],"bee_group":{"antennae":"X","wings":"2","pattern":"S","legs":"X"},"bonus":1.1600000000000008},{"rt":789.8999999910593,"stimulus":"bees-with-color/bee-B2SF.svg","response":1,"trial_type":"image-button-response","trial_index":149,"time_elapsed":430288,"internal_node_id":"0.0-6.0-0.13","subject_id":"613a99cc4a787a8d30ddd7e8","study_id":"60edd13110225f80f9f3709b","session_id":"6196ca372f4a8e76b44f8ae8","condition":"contingent","relevant_dimensions":["wings","pattern"],"bee_group":{"antennae":"X","wings":"2","pattern":"S","legs":"X"},"bonus":1.1600000000000008},{"rt":661.5,"stimulus":"bees-with-color/bee-A1DM.svg","response":0,"trial_type":"image-button-response","trial_index":150,"time_elapsed":430952,"internal_node_id":"0.0-6.0-0.14","subject_id":"613a99cc4a787a8d30ddd7e8","study_id":"60edd13110225f80f9f3709b","session_id":"6196ca372f4a8e76b44f8ae8","condition":"contingent","relevant_dimensions":["wings","pattern"],"bee_group":{"antennae":"X","wings":"2","pattern":"S","legs":"X"},"bonus":1.1600000000000008},{"rt":725.9000000059605,"stimulus":"bees-with-color/bee-B1SM.svg","response":1,"trial_type":"image-button-response","trial_index":151,"time_elapsed":431680,"internal_node_id":"0.0-6.0-0.15","subject_id":"613a99cc4a787a8d30ddd7e8","study_id":"60edd13110225f80f9f3709b","session_id":"6196ca372f4a8e76b44f8ae8","condition":"contingent","relevant_dimensions":["wings","pattern"],"bee_group":{"antennae":"X","wings":"2","pattern":"S","legs":"X"},"bonus":1.1600000000000008},{"rt":622.2000000029802,"stimulus":"bees-with-color/bee-A1DM.svg","response":0,"trial_type":"image-button-response","trial_index":152,"time_elapsed":432304,"internal_node_id":"0.0-6.0-0.16","subject_id":"613a99cc4a787a8d30ddd7e8","study_id":"60edd13110225f80f9f3709b","session_id":"6196ca372f4a8e76b44f8ae8","condition":"contingent","relevant_dimensions":["wings","pattern"],"bee_group":{"antennae":"X","wings":"2","pattern":"S","legs":"X"},"bonus":1.1600000000000008},{"rt":694.0999999940395,"stimulus":"bees-with-color/bee-A2DF.svg","response":0,"trial_type":"image-button-response","trial_index":153,"time_elapsed":433000,"internal_node_id":"0.0-6.0-0.17","subject_id":"613a99cc4a787a8d30ddd7e8","study_id":"60edd13110225f80f9f3709b","session_id":"6196ca372f4a8e76b44f8ae8","condition":"contingent","relevant_dimensions":["wings","pattern"],"bee_group":{"antennae":"X","wings":"2","pattern":"S","legs":"X"},"bonus":1.1600000000000008},{"rt":566.2000000029802,"stimulus":"bees-with-color/bee-A1DF.svg","response":0,"trial_type":"image-button-response","trial_index":154,"time_elapsed":433568,"internal_node_id":"0.0-6.0-0.18","subject_id":"613a99cc4a787a8d30ddd7e8","study_id":"60edd13110225f80f9f3709b","session_id":"6196ca372f4a8e76b44f8ae8","condition":"contingent","relevant_dimensions":["wings","pattern"],"bee_group":{"antennae":"X","wings":"2","pattern":"S","legs":"X"},"bonus":1.1600000000000008},{"rt":822.0999999940395,"stimulus":"bees-with-color/bee-A2SF.svg","response":1,"trial_type":"image-button-response","trial_index":155,"time_elapsed":434392,"internal_node_id":"0.0-6.0-0.19","subject_id":"613a99cc4a787a8d30ddd7e8","study_id":"60edd13110225f80f9f3709b","session_id":"6196ca372f4a8e76b44f8ae8","condition":"contingent","relevant_dimensions":["wings","pattern"],"bee_group":{"antennae":"X","wings":"2","pattern":"S","legs":"X"},"bonus":1.1600000000000008},{"rt":749.8999999910593,"stimulus":"bees-with-color/bee-B1SF.svg","response":1,"trial_type":"image-button-response","trial_index":156,"time_elapsed":435144,"internal_node_id":"0.0-6.0-0.20","subject_id":"613a99cc4a787a8d30ddd7e8","study_id":"60edd13110225f80f9f3709b","session_id":"6196ca372f4a8e76b44f8ae8","condition":"contingent","relevant_dimensions":["wings","pattern"],"bee_group":{"antennae":"X","wings":"2","pattern":"S","legs":"X"},"bonus":1.1600000000000008},{"rt":774.3000000119209,"stimulus":"bees-with-color/bee-A1SF.svg","response":1,"trial_type":"image-button-response","trial_index":157,"time_elapsed":435920,"internal_node_id":"0.0-6.0-0.21","subject_id":"613a99cc4a787a8d30ddd7e8","study_id":"60edd13110225f80f9f3709b","session_id":"6196ca372f4a8e76b44f8ae8","condition":"contingent","relevant_dimensions":["wings","pattern"],"bee_group":{"antennae":"X","wings":"2","pattern":"S","legs":"X"},"bonus":1.1600000000000008},{"rt":614.1000000089407,"stimulus":"bees-with-color/bee-B2SF.svg","response":1,"trial_type":"image-button-response","trial_index":158,"time_elapsed":436536,"internal_node_id":"0.0-6.0-0.22","subject_id":"613a99cc4a787a8d30ddd7e8","study_id":"60edd13110225f80f9f3709b","session_id":"6196ca372f4a8e76b44f8ae8","condition":"contingent","relevant_dimensions":["wings","pattern"],"bee_group":{"antennae":"X","wings":"2","pattern":"S","legs":"X"},"bonus":1.1600000000000008},{"rt":710.1000000089407,"stimulus":"bees-with-color/bee-A1SM.svg","response":1,"trial_type":"image-button-response","trial_index":159,"time_elapsed":437248,"internal_node_id":"0.0-6.0-0.23","subject_id":"613a99cc4a787a8d30ddd7e8","study_id":"60edd13110225f80f9f3709b","session_id":"6196ca372f4a8e76b44f8ae8","condition":"contingent","relevant_dimensions":["wings","pattern"],"bee_group":{"antennae":"X","wings":"2","pattern":"S","legs":"X"},"bonus":1.1600000000000008},{"rt":646.2999999970198,"stimulus":"bees-with-color/bee-B2DF.svg","response":0,"trial_type":"image-button-response","trial_index":160,"time_elapsed":437896,"internal_node_id":"0.0-6.0-0.24","subject_id":"613a99cc4a787a8d30ddd7e8","study_id":"60edd13110225f80f9f3709b","session_id":"6196ca372f4a8e76b44f8ae8","condition":"contingent","relevant_dimensions":["wings","pattern"],"bee_group":{"antennae":"X","wings":"2","pattern":"S","legs":"X"},"bonus":1.1600000000000008},{"rt":870,"stimulus":"bees-with-color/bee-A2SM.svg","response":1,"trial_type":"image-button-response","trial_index":161,"time_elapsed":438768,"internal_node_id":"0.0-6.0-0.25","subject_id":"613a99cc4a787a8d30ddd7e8","study_id":"60edd13110225f80f9f3709b","session_id":"6196ca372f4a8e76b44f8ae8","condition":"contingent","relevant_dimensions":["wings","pattern"],"bee_group":{"antennae":"X","wings":"2","pattern":"S","legs":"X"},"bonus":1.1600000000000008},{"rt":782.1000000089407,"stimulus":"bees-with-color/bee-B1SM.svg","response":1,"trial_type":"image-button-response","trial_index":162,"time_elapsed":439552,"internal_node_id":"0.0-6.0-0.26","subject_id":"613a99cc4a787a8d30ddd7e8","study_id":"60edd13110225f80f9f3709b","session_id":"6196ca372f4a8e76b44f8ae8","condition":"contingent","relevant_dimensions":["wings","pattern"],"bee_group":{"antennae":"X","wings":"2","pattern":"S","legs":"X"},"bonus":1.1600000000000008},{"rt":670.3000000119209,"stimulus":"bees-with-color/bee-B1DM.svg","response":0,"trial_type":"image-button-response","trial_index":163,"time_elapsed":440224,"internal_node_id":"0.0-6.0-0.27","subject_id":"613a99cc4a787a8d30ddd7e8","study_id":"60edd13110225f80f9f3709b","session_id":"6196ca372f4a8e76b44f8ae8","condition":"contingent","relevant_dimensions":["wings","pattern"],"bee_group":{"antennae":"X","wings":"2","pattern":"S","legs":"X"},"bonus":1.1600000000000008},{"rt":724.5,"stimulus":"bees-with-color/bee-B1DF.svg","response":0,"trial_type":"image-button-response","trial_index":164,"time_elapsed":440951,"internal_node_id":"0.0-6.0-0.28","subject_id":"613a99cc4a787a8d30ddd7e8","study_id":"60edd13110225f80f9f3709b","session_id":