[{"success":true,"trial_type":"fullscreen","trial_index":0,"time_elapsed":5637,"internal_node_id":"0.0-0.0","subject_id":"55ec13017480920010aaa35d","study_id":"60edd13110225f80f9f3709b","session_id":"6196c708b8cec23ee24c47ff","condition":"full-information","relevant_dimensions":["antennae","legs"],"bee_group":{"antennae":"A","wings":"X","pattern":"X","legs":"M"},"bonus":0.680000000000001},{"success":true,"timeout":false,"failed_images":[],"failed_audio":[],"failed_video":[],"trial_type":"preload","trial_index":1,"time_elapsed":7345,"internal_node_id":"0.0-1.0","subject_id":"55ec13017480920010aaa35d","study_id":"60edd13110225f80f9f3709b","session_id":"6196c708b8cec23ee24c47ff","condition":"full-information","relevant_dimensions":["antennae","legs"],"bee_group":{"antennae":"A","wings":"X","pattern":"X","legs":"M"},"bonus":0.680000000000001},{"rt":2292,"stimulus":"Welcome! Press any key to begin.","response":"s","trial_type":"html-keyboard-response","trial_index":2,"time_elapsed":9638,"internal_node_id":"0.0-2.0","subject_id":"55ec13017480920010aaa35d","study_id":"60edd13110225f80f9f3709b","session_id":"6196c708b8cec23ee24c47ff","condition":"full-information","relevant_dimensions":["antennae","legs"],"bee_group":{"antennae":"A","wings":"X","pattern":"X","legs":"M"},"bonus":0.680000000000001},{"view_history":[{"page_index":0,"viewing_time":1503},{"page_index":1,"viewing_time":3027},{"page_index":2,"viewing_time":3320},{"page_index":3,"viewing_time":12524},{"page_index":4,"viewing_time":3604},{"page_index":5,"viewing_time":4472},{"page_index":6,"viewing_time":4932},{"page_index":7,"viewing_time":2813},{"page_index":8,"viewing_time":1943},{"page_index":9,"viewing_time":2152},{"page_index":10,"viewing_time":1248},{"page_index":11,"viewing_time":4196},{"page_index":12,"viewing_time":7717},{"page_index":13,"viewing_time":1124},{"page_index":14,"viewing_time":1564}],"rt":56139,"trial_type":"instructions","trial_index":3,"time_elapsed":65777,"internal_node_id":"0.0-3.0-0.0","subject_id":"55ec13017480920010aaa35d","study_id":"60edd13110225f80f9f3709b","session_id":"6196c708b8cec23ee24c47ff","condition":"full-information","relevant_dimensions":["antennae","legs"],"bee_group":{"antennae":"A","wings":"X","pattern":"X","legs":"M"},"bonus":0.680000000000001},{"rt":7552,"response":{"Q0":["Two or six legs","Stripes or spots on body","Single or double wings","Antennae or no antennae"]},"question_order":[0],"trial_type":"survey-multi-select","trial_index":4,"time_elapsed":73333,"internal_node_id":"0.0-3.0-1.0","subject_id":"55ec13017480920010aaa35d","study_id":"60edd13110225f80f9f3709b","session_id":"6196c708b8cec23ee24c47ff","condition":"full-information","relevant_dimensions":["antennae","legs"],"bee_group":{"antennae":"A","wings":"X","pattern":"X","legs":"M"},"correct":true,"bonus":0.680000000000001},{"rt":12861,"response":{"Q1":"No.","Q2":"Based on the four features of the bee.","Q3":"You learn if it was friendly or dangerous, but do not alter your bonus."},"question_order":[0,1,2],"trial_type":"survey-multi-choice","trial_index":5,"time_elapsed":86199,"internal_node_id":"0.0-3.0-2.0","subject_id":"55ec13017480920010aaa35d","study_id":"60edd13110225f80f9f3709b","session_id":"6196c708b8cec23ee24c47ff","condition":"full-information","relevant_dimensions":["antennae","legs"],"bee_group":{"antennae":"A","wings":"X","pattern":"X","legs":"M"},"correct":true,"bonus":0.680000000000001},{"rt":1648,"stimulus":"<p>Congrats, you got everything right<br>When you're ready, click the button below to continue to the experiment.</p>","response":0,"trial_type":"html-button-response","trial_index":6,"time_elapsed":87850,"internal_node_id":"0.0-3.0-3.0","subject_id":"55ec13017480920010aaa35d","study_id":"60edd13110225f80f9f3709b","session_id":"6196c708b8cec23ee24c47ff","condition":"full-information","relevant_dimensions":["antennae","legs"],"bee_group":{"antennae":"A","wings":"X","pattern":"X","legs":"M"},"bonus":0.680000000000001},{"rt":8381,"stimulus":"bees-with-color/bee-B2DM.svg","response":1,"trial_type":"image-button-response","trial_index":7,"time_elapsed":96233,"internal_node_id":"0.0-4.0-0.0","subject_id":"55ec13017480920010aaa35d","study_id":"60edd13110225f80f9f3709b","session_id":"6196c708b8cec23ee24c47ff","condition":"full-information","relevant_dimensions":["antennae","legs"],"bee_group":{"antennae":"A","wings":"X","pattern":"X","legs":"M"},"action":"avoid","summary":"bad-avoid","bonus":0.680000000000001},{"rt":9203,"stimulus":"\n                    <p><b>Action: <em>avoid</em></b></p>\n                    <p>This is the bee that you just saw.</p>\n                    <img src=\"bees-with-color/bee-B2DM.svg\" width=\"200\">\n                    <p><span class=\"redText\">Bad choice,</span> the bee was friendly.<br>Your bonus pay is unchanged, and remains at $0.54.</p>\n            ","response":0,"trial_type":"html-button-response","trial_index":8,"time_elapsed":105449,"internal_node_id":"0.0-4.0-1.0","subject_id":"55ec13017480920010aaa35d","study_id":"60edd13110225f80f9f3709b","session_id":"6196c708b8cec23ee24c47ff","condition":"full-information","relevant_dimensions":["antennae","legs"],"bee_group":{"antennae":"A","wings":"X","pattern":"X","legs":"M"},"bonus":0.680000000000001},{"rt":2306,"stimulus":"bees-with-color/bee-A2DM.svg","response":1,"trial_type":"image-button-response","trial_index":9,"time_elapsed":107757,"internal_node_id":"0.0-4.0-0.1","subject_id":"55ec13017480920010aaa35d","study_id":"60edd13110225f80f9f3709b","session_id":"6196c708b8cec23ee24c47ff","condition":"full-information","relevant_dimensions":["antennae","legs"],"bee_group":{"antennae":"A","wings":"X","pattern":"X","legs":"M"},"action":"avoid","summary":"good-avoid","bonus":0.680000000000001},{"rt":7459,"stimulus":"\n                    <p><b>Action: <em>avoid</em></b></p>\n                    <p>This is the bee that you just saw.</p>\n                    <img src=\"bees-with-color/bee-A2DM.svg\" width=\"200\">\n                    <p><span class=\"greenText\">Good choice!</span>  This bee would have stung you.<br>Your bonus pay is unchanged, and remains at $0.54.</p>\n            ","response":0,"trial_type":"html-button-response","trial_index":10,"time_elapsed":115217,"internal_node_id":"0.0-4.0-1.1","subject_id":"55ec13017480920010aaa35d","study_id":"60edd13110225f80f9f3709b","session_id":"6196c708b8cec23ee24c47ff","condition":"full-information","relevant_dimensions":["antennae","legs"],"bee_group":{"antennae":"A","wings":"X","pattern":"X","legs":"M"},"bonus":0.680000000000001},{"rt":1200,"stimulus":"bees-with-color/bee-B2SF.svg","response":0,"trial_type":"image-button-response","trial_index":11,"time_elapsed":116417,"internal_node_id":"0.0-4.0-0.2","subject_id":"55ec13017480920010aaa35d","study_id":"60edd13110225f80f9f3709b","session_id":"6196c708b8cec23ee24c47ff","condition":"full-information","relevant_dimensions":["antennae","legs"],"bee_group":{"antennae":"A","wings":"X","pattern":"X","legs":"M"},"action":"harvest","summary":"good-harvest","bonus":0.680000000000001},{"rt":2594,"stimulus":"\n                    <p><b>Action: <em>harvest</em></b></p>\n                    <p>This is the bee that you just saw.</p>\n                    <img src=\"bees-with-color/bee-B2SF.svg\" width=\"200\">\n                    <p><span class=\"greenText\"><b>Successful harvest!</b></span><br>Your pay has increased by $0.02. Your bonus pay is now $0.56.</p>\n            ","response":0,"trial_type":"html-button-response","trial_index":12,"time_elapsed":119014,"internal_node_id":"0.0-4.0-1.2","subject_id":"55ec13017480920010aaa35d","study_id":"60edd13110225f80f9f3709b","session_id":"6196c708b8cec23ee24c47ff","condition":"full-information","relevant_dimensions":["antennae","legs"],"bee_group":{"antennae":"A","wings":"X","pattern":"X","legs":"M"},"bonus":0.680000000000001},{"rt":3899,"stimulus":"bees-with-color/bee-A1DM.svg","response":0,"trial_type":"image-button-response","trial_index":13,"time_elapsed":122913,"internal_node_id":"0.0-4.0-0.3","subject_id":"55ec13017480920010aaa35d","study_id":"60edd13110225f80f9f3709b","session_id":"6196c708b8cec23ee24c47ff","condition":"full-information","relevant_dimensions":["antennae","legs"],"bee_group":{"antennae":"A","wings":"X","pattern":"X","legs":"M"},"action":"harvest","summary":"bad-harvest","bonus":0.680000000000001},{"rt":6602,"stimulus":"\n                    <p><b>Action: <em>harvest</em></b></p>\n                    <p>This is the bee that you just saw.</p>\n                    <img src=\"bees-with-color/bee-A1DM.svg\" width=\"200\">\n                    <p><span class=\"redText\">Bad choice, the bee was angry.</span><br><b>You have been stung!</b><br>Your pay has been decreased by $0.10. Your bonus pay is now $0.46.</p>\n            ","response":0,"trial_type":"html-button-response","trial_index":14,"time_elapsed":129517,"internal_node_id":"0.0-4.0-1.3","subject_id":"55ec13017480920010aaa35d","study_id":"60edd13110225f80f9f3709b","session_id":"6196c708b8cec23ee24c47ff","condition":"full-information","relevant_dimensions":["antennae","legs"],"bee_group":{"antennae":"A","wings":"X","pattern":"X","legs":"M"},"bonus":0.680000000000001},{"rt":1235,"stimulus":"bees-with-color/bee-A2SF.svg","response":0,"trial_type":"image-button-response","trial_index":15,"time_elapsed":130754,"internal_node_id":"0.0-4.0-0.4","subject_id":"55ec13017480920010aaa35d","study_id":"60edd13110225f80f9f3709b","session_id":"6196c708b8cec23ee24c47ff","condition":"full-information","relevant_dimensions":["antennae","legs"],"bee_group":{"antennae":"A","wings":"X","pattern":"X","legs":"M"},"action":"harvest","summary":"good-harvest","bonus":0.680000000000001},{"rt":1163,"stimulus":"\n                    <p><b>Action: <em>harvest</em></b></p>\n                    <p>This is the bee that you just saw.</p>\n                    <img src=\"bees-with-color/bee-A2SF.svg\" width=\"200\">\n                    <p><span class=\"greenText\"><b>Successful harvest!</b></span><br>Your pay has increased by $0.02. Your bonus pay is now $0.48.</p>\n            ","response":0,"trial_type":"html-button-response","trial_index":16,"time_elapsed":131917,"internal_node_id":"0.0-4.0-1.4","subject_id":"55ec13017480920010aaa35d","study_id":"60edd13110225f80f9f3709b","session_id":"6196c708b8cec23ee24c47ff","condition":"full-information","relevant_dimensions":["antennae","legs"],"bee_group":{"antennae":"A","wings":"X","pattern":"X","legs":"M"},"bonus":0.680000000000001},{"rt":1039,"stimulus":"bees-with-color/bee-A1DF.svg","response":0,"trial_type":"image-button-response","trial_index":17,"time_elapsed":132958,"internal_node_id":"0.0-4.0-0.5","subject_id":"55ec13017480920010aaa35d","study_id":"60edd13110225f80f9f3709b","session_id":"6196c708b8cec23ee24c47ff","condition":"full-information","relevant_dimensions":["antennae","legs"],"bee_group":{"antennae":"A","wings":"X","pattern":"X","legs":"M"},"action":"harvest","summary":"good-harvest","bonus":0.680000000000001},{"rt":1183,"stimulus":"\n                    <p><b>Action: <em>harvest</em></b></p>\n                    <p>This is the bee that you just saw.</p>\n                    <img src=\"bees-with-color/bee-A1DF.svg\" width=\"200\">\n                    <p><span class=\"greenText\"><b>Successful harvest!</b></span><br>Your pay has increased by $0.02. Your bonus pay is now $0.50.</p>\n            ","response":0,"trial_type":"html-button-response","trial_index":18,"time_elapsed":134141,"internal_node_id":"0.0-4.0-1.5","subject_id":"55ec13017480920010aaa35d","study_id":"60edd13110225f80f9f3709b","session_id":"6196c708b8cec23ee24c47ff","condition":"full-information","relevant_dimensions":["antennae","legs"],"bee_group":{"antennae":"A","wings":"X","pattern":"X","legs":"M"},"bonus":0.680000000000001},{"rt":2604,"stimulus":"bees-with-color/bee-B2DF.svg","response":0,"trial_type":"image-button-response","trial_index":19,"time_elapsed":136745,"internal_node_id":"0.0-4.0-0.6","subject_id":"55ec13017480920010aaa35d","study_id":"60edd13110225f80f9f3709b","session_id":"6196c708b8cec23ee24c47ff","condition":"full-information","relevant_dimensions":["antennae","legs"],"bee_group":{"antennae":"A","wings":"X","pattern":"X","legs":"M"},"action":"harvest","summary":"good-harvest","bonus":0.680000000000001},{"rt":1310,"stimulus":"\n                    <p><b>Action: <em>harvest</em></b></p>\n                    <p>This is the bee that you just saw.</p>\n                    <img src=\"bees-with-color/bee-B2DF.svg\" width=\"200\">\n                    <p><span class=\"greenText\"><b>Successful harvest!</b></span><br>Your pay has increased by $0.02. Your bonus pay is now $0.52.</p>\n            ","response":0,"trial_type":"html-button-response","trial_index":20,"time_elapsed":138056,"internal_node_id":"0.0-4.0-1.6","subject_id":"55ec13017480920010aaa35d","study_id":"60edd13110225f80f9f3709b","session_id":"6196c708b8cec23ee24c47ff","condition":"full-information","relevant_dimensions":["antennae","legs"],"bee_group":{"antennae":"A","wings":"X","pattern":"X","legs":"M"},"bonus":0.680000000000001},{"rt":4609,"stimulus":"bees-with-color/bee-B1DM.svg","response":0,"trial_type":"image-button-response","trial_index":21,"time_elapsed":142665,"internal_node_id":"0.0-4.0-0.7","subject_id":"55ec13017480920010aaa35d","study_id":"60edd13110225f80f9f3709b","session_id":"6196c708b8cec23ee24c47ff","condition":"full-information","relevant_dimensions":["antennae","legs"],"bee_group":{"antennae":"A","wings":"X","pattern":"X","legs":"M"},"action":"harvest","summary":"good-harvest","bonus":0.680000000000001},{"rt":1342,"stimulus":"\n                    <p><b>Action: <em>harvest</em></b></p>\n                    <p>This is the bee that you just saw.</p>\n                    <img src=\"bees-with-color/bee-B1DM.svg\" width=\"200\">\n                    <p><span class=\"greenText\"><b>Successful harvest!</b></span><br>Your pay has increased by $0.02. Your bonus pay is now $0.54.</p>\n            ","response":0,"trial_type":"html-button-response","trial_index":22,"time_elapsed":144009,"internal_node_id":"0.0-4.0-1.7","subject_id":"55ec13017480920010aaa35d","study_id":"60edd13110225f80f9f3709b","session_id":"6196c708b8cec23ee24c47ff","condition":"full-information","relevant_dimensions":["antennae","legs"],"bee_group":{"antennae":"A","wings":"X","pattern":"X","legs":"M"},"bonus":0.680000000000001},{"rt":2248,"stimulus":"bees-with-color/bee-B2SM.svg","response":0,"trial_type":"image-button-response","trial_index":23,"time_elapsed":146258,"internal_node_id":"0.0-4.0-0.8","subject_id":"55ec13017480920010aaa35d","study_id":"60edd13110225f80f9f3709b","session_id":"6196c708b8cec23ee24c47ff","condition":"full-information","relevant_dimensions":["antennae","legs"],"bee_group":{"antennae":"A","wings":"X","pattern":"X","legs":"M"},"action":"harvest","summary":"good-harvest","bonus":0.680000000000001},{"rt":1179,"stimulus":"\n                    <p><b>Action: <em>harvest</em></b></p>\n                    <p>This is the bee that you just saw.</p>\n                    <img src=\"bees-with-color/bee-B2SM.svg\" width=\"200\">\n                    <p><span class=\"greenText\"><b>Successful harvest!</b></span><br>Your pay has increased by $0.02. Your bonus pay is now $0.56.</p>\n            ","response":0,"trial_type":"html-button-response","trial_index":24,"time_elapsed":147437,"internal_node_id":"0.0-4.0-1.8","subject_id":"55ec13017480920010aaa35d","study_id":"60edd13110225f80f9f3709b","session_id":"6196c708b8cec23ee24c47ff","condition":"full-information","relevant_dimensions":["antennae","legs"],"bee_group":{"antennae":"A","wings":"X","pattern":"X","legs":"M"},"bonus":0.680000000000001},{"rt":1172,"stimulus":"bees-with-color/bee-B1SF.svg","response":0,"trial_type":"image-button-response","trial_index":25,"time_elapsed":148610,"internal_node_id":"0.0-4.0-0.9","subject_id":"55ec13017480920010aaa35d","study_id":"60edd13110225f80f9f3709b","session_id":"6196c708b8cec23ee24c47ff","condition":"full-information","relevant_dimensions":["antennae","legs"],"bee_group":{"antennae":"A","wings":"X","pattern":"X","legs":"M"},"action":"harvest","summary":"good-harvest","bonus":0.680000000000001},{"rt":783,"stimulus":"\n                    <p><b>Action: <em>harvest</em></b></p>\n                    <p>This is the bee that you just saw.</p>\n                    <img src=\"bees-with-color/bee-B1SF.svg\" width=\"200\">\n                    <p><span class=\"greenText\"><b>Successful harvest!</b></span><br>Your pay has increased by $0.02. Your bonus pay is now $0.58.</p>\n            ","response":0,"trial_type":"html-button-response","trial_index":26,"time_elapsed":149393,"internal_node_id":"0.0-4.0-1.9","subject_id":"55ec13017480920010aaa35d","study_id":"60edd13110225f80f9f3709b","session_id":"6196c708b8cec23ee24c47ff","condition":"full-information","relevant_dimensions":["antennae","legs"],"bee_group":{"antennae":"A","wings":"X","pattern":"X","legs":"M"},"bonus":0.680000000000001},{"rt":1634,"stimulus":"bees-with-color/bee-B1DF.svg","response":0,"trial_type":"image-button-response","trial_index":27,"time_elapsed":151030,"internal_node_id":"0.0-4.0-0.10","subject_id":"55ec13017480920010aaa35d","study_id":"60edd13110225f80f9f3709b","session_id":"6196c708b8cec23ee24c47ff","condition":"full-information","relevant_dimensions":["antennae","legs"],"bee_group":{"antennae":"A","wings":"X","pattern":"X","legs":"M"},"action":"harvest","summary":"good-harvest","bonus":0.680000000000001},{"rt":1118,"stimulus":"\n                    <p><b>Action: <em>harvest</em></b></p>\n                    <p>This is the bee that you just saw.</p>\n                    <img src=\"bees-with-color/bee-B1DF.svg\" width=\"200\">\n                    <p><span class=\"greenText\"><b>Successful harvest!</b></span><br>Your pay has increased by $0.02. Your bonus pay is now $0.60.</p>\n            ","response":0,"trial_type":"html-button-response","trial_index":28,"time_elapsed":152149,"internal_node_id":"0.0-4.0-1.10","subject_id":"55ec13017480920010aaa35d","study_id":"60edd13110225f80f9f3709b","session_id":"6196c708b8cec23ee24c47ff","condition":"full-information","relevant_dimensions":["antennae","legs"],"bee_group":{"antennae":"A","wings":"X","pattern":"X","legs":"M"},"bonus":0.680000000000001},{"rt":1615,"stimulus":"bees-with-color/bee-A1SM.svg","response":0,"trial_type":"image-button-response","trial_index":29,"time_elapsed":153765,"internal_node_id":"0.0-4.0-0.11","subject_id":"55ec13017480920010aaa35d","study_id":"60edd13110225f80f9f3709b","session_id":"6196c708b8cec23ee24c47ff","condition":"full-information","relevant_dimensions":["antennae","legs"],"bee_group":{"antennae":"A","wings":"X","pattern":"X","legs":"M"},"action":"harvest","summary":"bad-harvest","bonus":0.680000000000001},{"rt":8107,"stimulus":"\n                    <p><b>Action: <em>harvest</em></b></p>\n                    <p>This is the bee that you just saw.</p>\n                    <img src=\"bees-with-color/bee-A1SM.svg\" width=\"200\">\n                    <p><span class=\"redText\">Bad choice, the bee was angry.</span><br><b>You have been stung!</b><br>Your pay has been decreased by $0.10. Your bonus pay is now $0.50.</p>\n            ","response":0,"trial_type":"html-button-response","trial_index":30,"time_elapsed":161873,"internal_node_id":"0.0-4.0-1.11","subject_id":"55ec13017480920010aaa35d","study_id":"60edd13110225f80f9f3709b","session_id":"6196c708b8cec23ee24c47ff","condition":"full-information","relevant_dimensions":["antennae","legs"],"bee_group":{"antennae":"A","wings":"X","pattern":"X","legs":"M"},"bonus":0.680000000000001},{"rt":2579,"stimulus":"bees-with-color/bee-A2SM.svg","response":0,"trial_type":"image-button-response","trial_index":31,"time_elapsed":164453,"internal_node_id":"0.0-4.0-0.12","subject_id":"55ec13017480920010aaa35d","study_id":"60edd13110225f80f9f3709b","session_id":"6196c708b8cec23ee24c47ff","condition":"full-information","relevant_dimensions":["antennae","legs"],"bee_group":{"antennae":"A","wings":"X","pattern":"X","legs":"M"},"action":"harvest","summary":"bad-harvest","bonus":0.680000000000001},{"rt":4791,"stimulus":"\n                    <p><b>Action: <em>harvest</em></b></p>\n                    <p>This is the bee that you just saw.</p>\n                    <img src=\"bees-with-color/bee-A2SM.svg\" width=\"200\">\n                    <p><span class=\"redText\">Bad choice, the bee was angry.</span><br><b>You have been stung!</b><br>Your pay has been decreased by $0.10. Your bonus pay is now $0.40.</p>\n            ","response":0,"trial_type":"html-button-response","trial_index":32,"time_elapsed":169245,"internal_node_id":"0.0-4.0-1.12","subject_id":"55ec13017480920010aaa35d","study_id":"60edd13110225f80f9f3709b","session_id":"6196c708b8cec23ee24c47ff","condition":"full-information","relevant_dimensions":["antennae","legs"],"bee_group":{"antennae":"A","wings":"X","pattern":"X","legs":"M"},"bonus":0.680000000000001},{"rt":1223,"stimulus":"bees-with-color/bee-B1SM.svg","response":0,"trial_type":"image-button-response","trial_index":33,"time_elapsed":170469,"internal_node_id":"0.0-4.0-0.13","subject_id":"55ec13017480920010aaa35d","study_id":"60edd13110225f80f9f3709b","session_id":"6196c708b8cec23ee24c47ff","condition":"full-information","relevant_dimensions":["antennae","legs"],"bee_group":{"antennae":"A","wings":"X","pattern":"X","legs":"M"},"action":"harvest","summary":"good-harvest","bonus":0.680000000000001},{"rt":779,"stimulus":"\n                    <p><b>Action: <em>harvest</em></b></p>\n                    <p>This is the bee that you just saw.</p>\n                    <img src=\"bees-with-color/bee-B1SM.svg\" width=\"200\">\n                    <p><span class=\"greenText\"><b>Successful harvest!</b></span><br>Your pay has increased by $0.02. Your bonus pay is now $0.42.</p>\n            ","response":0,"trial_type":"html-button-response","trial_index":34,"time_elapsed":171249,"internal_node_id":"0.0-4.0-1.13","subject_id":"55ec13017480920010aaa35d","study_id":"60edd13110225f80f9f3709b","session_id":"6196c708b8cec23ee24c47ff","condition":"full-information","relevant_dimensions":["antennae","legs"],"bee_group":{"antennae":"A","wings":"X","pattern":"X","legs":"M"},"bonus":0.680000000000001},{"rt":1231,"stimulus":"bees-with-color/bee-A1SF.svg","response":0,"trial_type":"image-button-response","trial_index":35,"time_elapsed":172482,"internal_node_id":"0.0-4.0-0.14","subject_id":"55ec13017480920010aaa35d","study_id":"60edd13110225f80f9f3709b","session_id":"6196c708b8cec23ee24c47ff","condition":"full-information","relevant_dimensions":["antennae","legs"],"bee_group":{"antennae":"A","wings":"X","pattern":"X","legs":"M"},"action":"harvest","summary":"good-harvest","bonus":0.680000000000001},{"rt":736,"stimulus":"\n                    <p><b>Action: <em>harvest</em></b></p>\n                    <p>This is the bee that you just saw.</p>\n                    <img src=\"bees-with-color/bee-A1SF.svg\" width=\"200\">\n                    <p><span class=\"greenText\"><b>Successful harvest!</b></span><br>Your pay has increased by $0.02. Your bonus pay is now $0.44.</p>\n            ","response":0,"trial_type":"html-button-response","trial_index":36,"time_elapsed":173217,"internal_node_id":"0.0-4.0-1.14","subject_id":"55ec13017480920010aaa35d","study_id":"60edd13110225f80f9f3709b","session_id":"6196c708b8cec23ee24c47ff","condition":"full-information","relevant_dimensions":["antennae","legs"],"bee_group":{"antennae":"A","wings":"X","pattern":"X","legs":"M"},"bonus":0.680000000000001},{"rt":1306,"stimulus":"bees-with-color/bee-A2DF.svg","response":0,"trial_type":"image-button-response","trial_index":37,"time_elapsed":174525,"internal_node_id":"0.0-4.0-0.15","subject_id":"55ec13017480920010aaa35d","study_id":"60edd13110225f80f9f3709b","session_id":"6196c708b8cec23ee24c47ff","condition":"full-information","relevant_dimensions":["antennae","legs"],"bee_group":{"antennae":"A","wings":"X","pattern":"X","legs":"M"},"action":"harvest","summary":"good-harvest","bonus":0.680000000000001},{"rt":651,"stimulus":"\n                    <p><b>Action: <em>harvest</em></b></p>\n                    <p>This is the bee that you just saw.</p>\n                    <img src=\"bees-with-color/bee-A2DF.svg\" width=\"200\">\n                    <p><span class=\"greenText\"><b>Successful harvest!</b></span><br>Your pay has increased by $0.02. Your bonus pay is now $0.46.</p>\n            ","response":0,"trial_type":"html-button-response","trial_index":38,"time_elapsed":175177,"internal_node_id":"0.0-4.0-1.15","subject_id":"55ec13017480920010aaa35d","study_id":"60edd13110225f80f9f3709b","session_id":"6196c708b8cec23ee24c47ff","condition":"full-information","relevant_dimensions":["antennae","legs"],"bee_group":{"antennae":"A","wings":"X","pattern":"X","legs":"M"},"bonus":0.680000000000001},{"rt":1059,"stimulus":"bees-with-color/bee-B1DF.svg","response":0,"trial_type":"image-button-response","trial_index":39,"time_elapsed":176237,"internal_node_id":"0.0-4.0-0.16","subject_id":"55ec13017480920010aaa35d","study_id":"60edd13110225f80f9f3709b","session_id":"6196c708b8cec23ee24c47ff","condition":"full-information","relevant_dimensions":["antennae","legs"],"bee_group":{"antennae":"A","wings":"X","pattern":"X","legs":"M"},"action":"harvest","summary":"good-harvest","bonus":0.680000000000001},{"rt":680,"stimulus":"\n                    <p><b>Action: <em>harvest</em></b></p>\n                    <p>This is the bee that you just saw.</p>\n                    <img src=\"bees-with-color/bee-B1DF.svg\" width=\"200\">\n                    <p><span class=\"greenText\"><b>Successful harvest!</b></span><br>Your pay has increased by $0.02. Your bonus pay is now $0.48.</p>\n            ","response":0,"trial_type":"html-button-response","trial_index":40,"time_elapsed":176917,"internal_node_id":"0.0-4.0-1.16","subject_id":"55ec13017480920010aaa35d","study_id":"60edd13110225f80f9f3709b","session_id":"6196c708b8cec23ee24c47ff","condition":"full-information","relevant_dimensions":["antennae","legs"],"bee_group":{"antennae":"A","wings":"X","pattern":"X","legs":"M"},"bonus":0.680000000000001},{"rt":1535,"stimulus":"bees-with-color/bee-B1SF.svg","response":0,"trial_type":"image-button-response","trial_index":41,"time_elapsed":178452,"internal_node_id":"0.0-4.0-0.17","subject_id":"55ec13017480920010aaa35d","study_id":"60edd13110225f80f9f3709b","session_id":"6196c708b8cec23ee24c47ff","condition":"full-information","relevant_dimensions":["antennae","legs"],"bee_group":{"antennae":"A","wings":"X","pattern":"X","legs":"M"},"action":"harvest","summary":"good-harvest","bonus":0.680000000000001},{"rt":772,"stimulus":"\n                    <p><b>Action: <em>harvest</em></b></p>\n                    <p>This is the bee that you just saw.</p>\n                    <img src=\"bees-with-color/bee-B1SF.svg\" width=\"200\">\n                    <p><span class=\"greenText\"><b>Successful harvest!</b></span><br>Your pay has increased by $0.02. Your bonus pay is now $0.50.</p>\n            ","response":0,"trial_type":"html-button-response","trial_index":42,"time_elapsed":179226,"internal_node_id":"0.0-4.0-1.17","subject_id":"55ec13017480920010aaa35d","study_id":"60edd13110225f80f9f3709b","session_id":"6196c708b8cec23ee24c47ff","condition":"full-information","relevant_dimensions":["antennae","legs"],"bee_group":{"antennae":"A","wings":"X","pattern":"X","legs":"M"},"bonus":0.680000000000001},{"rt":2242,"stimulus":"bees-with-color/bee-B2DM.svg","response":1,"trial_type":"image-button-response","trial_index":43,"time_elapsed":181469,"internal_node_id":"0.0-4.0-0.18","subject_id":"55ec13017480920010aaa35d","study_id":"60edd13110225f80f9f3709b","session_id":"6196c708b8cec23ee24c47ff","condition":"full-information","relevant_dimensions":["antennae","legs"],"bee_group":{"antennae":"A","wings":"X","pattern":"X","legs":"M"},"action":"avoid","summary":"bad-avoid","bonus":0.680000000000001},{"rt":4869,"stimulus":"\n                    <p><b>Action: <em>avoid</em></b></p>\n                    <p>This is the bee that you just saw.</p>\n                    <img src=\"bees-with-color/bee-B2DM.svg\" width=\"200\">\n                    <p><span class=\"redText\">Bad choice,</span> the bee was friendly.<br>Your bonus pay is unchanged, and remains at $0.50.</p>\n            ","response":0,"trial_type":"html-button-response","trial_index":44,"time_elapsed":186340,"internal_node_id":"0.0-4.0-1.18","subject_id":"55ec13017480920010aaa35d","study_id":"60edd13110225f80f9f3709b","session_id":"6196c708b8cec23ee24c47ff","condition":"full-information","relevant_dimensions":["antennae","legs"],"bee_group":{"antennae":"A","wings":"X","pattern":"X","legs":"M"},"bonus":0.680000000000001},{"rt":1241,"stimulus":"bees-with-color/bee-A1SF.svg","response":0,"trial_type":"image-button-response","trial_index":45,"time_elapsed":187581,"internal_node_id":"0.0-4.0-0.19","subject_id":"55ec13017480920010aaa35d","study_id":"60edd13110225f80f9f3709b","session_id":"6196c708b8cec23ee24c47ff","condition":"full-information","relevant_dimensions":["antennae","legs"],"bee_group":{"antennae":"A","wings":"X","pattern":"X","legs":"M"},"action":"harvest","summary":"good-harvest","bonus":0.680000000000001},{"rt":671,"stimulus":"\n                    <p><b>Action: <em>harvest</em></b></p>\n                    <p>This is the bee that you just saw.</p>\n                    <img src=\"bees-with-color/bee-A1SF.svg\" width=\"200\">\n                    <p><span class=\"greenText\"><b>Successful harvest!</b></span><br>Your pay has increased by $0.02. Your bonus pay is now $0.52.</p>\n            ","response":0,"trial_type":"html-button-response","trial_index":46,"time_elapsed":188253,"internal_node_id":"0.0-4.0-1.19","subject_id":"55ec13017480920010aaa35d","study_id":"60edd13110225f80f9f3709b","session_id":"6196c708b8cec23ee24c47ff","condition":"full-information","relevant_dimensions":["antennae","legs"],"bee_group":{"antennae":"A","wings":"X","pattern":"X","legs":"M"},"bonus":0.680000000000001},{"rt":1495,"stimulus":"bees-with-color/bee-B2SF.svg","response":0,"trial_type":"image-button-response","trial_index":47,"time_elapsed":189749,"internal_node_id":"0.0-4.0-0.20","subject_id":"55ec13017480920010aaa35d","study_id":"60edd13110225f80f9f3709b","session_id":"6196c708b8cec23ee24c47ff","condition":"full-information","relevant_dimensions":["antennae","legs"],"bee_group":{"antennae":"A","wings":"X","pattern":"X","legs":"M"},"action":"harvest","summary":"good-harvest","bonus":0.680000000000001},{"rt":608,"stimulus":"\n                    <p><b>Action: <em>harvest</em></b></p>\n                    <p>This is the bee that you just saw.</p>\n                    <img src=\"bees-with-color/bee-B2SF.svg\" width=\"200\">\n                    <p><span class=\"greenText\"><b>Successful harvest!</b></span><br>Your pay has increased by $0.02. Your bonus pay is now $0.54.</p>\n            ","response":0,"trial_type":"html-button-response","trial_index":48,"time_elapsed":190357,"internal_node_id":"0.0-4.0-1.20","subject_id":"55ec13017480920010aaa35d","study_id":"60edd13110225f80f9f3709b","session_id":"6196c708b8cec23ee24c47ff","condition":"full-information","relevant_dimensions":["antennae","legs"],"bee_group":{"antennae":"A","wings":"X","pattern":"X","legs":"M"},"bonus":0.680000000000001},{"rt":3007,"stimulus":"bees-with-color/bee-A2SM.svg","response":1,"trial_type":"image-button-response","trial_index":49,"time_elapsed":193365,"internal_node_id":"0.0-4.0-0.21","subject_id":"55ec13017480920010aaa35d","study_id":"60edd13110225f80f9f3709b","session_id":"6196c708b8cec23ee24c47ff","condition":"full-information","relevant_dimensions":["antennae","legs"],"bee_group":{"antennae":"A","wings":"X","pattern":"X","legs":"M"},"action":"avoid","summary":"good-avoid","bonus":0.680000000000001},{"rt":2322,"stimulus":"\n                    <p><b>Action: <em>avoid</em></b></p>\n                    <p>This is the bee that you just saw.</p>\n                    <img src=\"bees-with-color/bee-A2SM.svg\" width=\"200\">\n                    <p><span class=\"greenText\">Good choice!</span>  This bee would have stung you.<br>Your bonus pay is unchanged, and remains at $0.54.</p>\n            ","response":0,"trial_type":"html-button-response","trial_index":50,"time_elapsed":195689,"internal_node_id":"0.0-4.0-1.21","subject_id":"55ec13017480920010aaa35d","study_id":"60edd13110225f80f9f3709b","session_id":"6196c708b8cec23ee24c47ff","condition":"full-information","relevant_dimensions":["antennae","legs"],"bee_group":{"antennae":"A","wings":"X","pattern":"X","legs":"M"},"bonus":0.680000000000001},{"rt":3298,"stimulus":"bees-with-color/bee-A1SM.svg","response":0,"trial_type":"image-button-response","trial_index":51,"time_elapsed":198989,"internal_node_id":"0.0-4.0-0.22","subject_id":"55ec13017480920010aaa35d","study_id":"60edd13110225f80f9f3709b","session_id":"6196c708b8cec23ee24c47ff","condition":"full-information","relevant_dimensions":["antennae","legs"],"bee_group":{"antennae":"A","wings":"X","pattern":"X","legs":"M"},"action":"harvest","summary":"bad-harvest","bonus":0.680000000000001},{"rt":1475,"stimulus":"\n                    <p><b>Action: <em>harvest</em></b></p>\n                    <p>This is the bee that you just saw.</p>\n                    <img src=\"bees-with-color/bee-A1SM.svg\" width=\"200\">\n                    <p><span class=\"redText\">Bad choice, the bee was angry.</span><br><b>You have been stung!</b><br>Your pay has been decreased by $0.10. Your bonus pay is now $0.44.</p>\n            ","response":0,"trial_type":"html-button-response","trial_index":52,"time_elapsed":200466,"internal_node_id":"0.0-4.0-1.22","subject_id":"55ec13017480920010aaa35d","study_id":"60edd13110225f80f9f3709b","session_id":"6196c708b8cec23ee24c47ff","condition":"full-information","relevant_dimensions":["antennae","legs"],"bee_group":{"antennae":"A","wings":"X","pattern":"X","legs":"M"},"bonus":0.680000000000001},{"rt":1334,"stimulus":"bees-with-color/bee-B1DM.svg","response":0,"trial_type":"image-button-response","trial_index":53,"time_elapsed":201801,"internal_node_id":"0.0-4.0-0.23","subject_id":"55ec13017480920010aaa35d","study_id":"60edd13110225f80f9f3709b","session_id":"6196c708b8cec23ee24c47ff","condition":"full-information","relevant_dimensions":["antennae","legs"],"bee_group":{"antennae":"A","wings":"X","pattern":"X","legs":"M"},"action":"harvest","summary":"good-harvest","bonus":0.680000000000001},{"rt":1015,"stimulus":"\n                    <p><b>Action: <em>harvest</em></b></p>\n                    <p>This is the bee that you just saw.</p>\n                    <img src=\"bees-with-color/bee-B1DM.svg\" width=\"200\">\n                    <p><span class=\"greenText\"><b>Successful harvest!</b></span><br>Your pay has increased by $0.02. Your bonus pay is now $0.46.</p>\n            ","response":0,"trial_type":"html-button-response","trial_index":54,"time_elapsed":202817,"internal_node_id":"0.0-4.0-1.23","subject_id":"55ec13017480920010aaa35d","study_id":"60edd13110225f80f9f3709b","session_id":"6196c708b8cec23ee24c47ff","condition":"full-information","relevant_dimensions":["antennae","legs"],"bee_group":{"antennae":"A","wings":"X","pattern":"X","legs":"M"},"bonus":0.680000000000001},{"rt":1923,"stimulus":"bees-with-color/bee-B2SM.svg","response":1,"trial_type":"image-button-response","trial_index":55,"time_elapsed":204741,"internal_node_id":"0.0-4.0-0.24","subject_id":"55ec13017480920010aaa35d","study_id":"60edd13110225f80f9f3709b","session_id":"6196c708b8cec23ee24c47ff","condition":"full-information","relevant_dimensions":["antennae","legs"],"bee_group":{"antennae":"A","wings":"X","pattern":"X","legs":"M"},"action":"avoid","summary":"bad-avoid","bonus":0.680000000000001},{"rt":2264,"stimulus":"\n                    <p><b>Action: <em>avoid</em></b></p>\n                    <p>This is the bee that you just saw.</p>\n                    <img src=\"bees-with-color/bee-B2SM.svg\" width=\"200\">\n                    <p><span class=\"redText\">Bad choice,</span> the bee was friendly.<br>Your bonus pay is unchanged, and remains at $0.46.</p>\n            ","response":0,"trial_type":"html-button-response","trial_index":56,"time_elapsed":207005,"internal_node_id":"0.0-4.0-1.24","subject_id":"55ec13017480920010aaa35d","study_id":"60edd13110225f80f9f3709b","session_id":"6196c708b8cec23ee24c47ff","condition":"full-information","relevant_dimensions":["antennae","legs"],"bee_group":{"antennae":"A","wings":"X","pattern":"X","legs":"M"},"bonus":0.680000000000001},{"rt":1691,"stimulus":"bees-with-color/bee-B1SM.svg","response":1,"trial_type":"image-button-response","trial_index":57,"time_elapsed":208698,"internal_node_id":"0.0-4.0-0.25","subject_id":"55ec13017480920010aaa35d","study_id":"60edd13110225f80f9f3709b","session_id":"6196c708b8cec23ee24c47ff","condition":"full-information","relevant_dimensions":["antennae","legs"],"bee_group":{"antennae":"A","wings":"X","pattern":"X","legs":"M"},"action":"avoid","summary":"bad-avoid","bonus":0.680000000000001},{"rt":936,"stimulus":"\n                    <p><b>Action: <em>avoid</em></b></p>\n                    <p>This is the bee that you just saw.</p>\n                    <img src=\"bees-with-color/bee-B1SM.svg\" width=\"200\">\n                    <p><span class=\"redText\">Bad choice,</span> the bee was friendly.<br>Your bonus pay is unchanged, and remains at $0.46.</p>\n            ","response":0,"trial_type":"html-button-response","trial_index":58,"time_elapsed":209634,"internal_node_id":"0.0-4.0-1.25","subject_id":"55ec13017480920010aaa35d","study_id":"60edd13110225f80f9f3709b","session_id":"6196c708b8cec23ee24c47ff","condition":"full-information","relevant_dimensions":["antennae","legs"],"bee_group":{"antennae":"A","wings":"X","pattern":"X","legs":"M"},"bonus":0.680000000000001},{"rt":1770,"stimulus":"bees-with-color/bee-A1DM.svg","response":1,"trial_type":"image-button-response","trial_index":59,"time_elapsed":211405,"internal_node_id":"0.0-4.0-0.26","subject_id":"55ec13017480920010aaa35d","study_id":"60edd13110225f80f9f3709b","session_id":"6196c708b8cec23ee24c47ff","condition":"full-information","relevant_dimensions":["antennae","legs"],"bee_group":{"antennae":"A","wings":"X","pattern":"X","legs":"M"},"action":"avoid","summary":"good-avoid","bonus":0.680000000000001},{"rt":1191,"stimulus":"\n                    <p><b>Action: <em>avoid</em></b></p>\n                    <p>This is the bee that you just saw.</p>\n                    <img src=\"bees-with-color/bee-A1DM.svg\" width=\"200\">\n                    <p><span class=\"greenText\">Good choice!</span>  This bee would have stung you.<br>Your bonus pay is unchanged, and remains at $0.46.</p>\n            ","response":0,"trial_type":"html-button-response","trial_index":60,"time_elapsed":212596,"internal_node_id":"0.0-4.0-1.26","subject_id":"55ec13017480920010aaa35d","study_id":"60edd13110225f80f9f3709b","session_id":"6196c708b8cec23ee24c47ff","condition":"full-information","relevant_dimensions":["antennae","legs"],"bee_group":{"antennae":"A","wings":"X","pattern":"X","legs":"M"},"bonus":0.680000000000001},{"rt":1236,"stimulus":"bees-with-color/bee-A1DF.svg","response":0,"trial_type":"image-button-response","trial_index":61,"time_elapsed":213834,"internal_node_id":"0.0-4.0-0.27","subject_id":"55ec13017480920010aaa35d","study_id":"60edd13110225f80f9f3709b","session_id":"6196c708b8cec23ee24c47ff","condition":"full-information","relevant_dimensions":["antennae","legs"],"bee_group":{"antennae":"A","wings":"X","pattern":"X","legs":"M"},"action":"harvest","summary":"good-harvest","bonus":0.680000000000001},{"rt":894,"stimulus":"\n                    <p><b>Action: <em>harvest</em></b></p>\n                    <p>This is the bee that you just saw.</p>\n                    <img src=\"bees-with-color/bee-A1DF.svg\" width=\"200\">\n                    <p><span class=\"greenText\"><b>Successful harvest!</b></span><br>Your pay has increased by $0.02. Your bonus pay is now $0.48.</p>\n            ","response":0,"trial_type":"html-button-response","trial_index":62,"time_elapsed":214729,"internal_node_id":"0.0-4.0-1.27","subject_id":"55ec13017480920010aaa35d","study_id":"60edd13110225f80f9f3709b","session_id":"6196c708b8cec23ee24c47ff","condition":"full-information","relevant_dimensions":["antennae","legs"],"bee_group":{"antennae":"A","wings":"X","pattern":"X","legs":"M"},"bonus":0.680000000000001},{"rt":2382,"stimulus":"bees-with-color/bee-A2SF.svg","response":0,"trial_type":"image-button-response","trial_index":63,"time_elapsed":217113,"internal_node_id":"0.0-4.0-0.28","subject_id":"55ec13017480920010aaa35d","study_id":"60edd13110225f80f9f3709b","session_id":"6196c708b8cec23ee24c47ff","condition":"full-information","relevant_dimensions":["antennae","legs"],"bee_group":{"antennae":"A","wings":"X","pattern":"X","legs":"M"},"action":"harvest","summary":"good-harvest","bonus":0.680000000000001},{"rt":700,"stimulus":"\n                    <p><b>Action: <em>harvest</em></b></p>\n                    <p>This is the bee that you just saw.</p>\n                    <img src=\"bees-with-color/bee-A2SF.svg\" width=\"200\">\n                    <p><span class=\"greenText\"><b>Successful harvest!</b></span><br>Your pay has increased by $0.02. Your bonus pay is now $0.50.</p>\n            ","response":0,"trial_type":"html-button-response","trial_index":64,"time_elapsed":217813,"internal_node_id":"0.0-4.0-1.28","subject_id":"55ec13017480920010aaa35d","study_id":"60edd13110225f80f9f3709b","session_id":"6196c708b8cec23ee24c47ff","condition":"full-information","relevant_dimensions":["antennae","legs"],"bee_group":{"antennae":"A","wings":"X","pattern":"X","legs":"M"},"bonus":0.680000000000001},{"rt":2951,"stimulus":"bees-with-color/bee-A2DM.svg","response":1,"trial_type":"image-button-response","trial_index":65,"time_elapsed":220766,"internal_node_id":"0.0-4.0-0.29","subject_id":"55ec13017480920010aaa35d","study_id":"60edd13110225f80f9f3709b","session_id":"6196c708b8cec23ee24c47ff","condition":"full-information","relevant_dimensions":["antennae","legs"],"bee_group":{"antennae":"A","wings":"X","pattern":"X","legs":"M"},"action":"avoid","summary":"good-avoid","bonus":0.680000000000001},{"rt":1531,"stimulus":"\n                    <p><b>Action: <em>avoid</em></b></p>\n                    <p>This is the bee that you just saw.</p>\n                    <img src=\"bees-with-color/bee-A2DM.svg\" width=\"200\">\n                    <p><span class=\"greenText\">Good choice!</span>  This bee would have stung you.<br>Your bonus pay is unchanged, and remains at $0.50.</p>\n            ","response":0,"trial_type":"html-button-response","trial_index":66,"time_elapsed":222297,"internal_node_id":"0.0-4.0-1.29","subject_id":"55ec13017480920010aaa35d","study_id":"60edd13110225f80f9f3709b","session_id":"6196c708b8cec23ee24c47ff","condition":"full-information","relevant_dimensions":["antennae","legs"],"bee_group":{"antennae":"A","wings":"X","pattern":"X","legs":"M"},"bonus":0.680000000000001},{"rt":1182,"stimulus":"bees-with-color/bee-A2DF.svg","response":0,"trial_type":"image-button-response","trial_index":67,"time_elapsed":223481,"internal_node_id":"0.0-4.0-0.30","subject_id":"55ec13017480920010aaa35d","study_id":"60edd13110225f80f9f3709b","session_id":"6196c708b8cec23ee24c47ff","condition":"full-information","relevant_dimensions":["antennae","legs"],"bee_group":{"antennae":"A","wings":"X","pattern":"X","legs":"M"},"action":"harvest","summary":"good-harvest","bonus":0.680000000000001},{"rt":1337,"stimulus":"\n                    <p><b>Action: <em>harvest</em></b></p>\n                    <p>This is the bee that you just saw.</p>\n                    <img src=\"bees-with-color/bee-A2DF.svg\" width=\"200\">\n                    <p><span class=\"greenText\"><b>Successful harvest!</b></span><br>Your pay has increased by $0.02. Your bonus pay is now $0.52.</p>\n            ","response":0,"trial_type":"html-button-response","trial_index":68,"time_elapsed":224817,"internal_node_id":"0.0-4.0-1.30","subject_id":"55ec13017480920010aaa35d","study_id":"60edd13110225f80f9f3709b","session_id":"6196c708b8cec23ee24c47ff","condition":"full-information","relevant_dimensions":["antennae","legs"],"bee_group":{"antennae":"A","wings":"X","pattern":"X","legs":"M"},"bonus":0.680000000000001},{"rt":1233,"stimulus":"bees-with-color/bee-B2DF.svg","response":0,"trial_type":"image-button-response","trial_index":69,"time_elapsed":226052,"internal_node_id":"0.0-4.0-0.31","subject_id":"55ec13017480920010aaa35d","study_id":"60edd13110225f80f9f3709b","session_id":"6196c708b8cec23ee24c47ff","condition":"full-information","relevant_dimensions":["antennae","legs"],"bee_group":{"antennae":"A","wings":"X","pattern":"X","legs":"M"},"action":"harvest","summary":"good-harvest","bonus":0.680000000000001},{"rt":1019,"stimulus":"\n                    <p><b>Action: <em>harvest</em></b></p>\n                    <p>This is the bee that you just saw.</p>\n                    <img src=\"bees-with-color/bee-B2DF.svg\" width=\"200\">\n                    <p><span class=\"greenText\"><b>Successful harvest!</b></span><br>Your pay has increased by $0.02. Your bonus pay is now $0.54.</p>\n            ","response":0,"trial_type":"html-button-response","trial_index":70,"time_elapsed":227073,"internal_node_id":"0.0-4.0-1.31","subject_id":"55ec13017480920010aaa35d","study_id":"60edd13110225f80f9f3709b","session_id":"6196c708b8cec23ee24c47ff","condition":"full-information","relevant_dimensions":["antennae","legs"],"bee_group":{"antennae":"A","wings":"X","pattern":"X","legs":"M"},"bonus":0.680000000000001},{"rt":1760,"stimulus":"bees-with-color/bee-A1SF.svg","response":0,"trial_type":"image-button-response","trial_index":71,"time_elapsed":228833,"internal_node_id":"0.0-4.0-0.32","subject_id":"55ec13017480920010aaa35d","study_id":"60edd13110225f80f9f3709b","session_id":"6196c708b8cec23ee24c47ff","condition":"full-information","relevant_dimensions":["antennae","legs"],"bee_group":{"antennae":"A","wings":"X","pattern":"X","legs":"M"},"action":"harvest","summary":"good-harvest","bonus":0.680000000000001},{"rt":898,"stimulus":"\n                    <p><b>Action: <em>harvest</em></b></p>\n                    <p>This is the bee that you just saw.</p>\n                    <img src=\"bees-with-color/bee-A1SF.svg\" width=\"200\">\n                    <p><span class=\"greenText\"><b>Successful harvest!</b></span><br>Your pay has increased by $0.02. Your bonus pay is now $0.56.</p>\n            ","response":0,"trial_type":"html-button-response","trial_index":72,"time_elapsed":229733,"internal_node_id":"0.0-4.0-1.32","subject_id":"55ec13017480920010aaa35d","study_id":"60edd13110225f80f9f3709b","session_id":"6196c708b8cec23ee24c47ff","condition":"full-information","relevant_dimensions":["antennae","legs"],"bee_group":{"antennae":"A","wings":"X","pattern":"X","legs":"M"},"bonus":0.680000000000001},{"rt":3866,"stimulus":"bees-with-color/bee-A1DM.svg","response":1,"trial_type":"image-button-response","trial_index":73,"time_elapsed":233601,"internal_node_id":"0.0-4.0-0.33","subject_id":"55ec13017480920010aaa35d","study_id":"60edd13110225f80f9f3709b","session_id":"6196c708b8cec23ee24c47ff","condition":"full-information","relevant_dimensions":["antennae","legs"],"bee_group":{"antennae":"A","wings":"X","pattern":"X","legs":"M"},"action":"avoid","summary":"good-avoid","bonus":0.680000000000001},{"rt":779,"stimulus":"\n                    <p><b>Action: <em>avoid</em></b></p>\n                    <p>This is the bee that you just saw.</p>\n                    <img src=\"bees-with-color/bee-A1DM.svg\" width=\"200\">\n                    <p><span class=\"greenText\">Good choice!</span>  This bee would have stung you.<br>Your bonus pay is unchanged, and remains at $0.56.</p>\n            ","response":0,"trial_type":"html-button-response","trial_index":74,"time_elapsed":234381,"internal_node_id":"0.0-4.0-1.33","subject_id":"55ec13017480920010aaa35d","study_id":"60edd13110225f80f9f3709b","session_id":"6196c708b8cec23ee24c47ff","condition":"full-information","relevant_dimensions":["antennae","legs"],"bee_group":{"antennae":"A","wings":"X","pattern":"X","legs":"M"},"bonus":0.680000000000001},{"rt":1595,"stimulus":"bees-with-color/bee-A2SF.svg","response":0,"trial_type":"image-button-response","trial_index":75,"time_elapsed":235977,"internal_node_id":"0.0-4.0-0.34","subject_id":"55ec13017480920010aaa35d","study_id":"60edd13110225f80f9f3709b","session_id":"6196c708b8cec23ee24c47ff","condition":"full-information","relevant_dimensions":["antennae","legs"],"bee_group":{"antennae":"A","wings":"X","pattern":"X","legs":"M"},"action":"harvest","summary":"good-harvest","bonus":0.680000000000001},{"rt":663,"stimulus":"\n                    <p><b>Action: <em>harvest</em></b></p>\n                    <p>This is the bee that you just saw.</p>\n                    <img src=\"bees-with-color/bee-A2SF.svg\" width=\"200\">\n                    <p><span class=\"greenText\"><b>Successful harvest!</b></span><br>Your pay has increased by $0.02. Your bonus pay is now $0.58.</p>\n            ","response":0,"trial_type":"html-button-response","trial_index":76,"time_elapsed":236641,"internal_node_id":"0.0-4.0-1.34","subject_id":"55ec13017480920010aaa35d","study_id":"60edd13110225f80f9f3709b","session_id":"6196c708b8cec23ee24c47ff","condition":"full-information","relevant_dimensions":["antennae","legs"],"bee_group":{"antennae":"A","wings":"X","pattern":"X","legs":"M"},"bonus":0.680000000000001},{"rt":1031,"stimulus":"bees-with-color/bee-B1SF.svg","response":0,"trial_type":"image-button-response","trial_index":77,"time_elapsed":237673,"internal_node_id":"0.0-4.0-0.35","subject_id":"55ec13017480920010aaa35d","study_id":"60edd13110225f80f9f3709b","session_id":"6196c708b8cec23ee24c47ff","condition":"full-information","relevant_dimensions":["antennae","legs"],"bee_group":{"antennae":"A","wings":"X","pattern":"X","legs":"M"},"action":"harvest","summary":"good-harvest","bonus":0.680000000000001},{"rt":487,"stimulus":"\n                    <p><b>Action: <em>harvest</em></b></p>\n                    <p>This is the bee that you just saw.</p>\n                    <img src=\"bees-with-color/bee-B1SF.svg\" width=\"200\">\n                    <p><span class=\"greenText\"><b>Successful harvest!</b></span><br>Your pay has increased by $0.02. Your bonus pay is now $0.60.</p>\n            ","response":0,"trial_type":"html-button-response","trial_index":78,"time_elapsed":238161,"internal_node_id":"0.0-4.0-1.35","subject_id":"55ec13017480920010aaa35d","study_id":"60edd13110225f80f9f3709b","session_id":"6196c708b8cec23ee24c47ff","condition":"full-information","relevant_dimensions":["antennae","legs"],"bee_group":{"antennae":"A","wings":"X","pattern":"X","legs":"M"},"bonus":0.680000000000001},{"rt":2299,"stimulus":"bees-with-color/bee-A2SM.svg","response":1,"trial_type":"image-button-response","trial_index":79,"time_elapsed":240460,"internal_node_id":"0.0-4.0-0.36","subject_id":"55ec13017480920010aaa35d","study_id":"60edd13110225f80f9f3709b","session_id":"6196c708b8cec23ee24c47ff","condition":"full-information","relevant_dimensions":["antennae","legs"],"bee_group":{"antennae":"A","wings":"X","pattern":"X","legs":"M"},"action":"avoid","summary":"good-avoid","bonus":0.680000000000001},{"rt":819,"stimulus":"\n                    <p><b>Action: <em>avoid</em></b></p>\n                    <p>This is the bee that you just saw.</p>\n                    <img src=\"bees-with-color/bee-A2SM.svg\" width=\"200\">\n                    <p><span class=\"greenText\">Good choice!</span>  This bee would have stung you.<br>Your bonus pay is unchanged, and remains at $0.60.</p>\n            ","response":0,"trial_type":"html-button-response","trial_index":80,"time_elapsed":241281,"internal_node_id":"0.0-4.0-1.36","subject_id":"55ec13017480920010aaa35d","study_id":"60edd13110225f80f9f3709b","session_id":"6196c708b8cec23ee24c47ff","condition":"full-information","relevant_dimensions":["antennae","legs"],"bee_group":{"antennae":"A","wings":"X","pattern":"X","legs":"M"},"bonus":0.680000000000001},{"rt":1971,"stimulus":"bees-with-color/bee-B1SM.svg","response":0,"trial_type":"image-button-response","trial_index":81,"time_elapsed":243253,"internal_node_id":"0.0-4.0-0.37","subject_id":"55ec13017480920010aaa35d","study_id":"60edd13110225f80f9f3709b","session_id":"6196c708b8cec23ee24c47ff","condition":"full-information","relevant_dimensions":["antennae","legs"],"bee_group":{"antennae":"A","wings":"X","pattern":"X","legs":"M"},"action":"harvest","summary":"good-harvest","bonus":0.680000000000001},{"rt":683,"stimulus":"\n                    <p><b>Action: <em>harvest</em></b></p>\n                    <p>This is the bee that you just saw.</p>\n                    <img src=\"bees-with-color/bee-B1SM.svg\" width=\"200\">\n                    <p><span class=\"greenText\"><b>Successful harvest!</b></span><br>Your pay has increased by $0.02. Your bonus pay is now $0.62.</p>\n            ","response":0,"trial_type":"html-button-response","trial_index":82,"time_elapsed":243936,"internal_node_id":"0.0-4.0-1.37","subject_id":"55ec13017480920010aaa35d","study_id":"60edd13110225f80f9f3709b","session_id":"6196c708b8cec23ee24c47ff","condition":"full-information","relevant_dimensions":["antennae","legs"],"bee_group":{"antennae":"A","wings":"X","pattern":"X","legs":"M"},"bonus":0.680000000000001},{"rt":1056,"stimulus":"bees-with-color/bee-B1DM.svg","response":0,"trial_type":"image-button-response","trial_index":83,"time_elapsed":244993,"internal_node_id":"0.0-4.0-0.38","subject_id":"55ec13017480920010aaa35d","study_id":"60edd13110225f80f9f3709b","session_id":"6196c708b8cec23ee24c47ff","condition":"full-information","relevant_dimensions":["antennae","legs"],"bee_group":{"antennae":"A","wings":"X","pattern":"X","legs":"M"},"action":"harvest","summary":"good-harvest","bonus":0.680000000000001},{"rt":622,"stimulus":"\n                    <p><b>Action: <em>harvest</em></b></p>\n                    <p>This is the bee that you just saw.</p>\n                    <img src=\"bees-with-color/bee-B1DM.svg\" width=\"200\">\n                    <p><span class=\"greenText\"><b>Successful harvest!</b></span><br>Your pay has increased by $0.02. Your bonus pay is now $0.64.</p>\n            ","response":0,"trial_type":"html-button-response","trial_index":84,"time_elapsed":245617,"internal_node_id":"0.0-4.0-1.38","subject_id":"55ec13017480920010aaa35d","study_id":"60edd13110225f80f9f3709b","session_id":"6196c708b8cec23ee24c47ff","condition":"full-information","relevant_dimensions":["antennae","legs"],"bee_group":{"antennae":"A","wings":"X","pattern":"X","legs":"M"},"bonus":0.680000000000001},{"rt":1279,"stimulus":"bees-with-color/bee-A1DF.svg","response":0,"trial_type":"image-button-response","trial_index":85,"time_elapsed":246897,"internal_node_id":"0.0-4.0-0.39","subject_id":"55ec13017480920010aaa35d","study_id":"60edd13110225f80f9f3709b","session_id":"6196c708b8cec23ee24c47ff","condition":"full-information","relevant_dimensions":["antennae","legs"],"bee_group":{"antennae":"A","wings":"X","pattern":"X","legs":"M"},"action":"harvest","summary":"good-harvest","bonus":0.680000000000001},{"rt":747,"stimulus":"\n                    <p><b>Action: <em>harvest</em></b></p>\n                    <p>This is the bee that you just saw.</p>\n                    <img src=\"bees-with-color/bee-A1DF.svg\" width=\"200\">\n                    <p><span class=\"greenText\"><b>Successful harvest!</b></span><br>Your pay has increased by $0.02. Your bonus pay is now $0.66.</p>\n            ","response":0,"trial_type":"html-button-response","trial_index":86,"time_elapsed":247645,"internal_node_id":"0.0-4.0-1.39","subject_id":"55ec13017480920010aaa35d","study_id":"60edd13110225f80f9f3709b","session_id":"6196c708b8cec23ee24c47ff","condition":"full-information","relevant_dimensions":["antennae","legs"],"bee_group":{"antennae":"A","wings":"X","pattern":"X","legs":"M"},"bonus":0.680000000000001},{"rt":1887,"stimulus":"bees-with-color/bee-A2DM.svg","response":1,"trial_type":"image-button-response","trial_index":87,"time_elapsed":249533,"internal_node_id":"0.0-4.0-0.40","subject_id":"55ec13017480920010aaa35d","study_id":"60edd13110225f80f9f3709b","session_id":"6196c708b8cec23ee24c47ff","condition":"full-information","relevant_dimensions":["antennae","legs"],"bee_group":{"antennae":"A","wings":"X","pattern":"X","legs":"M"},"action":"avoid","summary":"good-avoid","bonus":0.680000000000001},{"rt":643,"stimulus":"\n                    <p><b>Action: <em>avoid</em></b></p>\n                    <p>This is the bee that you just saw.</p>\n                    <img src=\"bees-with-color/bee-A2DM.svg\" width=\"200\">\n                    <p><span class=\"greenText\">Good choice!</span>  This bee would have stung you.<br>Your bonus pay is unchanged, and remains at $0.66.</p>\n            ","response":0,"trial_type":"html-button-response","trial_index":88,"time_elapsed":250178,"internal_node_id":"0.0-4.0-1.40","subject_id":"55ec13017480920010aaa35d","study_id":"60edd13110225f80f9f3709b","session_id":"6196c708b8cec23ee24c47ff","condition":"full-information","relevant_dimensions":["antennae","legs"],"bee_group":{"antennae":"A","wings":"X","pattern":"X","legs":"M"},"bonus":0.680000000000001},{"rt":2641,"stimulus":"bees-with-color/bee-A1SM.svg","response":0,"trial_type":"image-button-response","trial_index":89,"time_elapsed":252821,"internal_node_id":"0.0-4.0-0.41","subject_id":"55ec13017480920010aaa35d","study_id":"60edd13110225f80f9f3709b","session_id":"6196c708b8cec23ee24c47ff","condition":"full-information","relevant_dimensions":["antennae","legs"],"bee_group":{"antennae":"A","wings":"X","pattern":"X","legs":"M"},"action":"harvest","summary":"bad-harvest","bonus":0.680000000000001},{"rt":1447,"stimulus":"\n                    <p><b>Action: <em>harvest</em></b></p>\n                    <p>This is the bee that you just saw.</p>\n                    <img src=\"bees-with-color/bee-A1SM.svg\" width=\"200\">\n                    <p><span class=\"redText\">Bad choice, the bee was angry.</span><br><b>You have been stung!</b><br>Your pay has been decreased by $0.10. Your bonus pay is now $0.56.</p>\n            ","response":0,"trial_type":"html-button-response","trial_index":90,"time_elapsed":254269,"internal_node_id":"0.0-4.0-1.41","subject_id":"55ec13017480920010aaa35d","study_id":"60edd13110225f80f9f3709b","session_id":"6196c708b8cec23ee24c47ff","condition":"full-information","relevant_dimensions":["antennae","legs"],"bee_group":{"antennae":"A","wings":"X","pattern":"X","legs":"M"},"bonus":0.680000000000001},{"rt":891,"stimulus":"bees-with-color/bee-B1DF.svg","response":0,"trial_type":"image-button-response","trial_index":91,"time_elapsed":255161,"internal_node_id":"0.0-4.0-0.42","subject_id":"55ec13017480920010aaa35d","study_id":"60edd13110225f80f9f3709b","session_id":"6196c708b8cec23ee24c47ff","condition":"full-information","relevant_dimensions":["antennae","legs"],"bee_group":{"antennae":"A","wings":"X","pattern":"X","legs":"M"},"action":"harvest","summary":"good-harvest","bonus":0.680000000000001},{"rt":519,"stimulus":"\n                    <p><b>Action: <em>harvest</em></b></p>\n                    <p>This is the bee that you just saw.</p>\n                    <img src=\"bees-with-color/bee-B1DF.svg\" width=\"200\">\n                    <p><span class=\"greenText\"><b>Successful harvest!</b></span><br>Your pay has increased by $0.02. Your bonus pay is now $0.58.</p>\n            ","response":0,"trial_type":"html-button-response","trial_index":92,"time_elapsed":255681,"internal_node_id":"0.0-4.0-1.42","subject_id":"55ec13017480920010aaa35d","study_id":"60edd13110225f80f9f3709b","session_id":"6196c708b8cec23ee24c47ff","condition":"full-information","relevant_dimensions":["antennae","legs"],"bee_group":{"antennae":"A","wings":"X","pattern":"X","legs":"M"},"bonus":0.680000000000001},{"rt":899,"stimulus":"bees-with-color/bee-B2SF.svg","response":0,"trial_type":"image-button-response","trial_index":93,"time_elapsed":256581,"internal_node_id":"0.0-4.0-0.43","subject_id":"55ec13017480920010aaa35d","study_id":"60edd13110225f80f9f3709b","session_id":"6196c708b8cec23ee24c47ff","condition":"full-information","relevant_dimensions":["antennae","legs"],"bee_group":{"antennae":"A","wings":"X","pattern":"X","legs":"M"},"action":"harvest","summary":"good-harvest","bonus":0.680000000000001},{"rt":514,"stimulus":"\n                    <p><b>Action: <em>harvest</em></b></p>\n                    <p>This is the bee that you just saw.</p>\n                    <img src=\"bees-with-color/bee-B2SF.svg\" width=\"200\">\n                    <p><span class=\"greenText\"><b>Successful harvest!</b></span><br>Your pay has increased by $0.02. Your bonus pay is now $0.60.</p>\n            ","response":0,"trial_type":"html-button-response","trial_index":94,"time_elapsed":257097,"internal_node_id":"0.0-4.0-1.43","subject_id":"55ec13017480920010aaa35d","study_id":"60edd13110225f80f9f3709b","session_id":"6196c708b8cec23ee24c47ff","condition":"full-information","relevant_dimensions":["antennae","legs"],"bee_group":{"antennae":"A","wings":"X","pattern":"X","legs":"M"},"bonus":0.680000000000001},{"rt":963,"stimulus":"bees-with-color/bee-B2DF.svg","response":0,"trial_type":"image-button-response","trial_index":95,"time_elapsed":258061,"internal_node_id":"0.0-4.0-0.44","subject_id":"55ec13017480920010aaa35d","study_id":"60edd13110225f80f9f3709b","session_id":"6196c708b8cec23ee24c47ff","condition":"full-information","relevant_dimensions":["antennae","legs"],"bee_group":{"antennae":"A","wings":"X","pattern":"X","legs":"M"},"action":"harvest","summary":"good-harvest","bonus":0.680000000000001},{"rt":530,"stimulus":"\n                    <p><b>Action: <em>harvest</em></b></p>\n                    <p>This is the bee that you just saw.</p>\n                    <img src=\"bees-with-color/bee-B2DF.svg\" width=\"200\">\n                    <p><span class=\"greenText\"><b>Successful harvest!</b></span><br>Your pay has increased by $0.02. Your bonus pay is now $0.62.</p>\n            ","response":0,"trial_type":"html-button-response","trial_index":96,"time_elapsed":258593,"internal_node_id":"0.0-4.0-1.44","subject_id":"55ec13017480920010aaa35d","study_id":"60edd13110225f80f9f3709b","session_id":"6196c708b8cec23ee24c47ff","condition":"full-information","relevant_dimensions":["antennae","legs"],"bee_group":{"antennae":"A","wings":"X","pattern":"X","legs":"M"},"bonus":0.680000000000001},{"rt":1187,"stimulus":"bees-with-color/bee-A2DF.svg","response":0,"trial_type":"image-button-response","trial_index":97,"time_elapsed":259782,"internal_node_id":"0.0-4.0-0.45","subject_id":"55ec13017480920010aaa35d","study_id":"60edd13110225f80f9f3709b","session_id":"6196c708b8cec23ee24c47ff","condition":"full-information","relevant_dimensions":["antennae","legs"],"bee_group":{"antennae":"A","wings":"X","pattern":"X","legs":"M"},"action":"harvest","summary":"good-harvest","bonus":0.680000000000001},{"rt":655,"stimulus":"\n                    <p><b>Action: <em>harvest</em></b></p>\n                    <p>This is the bee that you just saw.</p>\n                    <img src=\"bees-with-color/bee-A2DF.svg\" width=\"200\">\n                    <p><span class=\"greenText\"><b>Successful harvest!</b></span><br>Your pay has increased by $0.02. Your bonus pay is now $0.64.</p>\n            ","response":0,"trial_type":"html-button-response","trial_index":98,"time_elapsed":260436,"internal_node_id":"0.0-4.0-1.45","subject_id":"55ec13017480920010aaa35d","study_id":"60edd13110225f80f9f3709b","session_id":"6196c708b8cec23ee24c47ff","condition":"full-information","relevant_dimensions":["antennae","legs"],"bee_group":{"antennae":"A","wings":"X","pattern":"X","legs":"M"},"bonus":0.680000000000001},{"rt":1935,"stimulus":"bees-with-color/bee-B2DM.svg","response":0,"trial_type":"image-button-response","trial_index":99,"time_elapsed":262373,"internal_node_id":"0.0-4.0-0.46","subject_id":"55ec13017480920010aaa35d","study_id":"60edd13110225f80f9f3709b","session_id":"6196c708b8cec23ee24c47ff","condition":"full-information","relevant_dimensions":["antennae","legs"],"bee_group":{"antennae":"A","wings":"X","pattern":"X","legs":"M"},"action":"harvest","summary":"good-harvest","bonus":0.680000000000001},{"rt":659,"stimulus":"\n                    <p><b>Action: <em>harvest</em></b></p>\n                    <p>This is the bee that you just saw.</p>\n                    <img src=\"bees-with-color/bee-B2DM.svg\" width=\"200\">\n                    <p><span class=\"greenText\"><b>Successful harvest!</b></span><br>Your pay has increased by $0.02. Your bonus pay is now $0.66.</p>\n            ","response":0,"trial_type":"html-button-response","trial_index":100,"time_elapsed":263033,"internal_node_id":"0.0-4.0-1.46","subject_id":"55ec13017480920010aaa35d","study_id":"60edd13110225f80f9f3709b","session_id":"6196c708b8cec23ee24c47ff","condition":"full-information","relevant_dimensions":["antennae","legs"],"bee_group":{"antennae":"A","wings":"X","pattern":"X","legs":"M"},"bonus":0.680000000000001},{"rt":1379,"stimulus":"bees-with-color/bee-B2SM.svg","response":0,"trial_type":"image-button-response","trial_index":101,"time_elapsed":264414,"internal_node_id":"0.0-4.0-0.47","subject_id":"55ec13017480920010aaa35d","study_id":"60edd13110225f80f9f3709b","session_id":"6196c708b8cec23ee24c47ff","condition":"full-information","relevant_dimensions":["antennae","legs"],"bee_group":{"antennae":"A","wings":"X","pattern":"X","legs":"M"},"action":"harvest","summary":"good-harvest","bonus":0.680000000000001},{"rt":559,"stimulus":"\n                    <p><b>Action: <em>harvest</em></b></p>\n                    <p>This is the bee that you just saw.</p>\n                    <img src=\"bees-with-color/bee-B2SM.svg\" width=\"200\">\n                    <p><span class=\"greenText\"><b>Successful harvest!</b></span><br>Your pay has increased by $0.02. Your bonus pay is now $0.68.</p>\n            ","response":0,"trial_type":"html-button-response","trial_index":102,"time_elapsed":264973,"internal_node_id":"0.0-4.0-1.47","subject_id":"55ec13017480920010aaa35d","study_id":"60edd13110225f80f9f3709b","session_id":"6196c708b8cec23ee24c47ff","condition":"full-information","relevant_dimensions":["antennae","legs"],"bee_group":{"antennae":"A","wings":"X","pattern":"X","legs":"M"},"bonus":0.680000000000001},{"rt":1643,"stimulus":"bees-with-color/bee-A2SF.svg","response":0,"trial_type":"image-button-response","trial_index":103,"time_elapsed":266617,"internal_node_id":"0.0-4.0-0.48","subject_id":"55ec13017480920010aaa35d","study_id":"60edd13110225f80f9f3709b","session_id":"6196c708b8cec23ee24c47ff","condition":"full-information","relevant_dimensions":["antennae","legs"],"bee_group":{"antennae":"A","wings":"X","pattern":"X","legs":"M"},"action":"harvest","summary":"good-harvest","bonus":0.680000000000001},{"rt":799,"stimulus":"\n                    <p><b>Action: <em>harvest</em></b></p>\n                    <p>This is the bee that you just saw.</p>\n                    <img src=\"bees-with-color/bee-A2SF.svg\" width=\"200\">\n                    <p><span class=\"greenText\"><b>Successful harvest!</b></span><br>Your pay has increased by $0.02. Your bonus pay is now $0.70.</p>\n            ","response":0,"trial_type":"html-button-response","trial_index":104,"time_elapsed":267417,"internal_node_id":"0.0-4.0-1.48","subject_id":"55ec13017480920010aaa35d","study_id":"60edd13110225f80f9f3709b","session_id":"6196c708b8cec23ee24c47ff","condition":"full-information","relevant_dimensions":["antennae","legs"],"bee_group":{"antennae":"A","wings":"X","pattern":"X","legs":"M"},"bonus":0.680000000000001},{"rt":999,"stimulus":"bees-with-color/bee-B1DF.svg","response":0,"trial_type":"image-button-response","trial_index":105,"time_elapsed":268417,"internal_node_id":"0.0-4.0-0.49","subject_id":"55ec13017480920010aaa35d","study_id":"60edd13110225f80f9f3709b","session_id":"6196c708b8cec23ee24c47ff","condition":"full-information","relevant_dimensions":["antennae","legs"],"bee_group":{"antennae":"A","wings":"X","pattern":"X","legs":"M"},"action":"harvest","summary":"good-harvest","bonus":0.680000000000001},{"rt":579,"stimulus":"\n                    <p><b>Action: <em>harvest</em></b></p>\n                    <p>This is the bee that you just saw.</p>\n                    <img src=\"bees-with-color/bee-B1DF.svg\" width=\"200\">\n                    <p><span class=\"greenText\"><b>Successful harvest!</b></span><br>Your pay has increased by $0.02. Your bonus pay is now $0.72.</p>\n            ","response":0,"trial_type":"html-button-response","trial_index":106,"time_elapsed":268997,"internal_node_id":"0.0-4.0-1.49","subject_id":"55ec13017480920010aaa35d","study_id":"60edd13110225f80f9f3709b","session_id":"6196c708b8cec23ee24c47ff","condition":"full-information","relevant_dimensions":["antennae","legs"],"bee_group":{"antennae":"A","wings":"X","pattern":"X","legs":"M"},"bonus":0.680000000000001},{"rt":1127,"stimulus":"bees-with-color/bee-B2SF.svg","response":0,"trial_type":"image-button-response","trial_index":107,"time_elapsed":270125,"internal_node_id":"0.0-4.0-0.50","subject_id":"55ec13017480920010aaa35d","study_id":"60edd13110225f80f9f3709b","session_id":"6196c708b8cec23ee24c47ff","condition":"full-information","relevant_dimensions":["antennae","legs"],"bee_group":{"antennae":"A","wings":"X","pattern":"X","legs":"M"},"action":"harvest","summary":"good-harvest","bonus":0.680000000000001},{"rt":527,"stimulus":"\n                    <p><b>Action: <em>harvest</em></b></p>\n                    <p>This is the bee that you just saw.</p>\n                    <img src=\"bees-with-color/bee-B2SF.svg\" width=\"200\">\n                    <p><span class=\"greenText\"><b>Successful harvest!</b></span><br>Your pay has increased by $0.02. Your bonus pay is now $0.74.</p>\n            ","response":0,"trial_type":"html-button-response","trial_index":108,"time_elapsed":270653,"internal_node_id":"0.0-4.0-1.50","subject_id":"55ec13017480920010aaa35d","study_id":"60edd13110225f80f9f3709b","session_id":"6196c708b8cec23ee24c47ff","condition":"full-information","relevant_dimensions":["antennae","legs"],"bee_group":{"antennae":"A","wings":"X","pattern":"X","legs":"M"},"bonus":0.680000000000001},{"rt":1072,"stimulus":"bees-with-color/bee-B1SM.svg","response":0,"trial_type":"image-button-response","trial_index":109,"time_elapsed":271725,"internal_node_id":"0.0-4.0-0.51","subject_id":"55ec13017480920010aaa35d","study_id":"60edd13110225f80f9f3709b","session_id":"6196c708b8cec23ee24c47ff","condition":"full-information","relevant_dimensions":["antennae","legs"],"bee_group":{"antennae":"A","wings":"X","pattern":"X","legs":"M"},"action":"harvest","summary":"good-harvest","bonus":0.680000000000001},{"rt":511,"stimulus":"\n                    <p><b>Action: <em>harvest</em></b></p>\n                    <p>This is the bee that you just saw.</p>\n                    <img src=\"bees-with-color/bee-B1SM.svg\" width=\"200\">\n                    <p><span class=\"greenText\"><b>Successful harvest!</b></span><br>Your pay has increased by $0.02. Your bonus pay is now $0.76.</p>\n            ","response":0,"trial_type":"html-button-response","trial_index":110,"time_elapsed":272237,"internal_node_id":"0.0-4.0-1.51","subject_id":"55ec13017480920010aaa35d","study_id":"60edd13110225f80f9f3709b","session_id":"6196c708b8cec23ee24c47ff","condition":"full-information","relevant_dimensions":["antennae","legs"],"bee_group":{"antennae":"A","wings":"X","pattern":"X","legs":"M"},"bonus":0.680000000000001},{"rt":1116,"stimulus":"bees-with-color/bee-A1SF.svg","response":0,"trial_type":"image-button-response","trial_index":111,"time_elapsed":273353,"internal_node_id":"0.0-4.0-0.52","subject_id":"55ec13017480920010aaa35d","study_id":"60edd13110225f80f9f3709b","session_id":"6196c708b8cec23ee24c47ff","condition":"full-information","relevant_dimensions":["antennae","legs"],"bee_group":{"antennae":"A","wings":"X","pattern":"X","legs":"M"},"action":"harvest","summary":"good-harvest","bonus":0.680000000000001},{"rt":852,"stimulus":"\n                    <p><b>Action: <em>harvest</em></b></p>\n                    <p>This is the bee that you just saw.</p>\n                    <img src=\"bees-with-color/bee-A1SF.svg\" width=\"200\">\n                    <p><span class=\"greenText\"><b>Successful harvest!</b></span><br>Your pay has increased by $0.02. Your bonus pay is now $0.78.</p>\n            ","response":0,"trial_type":"html-button-response","trial_index":112,"time_elapsed":274205,"internal_node_id":"0.0-4.0-1.52","subject_id":"55ec13017480920010aaa35d","study_id":"60edd13110225f80f9f3709b","session_id":"6196c708b8cec23ee24c47ff","condition":"full-information","relevant_dimensions":["antennae","legs"],"bee_group":{"antennae":"A","wings":"X","pattern":"X","legs":"M"},"bonus":0.680000000000001},{"rt":1411,"stimulus":"bees-with-color/bee-A2DM.svg","response":1,"trial_type":"image-button-response","trial_index":113,"time_elapsed":275617,"internal_node_id":"0.0-4.0-0.53","subject_id":"55ec13017480920010aaa35d","study_id":"60edd13110225f80f9f3709b","session_id":"6196c708b8cec23ee24c47ff","condition":"full-information","relevant_dimensions":["antennae","legs"],"bee_group":{"antennae":"A","wings":"X","pattern":"X","legs":"M"},"action":"avoid","summary":"good-avoid","bonus":0.680000000000001},{"rt":798,"stimulus":"\n                    <p><b>Action: <em>avoid</em></b></p>\n                    <p>This is the bee that you just saw.</p>\n                    <img src=\"bees-with-color/bee-A2DM.svg\" width=\"200\">\n                    <p><span class=\"greenText\">Good choice!</span>  This bee would have stung you.<br>Your bonus pay is unchanged, and remains at $0.78.</p>\n            ","response":0,"trial_type":"html-button-response","trial_index":114,"time_elapsed":276416,"internal_node_id":"0.0-4.0-1.53","subject_id":"55ec13017480920010aaa35d","study_id":"60edd13110225f80f9f3709b","session_id":"6196c708b8cec23ee24c47ff","condition":"full-information","relevant_dimensions":["antennae","legs"],"bee_group":{"antennae":"A","wings":"X","pattern":"X","legs":"M"},"bonus":0.680000000000001},{"rt":1647,"stimulus":"bees-with-color/bee-A2SM.svg","response":1,"trial_type":"image-button-response","trial_index":115,"time_elapsed":278066,"internal_node_id":"0.0-4.0-0.54","subject_id":"55ec13017480920010aaa35d","study_id":"60edd13110225f80f9f3709b","session_id":"6196c708b8cec23ee24c47ff","condition":"full-information","relevant_dimensions":["antennae","legs"],"bee_group":{"antennae":"A","wings":"X","pattern":"X","legs":"M"},"action":"avoid","summary":"good-avoid","bonus":0.680000000000001},{"rt":587,"stimulus":"\n                    <p><b>Action: <em>avoid</em></b></p>\n                    <p>This is the bee that you just saw.</p>\n                    <img src=\"bees-with-color/bee-A2SM.svg\" width=\"200\">\n                    <p><span class=\"greenText\">Good choice!</span>  This bee would have stung you.<br>Your bonus pay is unchanged, and remains at $0.78.</p>\n            ","response":0,"trial_type":"html-button-response","trial_index":116,"time_elapsed":278653,"internal_node_id":"0.0-4.0-1.54","subject_id":"55ec13017480920010aaa35d","study_id":"60edd13110225f80f9f3709b","session_id":"6196c708b8cec23ee24c47ff","condition":"full-information","relevant_dimensions":["antennae","legs"],"bee_group":{"antennae":"A","wings":"X","pattern":"X","legs":"M"},"bonus":0.680000000000001},{"rt":1152,"stimulus":"bees-with-color/bee-B2DM.svg","response":0,"trial_type":"image-button-response","trial_index":117,"time_elapsed":279805,"internal_node_id":"0.0-4.0-0.55","subject_id":"55ec13017480920010aaa35d","study_id":"60edd13110225f80f9f3709b","session_id":"6196c708b8cec23ee24c47ff","condition":"full-information","relevant_dimensions":["antennae","legs"],"bee_group":{"antennae":"A","wings":"X","pattern":"X","legs":"M"},"action":"harvest","summary":"good-harvest","bonus":0.680000000000001},{"rt":611,"stimulus":"\n                    <p><b>Action: <em>harvest</em></b></p>\n                    <p>This is the bee that you just saw.</p>\n                    <img src=\"bees-with-color/bee-B2DM.svg\" width=\"200\">\n                    <p><span class=\"greenText\"><b>Successful harvest!</b></span><br>Your pay has increased by $0.02. Your bonus pay is now $0.80.</p>\n            ","response":0,"trial_type":"html-button-response","trial_index":118,"time_elapsed":280417,"internal_node_id":"0.0-4.0-1.55","subject_id":"55ec13017480920010aaa35d","study_id":"60edd13110225f80f9f3709b","session_id":"6196c708b8cec23ee24c47ff","condition":"full-information","relevant_dimensions":["antennae","legs"],"bee_group":{"antennae":"A","wings":"X","pattern":"X","legs":"M"},"bonus":0.680000000000001},{"rt":627,"stimulus":"bees-with-color/bee-B1DM.svg","response":0,"trial_type":"image-button-response","trial_index":119,"time_elapsed":281045,"internal_node_id":"0.0-4.0-0.56","subject_id":"55ec13017480920010aaa35d","study_id":"60edd13110225f80f9f3709b","session_id":"6196c708b8cec23ee24c47ff","condition":"full-information","relevant_dimensions":["antennae","legs"],"bee_group":{"antennae":"A","wings":"X","pattern":"X","legs":"M"},"action":"harvest","summary":"good-harvest","bonus":0.680000000000001},{"rt":487,"stimulus":"\n                    <p><b>Action: <em>harvest</em></b></p>\n                    <p>This is the bee that you just saw.</p>\n                    <img src=\"bees-with-color/bee-B1DM.svg\" width=\"200\">\n                    <p><span class=\"greenText\"><b>Successful harvest!</b></span><br>Your pay has increased by $0.02. Your bonus pay is now $0.82.</p>\n            ","response":0,"trial_type":"html-button-response","trial_index":120,"time_elapsed":281532,"internal_node_id":"0.0-4.0-1.56","subject_id":"55ec13017480920010aaa35d","study_id":"60edd13110225f80f9f3709b","session_id":"6196c708b8cec23ee24c47ff","condition":"full-information","relevant_dimensions":["antennae","legs"],"bee_group":{"antennae":"A","wings":"X","pattern":"X","legs":"M"},"bonus":0.680000000000001},{"rt":2107,"stimulus":"bees-with-color/bee-A1DM.svg","response":0,"trial_type":"image-button-response","trial_index":121,"time_elapsed":283641,"internal_node_id":"0.0-4.0-0.57","subject_id":"55ec13017480920010aaa35d","study_id":"60edd13110225f80f9f3709b","session_id":"6196c708b8cec23ee24c47ff","condition":"full-information","relevant_dimensions":["antennae","legs"],"bee_group":{"antennae":"A","wings":"X","pattern":"X","legs":"M"},"action":"harvest","summary":"bad-harvest","bonus":0.680000000000001},{"rt":927,"stimulus":"\n                    <p><b>Action: <em>harvest</em></b></p>\n                    <p>This is the bee that you just saw.</p>\n                    <img src=\"bees-with-color/bee-A1DM.svg\" width=\"200\">\n                    <p><span class=\"redText\">Bad choice, the bee was angry.</span><br><b>You have been stung!</b><br>Your pay has been decreased by $0.10. Your bonus pay is now $0.72.</p>\n            ","response":0,"trial_type":"html-button-response","trial_index":122,"time_elapsed":284568,"internal_node_id":"0.0-4.0-1.57","subject_id":"55ec13017480920010aaa35d","study_id":"60edd13110225f80f9f3709b","session_id":"6196c708b8cec23ee24c47ff","condition":"full-information","relevant_dimensions":["antennae","legs"],"bee_group":{"antennae":"A","wings":"X","pattern":"X","legs":"M"},"bonus":0.680000000000001},{"rt":1148,"stimulus":"bees-with-color/bee-A1DF.svg","response":0,"trial_type":"image-button-response","trial_index":123,"time_elapsed":285717,"internal_node_id":"0.0-4.0-0.58","subject_id":"55ec13017480920010aaa35d","study_id":"60edd13110225f80f9f3709b","session_id":"6196c708b8cec23ee24c47ff","condition":"full-information","relevant_dimensions":["antennae","legs"],"bee_group":{"antennae":"A","wings":"X","pattern":"X","legs":"M"},"action":"harvest","summary":"good-harvest","bonus":0.680000000000001},{"rt":554,"stimulus":"\n                    <p><b>Action: <em>harvest</em></b></p>\n                    <p>This is the bee that you just saw.</p>\n                    <img src=\"bees-with-color/bee-A1DF.svg\" width=\"200\">\n                    <p><span class=\"greenText\"><b>Successful harvest!</b></span><br>Your pay has increased by $0.02. Your bonus pay is now $0.74.</p>\n            ","response":0,"trial_type":"html-button-response","trial_index":124,"time_elapsed":286273,"internal_node_id":"0.0-4.0-1.58","subject_id":"55ec13017480920010aaa35d","study_id":"60edd13110225f80f9f3709b","session_id":"6196c708b8cec23ee24c47ff","condition":"full-information","relevant_dimensions":["antennae","legs"],"bee_group":{"antennae":"A","wings":"X","pattern":"X","legs":"M"},"bonus":0.680000000000001},{"rt":1139,"stimulus":"bees-with-color/bee-B2DF.svg","response":0,"trial_type":"image-button-response","trial_index":125,"time_elapsed":287413,"internal_node_id":"0.0-4.0-0.59","subject_id":"55ec13017480920010aaa35d","study_id":"60edd13110225f80f9f3709b","session_id":"6196c708b8cec23ee24c47ff","condition":"full-information","relevant_dimensions":["antennae","legs"],"bee_group":{"antennae":"A","wings":"X","pattern":"X","legs":"M"},"action":"harvest","summary":"good-harvest","bonus":0.680000000000001},{"rt":479,"stimulus":"\n                    <p><b>Action: <em>harvest</em></b></p>\n                    <p>This is the bee that you just saw.</p>\n                    <img src=\"bees-with-color/bee-B2DF.svg\" width=\"200\">\n                    <p><span class=\"greenText\"><b>Successful harvest!</b></span><br>Your pay has increased by $0.02. Your bonus pay is now $0.76.</p>\n            ","response":0,"trial_type":"html-button-response","trial_index":126,"time_elapsed":287893,"internal_node_id":"0.0-4.0-1.59","subject_id":"55ec13017480920010aaa35d","study_id":"60edd13110225f80f9f3709b","session_id":"6196c708b8cec23ee24c47ff","condition":"full-information","relevant_dimensions":["antennae","legs"],"bee_group":{"antennae":"A","wings":"X","pattern":"X","legs":"M"},"bonus":0.680000000000001},{"rt":943,"stimulus":"bees-with-color/bee-A2DF.svg","response":0,"trial_type":"image-button-response","trial_index":127,"time_elapsed":288837,"internal_node_id":"0.0-4.0-0.60","subject_id":"55ec13017480920010aaa35d","study_id":"60edd13110225f80f9f3709b","session_id":"6196c708b8cec23ee24c47ff","condition":"full-information","relevant_dimensions":["antennae","legs"],"bee_group":{"antennae":"A","wings":"X","pattern":"X","legs":"M"},"action":"harvest","summary":"good-harvest","bonus":0.680000000000001},{"rt":526,"stimulus":"\n                    <p><b>Action: <em>harvest</em></b></p>\n                    <p>This is the bee that you just saw.</p>\n                    <img src=\"bees-with-color/bee-A2DF.svg\" width=\"200\">\n                    <p><span class=\"greenText\"><b>Successful harvest!</b></span><br>Your pay has increased by $0.02. Your bonus pay is now $0.78.</p>\n            ","response":0,"trial_type":"html-button-response","trial_index":128,"time_elapsed":289365,"internal_node_id":"0.0-4.0-1.60","subject_id":"55ec13017480920010aaa35d","study_id":"60edd13110225f80f9f3709b","session_id":"6196c708b8cec23ee24c47ff","condition":"full-information","relevant_dimensions":["antennae","legs"],"bee_group":{"antennae":"A","wings":"X","pattern":"X","legs":"M"},"bonus":0.680000000000001},{"rt":1451,"stimulus":"bees-with-color/bee-A1SM.svg","response":0,"trial_type":"image-button-response","trial_index":129,"time_elapsed":290817,"internal_node_id":"0.0-4.0-0.61","subject_id":"55ec13017480920010aaa35d","study_id":"60edd13110225f80f9f3709b","session_id":"6196c708b8cec23ee24c47ff","condition":"full-information","relevant_dimensions":["antennae","legs"],"bee_group":{"antennae":"A","wings":"X","pattern":"X","legs":"M"},"action":"harvest","summary":"bad-harvest","bonus":0.680000000000001},{"rt":930,"stimulus":"\n                    <p><b>Action: <em>harvest</em></b></p>\n                    <p>This is the bee that you just saw.</p>\n                    <img src=\"bees-with-color/bee-A1SM.svg\" width=\"200\">\n                    <p><span class=\"redText\">Bad choice, the bee was angry.</span><br><b>You have been stung!</b><br>Your pay has been decreased by $0.10. Your bonus pay is now $0.68.</p>\n            ","response":0,"trial_type":"html-button-response","trial_index":130,"time_elapsed":291749,"internal_node_id":"0.0-4.0-1.61","subject_id":"55ec13017480920010aaa35d","study_id":"60edd13110225f80f9f3709b","session_id":"6196c708b8cec23ee24c47ff","condition":"full-information","relevant_dimensions":["antennae","legs"],"bee_group":{"antennae":"A","wings":"X","pattern":"X","legs":"M"},"bonus":0.680000000000001},{"rt":1071,"stimulus":"bees-with-color/bee-B2SM.svg","response":0,"trial_type":"image-button-response","trial_index":131,"time_elapsed":292821,"internal_node_id":"0.0-4.0-0.62","subject_id":"55ec13017480920010aaa35d","study_id":"60edd13110225f80f9f3709b","session_id":"6196c708b8cec23ee24c47ff","condition":"full-information","relevant_dimensions":["antennae","legs"],"bee_group":{"antennae":"A","wings":"X","pattern":"X","legs":"M"},"action":"harvest","summary":"good-harvest","bonus":0.680000000000001},{"rt":511,"stimulus":"\n                    <p><b>Action: <em>harvest</em></b></p>\n                    <p>This is the bee that you just saw.</p>\n                    <img src=\"bees-with-color/bee-B2SM.svg\" width=\"200\">\n                    <p><span class=\"greenText\"><b>Successful harvest!</b></span><br>Your pay has increased by $0.02. Your bonus pay is now $0.70.</p>\n            ","response":0,"trial_type":"html-button-response","trial_index":132,"time_elapsed":293333,"internal_node_id":"0.0-4.0-1.62","subject_id":"55ec13017480920010aaa35d","study_id":"60edd13110225f80f9f3709b","session_id":"6196c708b8cec23ee24c47ff","condition":"full-information","relevant_dimensions":["antennae","legs"],"bee_group":{"antennae":"A","wings":"X","pattern":"X","legs":"M"},"bonus":0.680000000000001},{"rt":694,"stimulus":"bees-with-color/bee-B1SF.svg","response":0,"trial_type":"image-button-response","trial_index":133,"time_elapsed":294029,"internal_node_id":"0.0-4.0-0.63","subject_id":"55ec13017480920010aaa35d","study_id":"60edd13110225f80f9f3709b","session_id":"6196c708b8cec23ee24c47ff","condition":"full-information","relevant_dimensions":["antennae","legs"],"bee_group":{"antennae":"A","wings":"X","pattern":"X","legs":"M"},"action":"harvest","summary":"good-harvest","bonus":0.680000000000001},{"rt":415,"stimulus":"\n                    <p><b>Action: <em>harvest</em></b></p>\n                    <p>This is the bee that you just saw.</p>\n                    <img src=\"bees-with-color/bee-B1SF.svg\" width=\"200\">\n                    <p><span class=\"greenText\"><b>Successful harvest!</b></span><br>Your pay has increased by $0.02. Your bonus pay is now $0.72.</p>\n            ","response":0,"trial_type":"html-button-response","trial_index":134,"time_elapsed":294445,"internal_node_id":"0.0-4.0-1.63","subject_id":"55ec13017480920010aaa35d","study_id":"60edd13110225f80f9f3709b","session_id":"6196c708b8cec23ee24c47ff","condition":"full-information","relevant_dimensions":["antennae","legs"],"bee_group":{"antennae":"A","wings":"X","pattern":"X","legs":"M"},"bonus":0.680000000000001},{"rt":5535,"stimulus":"You have completed the first part of this experiment.<br><br>You will now begin a shorter second part, in which you will receive no feedback.<br>The same rules regarding bonus pay apply.<br><br>Press any key to begin.","response":"s","trial_type":"html-keyboard-response","trial_index":135,"time_elapsed":299980,"internal_node_id":"0.0-5.0","subject_id":"55ec13017480920010aaa35d","study_id":"60edd13110225f80f9f3709b","session_id":"6196c708b8cec23ee24c47ff","condition":"full-information","relevant_dimensions":["antennae","legs"],"bee_group":{"antennae":"A","wings":"X","pattern":"X","legs":"M"},"bonus":0.680000000000001},{"rt":2459,"stimulus":"bees-with-color/bee-B2DM.svg","response":0,"trial_type":"image-button-response","trial_index":136,"time_elapsed":302441,"internal_node_id":"0.0-6.0-0.0","subject_id":"55ec13017480920010aaa35d","study_id":"60edd13110225f80f9f3709b","session_id":"6196c708b8cec23ee24c47ff","condition":"full-information","relevant_dimensions":["antennae","legs"],"bee_group":{"antennae":"A","wings":"X","pattern":"X","legs":"M"},"bonus":0.680000000000001},{"rt":2426,"stimulus":"bees-with-color/bee-A1DM.svg","response":0,"trial_type":"image-button-response","trial_index":137,"time_elapsed":304868,"internal_node_id":"0.0-6.0-0.1","subject_id":"55ec13017480920010aaa35d","study_id":"60edd13110225f80f9f3709b","session_id":"6196c708b8cec23ee24c47ff","condition":"full-information","relevant_dimensions":["antennae","legs"],"bee_group":{"antennae":"A","wings":"X","pattern":"X","legs":"M"},"bonus":0.680000000000001},{"rt":863,"stimulus":"bees-with-color/bee-A2DF.svg","response":1,"trial_type":"image-button-response","trial_index":138,"time_elapsed":305732,"internal_node_id":"0.0-6.0-0.2","subject_id":"55ec13017480920010aaa35d","study_id":"60edd13110225f80f9f3709b","session_id":"6196c708b8cec23ee24c47ff","condition":"full-information","relevant_dimensions":["antennae","legs"],"bee_group":{"antennae":"A","wings":"X","pattern":"X","legs":"M"},"bonus":0.680000000000001},{"rt":972,"stimulus":"bees-with-color/bee-A1SF.svg","response":0,"trial_type":"image-button-response","trial_index":139,"time_elapsed":306706,"internal_node_id":"0.0-6.0-0.3","subject_id":"55ec13017480920010aaa35d","study_id":"60edd13110225f80f9f3709b","session_id":"6196c708b8cec23ee24c47ff","condition":"full-information","relevant_dimensions":["antennae","legs"],"bee_group":{"antennae":"A","wings":"X","pattern":"X","legs":"M"},"bonus":0.680000000000001},{"rt":590,"stimulus":"bees-with-color/bee-B2SF.svg","response":1,"trial_type":"image-button-response","trial_index":140,"time_elapsed":307297,"internal_node_id":"0.0-6.0-0.4","subject_id":"55ec13017480920010aaa35d","study_id":"60edd13110225f80f9f3709b","session_id":"6196c708b8cec23ee24c47ff","condition":"full-information","relevant_dimensions":["antennae","legs"],"bee_group":{"antennae":"A","wings":"X","pattern":"X","legs":"M"},"bonus":0.680000000000001},{"rt":2817,"stimulus":"bees-with-color/bee-A1SM.svg","response":1,"trial_type":"image-button-response","trial_index":141,"time_elapsed":310116,"internal_node_id":"0.0-6.0-0.5","subject_id":"55ec13017480920010aaa35d","study_id":"60edd13110225f80f9f3709b","session_id":"6196c708b8cec23ee24c47ff","condition":"full-information","relevant_dimensions":["antennae","legs"],"bee_group":{"antennae":"A","wings":"X","pattern":"X","legs":"M"},"bonus":0.680000000000001},{"rt":407,"stimulus":"bees-with-color/bee-A2SF.svg","response":1,"trial_type":"image-button-response","trial_index":142,"time_elapsed":310525,"internal_node_id":"0.0-6.0-0.6","subject_id":"55ec13017480920010aaa35d","study_id":"60edd13110225f80f9f3709b","session_id":"6196c708b8cec23ee24c47ff","condition":"full-information","relevant_dimensions":["antennae","legs"],"bee_group":{"antennae":"A","wings":"X","pattern":"X","legs":"M"},"bonus":0.680000000000001},{"rt":463,"stimulus":"bees-with-color/bee-B1DF.svg","response":1,"trial_type":"image-button-response","trial_index":143,"time_elapsed":310989,"internal_node_id":"0.0-6.0-0.7","subject_id":"55ec13017480920010aaa35d","study_id":"60edd13110225f80f9f3709b","session_id":"6196c708b8cec23ee24c47ff","condition":"full-information","relevant_dimensions":["antennae","legs"],"bee_group":{"antennae":"A","wings":"X","pattern":"X","legs":"M"},"bonus":0.680000000000001},{"rt":244,"stimulus":"bees-with-color/bee-B2SM.svg","response":1,"trial_type":"image-button-response","trial_index":144,"time_elapsed":311233,"internal_node_id":"0.0-6.0-0.8","subject_id":"55ec13017480920010aaa35d","study_id":"60edd13110225f80f9f3709b","session_id":"6196c708b8cec23ee24c47ff","condition":"full-information","relevant_dimensions":["antennae","legs"],"bee_group":{"antennae":"A","wings":"X","pattern":"X","legs":"M"},"bonus":0.680000000000001},{"rt":207,"stimulus":"bees-with-color/bee-B1DM.svg","response":1,"trial_type":"image-button-response","trial_index":145,"time_elapsed":311441,"internal_node_id":"0.0-6.0-0.9","subject_id":"55ec13017480920010aaa35d","study_id":"60edd13110225f80f9f3709b","session_id":"6196c708b8cec23ee24c47ff","condition":"full-information","relevant_dimensions":["antennae","legs"],"bee_group":{"antennae":"A","wings":"X","pattern":"X","legs":"M"},"bonus":0.680000000000001},{"rt":251,"stimulus":"bees-with-color/bee-A1DF.svg","response":1,"trial_type":"image-button-response","trial_index":146,"time_elapsed":311692,"internal_node_id":"0.0-6.0-0.10","subject_id":"55ec13017480920010aaa35d","study_id":"60edd13110225f80f9f3709b","session_id":"6196c708b8cec23ee24c47ff","condition":"full-information","relevant_dimensions":["antennae","legs"],"bee_group":{"antennae":"A","wings":"X","pattern":"X","legs":"M"},"bonus":0.680000000000001},{"rt":195,"stimulus":"bees-with-color/bee-A2DM.svg","response":1,"trial_type":"image-button-response","trial_index":147,"time_elapsed":311889,"internal_node_id":"0.0-6.0-0.11","subject_id":"55ec13017480920010aaa35d","study_id":"60edd13110225f80f9f3709b","session_id":"6196c708b8cec23ee24c47ff","condition":"full-information","relevant_dimensions":["antennae","legs"],"bee_group":{"antennae":"A","wings":"X","pattern":"X","legs":"M"},"bonus":0.680000000000001},{"rt":203,"stimulus":"bees-with-color/bee-B2DF.svg","response":1,"trial_type":"image-button-response","trial_index":148,"time_elapsed":312093,"internal_node_id":"0.0-6.0-0.12","subject_id":"55ec13017480920010aaa35d","study_id":"60edd13110225f80f9f3709b","session_id":"6196c708b8cec23ee24c47ff","condition":"full-information","relevant_dimensions":["antennae","legs"],"bee_group":{"antennae":"A","wings":"X","pattern":"X","legs":"M"},"bonus":0.680000000000001},{"rt":182,"stimulus":"bees-with-color/bee-A2SM.svg","response":1,"trial_type":"image-button-response","trial_index":149,"time_elapsed":312277,"internal_node_id":"0.0-6.0-0.13","subject_id":"55ec13017480920010aaa35d","study_id":"60edd13110225f80f9f3709b","session_id":"6196c708b8cec23ee24c47ff","condition":"full-information","relevant_dimensions":["antennae","legs"],"bee_group":{"antennae":"A","wings":"X","pattern":"X","legs":"M"},"bonus":0.680000000000001},{"rt":183,"stimulus":"bees-with-color/bee-B1SM.svg","response":1,"trial_type":"image-button-response","trial_index":150,"time_elapsed":312460,"internal_node_id":"0.0-6.0-0.14","subject_id":"55ec13017480920010aaa35d","study_id":"60edd13110225f80f9f3709b","session_id":"6196c708b8cec23ee24c47ff","condition":"full-information","relevant_dimensions":["antennae","legs"],"bee_group":{"antennae":"A","wings":"X","pattern":"X","legs":"M"},"bonus":0.680000000000001},{"rt":199,"stimulus":"bees-with-color/bee-B1SF.svg","response":1,"trial_type":"image-button-response","trial_index":151,"time_elapsed":312661,"internal_node_id":"0.0-6.0-0.15","subject_id":"55ec13017480920010aaa35d","study_id":"60edd13110225f80f9f3709b","session_id":"6196c708b8cec23ee24c47ff","condition":"full-information","relevant_dimensions":["antennae","legs"],"bee_group":{"antennae":"A","wings":"X","pattern":"X","legs":"M"},"bonus":0.680000000000001},{"rt":467,"stimulus":"bees-with-color/bee-A2SF.svg","response":0,"trial_type":"image-button-response","trial_index":152,"time_elapsed":313129,"internal_node_id":"0.0-6.0-0.16","subject_id":"55ec13017480920010aaa35d","study_id":"60edd13110225f80f9f3709b","session_id":"6196c708b8cec23ee24c47ff","condition":"full-information","relevant_dimensions":["antennae","legs"],"bee_group":{"antennae":"A","wings":"X","pattern":"X","legs":"M"},"bonus":0.680000000000001},{"rt":338,"stimulus":"bees-with-color/bee-A1DM.svg","response":1,"trial_type":"image-button-response","trial_index":153,"time_elapsed":313469,"internal_node_id":"0.0-6.0-0.17","subject_id":"55ec13017480920010aaa35d","study_id":"60edd13110225f80f9f3709b","session_id":"6196c708b8cec23ee24c47ff","condition":"full-information","relevant_dimensions":["antennae","legs"],"bee_group":{"antennae":"A","wings":"X","pattern":"X","legs":"M"},"bonus":0.680000000000001},{"rt":199,"stimulus":"bees-with-color/bee-B1SF.svg","response":1,"trial_type":"image-button-response","trial_index":154,"time_elapsed":313668,"internal_node_id":"0.0-6.0-0.18","subject_id":"55ec13017480920010aaa35d","study_id":"60edd13110225f80f9f3709b","session_id":"6196c708b8cec23ee24c47ff","condition":"full-information","relevant_dimensions":["antennae","legs"],"bee_group":{"antennae":"A","wings":"X","pattern":"X","legs":"M"},"bonus":0.680000000000001},{"rt":204,"stimulus":"bees-with-color/bee-B2DF.svg","response":1,"trial_type":"image-button-response","trial_index":155,"time_elapsed":313873,"internal_node_id":"0.0-6.0-0.19","subject_id":"55ec13017480920010aaa35d","study_id":"60edd13110225f80f9f3709b","session_id":"6196c708b8cec23ee24c47ff","condition":"full-information","relevant_dimensions":["antennae","legs"],"bee_group":{"antennae":"A","wings":"X","pattern":"X","legs":"M"},"bonus":0.680000000000001},{"rt":223,"stimulus":"bees-with-color/bee-B1SM.svg","response":1,"trial_type":"image-button-response","trial_index":156,"time_elapsed":314097,"internal_node_id":"0.0-6.0-0.20","subject_id":"55ec13017480920010aaa35d","study_id":"60edd13110225f80f9f3709b","session_id":"6196c708b8cec23ee24c47ff","condition":"full-information","relevant_dimensions":["antennae","legs"],"bee_group":{"antennae":"A","wings":"X","pattern":"X","legs":"M"},"bonus":0.680000000000001},{"rt":203,"stimulus":"bees-with-color/bee-B2SF.svg","response":1,"trial_type":"image-button-response","trial_index":157,"time_elapsed":314301,"internal_node_id":"0.0-6.0-0.21","subject_id":"55ec13017480920010aaa35d","study_id":"60edd13110225f80f9f3709b","session_id":"6196c708b8cec23ee24c47ff","condition":"full-information","relevant_dimensions":["antennae","legs"],"bee_group":{"antennae":"A","wings":"X","pattern":"X","legs":"M"},"bonus":0.680000000000001},{"rt":207,"stimulus":"bees-with-color/bee-B1DM.svg","response":1,"trial_type":"image-button-response","trial_index":158,"time_elapsed":314509,"internal_node_id":"0.0-6.0-0.22","subject_id":"55ec13017480920010aaa35d","study_id":"60edd13110225f80f9f3709b","session_id":"6196c708b8cec23ee24c47ff","condition":"full-information","relevant_dimensions":["antennae","legs"],"bee_group":{"antennae":"A","wings":"X","pattern":"X","legs":"M"},"bonus":0.680000000000001},{"rt":187,"stimulus":"bees-with-color/bee-A1SM.svg","response":1,"trial_type":"image-button-response","trial_index":159,"time_elapsed":314697,"internal_node_id":"0.0-6.0-0.23","subject_id":"55ec13017480920010aaa35d","study_id":"60edd13110225f80f9f3709b","session_id":"6196c708b8cec23ee24c47ff","condition":"full-information","relevant_dimensions":["antennae","legs"],"bee_group":{"antennae":"A","wings":"X","pattern":"X","legs":"M"},"bonus":0.680000000000001},{"rt":203,"stimulus":"bees-with-color/bee-B1DF.svg","response":1,"trial_type":"image-button-response","trial_index":160,"time_elapsed":314901,"internal_node_id":"0.0-6.0-0.24","subject_id":"55ec13017480920010aaa35d","study_id":"60edd13110225f80f9f3709b","session_id":"6196c708b8cec23ee24c47ff","condition":"full-information","relevant_dimensions":["antennae","legs"],"bee_group":{"antennae":"A","wings":"X","pattern":"X","legs":"M"},"bonus":0.680000000000001},{"rt":211,"stimulus":"bees-with-color/bee-A1SF.svg","response":1,"trial_type":"image-button-response","trial_index":161,"time_elapsed":315113,"internal_node_id":"0.0-6.0-0.25","subject_id":"55ec13017480920010aaa35d","study_id":"60edd13110225f80f9f3709b","session_id":"6196c708b8cec23ee24c47ff","condition":"full-informat