[{"success":true,"trial_type":"fullscreen","trial_index":0,"time_elapsed":2632,"internal_node_id":"0.0-0.0","subject_id":"60adcb210781d3ccfff441ef","study_id":"6197b3f67c2b5cd3b6d9596a","session_id":"6197b9ebe6e3ea93875b2993","condition":"full-information","relevant_dimensions":["antennae","pattern"],"bee_group":{"antennae":"B","wings":"X","pattern":"S","legs":"X"},"bonus":1.2200000000000006},{"success":true,"timeout":false,"failed_images":[],"failed_audio":[],"failed_video":[],"trial_type":"preload","trial_index":1,"time_elapsed":5082,"internal_node_id":"0.0-1.0","subject_id":"60adcb210781d3ccfff441ef","study_id":"6197b3f67c2b5cd3b6d9596a","session_id":"6197b9ebe6e3ea93875b2993","condition":"full-information","relevant_dimensions":["antennae","pattern"],"bee_group":{"antennae":"B","wings":"X","pattern":"S","legs":"X"},"bonus":1.2200000000000006},{"rt":2513,"stimulus":"Welcome! Press any key to begin.","response":"arrowup","trial_type":"html-keyboard-response","trial_index":2,"time_elapsed":7597,"internal_node_id":"0.0-2.0","subject_id":"60adcb210781d3ccfff441ef","study_id":"6197b3f67c2b5cd3b6d9596a","session_id":"6197b9ebe6e3ea93875b2993","condition":"full-information","relevant_dimensions":["antennae","pattern"],"bee_group":{"antennae":"B","wings":"X","pattern":"S","legs":"X"},"bonus":1.2200000000000006},{"view_history":[{"page_index":0,"viewing_time":999},{"page_index":1,"viewing_time":924},{"page_index":0,"viewing_time":48481},{"page_index":1,"viewing_time":8439},{"page_index":2,"viewing_time":7449},{"page_index":3,"viewing_time":10216},{"page_index":4,"viewing_time":6717},{"page_index":5,"viewing_time":5518},{"page_index":6,"viewing_time":5895},{"page_index":7,"viewing_time":4303},{"page_index":8,"viewing_time":3177},{"page_index":7,"viewing_time":942},{"page_index":8,"viewing_time":903},{"page_index":7,"viewing_time":669},{"page_index":8,"viewing_time":744},{"page_index":9,"viewing_time":2841},{"page_index":8,"viewing_time":1002},{"page_index":7,"viewing_time":291},{"page_index":8,"viewing_time":229},{"page_index":9,"viewing_time":725},{"page_index":10,"viewing_time":1466},{"page_index":11,"viewing_time":8247},{"page_index":12,"viewing_time":7628},{"page_index":13,"viewing_time":1170},{"page_index":14,"viewing_time":1666}],"rt":130641,"trial_type":"instructions","trial_index":3,"time_elapsed":138239,"internal_node_id":"0.0-3.0-0.0","subject_id":"60adcb210781d3ccfff441ef","study_id":"6197b3f67c2b5cd3b6d9596a","session_id":"6197b9ebe6e3ea93875b2993","condition":"full-information","relevant_dimensions":["antennae","pattern"],"bee_group":{"antennae":"B","wings":"X","pattern":"S","legs":"X"},"bonus":1.2200000000000006},{"rt":17184,"response":{"Q0":["Two or six legs","Stripes or spots on body","Single or double wings","Antennae or no antennae"]},"question_order":[0],"trial_type":"survey-multi-select","trial_index":4,"time_elapsed":155429,"internal_node_id":"0.0-3.0-1.0","subject_id":"60adcb210781d3ccfff441ef","study_id":"6197b3f67c2b5cd3b6d9596a","session_id":"6197b9ebe6e3ea93875b2993","condition":"full-information","relevant_dimensions":["antennae","pattern"],"bee_group":{"antennae":"B","wings":"X","pattern":"S","legs":"X"},"correct":true,"bonus":1.2200000000000006},{"rt":21157,"response":{"Q1":"No.","Q2":"Based on the four features of the bee.","Q3":"You do not learn if it was friendly or dangerous, and do not alter your bonus."},"question_order":[0,1,2],"trial_type":"survey-multi-choice","trial_index":5,"time_elapsed":176592,"internal_node_id":"0.0-3.0-2.0","subject_id":"60adcb210781d3ccfff441ef","study_id":"6197b3f67c2b5cd3b6d9596a","session_id":"6197b9ebe6e3ea93875b2993","condition":"full-information","relevant_dimensions":["antennae","pattern"],"bee_group":{"antennae":"B","wings":"X","pattern":"S","legs":"X"},"correct":false,"bonus":1.2200000000000006},{"rt":3913,"stimulus":"<p>You did not answer all comprehension questions correctly.<br>Press <b>continue</b> to review the instructions again.</p>","response":0,"trial_type":"html-button-response","trial_index":6,"time_elapsed":180512,"internal_node_id":"0.0-3.0-3.0","subject_id":"60adcb210781d3ccfff441ef","study_id":"6197b3f67c2b5cd3b6d9596a","session_id":"6197b9ebe6e3ea93875b2993","condition":"full-information","relevant_dimensions":["antennae","pattern"],"bee_group":{"antennae":"B","wings":"X","pattern":"S","legs":"X"},"bonus":1.2200000000000006},{"view_history":[{"page_index":0,"viewing_time":899},{"page_index":1,"viewing_time":988},{"page_index":2,"viewing_time":985},{"page_index":3,"viewing_time":3504},{"page_index":4,"viewing_time":4045},{"page_index":5,"viewing_time":874},{"page_index":6,"viewing_time":575},{"page_index":7,"viewing_time":2285},{"page_index":8,"viewing_time":1240},{"page_index":9,"viewing_time":1203},{"page_index":10,"viewing_time":1185},{"page_index":11,"viewing_time":1071},{"page_index":12,"viewing_time":1077},{"page_index":13,"viewing_time":996},{"page_index":14,"viewing_time":582}],"rt":21509,"trial_type":"instructions","trial_index":7,"time_elapsed":202021,"internal_node_id":"0.0-3.0-4.0-0.0","subject_id":"60adcb210781d3ccfff441ef","study_id":"6197b3f67c2b5cd3b6d9596a","session_id":"6197b9ebe6e3ea93875b2993","condition":"full-information","relevant_dimensions":["antennae","pattern"],"bee_group":{"antennae":"B","wings":"X","pattern":"S","legs":"X"},"bonus":1.2200000000000006},{"rt":6125,"response":{"Q0":["Two or six legs","Stripes or spots on body","Single or double wings","Antennae or no antennae"]},"question_order":[0],"trial_type":"survey-multi-select","trial_index":8,"time_elapsed":208152,"internal_node_id":"0.0-3.0-4.0-1.0","subject_id":"60adcb210781d3ccfff441ef","study_id":"6197b3f67c2b5cd3b6d9596a","session_id":"6197b9ebe6e3ea93875b2993","condition":"full-information","relevant_dimensions":["antennae","pattern"],"bee_group":{"antennae":"B","wings":"X","pattern":"S","legs":"X"},"correct":true,"bonus":1.2200000000000006},{"rt":16903,"response":{"Q1":"No.","Q2":"Based on the four features of the bee.","Q3":"You learn if it was friendly or dangerous, but do not alter your bonus."},"question_order":[0,1,2],"trial_type":"survey-multi-choice","trial_index":9,"time_elapsed":225061,"internal_node_id":"0.0-3.0-4.0-2.0","subject_id":"60adcb210781d3ccfff441ef","study_id":"6197b3f67c2b5cd3b6d9596a","session_id":"6197b9ebe6e3ea93875b2993","condition":"full-information","relevant_dimensions":["antennae","pattern"],"bee_group":{"antennae":"B","wings":"X","pattern":"S","legs":"X"},"correct":true,"bonus":1.2200000000000006},{"rt":1967,"stimulus":"<p>Congrats, you got everything right<br>When you're ready, click the button below to continue to the experiment.</p>","response":0,"trial_type":"html-button-response","trial_index":10,"time_elapsed":227032,"internal_node_id":"0.0-3.0-4.0-3.0","subject_id":"60adcb210781d3ccfff441ef","study_id":"6197b3f67c2b5cd3b6d9596a","session_id":"6197b9ebe6e3ea93875b2993","condition":"full-information","relevant_dimensions":["antennae","pattern"],"bee_group":{"antennae":"B","wings":"X","pattern":"S","legs":"X"},"bonus":1.2200000000000006},{"rt":7481,"stimulus":"bees-with-color/bee-B1DF.svg","response":0,"trial_type":"image-button-response","trial_index":11,"time_elapsed":234515,"internal_node_id":"0.0-4.0-0.0","subject_id":"60adcb210781d3ccfff441ef","study_id":"6197b3f67c2b5cd3b6d9596a","session_id":"6197b9ebe6e3ea93875b2993","condition":"full-information","relevant_dimensions":["antennae","pattern"],"bee_group":{"antennae":"B","wings":"X","pattern":"S","legs":"X"},"action":"harvest","summary":"good-harvest","bonus":1.2200000000000006},{"rt":80185,"stimulus":"\n                    <p><b>Action: <em>harvest</em></b></p>\n                    <p>This is the bee that you just saw.</p>\n                    <img src=\"bees-with-color/bee-B1DF.svg\" width=\"200\">\n                    <p><span class=\"greenText\"><b>Successful harvest!</b></span><br>Your pay has increased by $0.02. Your bonus pay is now $0.56.</p>\n            ","response":0,"trial_type":"html-button-response","trial_index":12,"time_elapsed":314704,"internal_node_id":"0.0-4.0-1.0","subject_id":"60adcb210781d3ccfff441ef","study_id":"6197b3f67c2b5cd3b6d9596a","session_id":"6197b9ebe6e3ea93875b2993","condition":"full-information","relevant_dimensions":["antennae","pattern"],"bee_group":{"antennae":"B","wings":"X","pattern":"S","legs":"X"},"bonus":1.2200000000000006},{"rt":10562,"stimulus":"bees-with-color/bee-A2DM.svg","response":1,"trial_type":"image-button-response","trial_index":13,"time_elapsed":325268,"internal_node_id":"0.0-4.0-0.1","subject_id":"60adcb210781d3ccfff441ef","study_id":"6197b3f67c2b5cd3b6d9596a","session_id":"6197b9ebe6e3ea93875b2993","condition":"full-information","relevant_dimensions":["antennae","pattern"],"bee_group":{"antennae":"B","wings":"X","pattern":"S","legs":"X"},"action":"avoid","summary":"bad-avoid","bonus":1.2200000000000006},{"rt":29292,"stimulus":"\n                    <p><b>Action: <em>avoid</em></b></p>\n                    <p>This is the bee that you just saw.</p>\n                    <img src=\"bees-with-color/bee-A2DM.svg\" width=\"200\">\n                    <p><span class=\"redText\">Bad choice,</span> the bee was friendly.<br>Your bonus pay is unchanged, and remains at $0.56.</p>\n            ","response":0,"trial_type":"html-button-response","trial_index":14,"time_elapsed":354562,"internal_node_id":"0.0-4.0-1.1","subject_id":"60adcb210781d3ccfff441ef","study_id":"6197b3f67c2b5cd3b6d9596a","session_id":"6197b9ebe6e3ea93875b2993","condition":"full-information","relevant_dimensions":["antennae","pattern"],"bee_group":{"antennae":"B","wings":"X","pattern":"S","legs":"X"},"bonus":1.2200000000000006},{"rt":3479,"stimulus":"bees-with-color/bee-A2SF.svg","response":1,"trial_type":"image-button-response","trial_index":15,"time_elapsed":358043,"internal_node_id":"0.0-4.0-0.2","subject_id":"60adcb210781d3ccfff441ef","study_id":"6197b3f67c2b5cd3b6d9596a","session_id":"6197b9ebe6e3ea93875b2993","condition":"full-information","relevant_dimensions":["antennae","pattern"],"bee_group":{"antennae":"B","wings":"X","pattern":"S","legs":"X"},"action":"avoid","summary":"bad-avoid","bonus":1.2200000000000006},{"rt":30353,"stimulus":"\n                    <p><b>Action: <em>avoid</em></b></p>\n                    <p>This is the bee that you just saw.</p>\n                    <img src=\"bees-with-color/bee-A2SF.svg\" width=\"200\">\n                    <p><span class=\"redText\">Bad choice,</span> the bee was friendly.<br>Your bonus pay is unchanged, and remains at $0.56.</p>\n            ","response":0,"trial_type":"html-button-response","trial_index":16,"time_elapsed":388398,"internal_node_id":"0.0-4.0-1.2","subject_id":"60adcb210781d3ccfff441ef","study_id":"6197b3f67c2b5cd3b6d9596a","session_id":"6197b9ebe6e3ea93875b2993","condition":"full-information","relevant_dimensions":["antennae","pattern"],"bee_group":{"antennae":"B","wings":"X","pattern":"S","legs":"X"},"bonus":1.2200000000000006},{"rt":13633,"stimulus":"bees-with-color/bee-A2DF.svg","response":0,"trial_type":"image-button-response","trial_index":17,"time_elapsed":402033,"internal_node_id":"0.0-4.0-0.3","subject_id":"60adcb210781d3ccfff441ef","study_id":"6197b3f67c2b5cd3b6d9596a","session_id":"6197b9ebe6e3ea93875b2993","condition":"full-information","relevant_dimensions":["antennae","pattern"],"bee_group":{"antennae":"B","wings":"X","pattern":"S","legs":"X"},"action":"harvest","summary":"good-harvest","bonus":1.2200000000000006},{"rt":14938,"stimulus":"\n                    <p><b>Action: <em>harvest</em></b></p>\n                    <p>This is the bee that you just saw.</p>\n                    <img src=\"bees-with-color/bee-A2DF.svg\" width=\"200\">\n                    <p><span class=\"greenText\"><b>Successful harvest!</b></span><br>Your pay has increased by $0.02. Your bonus pay is now $0.58.</p>\n            ","response":0,"trial_type":"html-button-response","trial_index":18,"time_elapsed":416975,"internal_node_id":"0.0-4.0-1.3","subject_id":"60adcb210781d3ccfff441ef","study_id":"6197b3f67c2b5cd3b6d9596a","session_id":"6197b9ebe6e3ea93875b2993","condition":"full-information","relevant_dimensions":["antennae","pattern"],"bee_group":{"antennae":"B","wings":"X","pattern":"S","legs":"X"},"bonus":1.2200000000000006},{"rt":27684,"stimulus":"bees-with-color/bee-B1SM.svg","response":1,"trial_type":"image-button-response","trial_index":19,"time_elapsed":444659,"internal_node_id":"0.0-4.0-0.4","subject_id":"60adcb210781d3ccfff441ef","study_id":"6197b3f67c2b5cd3b6d9596a","session_id":"6197b9ebe6e3ea93875b2993","condition":"full-information","relevant_dimensions":["antennae","pattern"],"bee_group":{"antennae":"B","wings":"X","pattern":"S","legs":"X"},"action":"avoid","summary":"good-avoid","bonus":1.2200000000000006},{"rt":9858,"stimulus":"\n                    <p><b>Action: <em>avoid</em></b></p>\n                    <p>This is the bee that you just saw.</p>\n                    <img src=\"bees-with-color/bee-B1SM.svg\" width=\"200\">\n                    <p><span class=\"greenText\">Good choice!</span>  This bee would have stung you.<br>Your bonus pay is unchanged, and remains at $0.58.</p>\n            ","response":0,"trial_type":"html-button-response","trial_index":20,"time_elapsed":454519,"internal_node_id":"0.0-4.0-1.4","subject_id":"60adcb210781d3ccfff441ef","study_id":"6197b3f67c2b5cd3b6d9596a","session_id":"6197b9ebe6e3ea93875b2993","condition":"full-information","relevant_dimensions":["antennae","pattern"],"bee_group":{"antennae":"B","wings":"X","pattern":"S","legs":"X"},"bonus":1.2200000000000006},{"rt":11249,"stimulus":"bees-with-color/bee-A2SM.svg","response":1,"trial_type":"image-button-response","trial_index":21,"time_elapsed":465769,"internal_node_id":"0.0-4.0-0.5","subject_id":"60adcb210781d3ccfff441ef","study_id":"6197b3f67c2b5cd3b6d9596a","session_id":"6197b9ebe6e3ea93875b2993","condition":"full-information","relevant_dimensions":["antennae","pattern"],"bee_group":{"antennae":"B","wings":"X","pattern":"S","legs":"X"},"action":"avoid","summary":"bad-avoid","bonus":1.2200000000000006},{"rt":18847,"stimulus":"\n                    <p><b>Action: <em>avoid</em></b></p>\n                    <p>This is the bee that you just saw.</p>\n                    <img src=\"bees-with-color/bee-A2SM.svg\" width=\"200\">\n                    <p><span class=\"redText\">Bad choice,</span> the bee was friendly.<br>Your bonus pay is unchanged, and remains at $0.58.</p>\n            ","response":0,"trial_type":"html-button-response","trial_index":22,"time_elapsed":484617,"internal_node_id":"0.0-4.0-1.5","subject_id":"60adcb210781d3ccfff441ef","study_id":"6197b3f67c2b5cd3b6d9596a","session_id":"6197b9ebe6e3ea93875b2993","condition":"full-information","relevant_dimensions":["antennae","pattern"],"bee_group":{"antennae":"B","wings":"X","pattern":"S","legs":"X"},"bonus":1.2200000000000006},{"rt":10406,"stimulus":"bees-with-color/bee-B2SM.svg","response":1,"trial_type":"image-button-response","trial_index":23,"time_elapsed":495026,"internal_node_id":"0.0-4.0-0.6","subject_id":"60adcb210781d3ccfff441ef","study_id":"6197b3f67c2b5cd3b6d9596a","session_id":"6197b9ebe6e3ea93875b2993","condition":"full-information","relevant_dimensions":["antennae","pattern"],"bee_group":{"antennae":"B","wings":"X","pattern":"S","legs":"X"},"action":"avoid","summary":"good-avoid","bonus":1.2200000000000006},{"rt":66915,"stimulus":"\n                    <p><b>Action: <em>avoid</em></b></p>\n                    <p>This is the bee that you just saw.</p>\n                    <img src=\"bees-with-color/bee-B2SM.svg\" width=\"200\">\n                    <p><span class=\"greenText\">Good choice!</span>  This bee would have stung you.<br>Your bonus pay is unchanged, and remains at $0.58.</p>\n            ","response":0,"trial_type":"html-button-response","trial_index":24,"time_elapsed":561944,"internal_node_id":"0.0-4.0-1.6","subject_id":"60adcb210781d3ccfff441ef","study_id":"6197b3f67c2b5cd3b6d9596a","session_id":"6197b9ebe6e3ea93875b2993","condition":"full-information","relevant_dimensions":["antennae","pattern"],"bee_group":{"antennae":"B","wings":"X","pattern":"S","legs":"X"},"bonus":1.2200000000000006},{"rt":21170,"stimulus":"bees-with-color/bee-A1DM.svg","response":1,"trial_type":"image-button-response","trial_index":25,"time_elapsed":583115,"internal_node_id":"0.0-4.0-0.7","subject_id":"60adcb210781d3ccfff441ef","study_id":"6197b3f67c2b5cd3b6d9596a","session_id":"6197b9ebe6e3ea93875b2993","condition":"full-information","relevant_dimensions":["antennae","pattern"],"bee_group":{"antennae":"B","wings":"X","pattern":"S","legs":"X"},"action":"avoid","summary":"bad-avoid","bonus":1.2200000000000006},{"rt":38507,"stimulus":"\n                    <p><b>Action: <em>avoid</em></b></p>\n                    <p>This is the bee that you just saw.</p>\n                    <img src=\"bees-with-color/bee-A1DM.svg\" width=\"200\">\n                    <p><span class=\"redText\">Bad choice,</span> the bee was friendly.<br>Your bonus pay is unchanged, and remains at $0.58.</p>\n            ","response":0,"trial_type":"html-button-response","trial_index":26,"time_elapsed":621624,"internal_node_id":"0.0-4.0-1.7","subject_id":"60adcb210781d3ccfff441ef","study_id":"6197b3f67c2b5cd3b6d9596a","session_id":"6197b9ebe6e3ea93875b2993","condition":"full-information","relevant_dimensions":["antennae","pattern"],"bee_group":{"antennae":"B","wings":"X","pattern":"S","legs":"X"},"bonus":1.2200000000000006},{"rt":12153,"stimulus":"bees-with-color/bee-A1DF.svg","response":1,"trial_type":"image-button-response","trial_index":27,"time_elapsed":633779,"internal_node_id":"0.0-4.0-0.8","subject_id":"60adcb210781d3ccfff441ef","study_id":"6197b3f67c2b5cd3b6d9596a","session_id":"6197b9ebe6e3ea93875b2993","condition":"full-information","relevant_dimensions":["antennae","pattern"],"bee_group":{"antennae":"B","wings":"X","pattern":"S","legs":"X"},"action":"avoid","summary":"bad-avoid","bonus":1.2200000000000006},{"rt":25785,"stimulus":"\n                    <p><b>Action: <em>avoid</em></b></p>\n                    <p>This is the bee that you just saw.</p>\n                    <img src=\"bees-with-color/bee-A1DF.svg\" width=\"200\">\n                    <p><span class=\"redText\">Bad choice,</span> the bee was friendly.<br>Your bonus pay is unchanged, and remains at $0.58.</p>\n            ","response":0,"trial_type":"html-button-response","trial_index":28,"time_elapsed":659567,"internal_node_id":"0.0-4.0-1.8","subject_id":"60adcb210781d3ccfff441ef","study_id":"6197b3f67c2b5cd3b6d9596a","session_id":"6197b9ebe6e3ea93875b2993","condition":"full-information","relevant_dimensions":["antennae","pattern"],"bee_group":{"antennae":"B","wings":"X","pattern":"S","legs":"X"},"bonus":1.2200000000000006},{"rt":14289,"stimulus":"bees-with-color/bee-B2DF.svg","response":0,"trial_type":"image-button-response","trial_index":29,"time_elapsed":673858,"internal_node_id":"0.0-4.0-0.9","subject_id":"60adcb210781d3ccfff441ef","study_id":"6197b3f67c2b5cd3b6d9596a","session_id":"6197b9ebe6e3ea93875b2993","condition":"full-information","relevant_dimensions":["antennae","pattern"],"bee_group":{"antennae":"B","wings":"X","pattern":"S","legs":"X"},"action":"harvest","summary":"good-harvest","bonus":1.2200000000000006},{"rt":13781,"stimulus":"\n                    <p><b>Action: <em>harvest</em></b></p>\n                    <p>This is the bee that you just saw.</p>\n                    <img src=\"bees-with-color/bee-B2DF.svg\" width=\"200\">\n                    <p><span class=\"greenText\"><b>Successful harvest!</b></span><br>Your pay has increased by $0.02. Your bonus pay is now $0.60.</p>\n            ","response":0,"trial_type":"html-button-response","trial_index":30,"time_elapsed":687641,"internal_node_id":"0.0-4.0-1.9","subject_id":"60adcb210781d3ccfff441ef","study_id":"6197b3f67c2b5cd3b6d9596a","session_id":"6197b9ebe6e3ea93875b2993","condition":"full-information","relevant_dimensions":["antennae","pattern"],"bee_group":{"antennae":"B","wings":"X","pattern":"S","legs":"X"},"bonus":1.2200000000000006},{"rt":14576,"stimulus":"bees-with-color/bee-B1DM.svg","response":1,"trial_type":"image-button-response","trial_index":31,"time_elapsed":702217,"internal_node_id":"0.0-4.0-0.10","subject_id":"60adcb210781d3ccfff441ef","study_id":"6197b3f67c2b5cd3b6d9596a","session_id":"6197b9ebe6e3ea93875b2993","condition":"full-information","relevant_dimensions":["antennae","pattern"],"bee_group":{"antennae":"B","wings":"X","pattern":"S","legs":"X"},"action":"avoid","summary":"bad-avoid","bonus":1.2200000000000006},{"rt":438096,"stimulus":"\n                    <p><b>Action: <em>avoid</em></b></p>\n                    <p>This is the bee that you just saw.</p>\n                    <img src=\"bees-with-color/bee-B1DM.svg\" width=\"200\">\n                    <p><span class=\"redText\">Bad choice,</span> the bee was friendly.<br>Your bonus pay is unchanged, and remains at $0.60.</p>\n            ","response":0,"trial_type":"html-button-response","trial_index":32,"time_elapsed":1140316,"internal_node_id":"0.0-4.0-1.10","subject_id":"60adcb210781d3ccfff441ef","study_id":"6197b3f67c2b5cd3b6d9596a","session_id":"6197b9ebe6e3ea93875b2993","condition":"full-information","relevant_dimensions":["antennae","pattern"],"bee_group":{"antennae":"B","wings":"X","pattern":"S","legs":"X"},"bonus":1.2200000000000006},{"rt":2714,"stimulus":"bees-with-color/bee-A1SM.svg","response":0,"trial_type":"image-button-response","trial_index":33,"time_elapsed":1143032,"internal_node_id":"0.0-4.0-0.11","subject_id":"60adcb210781d3ccfff441ef","study_id":"6197b3f67c2b5cd3b6d9596a","session_id":"6197b9ebe6e3ea93875b2993","condition":"full-information","relevant_dimensions":["antennae","pattern"],"bee_group":{"antennae":"B","wings":"X","pattern":"S","legs":"X"},"action":"harvest","summary":"good-harvest","bonus":1.2200000000000006},{"rt":26493,"stimulus":"\n                    <p><b>Action: <em>harvest</em></b></p>\n                    <p>This is the bee that you just saw.</p>\n                    <img src=\"bees-with-color/bee-A1SM.svg\" width=\"200\">\n                    <p><span class=\"greenText\"><b>Successful harvest!</b></span><br>Your pay has increased by $0.02. Your bonus pay is now $0.62.</p>\n            ","response":0,"trial_type":"html-button-response","trial_index":34,"time_elapsed":1169528,"internal_node_id":"0.0-4.0-1.11","subject_id":"60adcb210781d3ccfff441ef","study_id":"6197b3f67c2b5cd3b6d9596a","session_id":"6197b9ebe6e3ea93875b2993","condition":"full-information","relevant_dimensions":["antennae","pattern"],"bee_group":{"antennae":"B","wings":"X","pattern":"S","legs":"X"},"bonus":1.2200000000000006},{"rt":19346,"stimulus":"bees-with-color/bee-B2DM.svg","response":1,"trial_type":"image-button-response","trial_index":35,"time_elapsed":1188878,"internal_node_id":"0.0-4.0-0.12","subject_id":"60adcb210781d3ccfff441ef","study_id":"6197b3f67c2b5cd3b6d9596a","session_id":"6197b9ebe6e3ea93875b2993","condition":"full-information","relevant_dimensions":["antennae","pattern"],"bee_group":{"antennae":"B","wings":"X","pattern":"S","legs":"X"},"action":"avoid","summary":"bad-avoid","bonus":1.2200000000000006},{"rt":52751,"stimulus":"\n                    <p><b>Action: <em>avoid</em></b></p>\n                    <p>This is the bee that you just saw.</p>\n                    <img src=\"bees-with-color/bee-B2DM.svg\" width=\"200\">\n                    <p><span class=\"redText\">Bad choice,</span> the bee was friendly.<br>Your bonus pay is unchanged, and remains at $0.62.</p>\n            ","response":0,"trial_type":"html-button-response","trial_index":36,"time_elapsed":1241630,"internal_node_id":"0.0-4.0-1.12","subject_id":"60adcb210781d3ccfff441ef","study_id":"6197b3f67c2b5cd3b6d9596a","session_id":"6197b9ebe6e3ea93875b2993","condition":"full-information","relevant_dimensions":["antennae","pattern"],"bee_group":{"antennae":"B","wings":"X","pattern":"S","legs":"X"},"bonus":1.2200000000000006},{"rt":20930,"stimulus":"bees-with-color/bee-B1SF.svg","response":1,"trial_type":"image-button-response","trial_index":37,"time_elapsed":1262563,"internal_node_id":"0.0-4.0-0.13","subject_id":"60adcb210781d3ccfff441ef","study_id":"6197b3f67c2b5cd3b6d9596a","session_id":"6197b9ebe6e3ea93875b2993","condition":"full-information","relevant_dimensions":["antennae","pattern"],"bee_group":{"antennae":"B","wings":"X","pattern":"S","legs":"X"},"action":"avoid","summary":"good-avoid","bonus":1.2200000000000006},{"rt":15194,"stimulus":"\n                    <p><b>Action: <em>avoid</em></b></p>\n                    <p>This is the bee that you just saw.</p>\n                    <img src=\"bees-with-color/bee-B1SF.svg\" width=\"200\">\n                    <p><span class=\"greenText\">Good choice!</span>  This bee would have stung you.<br>Your bonus pay is unchanged, and remains at $0.62.</p>\n            ","response":0,"trial_type":"html-button-response","trial_index":38,"time_elapsed":1277760,"internal_node_id":"0.0-4.0-1.13","subject_id":"60adcb210781d3ccfff441ef","study_id":"6197b3f67c2b5cd3b6d9596a","session_id":"6197b9ebe6e3ea93875b2993","condition":"full-information","relevant_dimensions":["antennae","pattern"],"bee_group":{"antennae":"B","wings":"X","pattern":"S","legs":"X"},"bonus":1.2200000000000006},{"rt":15263,"stimulus":"bees-with-color/bee-A1SF.svg","response":1,"trial_type":"image-button-response","trial_index":39,"time_elapsed":1293029,"internal_node_id":"0.0-4.0-0.14","subject_id":"60adcb210781d3ccfff441ef","study_id":"6197b3f67c2b5cd3b6d9596a","session_id":"6197b9ebe6e3ea93875b2993","condition":"full-information","relevant_dimensions":["antennae","pattern"],"bee_group":{"antennae":"B","wings":"X","pattern":"S","legs":"X"},"action":"avoid","summary":"bad-avoid","bonus":1.2200000000000006},{"rt":12075,"stimulus":"\n                    <p><b>Action: <em>avoid</em></b></p>\n                    <p>This is the bee that you just saw.</p>\n                    <img src=\"bees-with-color/bee-A1SF.svg\" width=\"200\">\n                    <p><span class=\"redText\">Bad choice,</span> the bee was friendly.<br>Your bonus pay is unchanged, and remains at $0.62.</p>\n            ","response":0,"trial_type":"html-button-response","trial_index":40,"time_elapsed":1305105,"internal_node_id":"0.0-4.0-1.14","subject_id":"60adcb210781d3ccfff441ef","study_id":"6197b3f67c2b5cd3b6d9596a","session_id":"6197b9ebe6e3ea93875b2993","condition":"full-information","relevant_dimensions":["antennae","pattern"],"bee_group":{"antennae":"B","wings":"X","pattern":"S","legs":"X"},"bonus":1.2200000000000006},{"rt":29838,"stimulus":"bees-with-color/bee-B2SF.svg","response":1,"trial_type":"image-button-response","trial_index":41,"time_elapsed":1334948,"internal_node_id":"0.0-4.0-0.15","subject_id":"60adcb210781d3ccfff441ef","study_id":"6197b3f67c2b5cd3b6d9596a","session_id":"6197b9ebe6e3ea93875b2993","condition":"full-information","relevant_dimensions":["antennae","pattern"],"bee_group":{"antennae":"B","wings":"X","pattern":"S","legs":"X"},"action":"avoid","summary":"good-avoid","bonus":1.2200000000000006},{"rt":64920,"stimulus":"\n                    <p><b>Action: <em>avoid</em></b></p>\n                    <p>This is the bee that you just saw.</p>\n                    <img src=\"bees-with-color/bee-B2SF.svg\" width=\"200\">\n                    <p><span class=\"greenText\">Good choice!</span>  This bee would have stung you.<br>Your bonus pay is unchanged, and remains at $0.62.</p>\n            ","response":0,"trial_type":"html-button-response","trial_index":42,"time_elapsed":1399870,"internal_node_id":"0.0-4.0-1.15","subject_id":"60adcb210781d3ccfff441ef","study_id":"6197b3f67c2b5cd3b6d9596a","session_id":"6197b9ebe6e3ea93875b2993","condition":"full-information","relevant_dimensions":["antennae","pattern"],"bee_group":{"antennae":"B","wings":"X","pattern":"S","legs":"X"},"bonus":1.2200000000000006},{"rt":18842,"stimulus":"bees-with-color/bee-A2SF.svg","response":0,"trial_type":"image-button-response","trial_index":43,"time_elapsed":1418715,"internal_node_id":"0.0-4.0-0.16","subject_id":"60adcb210781d3ccfff441ef","study_id":"6197b3f67c2b5cd3b6d9596a","session_id":"6197b9ebe6e3ea93875b2993","condition":"full-information","relevant_dimensions":["antennae","pattern"],"bee_group":{"antennae":"B","wings":"X","pattern":"S","legs":"X"},"action":"harvest","summary":"good-harvest","bonus":1.2200000000000006},{"rt":871,"stimulus":"\n                    <p><b>Action: <em>harvest</em></b></p>\n                    <p>This is the bee that you just saw.</p>\n                    <img src=\"bees-with-color/bee-A2SF.svg\" width=\"200\">\n                    <p><span class=\"greenText\"><b>Successful harvest!</b></span><br>Your pay has increased by $0.02. Your bonus pay is now $0.64.</p>\n            ","response":0,"trial_type":"html-button-response","trial_index":44,"time_elapsed":1419589,"internal_node_id":"0.0-4.0-1.16","subject_id":"60adcb210781d3ccfff441ef","study_id":"6197b3f67c2b5cd3b6d9596a","session_id":"6197b9ebe6e3ea93875b2993","condition":"full-information","relevant_dimensions":["antennae","pattern"],"bee_group":{"antennae":"B","wings":"X","pattern":"S","legs":"X"},"bonus":1.2200000000000006},{"rt":9864,"stimulus":"bees-with-color/bee-A2DM.svg","response":0,"trial_type":"image-button-response","trial_index":45,"time_elapsed":1429456,"internal_node_id":"0.0-4.0-0.17","subject_id":"60adcb210781d3ccfff441ef","study_id":"6197b3f67c2b5cd3b6d9596a","session_id":"6197b9ebe6e3ea93875b2993","condition":"full-information","relevant_dimensions":["antennae","pattern"],"bee_group":{"antennae":"B","wings":"X","pattern":"S","legs":"X"},"action":"harvest","summary":"good-harvest","bonus":1.2200000000000006},{"rt":1109,"stimulus":"\n                    <p><b>Action: <em>harvest</em></b></p>\n                    <p>This is the bee that you just saw.</p>\n                    <img src=\"bees-with-color/bee-A2DM.svg\" width=\"200\">\n                    <p><span class=\"greenText\"><b>Successful harvest!</b></span><br>Your pay has increased by $0.02. Your bonus pay is now $0.66.</p>\n            ","response":0,"trial_type":"html-button-response","trial_index":46,"time_elapsed":1430567,"internal_node_id":"0.0-4.0-1.17","subject_id":"60adcb210781d3ccfff441ef","study_id":"6197b3f67c2b5cd3b6d9596a","session_id":"6197b9ebe6e3ea93875b2993","condition":"full-information","relevant_dimensions":["antennae","pattern"],"bee_group":{"antennae":"B","wings":"X","pattern":"S","legs":"X"},"bonus":1.2200000000000006},{"rt":14372,"stimulus":"bees-with-color/bee-A1SM.svg","response":0,"trial_type":"image-button-response","trial_index":47,"time_elapsed":1444940,"internal_node_id":"0.0-4.0-0.18","subject_id":"60adcb210781d3ccfff441ef","study_id":"6197b3f67c2b5cd3b6d9596a","session_id":"6197b9ebe6e3ea93875b2993","condition":"full-information","relevant_dimensions":["antennae","pattern"],"bee_group":{"antennae":"B","wings":"X","pattern":"S","legs":"X"},"action":"harvest","summary":"good-harvest","bonus":1.2200000000000006},{"rt":948,"stimulus":"\n                    <p><b>Action: <em>harvest</em></b></p>\n                    <p>This is the bee that you just saw.</p>\n                    <img src=\"bees-with-color/bee-A1SM.svg\" width=\"200\">\n                    <p><span class=\"greenText\"><b>Successful harvest!</b></span><br>Your pay has increased by $0.02. Your bonus pay is now $0.68.</p>\n            ","response":0,"trial_type":"html-button-response","trial_index":48,"time_elapsed":1445890,"internal_node_id":"0.0-4.0-1.18","subject_id":"60adcb210781d3ccfff441ef","study_id":"6197b3f67c2b5cd3b6d9596a","session_id":"6197b9ebe6e3ea93875b2993","condition":"full-information","relevant_dimensions":["antennae","pattern"],"bee_group":{"antennae":"B","wings":"X","pattern":"S","legs":"X"},"bonus":1.2200000000000006},{"rt":9470,"stimulus":"bees-with-color/bee-A1SF.svg","response":0,"trial_type":"image-button-response","trial_index":49,"time_elapsed":1455364,"internal_node_id":"0.0-4.0-0.19","subject_id":"60adcb210781d3ccfff441ef","study_id":"6197b3f67c2b5cd3b6d9596a","session_id":"6197b9ebe6e3ea93875b2993","condition":"full-information","relevant_dimensions":["antennae","pattern"],"bee_group":{"antennae":"B","wings":"X","pattern":"S","legs":"X"},"action":"harvest","summary":"good-harvest","bonus":1.2200000000000006},{"rt":1682,"stimulus":"\n                    <p><b>Action: <em>harvest</em></b></p>\n                    <p>This is the bee that you just saw.</p>\n                    <img src=\"bees-with-color/bee-A1SF.svg\" width=\"200\">\n                    <p><span class=\"greenText\"><b>Successful harvest!</b></span><br>Your pay has increased by $0.02. Your bonus pay is now $0.70.</p>\n            ","response":0,"trial_type":"html-button-response","trial_index":50,"time_elapsed":1457049,"internal_node_id":"0.0-4.0-1.19","subject_id":"60adcb210781d3ccfff441ef","study_id":"6197b3f67c2b5cd3b6d9596a","session_id":"6197b9ebe6e3ea93875b2993","condition":"full-information","relevant_dimensions":["antennae","pattern"],"bee_group":{"antennae":"B","wings":"X","pattern":"S","legs":"X"},"bonus":1.2200000000000006},{"rt":7986,"stimulus":"bees-with-color/bee-B1SM.svg","response":1,"trial_type":"image-button-response","trial_index":51,"time_elapsed":1465037,"internal_node_id":"0.0-4.0-0.20","subject_id":"60adcb210781d3ccfff441ef","study_id":"6197b3f67c2b5cd3b6d9596a","session_id":"6197b9ebe6e3ea93875b2993","condition":"full-information","relevant_dimensions":["antennae","pattern"],"bee_group":{"antennae":"B","wings":"X","pattern":"S","legs":"X"},"action":"avoid","summary":"good-avoid","bonus":1.2200000000000006},{"rt":1104,"stimulus":"\n                    <p><b>Action: <em>avoid</em></b></p>\n                    <p>This is the bee that you just saw.</p>\n                    <img src=\"bees-with-color/bee-B1SM.svg\" width=\"200\">\n                    <p><span class=\"greenText\">Good choice!</span>  This bee would have stung you.<br>Your bonus pay is unchanged, and remains at $0.70.</p>\n            ","response":0,"trial_type":"html-button-response","trial_index":52,"time_elapsed":1466142,"internal_node_id":"0.0-4.0-1.20","subject_id":"60adcb210781d3ccfff441ef","study_id":"6197b3f67c2b5cd3b6d9596a","session_id":"6197b9ebe6e3ea93875b2993","condition":"full-information","relevant_dimensions":["antennae","pattern"],"bee_group":{"antennae":"B","wings":"X","pattern":"S","legs":"X"},"bonus":1.2200000000000006},{"rt":9270,"stimulus":"bees-with-color/bee-A1DM.svg","response":0,"trial_type":"image-button-response","trial_index":53,"time_elapsed":1475415,"internal_node_id":"0.0-4.0-0.21","subject_id":"60adcb210781d3ccfff441ef","study_id":"6197b3f67c2b5cd3b6d9596a","session_id":"6197b9ebe6e3ea93875b2993","condition":"full-information","relevant_dimensions":["antennae","pattern"],"bee_group":{"antennae":"B","wings":"X","pattern":"S","legs":"X"},"action":"harvest","summary":"good-harvest","bonus":1.2200000000000006},{"rt":802,"stimulus":"\n                    <p><b>Action: <em>harvest</em></b></p>\n                    <p>This is the bee that you just saw.</p>\n                    <img src=\"bees-with-color/bee-A1DM.svg\" width=\"200\">\n                    <p><span class=\"greenText\"><b>Successful harvest!</b></span><br>Your pay has increased by $0.02. Your bonus pay is now $0.72.</p>\n            ","response":0,"trial_type":"html-button-response","trial_index":54,"time_elapsed":1476222,"internal_node_id":"0.0-4.0-1.21","subject_id":"60adcb210781d3ccfff441ef","study_id":"6197b3f67c2b5cd3b6d9596a","session_id":"6197b9ebe6e3ea93875b2993","condition":"full-information","relevant_dimensions":["antennae","pattern"],"bee_group":{"antennae":"B","wings":"X","pattern":"S","legs":"X"},"bonus":1.2200000000000006},{"rt":10013,"stimulus":"bees-with-color/bee-B2SM.svg","response":1,"trial_type":"image-button-response","trial_index":55,"time_elapsed":1486236,"internal_node_id":"0.0-4.0-0.22","subject_id":"60adcb210781d3ccfff441ef","study_id":"6197b3f67c2b5cd3b6d9596a","session_id":"6197b9ebe6e3ea93875b2993","condition":"full-information","relevant_dimensions":["antennae","pattern"],"bee_group":{"antennae":"B","wings":"X","pattern":"S","legs":"X"},"action":"avoid","summary":"good-avoid","bonus":1.2200000000000006},{"rt":920,"stimulus":"\n                    <p><b>Action: <em>avoid</em></b></p>\n                    <p>This is the bee that you just saw.</p>\n                    <img src=\"bees-with-color/bee-B2SM.svg\" width=\"200\">\n                    <p><span class=\"greenText\">Good choice!</span>  This bee would have stung you.<br>Your bonus pay is unchanged, and remains at $0.72.</p>\n            ","response":0,"trial_type":"html-button-response","trial_index":56,"time_elapsed":1487160,"internal_node_id":"0.0-4.0-1.22","subject_id":"60adcb210781d3ccfff441ef","study_id":"6197b3f67c2b5cd3b6d9596a","session_id":"6197b9ebe6e3ea93875b2993","condition":"full-information","relevant_dimensions":["antennae","pattern"],"bee_group":{"antennae":"B","wings":"X","pattern":"S","legs":"X"},"bonus":1.2200000000000006},{"rt":4898,"stimulus":"bees-with-color/bee-A2SM.svg","response":0,"trial_type":"image-button-response","trial_index":57,"time_elapsed":1492061,"internal_node_id":"0.0-4.0-0.23","subject_id":"60adcb210781d3ccfff441ef","study_id":"6197b3f67c2b5cd3b6d9596a","session_id":"6197b9ebe6e3ea93875b2993","condition":"full-information","relevant_dimensions":["antennae","pattern"],"bee_group":{"antennae":"B","wings":"X","pattern":"S","legs":"X"},"action":"harvest","summary":"good-harvest","bonus":1.2200000000000006},{"rt":913,"stimulus":"\n                    <p><b>Action: <em>harvest</em></b></p>\n                    <p>This is the bee that you just saw.</p>\n                    <img src=\"bees-with-color/bee-A2SM.svg\" width=\"200\">\n                    <p><span class=\"greenText\"><b>Successful harvest!</b></span><br>Your pay has increased by $0.02. Your bonus pay is now $0.74.</p>\n            ","response":0,"trial_type":"html-button-response","trial_index":58,"time_elapsed":1492976,"internal_node_id":"0.0-4.0-1.23","subject_id":"60adcb210781d3ccfff441ef","study_id":"6197b3f67c2b5cd3b6d9596a","session_id":"6197b9ebe6e3ea93875b2993","condition":"full-information","relevant_dimensions":["antennae","pattern"],"bee_group":{"antennae":"B","wings":"X","pattern":"S","legs":"X"},"bonus":1.2200000000000006},{"rt":8394,"stimulus":"bees-with-color/bee-B2DM.svg","response":0,"trial_type":"image-button-response","trial_index":59,"time_elapsed":1501371,"internal_node_id":"0.0-4.0-0.24","subject_id":"60adcb210781d3ccfff441ef","study_id":"6197b3f67c2b5cd3b6d9596a","session_id":"6197b9ebe6e3ea93875b2993","condition":"full-information","relevant_dimensions":["antennae","pattern"],"bee_group":{"antennae":"B","wings":"X","pattern":"S","legs":"X"},"action":"harvest","summary":"good-harvest","bonus":1.2200000000000006},{"rt":1229,"stimulus":"\n                    <p><b>Action: <em>harvest</em></b></p>\n                    <p>This is the bee that you just saw.</p>\n                    <img src=\"bees-with-color/bee-B2DM.svg\" width=\"200\">\n                    <p><span class=\"greenText\"><b>Successful harvest!</b></span><br>Your pay has increased by $0.02. Your bonus pay is now $0.76.</p>\n            ","response":0,"trial_type":"html-button-response","trial_index":60,"time_elapsed":1502603,"internal_node_id":"0.0-4.0-1.24","subject_id":"60adcb210781d3ccfff441ef","study_id":"6197b3f67c2b5cd3b6d9596a","session_id":"6197b9ebe6e3ea93875b2993","condition":"full-information","relevant_dimensions":["antennae","pattern"],"bee_group":{"antennae":"B","wings":"X","pattern":"S","legs":"X"},"bonus":1.2200000000000006},{"rt":7706,"stimulus":"bees-with-color/bee-B1DF.svg","response":0,"trial_type":"image-button-response","trial_index":61,"time_elapsed":1510312,"internal_node_id":"0.0-4.0-0.25","subject_id":"60adcb210781d3ccfff441ef","study_id":"6197b3f67c2b5cd3b6d9596a","session_id":"6197b9ebe6e3ea93875b2993","condition":"full-information","relevant_dimensions":["antennae","pattern"],"bee_group":{"antennae":"B","wings":"X","pattern":"S","legs":"X"},"action":"harvest","summary":"good-harvest","bonus":1.2200000000000006},{"rt":1007,"stimulus":"\n                    <p><b>Action: <em>harvest</em></b></p>\n                    <p>This is the bee that you just saw.</p>\n                    <img src=\"bees-with-color/bee-B1DF.svg\" width=\"200\">\n                    <p><span class=\"greenText\"><b>Successful harvest!</b></span><br>Your pay has increased by $0.02. Your bonus pay is now $0.78.</p>\n            ","response":0,"trial_type":"html-button-response","trial_index":62,"time_elapsed":1511320,"internal_node_id":"0.0-4.0-1.25","subject_id":"60adcb210781d3ccfff441ef","study_id":"6197b3f67c2b5cd3b6d9596a","session_id":"6197b9ebe6e3ea93875b2993","condition":"full-information","relevant_dimensions":["antennae","pattern"],"bee_group":{"antennae":"B","wings":"X","pattern":"S","legs":"X"},"bonus":1.2200000000000006},{"rt":7345,"stimulus":"bees-with-color/bee-B1SF.svg","response":1,"trial_type":"image-button-response","trial_index":63,"time_elapsed":1518667,"internal_node_id":"0.0-4.0-0.26","subject_id":"60adcb210781d3ccfff441ef","study_id":"6197b3f67c2b5cd3b6d9596a","session_id":"6197b9ebe6e3ea93875b2993","condition":"full-information","relevant_dimensions":["antennae","pattern"],"bee_group":{"antennae":"B","wings":"X","pattern":"S","legs":"X"},"action":"avoid","summary":"good-avoid","bonus":1.2200000000000006},{"rt":1136,"stimulus":"\n                    <p><b>Action: <em>avoid</em></b></p>\n                    <p>This is the bee that you just saw.</p>\n                    <img src=\"bees-with-color/bee-B1SF.svg\" width=\"200\">\n                    <p><span class=\"greenText\">Good choice!</span>  This bee would have stung you.<br>Your bonus pay is unchanged, and remains at $0.78.</p>\n            ","response":0,"trial_type":"html-button-response","trial_index":64,"time_elapsed":1519804,"internal_node_id":"0.0-4.0-1.26","subject_id":"60adcb210781d3ccfff441ef","study_id":"6197b3f67c2b5cd3b6d9596a","session_id":"6197b9ebe6e3ea93875b2993","condition":"full-information","relevant_dimensions":["antennae","pattern"],"bee_group":{"antennae":"B","wings":"X","pattern":"S","legs":"X"},"bonus":1.2200000000000006},{"rt":18570,"stimulus":"bees-with-color/bee-A2DF.svg","response":0,"trial_type":"image-button-response","trial_index":65,"time_elapsed":1538374,"internal_node_id":"0.0-4.0-0.27","subject_id":"60adcb210781d3ccfff441ef","study_id":"6197b3f67c2b5cd3b6d9596a","session_id":"6197b9ebe6e3ea93875b2993","condition":"full-information","relevant_dimensions":["antennae","pattern"],"bee_group":{"antennae":"B","wings":"X","pattern":"S","legs":"X"},"action":"harvest","summary":"good-harvest","bonus":1.2200000000000006},{"rt":905,"stimulus":"\n                    <p><b>Action: <em>harvest</em></b></p>\n                    <p>This is the bee that you just saw.</p>\n                    <img src=\"bees-with-color/bee-A2DF.svg\" width=\"200\">\n                    <p><span class=\"greenText\"><b>Successful harvest!</b></span><br>Your pay has increased by $0.02. Your bonus pay is now $0.80.</p>\n            ","response":0,"trial_type":"html-button-response","trial_index":66,"time_elapsed":1539283,"internal_node_id":"0.0-4.0-1.27","subject_id":"60adcb210781d3ccfff441ef","study_id":"6197b3f67c2b5cd3b6d9596a","session_id":"6197b9ebe6e3ea93875b2993","condition":"full-information","relevant_dimensions":["antennae","pattern"],"bee_group":{"antennae":"B","wings":"X","pattern":"S","legs":"X"},"bonus":1.2200000000000006},{"rt":23653,"stimulus":"bees-with-color/bee-B1DM.svg","response":1,"trial_type":"image-button-response","trial_index":67,"time_elapsed":1562938,"internal_node_id":"0.0-4.0-0.28","subject_id":"60adcb210781d3ccfff441ef","study_id":"6197b3f67c2b5cd3b6d9596a","session_id":"6197b9ebe6e3ea93875b2993","condition":"full-information","relevant_dimensions":["antennae","pattern"],"bee_group":{"antennae":"B","wings":"X","pattern":"S","legs":"X"},"action":"avoid","summary":"bad-avoid","bonus":1.2200000000000006},{"rt":28739,"stimulus":"\n                    <p><b>Action: <em>avoid</em></b></p>\n                    <p>This is the bee that you just saw.</p>\n                    <img src=\"bees-with-color/bee-B1DM.svg\" width=\"200\">\n                    <p><span class=\"redText\">Bad choice,</span> the bee was friendly.<br>Your bonus pay is unchanged, and remains at $0.80.</p>\n            ","response":0,"trial_type":"html-button-response","trial_index":68,"time_elapsed":1591679,"internal_node_id":"0.0-4.0-1.28","subject_id":"60adcb210781d3ccfff441ef","study_id":"6197b3f67c2b5cd3b6d9596a","session_id":"6197b9ebe6e3ea93875b2993","condition":"full-information","relevant_dimensions":["antennae","pattern"],"bee_group":{"antennae":"B","wings":"X","pattern":"S","legs":"X"},"bonus":1.2200000000000006},{"rt":8211,"stimulus":"bees-with-color/bee-B2DF.svg","response":0,"trial_type":"image-button-response","trial_index":69,"time_elapsed":1599893,"internal_node_id":"0.0-4.0-0.29","subject_id":"60adcb210781d3ccfff441ef","study_id":"6197b3f67c2b5cd3b6d9596a","session_id":"6197b9ebe6e3ea93875b2993","condition":"full-information","relevant_dimensions":["antennae","pattern"],"bee_group":{"antennae":"B","wings":"X","pattern":"S","legs":"X"},"action":"harvest","summary":"good-harvest","bonus":1.2200000000000006},{"rt":684,"stimulus":"\n                    <p><b>Action: <em>harvest</em></b></p>\n                    <p>This is the bee that you just saw.</p>\n                    <img src=\"bees-with-color/bee-B2DF.svg\" width=\"200\">\n                    <p><span class=\"greenText\"><b>Successful harvest!</b></span><br>Your pay has increased by $0.02. Your bonus pay is now $0.82.</p>\n            ","response":0,"trial_type":"html-button-response","trial_index":70,"time_elapsed":1600579,"internal_node_id":"0.0-4.0-1.29","subject_id":"60adcb210781d3ccfff441ef","study_id":"6197b3f67c2b5cd3b6d9596a","session_id":"6197b9ebe6e3ea93875b2993","condition":"full-information","relevant_dimensions":["antennae","pattern"],"bee_group":{"antennae":"B","wings":"X","pattern":"S","legs":"X"},"bonus":1.2200000000000006},{"rt":8955,"stimulus":"bees-with-color/bee-A1DF.svg","response":0,"trial_type":"image-button-response","trial_index":71,"time_elapsed":1609537,"internal_node_id":"0.0-4.0-0.30","subject_id":"60adcb210781d3ccfff441ef","study_id":"6197b3f67c2b5cd3b6d9596a","session_id":"6197b9ebe6e3ea93875b2993","condition":"full-information","relevant_dimensions":["antennae","pattern"],"bee_group":{"antennae":"B","wings":"X","pattern":"S","legs":"X"},"action":"harvest","summary":"good-harvest","bonus":1.2200000000000006},{"rt":816,"stimulus":"\n                    <p><b>Action: <em>harvest</em></b></p>\n                    <p>This is the bee that you just saw.</p>\n                    <img src=\"bees-with-color/bee-A1DF.svg\" width=\"200\">\n                    <p><span class=\"greenText\"><b>Successful harvest!</b></span><br>Your pay has increased by $0.02. Your bonus pay is now $0.84.</p>\n            ","response":0,"trial_type":"html-button-response","trial_index":72,"time_elapsed":1610356,"internal_node_id":"0.0-4.0-1.30","subject_id":"60adcb210781d3ccfff441ef","study_id":"6197b3f67c2b5cd3b6d9596a","session_id":"6197b9ebe6e3ea93875b2993","condition":"full-information","relevant_dimensions":["antennae","pattern"],"bee_group":{"antennae":"B","wings":"X","pattern":"S","legs":"X"},"bonus":1.2200000000000006},{"rt":14815,"stimulus":"bees-with-color/bee-B2SF.svg","response":1,"trial_type":"image-button-response","trial_index":73,"time_elapsed":1625174,"internal_node_id":"0.0-4.0-0.31","subject_id":"60adcb210781d3ccfff441ef","study_id":"6197b3f67c2b5cd3b6d9596a","session_id":"6197b9ebe6e3ea93875b2993","condition":"full-information","relevant_dimensions":["antennae","pattern"],"bee_group":{"antennae":"B","wings":"X","pattern":"S","legs":"X"},"action":"avoid","summary":"good-avoid","bonus":1.2200000000000006},{"rt":891,"stimulus":"\n                    <p><b>Action: <em>avoid</em></b></p>\n                    <p>This is the bee that you just saw.</p>\n                    <img src=\"bees-with-color/bee-B2SF.svg\" width=\"200\">\n                    <p><span class=\"greenText\">Good choice!</span>  This bee would have stung you.<br>Your bonus pay is unchanged, and remains at $0.84.</p>\n            ","response":0,"trial_type":"html-button-response","trial_index":74,"time_elapsed":1626066,"internal_node_id":"0.0-4.0-1.31","subject_id":"60adcb210781d3ccfff441ef","study_id":"6197b3f67c2b5cd3b6d9596a","session_id":"6197b9ebe6e3ea93875b2993","condition":"full-information","relevant_dimensions":["antennae","pattern"],"bee_group":{"antennae":"B","wings":"X","pattern":"S","legs":"X"},"bonus":1.2200000000000006},{"rt":118329,"stimulus":"bees-with-color/bee-A1SM.svg","response":0,"trial_type":"image-button-response","trial_index":75,"time_elapsed":1744397,"internal_node_id":"0.0-4.0-0.32","subject_id":"60adcb210781d3ccfff441ef","study_id":"6197b3f67c2b5cd3b6d9596a","session_id":"6197b9ebe6e3ea93875b2993","condition":"full-information","relevant_dimensions":["antennae","pattern"],"bee_group":{"antennae":"B","wings":"X","pattern":"S","legs":"X"},"action":"harvest","summary":"good-harvest","bonus":1.2200000000000006},{"rt":1358,"stimulus":"\n                    <p><b>Action: <em>harvest</em></b></p>\n                    <p>This is the bee that you just saw.</p>\n                    <img src=\"bees-with-color/bee-A1SM.svg\" width=\"200\">\n                    <p><span class=\"greenText\"><b>Successful harvest!</b></span><br>Your pay has increased by $0.02. Your bonus pay is now $0.86.</p>\n            ","response":0,"trial_type":"html-button-response","trial_index":76,"time_elapsed":1745758,"internal_node_id":"0.0-4.0-1.32","subject_id":"60adcb210781d3ccfff441ef","study_id":"6197b3f67c2b5cd3b6d9596a","session_id":"6197b9ebe6e3ea93875b2993","condition":"full-information","relevant_dimensions":["antennae","pattern"],"bee_group":{"antennae":"B","wings":"X","pattern":"S","legs":"X"},"bonus":1.2200000000000006},{"rt":55122,"stimulus":"bees-with-color/bee-A1DF.svg","response":0,"trial_type":"image-button-response","trial_index":77,"time_elapsed":1800882,"internal_node_id":"0.0-4.0-0.33","subject_id":"60adcb210781d3ccfff441ef","study_id":"6197b3f67c2b5cd3b6d9596a","session_id":"6197b9ebe6e3ea93875b2993","condition":"full-information","relevant_dimensions":["antennae","pattern"],"bee_group":{"antennae":"B","wings":"X","pattern":"S","legs":"X"},"action":"harvest","summary":"good-harvest","bonus":1.2200000000000006},{"rt":1048,"stimulus":"\n                    <p><b>Action: <em>harvest</em></b></p>\n                    <p>This is the bee that you just saw.</p>\n                    <img src=\"bees-with-color/bee-A1DF.svg\" width=\"200\">\n                    <p><span class=\"greenText\"><b>Successful harvest!</b></span><br>Your pay has increased by $0.02. Your bonus pay is now $0.88.</p>\n            ","response":0,"trial_type":"html-button-response","trial_index":78,"time_elapsed":1801934,"internal_node_id":"0.0-4.0-1.33","subject_id":"60adcb210781d3ccfff441ef","study_id":"6197b3f67c2b5cd3b6d9596a","session_id":"6197b9ebe6e3ea93875b2993","condition":"full-information","relevant_dimensions":["antennae","pattern"],"bee_group":{"antennae":"B","wings":"X","pattern":"S","legs":"X"},"bonus":1.2200000000000006},{"rt":6940,"stimulus":"bees-with-color/bee-B1SF.svg","response":1,"trial_type":"image-button-response","trial_index":79,"time_elapsed":1808876,"internal_node_id":"0.0-4.0-0.34","subject_id":"60adcb210781d3ccfff441ef","study_id":"6197b3f67c2b5cd3b6d9596a","session_id":"6197b9ebe6e3ea93875b2993","condition":"full-information","relevant_dimensions":["antennae","pattern"],"bee_group":{"antennae":"B","wings":"X","pattern":"S","legs":"X"},"action":"avoid","summary":"good-avoid","bonus":1.2200000000000006},{"rt":929,"stimulus":"\n                    <p><b>Action: <em>avoid</em></b></p>\n                    <p>This is the bee that you just saw.</p>\n                    <img src=\"bees-with-color/bee-B1SF.svg\" width=\"200\">\n                    <p><span class=\"greenText\">Good choice!</span>  This bee would have stung you.<br>Your bonus pay is unchanged, and remains at $0.88.</p>\n            ","response":0,"trial_type":"html-button-response","trial_index":80,"time_elapsed":1809808,"internal_node_id":"0.0-4.0-1.34","subject_id":"60adcb210781d3ccfff441ef","study_id":"6197b3f67c2b5cd3b6d9596a","session_id":"6197b9ebe6e3ea93875b2993","condition":"full-information","relevant_dimensions":["antennae","pattern"],"bee_group":{"antennae":"B","wings":"X","pattern":"S","legs":"X"},"bonus":1.2200000000000006},{"rt":7790,"stimulus":"bees-with-color/bee-A2DF.svg","response":0,"trial_type":"image-button-response","trial_index":81,"time_elapsed":1817599,"internal_node_id":"0.0-4.0-0.35","subject_id":"60adcb210781d3ccfff441ef","study_id":"6197b3f67c2b5cd3b6d9596a","session_id":"6197b9ebe6e3ea93875b2993","condition":"full-information","relevant_dimensions":["antennae","pattern"],"bee_group":{"antennae":"B","wings":"X","pattern":"S","legs":"X"},"action":"harvest","summary":"good-harvest","bonus":1.2200000000000006},{"rt":872,"stimulus":"\n                    <p><b>Action: <em>harvest</em></b></p>\n                    <p>This is the bee that you just saw.</p>\n                    <img src=\"bees-with-color/bee-A2DF.svg\" width=\"200\">\n                    <p><span class=\"greenText\"><b>Successful harvest!</b></span><br>Your pay has increased by $0.02. Your bonus pay is now $0.90.</p>\n            ","response":0,"trial_type":"html-button-response","trial_index":82,"time_elapsed":1818473,"internal_node_id":"0.0-4.0-1.35","subject_id":"60adcb210781d3ccfff441ef","study_id":"6197b3f67c2b5cd3b6d9596a","session_id":"6197b9ebe6e3ea93875b2993","condition":"full-information","relevant_dimensions":["antennae","pattern"],"bee_group":{"antennae":"B","wings":"X","pattern":"S","legs":"X"},"bonus":1.2200000000000006},{"rt":5258,"stimulus":"bees-with-color/bee-B2DM.svg","response":0,"trial_type":"image-button-response","trial_index":83,"time_elapsed":1823735,"internal_node_id":"0.0-4.0-0.36","subject_id":"60adcb210781d3ccfff441ef","study_id":"6197b3f67c2b5cd3b6d9596a","session_id":"6197b9ebe6e3ea93875b2993","condition":"full-information","relevant_dimensions":["antennae","pattern"],"bee_group":{"antennae":"B","wings":"X","pattern":"S","legs":"X"},"action":"harvest","summary":"good-harvest","bonus":1.2200000000000006},{"rt":959,"stimulus":"\n                    <p><b>Action: <em>harvest</em></b></p>\n                    <p>This is the bee that you just saw.</p>\n                    <img src=\"bees-with-color/bee-B2DM.svg\" width=\"200\">\n                    <p><span class=\"greenText\"><b>Successful harvest!</b></span><br>Your pay has increased by $0.02. Your bonus pay is now $0.92.</p>\n            ","response":0,"trial_type":"html-button-response","trial_index":84,"time_elapsed":1824695,"internal_node_id":"0.0-4.0-1.36","subject_id":"60adcb210781d3ccfff441ef","study_id":"6197b3f67c2b5cd3b6d9596a","session_id":"6197b9ebe6e3ea93875b2993","condition":"full-information","relevant_dimensions":["antennae","pattern"],"bee_group":{"antennae":"B","wings":"X","pattern":"S","legs":"X"},"bonus":1.2200000000000006},{"rt":12587,"stimulus":"bees-with-color/bee-A2SM.svg","response":0,"trial_type":"image-button-response","trial_index":85,"time_elapsed":1837285,"internal_node_id":"0.0-4.0-0.37","subject_id":"60adcb210781d3ccfff441ef","study_id":"6197b3f67c2b5cd3b6d9596a","session_id":"6197b9ebe6e3ea93875b2993","condition":"full-information","relevant_dimensions":["antennae","pattern"],"bee_group":{"antennae":"B","wings":"X","pattern":"S","legs":"X"},"action":"harvest","summary":"good-harvest","bonus":1.2200000000000006},{"rt":1194,"stimulus":"\n                    <p><b>Action: <em>harvest</em></b></p>\n                    <p>This is the bee that you just saw.</p>\n                    <img src=\"bees-with-color/bee-A2SM.svg\" width=\"200\">\n                    <p><span class=\"greenText\"><b>Successful harvest!</b></span><br>Your pay has increased by $0.02. Your bonus pay is now $0.94.</p>\n            ","response":0,"trial_type":"html-button-response","trial_index":86,"time_elapsed":1838482,"internal_node_id":"0.0-4.0-1.37","subject_id":"60adcb210781d3ccfff441ef","study_id":"6197b3f67c2b5cd3b6d9596a","session_id":"6197b9ebe6e3ea93875b2993","condition":"full-information","relevant_dimensions":["antennae","pattern"],"bee_group":{"antennae":"B","wings":"X","pattern":"S","legs":"X"},"bonus":1.2200000000000006},{"rt":2394,"stimulus":"bees-with-color/bee-B1DM.svg","response":0,"trial_type":"image-button-response","trial_index":87,"time_elapsed":1840877,"internal_node_id":"0.0-4.0-0.38","subject_id":"60adcb210781d3ccfff441ef","study_id":"6197b3f67c2b5cd3b6d9596a","session_id":"6197b9ebe6e3ea93875b2993","condition":"full-information","relevant_dimensions":["antennae","pattern"],"bee_group":{"antennae":"B","wings":"X","pattern":"S","legs":"X"},"action":"harvest","summary":"good-harvest","bonus":1.2200000000000006},{"rt":828,"stimulus":"\n                    <p><b>Action: <em>harvest</em></b></p>\n                    <p>This is the bee that you just saw.</p>\n                    <img src=\"bees-with-color/bee-B1DM.svg\" width=\"200\">\n                    <p><span class=\"greenText\"><b>Successful harvest!</b></span><br>Your pay has increased by $0.02. Your bonus pay is now $0.96.</p>\n            ","response":0,"trial_type":"html-button-response","trial_index":88,"time_elapsed":1841707,"internal_node_id":"0.0-4.0-1.38","subject_id":"60adcb210781d3ccfff441ef","study_id":"6197b3f67c2b5cd3b6d9596a","session_id":"6197b9ebe6e3ea93875b2993","condition":"full-information","relevant_dimensions":["antennae","pattern"],"bee_group":{"antennae":"B","wings":"X","pattern":"S","legs":"X"},"bonus":1.2200000000000006},{"rt":9583,"stimulus":"bees-with-color/bee-B1SM.svg","response":1,"trial_type":"image-button-response","trial_index":89,"time_elapsed":1851294,"internal_node_id":"0.0-4.0-0.39","subject_id":"60adcb210781d3ccfff441ef","study_id":"6197b3f67c2b5cd3b6d9596a","session_id":"6197b9ebe6e3ea93875b2993","condition":"full-information","relevant_dimensions":["antennae","pattern"],"bee_group":{"antennae":"B","wings":"X","pattern":"S","legs":"X"},"action":"avoid","summary":"good-avoid","bonus":1.2200000000000006},{"rt":1512,"stimulus":"\n                    <p><b>Action: <em>avoid</em></b></p>\n                    <p>This is the bee that you just saw.</p>\n                    <img src=\"bees-with-color/bee-B1SM.svg\" width=\"200\">\n                    <p><span class=\"greenText\">Good choice!</span>  This bee would have stung you.<br>Your bonus pay is unchanged, and remains at $0.96.</p>\n            ","response":0,"trial_type":"html-button-response","trial_index":90,"time_elapsed":1852807,"internal_node_id":"0.0-4.0-1.39","subject_id":"60adcb210781d3ccfff441ef","study_id":"6197b3f67c2b5cd3b6d9596a","session_id":"6197b9ebe6e3ea93875b2993","condition":"full-information","relevant_dimensions":["antennae","pattern"],"bee_group":{"antennae":"B","wings":"X","pattern":"S","legs":"X"},"bonus":1.2200000000000006},{"rt":2071,"stimulus":"bees-with-color/bee-B2SF.svg","response":1,"trial_type":"image-button-response","trial_index":91,"time_elapsed":1854879,"internal_node_id":"0.0-4.0-0.40","subject_id":"60adcb210781d3ccfff441ef","study_id":"6197b3f67c2b5cd3b6d9596a","session_id":"6197b9ebe6e3ea93875b2993","condition":"full-information","relevant_dimensions":["antennae","pattern"],"bee_group":{"antennae":"B","wings":"X","pattern":"S","legs":"X"},"action":"avoid","summary":"good-avoid","bonus":1.2200000000000006},{"rt":638,"stimulus":"\n                    <p><b>Action: <em>avoid</em></b></p>\n                    <p>This is the bee that you just saw.</p>\n                    <img src=\"bees-with-color/bee-B2SF.svg\" width=\"200\">\n                    <p><span class=\"greenText\">Good choice!</span>  This bee would have stung you.<br>Your bonus pay is unchanged, and remains at $0.96.</p>\n            ","response":0,"trial_type":"html-button-response","trial_index":92,"time_elapsed":1855519,"internal_node_id":"0.0-4.0-1.40","subject_id":"60adcb210781d3ccfff441ef","study_id":"6197b3f67c2b5cd3b6d9596a","session_id":"6197b9ebe6e3ea93875b2993","condition":"full-information","relevant_dimensions":["antennae","pattern"],"bee_group":{"antennae":"B","wings":"X","pattern":"S","legs":"X"},"bonus":1.2200000000000006},{"rt":1565,"stimulus":"bees-with-color/bee-A1DM.svg","response":0,"trial_type":"image-button-response","trial_index":93,"time_elapsed":1857086,"internal_node_id":"0.0-4.0-0.41","subject_id":"60adcb210781d3ccfff441ef","study_id":"6197b3f67c2b5cd3b6d9596a","session_id":"6197b9ebe6e3ea93875b2993","condition":"full-information","relevant_dimensions":["antennae","pattern"],"bee_group":{"antennae":"B","wings":"X","pattern":"S","legs":"X"},"action":"harvest","summary":"good-harvest","bonus":1.2200000000000006},{"rt":736,"stimulus":"\n                    <p><b>Action: <em>harvest</em></b></p>\n                    <p>This is the bee that you just saw.</p>\n                    <img src=\"bees-with-color/bee-A1DM.svg\" width=\"200\">\n                    <p><span class=\"greenText\"><b>Successful harvest!</b></span><br>Your pay has increased by $0.02. Your bonus pay is now $0.98.</p>\n            ","response":0,"trial_type":"html-button-response","trial_index":94,"time_elapsed":1857823,"internal_node_id":"0.0-4.0-1.41","subject_id":"60adcb210781d3ccfff441ef","study_id":"6197b3f67c2b5cd3b6d9596a","session_id":"6197b9ebe6e3ea93875b2993","condition":"full-information","relevant_dimensions":["antennae","pattern"],"bee_group":{"antennae":"B","wings":"X","pattern":"S","legs":"X"},"bonus":1.2200000000000006},{"rt":3736,"stimulus":"bees-with-color/bee-B1DF.svg","response":0,"trial_type":"image-button-response","trial_index":95,"time_elapsed":1861561,"internal_node_id":"0.0-4.0-0.42","subject_id":"60adcb210781d3ccfff441ef","study_id":"6197b3f67c2b5cd3b6d9596a","session_id":"6197b9ebe6e3ea93875b2993","condition":"full-information","relevant_dimensions":["antennae","pattern"],"bee_group":{"antennae":"B","wings":"X","pattern":"S","legs":"X"},"action":"harvest","summary":"good-harvest","bonus":1.2200000000000006},{"rt":1143,"stimulus":"\n                    <p><b>Action: <em>harvest</em></b></p>\n                    <p>This is the bee that you just saw.</p>\n                    <img src=\"bees-with-color/bee-B1DF.svg\" width=\"200\">\n                    <p><span class=\"greenText\"><b>Successful harvest!</b></span><br>Your pay has increased by $0.02. Your bonus pay is now $1.00.</p>\n            ","response":0,"trial_type":"html-button-response","trial_index":96,"time_elapsed":1862705,"internal_node_id":"0.0-4.0-1.42","subject_id":"60adcb210781d3ccfff441ef","study_id":"6197b3f67c2b5cd3b6d9596a","session_id":"6197b9ebe6e3ea93875b2993","condition":"full-information","relevant_dimensions":["antennae","pattern"],"bee_group":{"antennae":"B","wings":"X","pattern":"S","legs":"X"},"bonus":1.2200000000000006},{"rt":1090,"stimulus":"bees-with-color/bee-A2DM.svg","response":0,"trial_type":"image-button-response","trial_index":97,"time_elapsed":1863797,"internal_node_id":"0.0-4.0-0.43","subject_id":"60adcb210781d3ccfff441ef","study_id":"6197b3f67c2b5cd3b6d9596a","session_id":"6197b9ebe6e3ea93875b2993","condition":"full-information","relevant_dimensions":["antennae","pattern"],"bee_group":{"antennae":"B","wings":"X","pattern":"S","legs":"X"},"action":"harvest","summary":"good-harvest","bonus":1.2200000000000006},{"rt":604,"stimulus":"\n                    <p><b>Action: <em>harvest</em></b></p>\n                    <p>This is the bee that you just saw.</p>\n                    <img src=\"bees-with-color/bee-A2DM.svg\" width=\"200\">\n                    <p><span class=\"greenText\"><b>Successful harvest!</b></span><br>Your pay has increased by $0.02. Your bonus pay is now $1.02.</p>\n            ","response":0,"trial_type":"html-button-response","trial_index":98,"time_elapsed":1864403,"internal_node_id":"0.0-4.0-1.43","subject_id":"60adcb210781d3ccfff441ef","study_id":"6197b3f67c2b5cd3b6d9596a","session_id":"6197b9ebe6e3ea93875b2993","condition":"full-information","relevant_dimensions":["antennae","pattern"],"bee_group":{"antennae":"B","wings":"X","pattern":"S","legs":"X"},"bonus":1.2200000000000006},{"rt":1469,"stimulus":"bees-with-color/bee-A2SF.svg","response":0,"trial_type":"image-button-response","trial_index":99,"time_elapsed":1865875,"internal_node_id":"0.0-4.0-0.44","subject_id":"60adcb210781d3ccfff441ef","study_id":"6197b3f67c2b5cd3b6d9596a","session_id":"6197b9ebe6e3ea93875b2993","condition":"full-information","relevant_dimensions":["antennae","pattern"],"bee_group":{"antennae":"B","wings":"X","pattern":"S","legs":"X"},"action":"harvest","summary":"good-harvest","bonus":1.2200000000000006},{"rt":552,"stimulus":"\n                    <p><b>Action: <em>harvest</em></b></p>\n                    <p>This is the bee that you just saw.</p>\n                    <img src=\"bees-with-color/bee-A2SF.svg\" width=\"200\">\n                    <p><span class=\"greenText\"><b>Successful harvest!</b></span><br>Your pay has increased by $0.02. Your bonus pay is now $1.04.</p>\n            ","response":0,"trial_type":"html-button-response","trial_index":100,"time_elapsed":1866428,"internal_node_id":"0.0-4.0-1.44","subject_id":"60adcb210781d3ccfff441ef","study_id":"6197b3f67c2b5cd3b6d9596a","session_id":"6197b9ebe6e3ea93875b2993","condition":"full-information","relevant_dimensions":["antennae","pattern"],"bee_group":{"antennae":"B","wings":"X","pattern":"S","legs":"X"},"bonus":1.2200000000000006},{"rt":1141,"stimulus":"bees-with-color/bee-B2SM.svg","response":1,"trial_type":"image-button-response","trial_index":101,"time_elapsed":1867571,"internal_node_id":"0.0-4.0-0.45","subject_id":"60adcb210781d3ccfff441ef","study_id":"6197b3f67c2b5cd3b6d9596a","session_id":"6197b9ebe6e3ea93875b2993","condition":"full-information","relevant_dimensions":["antennae","pattern"],"bee_group":{"antennae":"B","wings":"X","pattern":"S","legs":"X"},"action":"avoid","summary":"good-avoid","bonus":1.2200000000000006},{"rt":619,"stimulus":"\n                    <p><b>Action: <em>avoid</em></b></p>\n                    <p>This is the bee that you just saw.</p>\n                    <img src=\"bees-with-color/bee-B2SM.svg\" width=\"200\">\n                    <p><span class=\"greenText\">Good choice!</span>  This bee would have stung you.<br>Your bonus pay is unchanged, and remains at $1.04.</p>\n            ","response":0,"trial_type":"html-button-response","trial_index":102,"time_elapsed":1868191,"internal_node_id":"0.0-4.0-1.45","subject_id":"60adcb210781d3ccfff441ef","study_id":"6197b3f67c2b5cd3b6d9596a","session_id":"6197b9ebe6e3ea93875b2993","condition":"full-information","relevant_dimensions":["antennae","pattern"],"bee_group":{"antennae":"B","wings":"X","pattern":"S","legs":"X"},"bonus":1.2200000000000006},{"rt":1036,"stimulus":"bees-with-color/bee-B2DF.svg","response":0,"trial_type":"image-button-response","trial_index":103,"time_elapsed":1869229,"internal_node_id":"0.0-4.0-0.46","subject_id":"60adcb210781d3ccfff441ef","study_id":"6197b3f67c2b5cd3b6d9596a","session_id":"6197b9ebe6e3ea93875b2993","condition":"full-information","relevant_dimensions":["antennae","pattern"],"bee_group":{"antennae":"B","wings":"X","pattern":"S","legs":"X"},"action":"harvest","summary":"good-harvest","bonus":1.2200000000000006},{"rt":646,"stimulus":"\n                    <p><b>Action: <em>harvest</em></b></p>\n                    <p>This is the bee that you just saw.</p>\n                    <img src=\"bees-with-color/bee-B2DF.svg\" width=\"200\">\n                    <p><span class=\"greenText\"><b>Successful harvest!</b></span><br>Your pay has increased by $0.02. Your bonus pay is now $1.06.</p>\n            ","response":0,"trial_type":"html-button-response","trial_index":104,"time_elapsed":1869877,"internal_node_id":"0.0-4.0-1.46","subject_id":"60adcb210781d3ccfff441ef","study_id":"6197b3f67c2b5cd3b6d9596a","session_id":"6197b9ebe6e3ea93875b2993","condition":"full-information","relevant_dimensions":["antennae","pattern"],"bee_group":{"antennae":"B","wings":"X","pattern":"S","legs":"X"},"bonus":1.2200000000000006},{"rt":1043,"stimulus":"bees-with-color/bee-A1SF.svg","response":0,"trial_type":"image-button-response","trial_index":105,"time_elapsed":1870921,"internal_node_id":"0.0-4.0-0.47","subject_id":"60adcb210781d3ccfff441ef","study_id":"6197b3f67c2b5cd3b6d9596a","session_id":"6197b9ebe6e3ea93875b2993","condition":"full-information","relevant_dimensions":["antennae","pattern"],"bee_group":{"antennae":"B","wings":"X","pattern":"S","legs":"X"},"action":"harvest","summary":"good-harvest","bonus":1.2200000000000006},{"rt":491,"stimulus":"\n                    <p><b>Action: <em>harvest</em></b></p>\n                    <p>This is the bee that you just saw.</p>\n                    <img src=\"bees-with-color/bee-A1SF.svg\" width=\"200\">\n                    <p><span class=\"greenText\"><b>Successful harvest!</b></span><br>Your pay has increased by $0.02. Your bonus pay is now $1.08.</p>\n            ","response":0,"trial_type":"html-button-response","trial_index":106,"time_elapsed":1871415,"internal_node_id":"0.0-4.0-1.47","subject_id":"60adcb210781d3ccfff441ef","study_id":"6197b3f67c2b5cd3b6d9596a","session_id":"6197b9ebe6e3ea93875b2993","condition":"full-information","relevant_dimensions":["antennae","pattern"],"bee_group":{"antennae":"B","wings":"X","pattern":"S","legs":"X"},"bonus":1.2200000000000006},{"rt":1146,"stimulus":"bees-with-color/bee-B2SM.svg","response":1,"trial_type":"image-button-response","trial_index":107,"time_elapsed":1872562,"internal_node_id":"0.0-4.0-0.48","subject_id":"60adcb210781d3ccfff441ef","study_id":"6197b3f67c2b5cd3b6d9596a","session_id":"6197b9ebe6e3ea93875b2993","condition":"full-information","relevant_dimensions":["antennae","pattern"],"bee_group":{"antennae":"B","wings":"X","pattern":"S","legs":"X"},"action":"avoid","summary":"good-avoid","bonus":1.2200000000000006},{"rt":457,"stimulus":"\n                    <p><b>Action: <em>avoid</em></b></p>\n                    <p>This is the bee that you just saw.</p>\n                    <img src=\"bees-with-color/bee-B2SM.svg\" width=\"200\">\n                    <p><span class=\"greenText\">Good choice!</span>  This bee would have stung you.<br>Your bonus pay is unchanged, and remains at $1.08.</p>\n            ","response":0,"trial_type":"html-button-response","trial_index":108,"time_elapsed":1873020,"internal_node_id":"0.0-4.0-1.48","subject_id":"60adcb210781d3ccfff441ef","study_id":"6197b3f67c2b5cd3b6d9596a","session_id":"6197b9ebe6e3ea93875b2993","condition":"full-information","relevant_dimensions":["antennae","pattern"],"bee_group":{"antennae":"B","wings":"X","pattern":"S","legs":"X"},"bonus":1.2200000000000006},{"rt":1049,"stimulus":"bees-with-color/bee-A2DM.svg","response":0,"trial_type":"image-button-response","trial_index":109,"time_elapsed":1874072,"internal_node_id":"0.0-4.0-0.49","subject_id":"60adcb210781d3ccfff441ef","study_id":"6197b3f67c2b5cd3b6d9596a","session_id":"6197b9ebe6e3ea93875b2993","condition":"full-information","relevant_dimensions":["antennae","pattern"],"bee_group":{"antennae":"B","wings":"X","pattern":"S","legs":"X"},"action":"harvest","summary":"good-harvest","bonus":1.2200000000000006},{"rt":678,"stimulus":"\n                    <p><b>Action: <em>harvest</em></b></p>\n                    <p>This is the bee that you just saw.</p>\n                    <img src=\"bees-with-color/bee-A2DM.svg\" width=\"200\">\n                    <p><span class=\"greenText\"><b>Successful harvest!</b></span><br>Your pay has increased by $0.02. Your bonus pay is now $1.10.</p>\n            ","response":0,"trial_type":"html-button-response","trial_index":110,"time_elapsed":1874752,"internal_node_id":"0.0-4.0-1.49","subject_id":"60adcb210781d3ccfff441ef","study_id":"6197b3f67c2b5cd3b6d9596a","session_id":"6197b9ebe6e3ea93875b2993","condition":"full-information","relevant_dimensions":["antennae","pattern"],"bee_group":{"antennae":"B","wings":"X","pattern":"S","legs":"X"},"bonus":1.2200000000000006},{"rt":1005,"stimulus":"bees-with-color/bee-A2SM.svg","response":0,"trial_type":"image-button-response","trial_index":111,"time_elapsed":1875758,"internal_node_id":"0.0-4.0-0.50","subject_id":"60adcb210781d3ccfff441ef","study_id":"6197b3f67c2b5cd3b6d9596a","session_id":"6197b9ebe6e3ea93875b2993","condition":"full-information","relevant_dimensions":["antennae","pattern"],"bee_group":{"antennae":"B","wings":"X","pattern":"S","legs":"X"},"action":"harvest","summary":"good-harvest","bonus":1.2200000000000006},{"rt":486,"stimulus":"\n                    <p><b>Action: <em>harvest</em></b></p>\n                    <p>This is the bee that you just saw.</p>\n                    <img src=\"bees-with-color/bee-A2SM.svg\" width=\"200\">\n                    <p><span class=\"greenText\"><b>Successful harvest!</b></span><br>Your pay has increased by $0.02. Your bonus pay is now $1.12.</p>\n            ","response":0,"trial_type":"html-button-response","trial_index":112,"time_elapsed":1876246,"internal_node_id":"0.0-4.0-1.50","subject_id":"60adcb210781d3ccfff441ef","study_id":"6197b3f67c2b5cd3b6d9596a","session_id":"6197b9ebe6e3ea93875b2993","condition":"full-information","relevant_dimensions":["antennae","pattern"],"bee_group":{"antennae":"B","wings":"X","pattern":"S","legs":"X"},"bonus":1.2200000000000006},{"rt":760,"stimulus":"bees-with-color/bee-A2SF.svg","response":0,"trial_type":"image-button-response","trial_index":113,"time_elapsed":1877008,"internal_node_id":"0.0-4.0-0.51","subject_id":"60adcb210781d3ccfff441ef","study_id":"6197b3f67c2b5cd3b6d9596a","session_id":"6197b9ebe6e3ea93875b2993","condition":"full-information","relevant_dimensions":["antennae","pattern"],"bee_group":{"antennae":"B","wings":"X","pattern":"S","legs":"X"},"action":"harvest","summary":"good-harvest","bonus":1.2200000000000006},{"rt":530,"stimulus":"\n                    <p><b>Action: <em>harvest</em></b></p>\n                    <p>This is the bee that you just saw.</p>\n                    <img src=\"bees-with-color/bee-A2SF.svg\" width=\"200\">\n                    <p><span class=\"greenText\"><b>Successful harvest!</b></span><br>Your pay has increased by $0.02. Your bonus pay is now $1.14.</p>\n            ","response":0,"trial_type":"html-button-response","trial_index":114,"time_elapsed":1877540,"internal_node_id":"0.0-4.0-1.51","subject_id":"60adcb210781d3ccfff441ef","study_id":"6197b3f67c2b5cd3b6d9596a","session_id":"6197b9ebe6e3ea93875b2993","condition":"full-information","relevant_dimensions":["antennae","pattern"],"bee_group":{"antennae":"B","wings":"X","pattern":"S","legs":"X"},"bonus":1.2200000000000006},{"rt":807,"stimulus":"bees-with-color/bee-A1SF.svg","response":0,"trial_type":"image-button-response","trial_index":115,"time_elapsed":1878348,"internal_node_id":"0.0-4.0-0.52","subject_id":"60adcb210781d3ccfff441ef","study_id":"6197b3f67c2b5cd3b6d9596a","session_id":"6197b9ebe6e3ea93875b2993","condition":"full-information","relevant_dimensions":["antennae","pattern"],"bee_group":{"antennae":"B","wings":"X","pattern":"S","legs":"X"},"action":"harvest","summary":"good-harvest","bonus":1.2200000000000006},{"rt":948,"stimulus":"\n                    <p><b>Action: <em>harvest</em></b></p>\n                    <p>This is the bee that you just saw.</p>\n                    <img src=\"bees-with-color/bee-A1SF.svg\" width=\"200\">\n                    <p><span class=\"greenText\"><b>Successful harvest!</b></span><br>Your pay has increased by $0.02. Your bonus pay is now $1.16.</p>\n            ","response":0,"trial_type":"html-button-response","trial_index":116,"time_elapsed":1879299,"internal_node_id":"0.0-4.0-1.52","subject_id":"60adcb210781d3ccfff441ef","study_id":"6197b3f67c2b5cd3b6d9596a","session_id":"6197b9ebe6e3ea93875b2993","condition":"full-information","relevant_dimensions":["antennae","pattern"],"bee_group":{"antennae":"B","wings":"X","pattern":"S","legs":"X"},"bonus":1.2200000000000006},{"rt":1269,"stimulus":"bees-with-color/bee-B1SF.svg","response":1,"trial_type":"image-button-response","trial_index":117,"time_elapsed":1880569,"internal_node_id":"0.0-4.0-0.53","subject_id":"60adcb210781d3ccfff441ef","study_id":"6197b3f67c2b5cd3b6d9596a","session_id":"6197b9ebe6e3ea93875b2993","condition":"full-information","relevant_dimensions":["antennae","pattern"],"bee_group":{"antennae":"B","wings":"X","pattern":"S","legs":"X"},"action":"avoid","summary":"good-avoid","bonus":1.2200000000000006},{"rt":426,"stimulus":"\n                    <p><b>Action: <em>avoid</em></b></p>\n                    <p>This is the bee that you just saw.</p>\n                    <img src=\"bees-with-color/bee-B1SF.svg\" width=\"200\">\n                    <p><span class=\"greenText\">Good choice!</span>  This bee would have stung you.<br>Your bonus pay is unchanged, and remains at $1.16.</p>\n            ","response":0,"trial_type":"html-button-response","trial_index":118,"time_elapsed":1880998,"internal_node_id":"0.0-4.0-1.53","subject_id":"60adcb210781d3ccfff441ef","study_id":"6197b3f67c2b5cd3b6d9596a","session_id":"6197b9ebe6e3ea93875b2993","condition":"full-information","relevant_dimensions":["antennae","pattern"],"bee_group":{"antennae":"B","wings":"X","pattern":"S","legs":"X"},"bonus":1.2200000000000006},{"rt":450,"stimulus":"bees-with-color/bee-A1SM.svg","response":0,"trial_type":"image-button-response","trial_index":119,"time_elapsed":1881451,"internal_node_id":"0.0-4.0-0.54","subject_id":"60adcb210781d3ccfff441ef","study_id":"6197b3f67c2b5cd3b6d9596a","session_id":"6197b9ebe6e3ea93875b2993","condition":"full-information","relevant_dimensions":["antennae","pattern"],"bee_group":{"antennae":"B","wings":"X","pattern":"S","legs":"X"},"action":"harvest","summary":"good-harvest","bonus":1.2200000000000006},{"rt":767,"stimulus":"\n                    <p><b>Action: <em>harvest</em></b></p>\n                    <p>This is the bee that you just saw.</p>\n                    <img src=\"bees-with-color/bee-A1SM.svg\" width=\"200\">\n                    <p><span class=\"greenText\"><b>Successful harvest!</b></span><br>Your pay has increased by $0.02. Your bonus pay is now $1.18.</p>\n            ","response":0,"trial_type":"html-button-response","trial_index":120,"time_elapsed":1882220,"internal_node_id":"0.0-4.0-1.54","subject_id":"60adcb210781d3ccfff441ef","study_id":"6197b3f67c2b5cd3b6d9596a","session_id":"6197b9ebe6e3ea93875b2993","condition":"full-information","relevant_dimensions":["antennae","pattern"],"bee_group":{"antennae":"B","wings":"X","pattern":"S","legs":"X"},"bonus":1.2200000000000006},{"rt":1440,"stimulus":"bees-with-color/bee-B1DM.svg","response":0,"trial_type":"image-button-response","trial_index":121,"time_elapsed":1883664,"internal_node_id":"0.0-4.0-0.55","subject_id":"60adcb210781d3ccfff441ef","study_id":"6197b3f67c2b5cd3b6d9596a","session_id":"6197b9ebe6e3ea93875b2993","condition":"full-information","relevant_dimensions":["antennae","pattern"],"bee_group":{"antennae":"B","wings":"X","pattern":"S","legs":"X"},"action":"harvest","summary":"good-harvest","bonus":1.2200000000000006},{"rt":403,"stimulus":"\n                    <p><b>Action: <em>harvest</em></b></p>\n                    <p>This is the bee that you just saw.</p>\n                    <img src=\"bees-with-color/bee-B1DM.svg\" width=\"200\">\n                    <p><span class=\"greenText\"><b>Successful harvest!</b></span><br>Your pay has increased by $0.02. Your bonus pay is now $1.20.</p>\n            ","response":0,"trial_type":"html-button-response","trial_index":122,"time_elapsed":1884068,"internal_node_id":"0.0-4.0-1.55","subject_id":"60adcb210781d3ccfff441ef","study_id":"6197b3f67c2b5cd3b6d9596a","session_id":"6197b9ebe6e3ea93875b2993","condition":"full-information","relevant_dimensions":["antennae","pattern"],"bee_group":{"antennae":"B","wings":"X","pattern":"S","legs":"X"},"bonus":1.2200000000000006},{"rt":751,"stimulus":"bees-with-color/bee-B2DF.svg","response":0,"trial_type":"image-button-response","trial_index":123,"time_elapsed":1884821,"internal_node_id":"0.0-4.0-0.56","subject_id":"60adcb210781d3ccfff441ef","study_id":"6197b3f67c2b5cd3b6d9596a","session_id":"6197b9ebe6e3ea93875b2993","condition":"full-information","relevant_dimensions":["antennae","pattern"],"bee_group":{"antennae":"B","wings":"X","pattern":"S","legs":"X"},"action":"harvest","summary":"good-harvest","bonus":1.2200000000000006},{"rt":643,"stimulus":"\n                    <p><b>Action: <em>harvest</em></b></p>\n                    <p>This is the bee that you just saw.</p>\n                    <img src=\"bees-with-color/bee-B2DF.svg\" width=\"200\">\n                    <p><span class=\"greenText\"><b>Successful harvest!</b></span><br>Your pay has increased by $0.02. Your bonus pay is now $1.22.</p>\n            ","response":0,"trial_type":"html-button-response","trial_index":124,"time_elapsed":1885467,"internal_node_id":"0.0-4.0-1.56","subject_id":"60adcb210781d3ccfff441ef","study_id":"6197b3f67c2b5cd3b6d9596a","session_id":"6197b9ebe6e3ea93875b2993","condition":"full-information","relevant_dimensions":["antennae","pattern"],"bee_group":{"antennae":"B","wings":"X","pattern":"S","legs":"X"},"bonus":1.2200000000000006},{"rt":864,"stimulus":"bees-with-color/bee-B2SF.svg","response":1,"trial_type":"image-button-response","trial_index":125,"time_elapsed":1886333,"internal_node_id":"0.0-4.0-0.57","subject_id":"60adcb210781d3ccfff441ef","study_id":"6197b3f67c2b5cd3b6d9596a","session_id":"6197b9ebe6e3ea93875b2993","condition":"full-information","relevant_dimensions":["antennae","pattern"],"bee_group":{"antennae":"B","wings":"X","pattern":"S","legs":"X"},"action":"avoid","summary":"good-avoid","bonus":1.2200000000000006},{"rt":420,"stimulus":"\n                    <p><b>Action: <em>avoid</em></b></p>\n                    <p>This is the bee that you just saw.</p>\n                    <img src=\"bees-with-color/bee-B2SF.svg\" width=\"200\">\n                    <p><span class=\"greenText\">Good choice!</span>  This bee would have stung you.<br>Your bonus pay is unchanged, and remains at $1.22.</p>\n            ","response":0,"trial_type":"html-button-response","trial_index":126,"time_elapsed":1886755,"internal_node_id":"0.0-4.0-1.57","subject_id":"60adcb210781d3ccfff441ef","study_id":"6197b3f67c2b5cd3b6d9596a","session_id":"6197b9ebe6e3ea93875b2993","condition":"full-information","relevant_dimensions":["antennae","pattern"],"bee_group":{"antennae":"B","wings":"X","pattern":"S","legs":"X"},"bonus":1.2200000000000006},{"rt":814,"stimulus":"bees-with-color/bee-A1DM.svg","response":0,"trial_type":"image-button-response","trial_index":127,"time_elapsed":1887571,"internal_node_id":"0.0-4.0-0.58","subject_id":"60adcb210781d3ccfff441ef","study_id":"6197b3f67c2b5cd3b6d9596a","session_id":"6197b9ebe6e3ea93875b2993","condition":"full-information","relevant_dimensions":["antennae","pattern"],"bee_group":{"antennae":"B","wings":"X","pattern":"S","legs":"X"},"action":"harvest","summary":"good-harvest","bonus":1.2200000000000006},{"rt":486,"stimulus":"\n                    <p><b>Action: <em>harvest</em></b></p>\n                    <p>This is the bee that you just saw.</p>\n                    <img src=\"bees-with-color/bee-A1DM.svg\" width=\"200\">\n                    <p><span class=\"greenText\"><b>Successful harvest!</b></span><br>Your pay has increased by $0.02. Your bonus pay is now $1.24.</p>\n            ","response":0,"trial_type":"html-button-response","trial_index":128,"time_elapsed":1888059,"internal_node_id":"0.0-4.0-1.58","subject_id":"60adcb210781d3ccfff441ef","study_id":"6197b3f67c2b5cd3b6d9596a","session_id":"6197b9ebe6e3ea93875b2993","condition":"full-information","relevant_dimensions":["antennae","pattern"],"bee_group":{"antennae":"B","wings":"X","pattern":"S","legs":"X"},"bonus":1.2200000000000006},{"rt":1051,"stimulus":"bees-with-color/bee-B2DM.svg","response":0,"trial_type":"image-button-response","trial_index":129,"time_elapsed":1889111,"internal_node_id":"0.0-4.0-0.59","subject_id":"60adcb210781d3ccfff441ef","study_id":"6197b3f67c2b5cd3b6d9596a","session_id":"6197b9ebe6e3ea93875b2993","condition":"full-information","relevant_dimensions":["antennae","pattern"],"bee_group":{"antennae":"B","wings":"X","pattern":"S","legs":"X"},"action":"harvest","summary":"good-harvest","bonus":1.2200000000000006},{"rt":411,"stimulus":"\n                    <p><b>Action: <em>harvest</em></b></p>\n                    <p>This is the bee that you just saw.</p>\n                    <img src=\"bees-with-color/bee-B2DM.svg\" width=\"200\">\n                    <p><span class=\"greenText\"><b>Successful harvest!</b></span><br>Your pay has increased by $0.02. Your bonus pay is now $1.26.</p>\n            ","response":0,"trial_type":"html-button-response","trial_index":130,"time_elapsed":1889524,"internal_node_id":"0.0-4.0-1.59","subject_id":"60adcb210781d3ccfff441ef","study_id":"6197b3f67c2b5cd3b6d9596a","session_id":"6197b9ebe6e3ea93875b2993","condition":"full-information","relevant_dimensions":["antennae","pattern"],"bee_group":{"antennae":"B","wings":"X","pattern":"S","legs":"X"},"bonus":1.2200000000000006},{"rt":540,"stimulus":"bees-with-color/bee-B1DF.svg","response":0,"trial_type":"image-button-response","trial_index":131,"time_elapsed":1890067,"internal_node_id":"0.0-4.0-0.60","subject_id":"60adcb210781d3ccfff441ef","study_id":"6197b3f67c2b5cd3b6d9596a","session_id":"6197b9ebe6e3ea93875b2993","condition":"full-information","relevant_dimensions":["antennae","pattern"],"bee_group":{"antennae":"B","wings":"X","pattern":"S","legs":"X"},"action":"harvest","summary":"good-harvest","bonus":1.2200000000000006},{"rt":488,"stimulus":"\n                    <p><b>Action: <em>harvest</em></b></p>\n                    <p>This is the bee that you just saw.</p>\n                    <img src=\"bees-with-color/bee-B1DF.svg\" width=\"200\">\n                    <p><span class=\"greenText\"><b>Successful harvest!</b></span><br>Your pay has increased by $0.02. Your bonus pay is now $1.28.</p>\n            ","response":0,"trial_type":"html-button-response","trial_index":132,"time_elapsed":1890557,"internal_node_id":"0.0-4.0-1.60","subject_id":"60adcb210781d3ccfff441ef","study_id":"6197b3f67c2b5cd3b6d9596a","session_id":"6197b9ebe6e3ea93875b2993","condition":"full-information","relevant_dimensions":["antennae","pattern"],"bee_group":{"antennae":"B","wings":"X","pattern":"S","legs":"X"},"bonus":1.2200000000000006},{"rt":847,"stimulus":"bees-with-color/bee-B1SM.svg","response":1,"trial_type":"image-button-response","trial_index":133,"time_elapsed":1891406,"internal_node_id":"0.0-4.0-0.61","subject_id":"60adcb210781d3ccfff441ef","study_id":"6197b3f67c2b5cd3b6d9596a","session_id":"6197b9ebe6e3ea93875b2993","condition":"full-information","relevant_dimensions":["antennae","pattern"],"bee_group":{"antennae":"B","wings":"X","pattern":"S","legs":"X"},"action":"avoid","summary":"good-avoid","bonus":1.2200000000000006},{"rt":572,"stimulus":"\n                    <p><b>Action: <em>avoid</em></b></p>\n                    <p>This is the bee that you just saw.</p>\n                    <img src=\"bees-with-color/bee-B1SM.svg\" width=\"200\">\n                    <p><span class=\"greenText\">Good choice!</span>  This bee would have stung you.<br>Your bonus pay is unchanged, and remains at $1.28.</p>\n            ","response":0,"trial_type":"html-button-response","trial_index":134,"time_elapsed":1891981,"internal_node_id":"0.0-4.0-1.61","subject_id":"60adcb210781d3ccfff441ef","study_id":"6197b3f67c2b5cd3b6d9596a","session_id":"6197b9ebe6e3ea93875b2993","condition":"full-information","relevant_dimensions":["antennae","pattern"],"bee_group":{"antennae":"B","wings":"X","pattern":"S","legs":"X"},"bonus":1.2200000000000006},{"rt":828,"stimulus":"bees-with-color/bee-A1DF.svg","response":0,"trial_type":"image-button-response","trial_index":135,"time_elapsed":1892810,"internal_node_id":"0.0-4.0-0.62","subject_id":"60adcb210781d3ccfff441ef","study_id":"6197b3f67c2b5cd3b6d9596a","session_id":"6197b9ebe6e3ea93875b2993","condition":"full-information","relevant_dimensions":["antennae","pattern"],"bee_group":{"antennae":"B","wings":"X","pattern":"S","legs":"X"},"action":"harvest","summary":"good-harvest","bonus":1.2200000000000006},{"rt":468,"stimulus":"\n                    <p><b>Action: <em>harvest</em></b></p>\n                    <p>This is the bee that you just saw.</p>\n                    <img src=\"bees-with-color/bee-A1DF.svg\" width=\"200\">\n                    <p><span class=\"greenText\"><b>Successful harvest!</b></span><br>Your pay has increased by $0.02. Your bonus pay is now $1.30.</p>\n            ","response":0,"trial_type":"html-button-response","trial_index":136,"time_elapsed":1893279,"internal_node_id":"0.0-4.0-1.62","subject_id":"60adcb210781d3ccfff441ef","study_id":"6197b3f67c2b5cd3b6d9596a","session_id":"6197b9ebe6e3ea93875b2993","condition":"full-information","relevant_dimensions":["antennae","pattern"],"bee_group":{"antennae":"B","wings":"X","pattern":"S","legs":"X"},"bonus":1.2200000000000006},{"rt":639,"stimulus":"bees-with-color/bee-A2DF.svg","response":0,"trial_type":"image-button-response","trial_index":137,"time_elapsed":1893919,"internal_node_id":"0.0-4.0-0.63","subject_id":"60adcb210781d3ccfff441ef","study_id":"6197b3f67c2b5cd3b6d9596a","session_id":"6197b9ebe6e3ea93875b2993","condition":"full-information","relevant_dimensions":["antennae","pattern"],"bee_group":{"antennae":"B","wings":"X","pattern":"S","legs":"X"},"action":"harvest","summary":"good-harvest","bonus":1.2200000000000006},{"rt":799,"stimulus":"\n                    <p><b>Action: <em>harvest</em></b></p>\n                    <p>This is the bee that you just saw.</p>\n                    <img src=\"bees-with-color/bee-A2DF.svg\" width=\"200\">\n                    <p><span class=\"greenText\"><b>Successful harvest!</b></span><br>Your pay has increased by $0.02. Your bonus pay is now $1.32.</p>\n            ","response":0,"trial_type":"html-button-response","trial_index":138,"time_elapsed":1894719,"internal_node_id":"0.0-4.0-1.63","subject_id":"60adcb210781d3ccfff441ef","study_id":"6197b3f67c2b5cd3b6d9596a","session_id":"6197b9ebe6e3ea93875b2993","condition":"full-information","relevant_dimensions":["antennae","pattern"],"bee_group":{"antennae":"B","wings":"X","pattern":"S","legs":"X"},"bonus":1.2200000000000006},{"rt":9134,"stimulus":"You have completed the first part of this experiment.<br><br>You will now begin a shorter second part, in which you will receive no feedback.<br>The same rules regarding bonus pay apply.<br><br>Press any key to begin.","response":"enter","trial_type":"html-keyboard-response","trial_index":139,"time_elapsed":1903855,"internal_node_id":"0.0-5.0","subject_id":"60adcb210781d3ccfff441ef","study_id":"6197b3f67c2b5cd3b6d9596a","session_id":"6197b9ebe6e3ea93875b2993","condition":"full-information","relevant_dimensions":["antennae","pattern"],"bee_group":{"antennae":"B","wings":"X","pattern":"S","legs":"X"},"bonus":1.2200000000000006},{"rt":4716,"stimulus":"bees-with-color/bee-B1DM.svg","response":1,"trial_type":"image-button-response","trial_index":140,"time_elapsed":1908574,"internal_node_id":"0.0-6.0-0.0","subject_id":"60adcb210781d3ccfff441ef","study_id":"6197b3f67c2b5cd3b6d9596a","session_id":"6197b9ebe6e3ea93875b2993","condition":"full-information","relevant_dimensions":["antennae","pattern"],"bee_group":{"antennae":"B","wings":"X","pattern":"S","legs":"X"},"bonus":1.2200000000000006},{"rt":2725,"stimulus":"bees-with-color/bee-A2DM.svg","response":1,"trial_type":"image-button-response","trial_index":141,"time_elapsed":1911302,"internal_node_id":"0.0-6.0-0.1","subject_id":"60adcb210781d3ccfff441ef","study_id":"6197b3f67c2b5cd3b6d9596a","session_id":"6197b9ebe6e3ea93875b2993","condition":"full-information","relevant_dimensions":["antennae","pattern"],"bee_group":{"antennae":"B","wings":"X","pattern":"S","legs":"X"},"bonus":1.2200000000000006},{"rt":589,"stimulus":"bees-with-color/bee-B2DF.svg","response":1,"trial_type":"image-button-response","trial_index":142,"time_elapsed":1911895,"internal_node_id":"0.0-6.0-0.2","subject_id":"60adcb210781d3ccfff441ef","study_id":"6197b3f67c2b5cd3b6d9596a","session_id":"6197b9ebe6e3ea93875b2993","condition":"full-information","relevant_dimensions":["antennae","pattern"],"bee_group":{"antennae":"B","wings":"X","pattern":"S","legs":"X"},"bonus":1.2200000000000006},{"rt":583,"stimulus":"bees-with-color/bee-A2SM.svg","response":1,"trial_type":"image-button-response","trial_index":143,"time_elapsed":1912480,"internal_node_id":"0.0-6.0-0.3","subject_id":"60adcb210781d3ccfff441ef","study_id":"6197b3f67c2b5cd3b6d9596a","session_id":"6197b9ebe6e3ea93875b2993","condition":"full-information","relevant_dimensions":["antennae","pattern"],"bee_group":{"antennae":"B","wings":"X","pattern":"S","legs":"X"},"bonus":1.2200000000000006},{"rt":243,"stimulus":"bees-with-color/bee-B1SF.svg","response":1,"trial_type":"image-button-response","trial_index":144,"time_elapsed":1912725,"internal_node_id":"0.0-6.0-0.4","subject_id":"60adcb210781d3ccfff441ef","study_id":"6197b3f67c2b5cd3b6d9596a","session_id":"6197b9ebe6e3ea93875b2993","condition":"full-information","relevant_dimensions":["antennae","pattern"],"bee_group":{"antennae":"B","wings":"X","pattern":"S","legs":"X"},"bonus":1.2200000000000006},{"rt":201,"stimulus":"bees-with-color/bee-A2SF.svg","response":1,"trial_type":"image-button-response","trial_index":145,"time_elapsed":1912928,"internal_node_id":"0.0-6.0-0.5","subject_id":"60adcb210781d3ccfff441ef","study_id":"6197b3f67c2b5cd3b6d9596a","session_id":"6197b9ebe6e3ea93875b2993","condition":"full-information","relevant_dimensions":["antennae","pattern"],"bee_group":{"antennae":"B","wings":"X","pattern":"S","legs":"X"},"bonus":1.2200000000000006},{"rt":193,"stimulus":"bees-with-color/bee-A2DF.svg","response":1,"trial_type":"image-button-response","trial_index":146,"time_elapsed":1913122,"internal_node_id":"0.0-6.0-0.6","subject_id":"60adcb210781d3ccfff441ef","study_id":"6197b3f67c2b5cd3b6d9596a","session_id":"6197b9ebe6e3ea93875b2993","condition":"full-information","relevant_dimensions":["antennae","pattern"],"bee_group":{"antennae":"B","wings":"X","pattern":"S","legs":"X"},"bonus":1.2200000000000006},{"rt":7167,"stimulus":"bees-with-color/bee-B1SM.svg","response":1,"trial_type":"image-button-response","trial_index":147,"time_elapsed":1920291,"internal_node_id":"0.0-6.0-0.7","subject_id":"60adcb210781d3ccfff441ef","study_id":"6197b3f67c2b5cd3b6d9596a","session_id":"6197b9ebe6e3ea93875b2993","condition":"full-information","relevant_dimensions":["antennae","pattern"],"bee_group":{"antennae":"B","wings":"X","pattern":"S","legs":"X"},"bonus":1.2200000000000006},{"rt":200,"stimulus":"bees-with-color/bee-A1DF.svg","response":1,"trial_type":"image-button-response","trial_index":148,"time_elapsed":1920493,"internal_node_id":"0.0-6.0-0.8","subject_id":"60adcb210781d3ccfff441ef","study_id":"6197b3f67c2b5cd3b6d9596a","session_id":"6197b9ebe6e3ea93875b2993","condition":"full-information","relevant_dimensions":["antennae","pattern"],"bee_group":{"antennae":"B","wings":"X","pattern":"S","legs":"X"},"bonus":1.2200000000000006},{"rt":237,"stimulus":"bees-with-color/bee-B1DF.svg","response":1,"trial_type":"image-button-response","trial_index":149,"time_elapsed":1920731,"internal_node_id":"0.0-6.0-0.9","subject_id":"60adcb210781d3ccfff441ef","study_id":"6197b3f67c2b5cd3b6d9596a","session_id":"6197b9ebe6e3ea93875b2993","condition":"full-information","relevant_dimensions":["antennae","pattern"],"bee_group":{"antennae":"B","wings":"X","pattern":"S","legs":"X"},"bonus":1.2200000000000006},{"rt":212,"stimulus":"bees-with-color/bee-A1SM.svg","response":1,"trial_type":"image-button-response","trial_index":150,"time_elapsed":1920946,"internal_node_id":"0.0-6.0-0.10","subject_id":"60adcb210781d3ccfff441ef","study_id":"6197b3f67c2b5cd3b6d9596a","session_id":"6197b9ebe6e3ea93875b2993","condition":"full-information","relevant_dimensions":["antennae","pattern"],"bee_group":{"antennae":"B","wings":"X","pattern":"S","legs":"X"},"bonus":1.2200000000000006},{"rt":204,"stimulus":"bees-with-color/bee-A1DM.svg","response":1,"trial_type":"image-button-response","trial_index":151,"time_elapsed":1921152,"internal_node_id":"0.0-6.0-0.11","subject_id":"60adcb210781d3ccfff441ef","study_id":"6197b3f67c2b5cd3b6d9596a","session_id":"6197b9ebe6e3ea93875b2993","condition":"full-information","relevant_dimensions":["antennae","pattern"],"bee_group":{"antennae":"B","wings":"X","pattern":"S","legs":"X"},"bonus":1.2200000000000006},{"rt":180,"stimulus":"bees-with-color/bee-B2SF.svg","response":1,"trial_type":"image-button-response","trial_index":152,"time_elapsed":1921333,"internal_node_id":"0.0-6.0-0.12","subject_id":"60adcb210781d3ccfff441ef","study_id":"6197b3f67c2b5cd3b6d9596a","session_id":"6197b9ebe6e3ea93875b2993","condition":"full-information","relevant_dimensions":["antennae","pattern"],"bee_group":{"antennae":"B","wings":"X","pattern":"S","legs":"X"},"bonus":1.2200000000000006},{"rt":179,"stimulus":"bees-with-color/bee-A1SF.svg","response":1,"trial_type":"image-button-response","trial_index":153,"time_elapsed":1921514,"internal_node_id":"0.0-6.0-0.13","subject_id":"60adcb210781d3ccfff441ef","study_id":"6197b3f67c2b5cd3b6d9596a","session_id":"6197b9ebe6e3ea93875b2993","condition":"full-information","relevant_dimensions":["antennae","pattern"],"bee_group":{"antennae":"B","wings":"X","pattern":"S","legs":"X"},"bonus":1.2200000000000006},{"rt":642,"stimulus":"bees-with-color/bee-B2SM.svg","response":0,"trial_type":"image-button-response","trial_index":154,"time_elapsed":1922159,"internal_node_id":"0.0-6.0-0.14","subject_id":"60adcb210781d3ccfff441ef","study_id":"6197b3f67c2b5cd3b6d9596a","session_id":"6197b9ebe6e3ea93875b2993","condition":"full-information","relevant_dimensions":["antennae","pattern"],"bee_group":{"antennae":"B","wings":"X","pattern":"S","legs":"X"},"bonus":1.2200000000000006},{"rt":503,"stimulus":"bees-with-color/bee-B2DM.svg","response":1,"trial_type":"image-button-response","trial_index":155,"time_elapsed":1922663,"internal_node_id":"0.0-6.0-0.15","subject_id":"60adcb210781d3ccfff441ef","study_id":"6197b3f67c2b5cd3b6d9596a","session_id":"6197b9ebe6e3ea93875b2993","condition":"full-information","relevant_dimensions":["antennae","pattern"],"bee_group":{"antennae":"B","wings":"X","pattern":"S","legs":"X"},"bonus":1.2200000000000006},{"rt":185,"stimulus":"bees-with-color/bee-A1SM.svg","response":1,"trial_type":"image-button-response","trial_index":156,"time_elapsed":1922851,"internal_node_id":"0.0-6.0-0.16","subject_id":"60adcb210781d3ccfff441ef","study_id":"6197b3f67c2b5cd3b6d9596a","session_id":"6197b9ebe6e3ea93875b2993","condition":"full-information","relevant_dimensions":["antennae","pattern"],"bee_group":{"antennae":"B","wings":"X","pattern":"S","legs":"X"},"bonus":1.2200000000000006},{"rt":185,"stimulus":"bees-with-color/bee-B2SF.svg","response":1,"trial_type":"image-button-response","trial_index":157,"time_elapsed":1923038,"internal_node_id":"0.0-6.0-0.17","subject_id":"60adcb210781d3ccfff441ef","study_id":"6197b3f67c2b5cd3b6d9596a","session_id":"6197b9ebe6e3ea93875b2993","condition":"full-information","relevant_dimensions":["antennae","pattern"],"bee_group":{"antennae":"B","wings":"X","pattern":"S","legs":"X"},"bonus":1.22