[{"success":true,"trial_type":"fullscreen","trial_index":0,"time_elapsed":9265,"internal_node_id":"0.0-0.0","subject_id":"5f6e0be76cea482e27d38c95","study_id":"60edd13110225f80f9f3709b","session_id":"6196c702573cb47beb2a57b1","condition":"contingent","relevant_dimensions":["wings","pattern"],"bee_group":{"antennae":"X","wings":"1","pattern":"S","legs":"X"},"bonus":0.8400000000000009},{"success":true,"timeout":false,"failed_images":[],"failed_audio":[],"failed_video":[],"trial_type":"preload","trial_index":1,"time_elapsed":11025,"internal_node_id":"0.0-1.0","subject_id":"5f6e0be76cea482e27d38c95","study_id":"60edd13110225f80f9f3709b","session_id":"6196c702573cb47beb2a57b1","condition":"contingent","relevant_dimensions":["wings","pattern"],"bee_group":{"antennae":"X","wings":"1","pattern":"S","legs":"X"},"bonus":0.8400000000000009},{"rt":1863.5,"stimulus":"Welcome! Press any key to begin.","response":"n","trial_type":"html-keyboard-response","trial_index":2,"time_elapsed":12890,"internal_node_id":"0.0-2.0","subject_id":"5f6e0be76cea482e27d38c95","study_id":"60edd13110225f80f9f3709b","session_id":"6196c702573cb47beb2a57b1","condition":"contingent","relevant_dimensions":["wings","pattern"],"bee_group":{"antennae":"X","wings":"1","pattern":"S","legs":"X"},"bonus":0.8400000000000009},{"view_history":[{"page_index":0,"viewing_time":6001.29999999702},{"page_index":1,"viewing_time":16682.89999999106},{"page_index":2,"viewing_time":31300.10000000894},{"page_index":3,"viewing_time":12397},{"page_index":4,"viewing_time":5535},{"page_index":5,"viewing_time":6193.899999991059},{"page_index":6,"viewing_time":30372.20000000298},{"page_index":7,"viewing_time":5315.9000000059605},{"page_index":8,"viewing_time":3608.0999999940395},{"page_index":9,"viewing_time":3104.7999999970198},{"page_index":10,"viewing_time":3814},{"page_index":11,"viewing_time":9991},{"page_index":12,"viewing_time":7383.100000008941},{"page_index":13,"viewing_time":1204.8999999910593},{"page_index":14,"viewing_time":2138}],"rt":145042.39999999106,"trial_type":"instructions","trial_index":3,"time_elapsed":157933,"internal_node_id":"0.0-3.0-0.0","subject_id":"5f6e0be76cea482e27d38c95","study_id":"60edd13110225f80f9f3709b","session_id":"6196c702573cb47beb2a57b1","condition":"contingent","relevant_dimensions":["wings","pattern"],"bee_group":{"antennae":"X","wings":"1","pattern":"S","legs":"X"},"bonus":0.8400000000000009},{"rt":9725.5,"response":{"Q0":["Two or six legs"]},"question_order":[0],"trial_type":"survey-multi-select","trial_index":4,"time_elapsed":167661,"internal_node_id":"0.0-3.0-1.0","subject_id":"5f6e0be76cea482e27d38c95","study_id":"60edd13110225f80f9f3709b","session_id":"6196c702573cb47beb2a57b1","condition":"contingent","relevant_dimensions":["wings","pattern"],"bee_group":{"antennae":"X","wings":"1","pattern":"S","legs":"X"},"correct":false,"bonus":0.8400000000000009},{"rt":21794.5,"response":{"Q1":"No.","Q2":"Based on the four features of the bee.","Q3":"You do not learn if it was friendly or dangerous, and do not alter your bonus."},"question_order":[0,1,2],"trial_type":"survey-multi-choice","trial_index":5,"time_elapsed":189457,"internal_node_id":"0.0-3.0-2.0","subject_id":"5f6e0be76cea482e27d38c95","study_id":"60edd13110225f80f9f3709b","session_id":"6196c702573cb47beb2a57b1","condition":"contingent","relevant_dimensions":["wings","pattern"],"bee_group":{"antennae":"X","wings":"1","pattern":"S","legs":"X"},"correct":true,"bonus":0.8400000000000009},{"rt":3239.8999999910593,"stimulus":"<p>You did not answer all comprehension questions correctly.<br>Press <b>continue</b> to review the instructions again.</p>","response":0,"trial_type":"html-button-response","trial_index":6,"time_elapsed":192698,"internal_node_id":"0.0-3.0-3.0","subject_id":"5f6e0be76cea482e27d38c95","study_id":"60edd13110225f80f9f3709b","session_id":"6196c702573cb47beb2a57b1","condition":"contingent","relevant_dimensions":["wings","pattern"],"bee_group":{"antennae":"X","wings":"1","pattern":"S","legs":"X"},"bonus":0.8400000000000009},{"view_history":[{"page_index":0,"viewing_time":2228.5999999940395},{"page_index":1,"viewing_time":6669.0999999940395},{"page_index":2,"viewing_time":2097},{"page_index":3,"viewing_time":3241},{"page_index":4,"viewing_time":6382},{"page_index":5,"viewing_time":1724.9000000059605},{"page_index":6,"viewing_time":7699},{"page_index":7,"viewing_time":2774},{"page_index":8,"viewing_time":1906.5},{"page_index":9,"viewing_time":1835.5},{"page_index":10,"viewing_time":1881.0999999940395},{"page_index":11,"viewing_time":6921},{"page_index":12,"viewing_time":1800.9000000059605},{"page_index":13,"viewing_time":940.4000000059605},{"page_index":14,"viewing_time":836.5999999940395}],"rt":48937.79999999702,"trial_type":"instructions","trial_index":7,"time_elapsed":241636,"internal_node_id":"0.0-3.0-4.0-0.0","subject_id":"5f6e0be76cea482e27d38c95","study_id":"60edd13110225f80f9f3709b","session_id":"6196c702573cb47beb2a57b1","condition":"contingent","relevant_dimensions":["wings","pattern"],"bee_group":{"antennae":"X","wings":"1","pattern":"S","legs":"X"},"bonus":0.8400000000000009},{"rt":15787.70000000298,"response":{"Q0":["Two or six legs","Stripes or spots on body","Single or double wings","Antennae or no antennae"]},"question_order":[0],"trial_type":"survey-multi-select","trial_index":8,"time_elapsed":257426,"internal_node_id":"0.0-3.0-4.0-1.0","subject_id":"5f6e0be76cea482e27d38c95","study_id":"60edd13110225f80f9f3709b","session_id":"6196c702573cb47beb2a57b1","condition":"contingent","relevant_dimensions":["wings","pattern"],"bee_group":{"antennae":"X","wings":"1","pattern":"S","legs":"X"},"correct":true,"bonus":0.8400000000000009},{"rt":23931,"response":{"Q1":"No.","Q2":"Based on the four features of the bee.","Q3":"You do not learn if it was friendly or dangerous, and do not alter your bonus."},"question_order":[0,1,2],"trial_type":"survey-multi-choice","trial_index":9,"time_elapsed":281358,"internal_node_id":"0.0-3.0-4.0-2.0","subject_id":"5f6e0be76cea482e27d38c95","study_id":"60edd13110225f80f9f3709b","session_id":"6196c702573cb47beb2a57b1","condition":"contingent","relevant_dimensions":["wings","pattern"],"bee_group":{"antennae":"X","wings":"1","pattern":"S","legs":"X"},"correct":true,"bonus":0.8400000000000009},{"rt":3119.5,"stimulus":"<p>Congrats, you got everything right<br>When you're ready, click the button below to continue to the experiment.</p>","response":0,"trial_type":"html-button-response","trial_index":10,"time_elapsed":284479,"internal_node_id":"0.0-3.0-4.0-3.0","subject_id":"5f6e0be76cea482e27d38c95","study_id":"60edd13110225f80f9f3709b","session_id":"6196c702573cb47beb2a57b1","condition":"contingent","relevant_dimensions":["wings","pattern"],"bee_group":{"antennae":"X","wings":"1","pattern":"S","legs":"X"},"bonus":0.8400000000000009},{"rt":2658.8999999910593,"stimulus":"bees-with-color/bee-A1DM.svg","response":0,"trial_type":"image-button-response","trial_index":11,"time_elapsed":287139,"internal_node_id":"0.0-4.0-0.0","subject_id":"5f6e0be76cea482e27d38c95","study_id":"60edd13110225f80f9f3709b","session_id":"6196c702573cb47beb2a57b1","condition":"contingent","relevant_dimensions":["wings","pattern"],"bee_group":{"antennae":"X","wings":"1","pattern":"S","legs":"X"},"action":"harvest","summary":"good-harvest","bonus":0.8400000000000009},{"rt":5044.4000000059605,"stimulus":"\n                    <p><b>Action: <em>harvest</em></b></p>\n                    <p>This is the bee that you just saw.</p>\n                    <img src=\"bees-with-color/bee-A1DM.svg\" width=\"200\">\n                    <p><span class=\"greenText\"><b>Successful harvest!</b></span><br>Your pay has increased by $0.02. Your bonus pay is now $0.56.</p>\n            ","response":0,"trial_type":"html-button-response","trial_index":12,"time_elapsed":292185,"internal_node_id":"0.0-4.0-1.0","subject_id":"5f6e0be76cea482e27d38c95","study_id":"60edd13110225f80f9f3709b","session_id":"6196c702573cb47beb2a57b1","condition":"contingent","relevant_dimensions":["wings","pattern"],"bee_group":{"antennae":"X","wings":"1","pattern":"S","legs":"X"},"bonus":0.8400000000000009},{"rt":2119.300000011921,"stimulus":"bees-with-color/bee-B2DF.svg","response":1,"trial_type":"image-button-response","trial_index":13,"time_elapsed":294306,"internal_node_id":"0.0-4.0-0.1","subject_id":"5f6e0be76cea482e27d38c95","study_id":"60edd13110225f80f9f3709b","session_id":"6196c702573cb47beb2a57b1","condition":"contingent","relevant_dimensions":["wings","pattern"],"bee_group":{"antennae":"X","wings":"1","pattern":"S","legs":"X"},"action":"avoid","summary":"bad-avoid","bonus":0.8400000000000009},{"rt":2470,"stimulus":"\n                    <p><b>Action: <em>avoid</em></b></p>\n                    <p>This is the bee that you just saw.</p>\n                    <img src=\"bees-with-color/bee-B2DF.svg\" width=\"200\">\n                    <p><br>Your bonus pay is unchanged, and remains at $0.56.</p>\n            ","response":0,"trial_type":"html-button-response","trial_index":14,"time_elapsed":296777,"internal_node_id":"0.0-4.0-1.1","subject_id":"5f6e0be76cea482e27d38c95","study_id":"60edd13110225f80f9f3709b","session_id":"6196c702573cb47beb2a57b1","condition":"contingent","relevant_dimensions":["wings","pattern"],"bee_group":{"antennae":"X","wings":"1","pattern":"S","legs":"X"},"bonus":0.8400000000000009},{"rt":1763.5,"stimulus":"bees-with-color/bee-A1SF.svg","response":0,"trial_type":"image-button-response","trial_index":15,"time_elapsed":298542,"internal_node_id":"0.0-4.0-0.2","subject_id":"5f6e0be76cea482e27d38c95","study_id":"60edd13110225f80f9f3709b","session_id":"6196c702573cb47beb2a57b1","condition":"contingent","relevant_dimensions":["wings","pattern"],"bee_group":{"antennae":"X","wings":"1","pattern":"S","legs":"X"},"action":"harvest","summary":"bad-harvest","bonus":0.8400000000000009},{"rt":4307.9000000059605,"stimulus":"\n                    <p><b>Action: <em>harvest</em></b></p>\n                    <p>This is the bee that you just saw.</p>\n                    <img src=\"bees-with-color/bee-A1SF.svg\" width=\"200\">\n                    <p><span class=\"redText\">Bad choice, the bee was angry.</span><br><b>You have been stung!</b><br>Your pay has been decreased by $0.10. Your bonus pay is now $0.46.</p>\n            ","response":0,"trial_type":"html-button-response","trial_index":16,"time_elapsed":302851,"internal_node_id":"0.0-4.0-1.2","subject_id":"5f6e0be76cea482e27d38c95","study_id":"60edd13110225f80f9f3709b","session_id":"6196c702573cb47beb2a57b1","condition":"contingent","relevant_dimensions":["wings","pattern"],"bee_group":{"antennae":"X","wings":"1","pattern":"S","legs":"X"},"bonus":0.8400000000000009},{"rt":1432,"stimulus":"bees-with-color/bee-B1SM.svg","response":0,"trial_type":"image-button-response","trial_index":17,"time_elapsed":304284,"internal_node_id":"0.0-4.0-0.3","subject_id":"5f6e0be76cea482e27d38c95","study_id":"60edd13110225f80f9f3709b","session_id":"6196c702573cb47beb2a57b1","condition":"contingent","relevant_dimensions":["wings","pattern"],"bee_group":{"antennae":"X","wings":"1","pattern":"S","legs":"X"},"action":"harvest","summary":"bad-harvest","bonus":0.8400000000000009},{"rt":3056.9000000059605,"stimulus":"\n                    <p><b>Action: <em>harvest</em></b></p>\n                    <p>This is the bee that you just saw.</p>\n                    <img src=\"bees-with-color/bee-B1SM.svg\" width=\"200\">\n                    <p><span class=\"redText\">Bad choice, the bee was angry.</span><br><b>You have been stung!</b><br>Your pay has been decreased by $0.10. Your bonus pay is now $0.36.</p>\n            ","response":0,"trial_type":"html-button-response","trial_index":18,"time_elapsed":307342,"internal_node_id":"0.0-4.0-1.3","subject_id":"5f6e0be76cea482e27d38c95","study_id":"60edd13110225f80f9f3709b","session_id":"6196c702573cb47beb2a57b1","condition":"contingent","relevant_dimensions":["wings","pattern"],"bee_group":{"antennae":"X","wings":"1","pattern":"S","legs":"X"},"bonus":0.8400000000000009},{"rt":4852.79999999702,"stimulus":"bees-with-color/bee-B2SF.svg","response":0,"trial_type":"image-button-response","trial_index":19,"time_elapsed":312196,"internal_node_id":"0.0-4.0-0.4","subject_id":"5f6e0be76cea482e27d38c95","study_id":"60edd13110225f80f9f3709b","session_id":"6196c702573cb47beb2a57b1","condition":"contingent","relevant_dimensions":["wings","pattern"],"bee_group":{"antennae":"X","wings":"1","pattern":"S","legs":"X"},"action":"harvest","summary":"good-harvest","bonus":0.8400000000000009},{"rt":13659.79999999702,"stimulus":"\n                    <p><b>Action: <em>harvest</em></b></p>\n                    <p>This is the bee that you just saw.</p>\n                    <img src=\"bees-with-color/bee-B2SF.svg\" width=\"200\">\n                    <p><span class=\"greenText\"><b>Successful harvest!</b></span><br>Your pay has increased by $0.02. Your bonus pay is now $0.38.</p>\n            ","response":0,"trial_type":"html-button-response","trial_index":20,"time_elapsed":325857,"internal_node_id":"0.0-4.0-1.4","subject_id":"5f6e0be76cea482e27d38c95","study_id":"60edd13110225f80f9f3709b","session_id":"6196c702573cb47beb2a57b1","condition":"contingent","relevant_dimensions":["wings","pattern"],"bee_group":{"antennae":"X","wings":"1","pattern":"S","legs":"X"},"bonus":0.8400000000000009},{"rt":1868.9000000059605,"stimulus":"bees-with-color/bee-A2SM.svg","response":0,"trial_type":"image-button-response","trial_index":21,"time_elapsed":327727,"internal_node_id":"0.0-4.0-0.5","subject_id":"5f6e0be76cea482e27d38c95","study_id":"60edd13110225f80f9f3709b","session_id":"6196c702573cb47beb2a57b1","condition":"contingent","relevant_dimensions":["wings","pattern"],"bee_group":{"antennae":"X","wings":"1","pattern":"S","legs":"X"},"action":"harvest","summary":"good-harvest","bonus":0.8400000000000009},{"rt":5099,"stimulus":"\n                    <p><b>Action: <em>harvest</em></b></p>\n                    <p>This is the bee that you just saw.</p>\n                    <img src=\"bees-with-color/bee-A2SM.svg\" width=\"200\">\n                    <p><span class=\"greenText\"><b>Successful harvest!</b></span><br>Your pay has increased by $0.02. Your bonus pay is now $0.40.</p>\n            ","response":0,"trial_type":"html-button-response","trial_index":22,"time_elapsed":332827,"internal_node_id":"0.0-4.0-1.5","subject_id":"5f6e0be76cea482e27d38c95","study_id":"60edd13110225f80f9f3709b","session_id":"6196c702573cb47beb2a57b1","condition":"contingent","relevant_dimensions":["wings","pattern"],"bee_group":{"antennae":"X","wings":"1","pattern":"S","legs":"X"},"bonus":0.8400000000000009},{"rt":8675.70000000298,"stimulus":"bees-with-color/bee-A1DF.svg","response":0,"trial_type":"image-button-response","trial_index":23,"time_elapsed":341505,"internal_node_id":"0.0-4.0-0.6","subject_id":"5f6e0be76cea482e27d38c95","study_id":"60edd13110225f80f9f3709b","session_id":"6196c702573cb47beb2a57b1","condition":"contingent","relevant_dimensions":["wings","pattern"],"bee_group":{"antennae":"X","wings":"1","pattern":"S","legs":"X"},"action":"harvest","summary":"good-harvest","bonus":0.8400000000000009},{"rt":4083.0999999940395,"stimulus":"\n                    <p><b>Action: <em>harvest</em></b></p>\n                    <p>This is the bee that you just saw.</p>\n                    <img src=\"bees-with-color/bee-A1DF.svg\" width=\"200\">\n                    <p><span class=\"greenText\"><b>Successful harvest!</b></span><br>Your pay has increased by $0.02. Your bonus pay is now $0.42.</p>\n            ","response":0,"trial_type":"html-button-response","trial_index":24,"time_elapsed":345589,"internal_node_id":"0.0-4.0-1.6","subject_id":"5f6e0be76cea482e27d38c95","study_id":"60edd13110225f80f9f3709b","session_id":"6196c702573cb47beb2a57b1","condition":"contingent","relevant_dimensions":["wings","pattern"],"bee_group":{"antennae":"X","wings":"1","pattern":"S","legs":"X"},"bonus":0.8400000000000009},{"rt":2824.7000000029802,"stimulus":"bees-with-color/bee-A2SF.svg","response":1,"trial_type":"image-button-response","trial_index":25,"time_elapsed":348415,"internal_node_id":"0.0-4.0-0.7","subject_id":"5f6e0be76cea482e27d38c95","study_id":"60edd13110225f80f9f3709b","session_id":"6196c702573cb47beb2a57b1","condition":"contingent","relevant_dimensions":["wings","pattern"],"bee_group":{"antennae":"X","wings":"1","pattern":"S","legs":"X"},"action":"avoid","summary":"bad-avoid","bonus":0.8400000000000009},{"rt":1960.9000000059605,"stimulus":"\n                    <p><b>Action: <em>avoid</em></b></p>\n                    <p>This is the bee that you just saw.</p>\n                    <img src=\"bees-with-color/bee-A2SF.svg\" width=\"200\">\n                    <p><br>Your bonus pay is unchanged, and remains at $0.42.</p>\n            ","response":0,"trial_type":"html-button-response","trial_index":26,"time_elapsed":350377,"internal_node_id":"0.0-4.0-1.7","subject_id":"5f6e0be76cea482e27d38c95","study_id":"60edd13110225f80f9f3709b","session_id":"6196c702573cb47beb2a57b1","condition":"contingent","relevant_dimensions":["wings","pattern"],"bee_group":{"antennae":"X","wings":"1","pattern":"S","legs":"X"},"bonus":0.8400000000000009},{"rt":2069.7999999970198,"stimulus":"bees-with-color/bee-B2SM.svg","response":0,"trial_type":"image-button-response","trial_index":27,"time_elapsed":352448,"internal_node_id":"0.0-4.0-0.8","subject_id":"5f6e0be76cea482e27d38c95","study_id":"60edd13110225f80f9f3709b","session_id":"6196c702573cb47beb2a57b1","condition":"contingent","relevant_dimensions":["wings","pattern"],"bee_group":{"antennae":"X","wings":"1","pattern":"S","legs":"X"},"action":"harvest","summary":"good-harvest","bonus":0.8400000000000009},{"rt":4896.9000000059605,"stimulus":"\n                    <p><b>Action: <em>harvest</em></b></p>\n                    <p>This is the bee that you just saw.</p>\n                    <img src=\"bees-with-color/bee-B2SM.svg\" width=\"200\">\n                    <p><span class=\"greenText\"><b>Successful harvest!</b></span><br>Your pay has increased by $0.02. Your bonus pay is now $0.44.</p>\n            ","response":0,"trial_type":"html-button-response","trial_index":28,"time_elapsed":357346,"internal_node_id":"0.0-4.0-1.8","subject_id":"5f6e0be76cea482e27d38c95","study_id":"60edd13110225f80f9f3709b","session_id":"6196c702573cb47beb2a57b1","condition":"contingent","relevant_dimensions":["wings","pattern"],"bee_group":{"antennae":"X","wings":"1","pattern":"S","legs":"X"},"bonus":0.8400000000000009},{"rt":7524.70000000298,"stimulus":"bees-with-color/bee-A2DM.svg","response":1,"trial_type":"image-button-response","trial_index":29,"time_elapsed":364872,"internal_node_id":"0.0-4.0-0.9","subject_id":"5f6e0be76cea482e27d38c95","study_id":"60edd13110225f80f9f3709b","session_id":"6196c702573cb47beb2a57b1","condition":"contingent","relevant_dimensions":["wings","pattern"],"bee_group":{"antennae":"X","wings":"1","pattern":"S","legs":"X"},"action":"avoid","summary":"bad-avoid","bonus":0.8400000000000009},{"rt":1297.0999999940395,"stimulus":"\n                    <p><b>Action: <em>avoid</em></b></p>\n                    <p>This is the bee that you just saw.</p>\n                    <img src=\"bees-with-color/bee-A2DM.svg\" width=\"200\">\n                    <p><br>Your bonus pay is unchanged, and remains at $0.44.</p>\n            ","response":0,"trial_type":"html-button-response","trial_index":30,"time_elapsed":366170,"internal_node_id":"0.0-4.0-1.9","subject_id":"5f6e0be76cea482e27d38c95","study_id":"60edd13110225f80f9f3709b","session_id":"6196c702573cb47beb2a57b1","condition":"contingent","relevant_dimensions":["wings","pattern"],"bee_group":{"antennae":"X","wings":"1","pattern":"S","legs":"X"},"bonus":0.8400000000000009},{"rt":7126.0999999940395,"stimulus":"bees-with-color/bee-A1SM.svg","response":0,"trial_type":"image-button-response","trial_index":31,"time_elapsed":373297,"internal_node_id":"0.0-4.0-0.10","subject_id":"5f6e0be76cea482e27d38c95","study_id":"60edd13110225f80f9f3709b","session_id":"6196c702573cb47beb2a57b1","condition":"contingent","relevant_dimensions":["wings","pattern"],"bee_group":{"antennae":"X","wings":"1","pattern":"S","legs":"X"},"action":"harvest","summary":"bad-harvest","bonus":0.8400000000000009},{"rt":2002.2000000029802,"stimulus":"\n                    <p><b>Action: <em>harvest</em></b></p>\n                    <p>This is the bee that you just saw.</p>\n                    <img src=\"bees-with-color/bee-A1SM.svg\" width=\"200\">\n                    <p><span class=\"redText\">Bad choice, the bee was angry.</span><br><b>You have been stung!</b><br>Your pay has been decreased by $0.10. Your bonus pay is now $0.34.</p>\n            ","response":0,"trial_type":"html-button-response","trial_index":32,"time_elapsed":375300,"internal_node_id":"0.0-4.0-1.10","subject_id":"5f6e0be76cea482e27d38c95","study_id":"60edd13110225f80f9f3709b","session_id":"6196c702573cb47beb2a57b1","condition":"contingent","relevant_dimensions":["wings","pattern"],"bee_group":{"antennae":"X","wings":"1","pattern":"S","legs":"X"},"bonus":0.8400000000000009},{"rt":7714.79999999702,"stimulus":"bees-with-color/bee-B1DM.svg","response":0,"trial_type":"image-button-response","trial_index":33,"time_elapsed":383016,"internal_node_id":"0.0-4.0-0.11","subject_id":"5f6e0be76cea482e27d38c95","study_id":"60edd13110225f80f9f3709b","session_id":"6196c702573cb47beb2a57b1","condition":"contingent","relevant_dimensions":["wings","pattern"],"bee_group":{"antennae":"X","wings":"1","pattern":"S","legs":"X"},"action":"harvest","summary":"good-harvest","bonus":0.8400000000000009},{"rt":6628.100000008941,"stimulus":"\n                    <p><b>Action: <em>harvest</em></b></p>\n                    <p>This is the bee that you just saw.</p>\n                    <img src=\"bees-with-color/bee-B1DM.svg\" width=\"200\">\n                    <p><span class=\"greenText\"><b>Successful harvest!</b></span><br>Your pay has increased by $0.02. Your bonus pay is now $0.36.</p>\n            ","response":0,"trial_type":"html-button-response","trial_index":34,"time_elapsed":389645,"internal_node_id":"0.0-4.0-1.11","subject_id":"5f6e0be76cea482e27d38c95","study_id":"60edd13110225f80f9f3709b","session_id":"6196c702573cb47beb2a57b1","condition":"contingent","relevant_dimensions":["wings","pattern"],"bee_group":{"antennae":"X","wings":"1","pattern":"S","legs":"X"},"bonus":0.8400000000000009},{"rt":5876.800000011921,"stimulus":"bees-with-color/bee-A2DF.svg","response":1,"trial_type":"image-button-response","trial_index":35,"time_elapsed":395523,"internal_node_id":"0.0-4.0-0.12","subject_id":"5f6e0be76cea482e27d38c95","study_id":"60edd13110225f80f9f3709b","session_id":"6196c702573cb47beb2a57b1","condition":"contingent","relevant_dimensions":["wings","pattern"],"bee_group":{"antennae":"X","wings":"1","pattern":"S","legs":"X"},"action":"avoid","summary":"bad-avoid","bonus":0.8400000000000009},{"rt":1034.1000000089407,"stimulus":"\n                    <p><b>Action: <em>avoid</em></b></p>\n                    <p>This is the bee that you just saw.</p>\n                    <img src=\"bees-with-color/bee-A2DF.svg\" width=\"200\">\n                    <p><br>Your bonus pay is unchanged, and remains at $0.36.</p>\n            ","response":0,"trial_type":"html-button-response","trial_index":36,"time_elapsed":396558,"internal_node_id":"0.0-4.0-1.12","subject_id":"5f6e0be76cea482e27d38c95","study_id":"60edd13110225f80f9f3709b","session_id":"6196c702573cb47beb2a57b1","condition":"contingent","relevant_dimensions":["wings","pattern"],"bee_group":{"antennae":"X","wings":"1","pattern":"S","legs":"X"},"bonus":0.8400000000000009},{"rt":3740.2999999970198,"stimulus":"bees-with-color/bee-B1SF.svg","response":0,"trial_type":"image-button-response","trial_index":37,"time_elapsed":400299,"internal_node_id":"0.0-4.0-0.13","subject_id":"5f6e0be76cea482e27d38c95","study_id":"60edd13110225f80f9f3709b","session_id":"6196c702573cb47beb2a57b1","condition":"contingent","relevant_dimensions":["wings","pattern"],"bee_group":{"antennae":"X","wings":"1","pattern":"S","legs":"X"},"action":"harvest","summary":"bad-harvest","bonus":0.8400000000000009},{"rt":969.5999999940395,"stimulus":"\n                    <p><b>Action: <em>harvest</em></b></p>\n                    <p>This is the bee that you just saw.</p>\n                    <img src=\"bees-with-color/bee-B1SF.svg\" width=\"200\">\n                    <p><span class=\"redText\">Bad choice, the bee was angry.</span><br><b>You have been stung!</b><br>Your pay has been decreased by $0.10. Your bonus pay is now $0.26.</p>\n            ","response":0,"trial_type":"html-button-response","trial_index":38,"time_elapsed":401270,"internal_node_id":"0.0-4.0-1.13","subject_id":"5f6e0be76cea482e27d38c95","study_id":"60edd13110225f80f9f3709b","session_id":"6196c702573cb47beb2a57b1","condition":"contingent","relevant_dimensions":["wings","pattern"],"bee_group":{"antennae":"X","wings":"1","pattern":"S","legs":"X"},"bonus":0.8400000000000009},{"rt":11501.70000000298,"stimulus":"bees-with-color/bee-B2DM.svg","response":1,"trial_type":"image-button-response","trial_index":39,"time_elapsed":412773,"internal_node_id":"0.0-4.0-0.14","subject_id":"5f6e0be76cea482e27d38c95","study_id":"60edd13110225f80f9f3709b","session_id":"6196c702573cb47beb2a57b1","condition":"contingent","relevant_dimensions":["wings","pattern"],"bee_group":{"antennae":"X","wings":"1","pattern":"S","legs":"X"},"action":"avoid","summary":"bad-avoid","bonus":0.8400000000000009},{"rt":1575.2000000029802,"stimulus":"\n                    <p><b>Action: <em>avoid</em></b></p>\n                    <p>This is the bee that you just saw.</p>\n                    <img src=\"bees-with-color/bee-B2DM.svg\" width=\"200\">\n                    <p><br>Your bonus pay is unchanged, and remains at $0.26.</p>\n            ","response":0,"trial_type":"html-button-response","trial_index":40,"time_elapsed":414349,"internal_node_id":"0.0-4.0-1.14","subject_id":"5f6e0be76cea482e27d38c95","study_id":"60edd13110225f80f9f3709b","session_id":"6196c702573cb47beb2a57b1","condition":"contingent","relevant_dimensions":["wings","pattern"],"bee_group":{"antennae":"X","wings":"1","pattern":"S","legs":"X"},"bonus":0.8400000000000009},{"rt":3592,"stimulus":"bees-with-color/bee-B1DF.svg","response":0,"trial_type":"image-button-response","trial_index":41,"time_elapsed":417942,"internal_node_id":"0.0-4.0-0.15","subject_id":"5f6e0be76cea482e27d38c95","study_id":"60edd13110225f80f9f3709b","session_id":"6196c702573cb47beb2a57b1","condition":"contingent","relevant_dimensions":["wings","pattern"],"bee_group":{"antennae":"X","wings":"1","pattern":"S","legs":"X"},"action":"harvest","summary":"good-harvest","bonus":0.8400000000000009},{"rt":1197.2000000029802,"stimulus":"\n                    <p><b>Action: <em>harvest</em></b></p>\n                    <p>This is the bee that you just saw.</p>\n                    <img src=\"bees-with-color/bee-B1DF.svg\" width=\"200\">\n                    <p><span class=\"greenText\"><b>Successful harvest!</b></span><br>Your pay has increased by $0.02. Your bonus pay is now $0.28.</p>\n            ","response":0,"trial_type":"html-button-response","trial_index":42,"time_elapsed":419140,"internal_node_id":"0.0-4.0-1.15","subject_id":"5f6e0be76cea482e27d38c95","study_id":"60edd13110225f80f9f3709b","session_id":"6196c702573cb47beb2a57b1","condition":"contingent","relevant_dimensions":["wings","pattern"],"bee_group":{"antennae":"X","wings":"1","pattern":"S","legs":"X"},"bonus":0.8400000000000009},{"rt":11302.79999999702,"stimulus":"bees-with-color/bee-B2DF.svg","response":1,"trial_type":"image-button-response","trial_index":43,"time_elapsed":430444,"internal_node_id":"0.0-4.0-0.16","subject_id":"5f6e0be76cea482e27d38c95","study_id":"60edd13110225f80f9f3709b","session_id":"6196c702573cb47beb2a57b1","condition":"contingent","relevant_dimensions":["wings","pattern"],"bee_group":{"antennae":"X","wings":"1","pattern":"S","legs":"X"},"action":"avoid","summary":"bad-avoid","bonus":0.8400000000000009},{"rt":750.2000000029802,"stimulus":"\n                    <p><b>Action: <em>avoid</em></b></p>\n                    <p>This is the bee that you just saw.</p>\n                    <img src=\"bees-with-color/bee-B2DF.svg\" width=\"200\">\n                    <p><br>Your bonus pay is unchanged, and remains at $0.28.</p>\n            ","response":0,"trial_type":"html-button-response","trial_index":44,"time_elapsed":431195,"internal_node_id":"0.0-4.0-1.16","subject_id":"5f6e0be76cea482e27d38c95","study_id":"60edd13110225f80f9f3709b","session_id":"6196c702573cb47beb2a57b1","condition":"contingent","relevant_dimensions":["wings","pattern"],"bee_group":{"antennae":"X","wings":"1","pattern":"S","legs":"X"},"bonus":0.8400000000000009},{"rt":3871,"stimulus":"bees-with-color/bee-B1DM.svg","response":0,"trial_type":"image-button-response","trial_index":45,"time_elapsed":435067,"internal_node_id":"0.0-4.0-0.17","subject_id":"5f6e0be76cea482e27d38c95","study_id":"60edd13110225f80f9f3709b","session_id":"6196c702573cb47beb2a57b1","condition":"contingent","relevant_dimensions":["wings","pattern"],"bee_group":{"antennae":"X","wings":"1","pattern":"S","legs":"X"},"action":"harvest","summary":"good-harvest","bonus":0.8400000000000009},{"rt":865,"stimulus":"\n                    <p><b>Action: <em>harvest</em></b></p>\n                    <p>This is the bee that you just saw.</p>\n                    <img src=\"bees-with-color/bee-B1DM.svg\" width=\"200\">\n                    <p><span class=\"greenText\"><b>Successful harvest!</b></span><br>Your pay has increased by $0.02. Your bonus pay is now $0.30.</p>\n            ","response":0,"trial_type":"html-button-response","trial_index":46,"time_elapsed":435933,"internal_node_id":"0.0-4.0-1.17","subject_id":"5f6e0be76cea482e27d38c95","study_id":"60edd13110225f80f9f3709b","session_id":"6196c702573cb47beb2a57b1","condition":"contingent","relevant_dimensions":["wings","pattern"],"bee_group":{"antennae":"X","wings":"1","pattern":"S","legs":"X"},"bonus":0.8400000000000009},{"rt":7517,"stimulus":"bees-with-color/bee-B1SM.svg","response":1,"trial_type":"image-button-response","trial_index":47,"time_elapsed":443451,"internal_node_id":"0.0-4.0-0.18","subject_id":"5f6e0be76cea482e27d38c95","study_id":"60edd13110225f80f9f3709b","session_id":"6196c702573cb47beb2a57b1","condition":"contingent","relevant_dimensions":["wings","pattern"],"bee_group":{"antennae":"X","wings":"1","pattern":"S","legs":"X"},"action":"avoid","summary":"good-avoid","bonus":0.8400000000000009},{"rt":1229,"stimulus":"\n                    <p><b>Action: <em>avoid</em></b></p>\n                    <p>This is the bee that you just saw.</p>\n                    <img src=\"bees-with-color/bee-B1SM.svg\" width=\"200\">\n                    <p><br>Your bonus pay is unchanged, and remains at $0.30.</p>\n            ","response":0,"trial_type":"html-button-response","trial_index":48,"time_elapsed":444681,"internal_node_id":"0.0-4.0-1.18","subject_id":"5f6e0be76cea482e27d38c95","study_id":"60edd13110225f80f9f3709b","session_id":"6196c702573cb47beb2a57b1","condition":"contingent","relevant_dimensions":["wings","pattern"],"bee_group":{"antennae":"X","wings":"1","pattern":"S","legs":"X"},"bonus":0.8400000000000009},{"rt":7916.79999999702,"stimulus":"bees-with-color/bee-B2DM.svg","response":1,"trial_type":"image-button-response","trial_index":49,"time_elapsed":452599,"internal_node_id":"0.0-4.0-0.19","subject_id":"5f6e0be76cea482e27d38c95","study_id":"60edd13110225f80f9f3709b","session_id":"6196c702573cb47beb2a57b1","condition":"contingent","relevant_dimensions":["wings","pattern"],"bee_group":{"antennae":"X","wings":"1","pattern":"S","legs":"X"},"action":"avoid","summary":"bad-avoid","bonus":0.8400000000000009},{"rt":786,"stimulus":"\n                    <p><b>Action: <em>avoid</em></b></p>\n                    <p>This is the bee that you just saw.</p>\n                    <img src=\"bees-with-color/bee-B2DM.svg\" width=\"200\">\n                    <p><br>Your bonus pay is unchanged, and remains at $0.30.</p>\n            ","response":0,"trial_type":"html-button-response","trial_index":50,"time_elapsed":453386,"internal_node_id":"0.0-4.0-1.19","subject_id":"5f6e0be76cea482e27d38c95","study_id":"60edd13110225f80f9f3709b","session_id":"6196c702573cb47beb2a57b1","condition":"contingent","relevant_dimensions":["wings","pattern"],"bee_group":{"antennae":"X","wings":"1","pattern":"S","legs":"X"},"bonus":0.8400000000000009},{"rt":3871.7999999970198,"stimulus":"bees-with-color/bee-A2SF.svg","response":0,"trial_type":"image-button-response","trial_index":51,"time_elapsed":457259,"internal_node_id":"0.0-4.0-0.20","subject_id":"5f6e0be76cea482e27d38c95","study_id":"60edd13110225f80f9f3709b","session_id":"6196c702573cb47beb2a57b1","condition":"contingent","relevant_dimensions":["wings","pattern"],"bee_group":{"antennae":"X","wings":"1","pattern":"S","legs":"X"},"action":"harvest","summary":"good-harvest","bonus":0.8400000000000009},{"rt":821,"stimulus":"\n                    <p><b>Action: <em>harvest</em></b></p>\n                    <p>This is the bee that you just saw.</p>\n                    <img src=\"bees-with-color/bee-A2SF.svg\" width=\"200\">\n                    <p><span class=\"greenText\"><b>Successful harvest!</b></span><br>Your pay has increased by $0.02. Your bonus pay is now $0.32.</p>\n            ","response":0,"trial_type":"html-button-response","trial_index":52,"time_elapsed":458081,"internal_node_id":"0.0-4.0-1.20","subject_id":"5f6e0be76cea482e27d38c95","study_id":"60edd13110225f80f9f3709b","session_id":"6196c702573cb47beb2a57b1","condition":"contingent","relevant_dimensions":["wings","pattern"],"bee_group":{"antennae":"X","wings":"1","pattern":"S","legs":"X"},"bonus":0.8400000000000009},{"rt":3522.1000000089407,"stimulus":"bees-with-color/bee-A1DM.svg","response":0,"trial_type":"image-button-response","trial_index":53,"time_elapsed":461603,"internal_node_id":"0.0-4.0-0.21","subject_id":"5f6e0be76cea482e27d38c95","study_id":"60edd13110225f80f9f3709b","session_id":"6196c702573cb47beb2a57b1","condition":"contingent","relevant_dimensions":["wings","pattern"],"bee_group":{"antennae":"X","wings":"1","pattern":"S","legs":"X"},"action":"harvest","summary":"good-harvest","bonus":0.8400000000000009},{"rt":983.2000000029802,"stimulus":"\n                    <p><b>Action: <em>harvest</em></b></p>\n                    <p>This is the bee that you just saw.</p>\n                    <img src=\"bees-with-color/bee-A1DM.svg\" width=\"200\">\n                    <p><span class=\"greenText\"><b>Successful harvest!</b></span><br>Your pay has increased by $0.02. Your bonus pay is now $0.34.</p>\n            ","response":0,"trial_type":"html-button-response","trial_index":54,"time_elapsed":462587,"internal_node_id":"0.0-4.0-1.21","subject_id":"5f6e0be76cea482e27d38c95","study_id":"60edd13110225f80f9f3709b","session_id":"6196c702573cb47beb2a57b1","condition":"contingent","relevant_dimensions":["wings","pattern"],"bee_group":{"antennae":"X","wings":"1","pattern":"S","legs":"X"},"bonus":0.8400000000000009},{"rt":7044,"stimulus":"bees-with-color/bee-B1SF.svg","response":1,"trial_type":"image-button-response","trial_index":55,"time_elapsed":469632,"internal_node_id":"0.0-4.0-0.22","subject_id":"5f6e0be76cea482e27d38c95","study_id":"60edd13110225f80f9f3709b","session_id":"6196c702573cb47beb2a57b1","condition":"contingent","relevant_dimensions":["wings","pattern"],"bee_group":{"antennae":"X","wings":"1","pattern":"S","legs":"X"},"action":"avoid","summary":"good-avoid","bonus":0.8400000000000009},{"rt":899.2000000029802,"stimulus":"\n                    <p><b>Action: <em>avoid</em></b></p>\n                    <p>This is the bee that you just saw.</p>\n                    <img src=\"bees-with-color/bee-B1SF.svg\" width=\"200\">\n                    <p><br>Your bonus pay is unchanged, and remains at $0.34.</p>\n            ","response":0,"trial_type":"html-button-response","trial_index":56,"time_elapsed":470532,"internal_node_id":"0.0-4.0-1.22","subject_id":"5f6e0be76cea482e27d38c95","study_id":"60edd13110225f80f9f3709b","session_id":"6196c702573cb47beb2a57b1","condition":"contingent","relevant_dimensions":["wings","pattern"],"bee_group":{"antennae":"X","wings":"1","pattern":"S","legs":"X"},"bonus":0.8400000000000009},{"rt":2994,"stimulus":"bees-with-color/bee-A2SM.svg","response":0,"trial_type":"image-button-response","trial_index":57,"time_elapsed":473527,"internal_node_id":"0.0-4.0-0.23","subject_id":"5f6e0be76cea482e27d38c95","study_id":"60edd13110225f80f9f3709b","session_id":"6196c702573cb47beb2a57b1","condition":"contingent","relevant_dimensions":["wings","pattern"],"bee_group":{"antennae":"X","wings":"1","pattern":"S","legs":"X"},"action":"harvest","summary":"good-harvest","bonus":0.8400000000000009},{"rt":719,"stimulus":"\n                    <p><b>Action: <em>harvest</em></b></p>\n                    <p>This is the bee that you just saw.</p>\n                    <img src=\"bees-with-color/bee-A2SM.svg\" width=\"200\">\n                    <p><span class=\"greenText\"><b>Successful harvest!</b></span><br>Your pay has increased by $0.02. Your bonus pay is now $0.36.</p>\n            ","response":0,"trial_type":"html-button-response","trial_index":58,"time_elapsed":474247,"internal_node_id":"0.0-4.0-1.23","subject_id":"5f6e0be76cea482e27d38c95","study_id":"60edd13110225f80f9f3709b","session_id":"6196c702573cb47beb2a57b1","condition":"contingent","relevant_dimensions":["wings","pattern"],"bee_group":{"antennae":"X","wings":"1","pattern":"S","legs":"X"},"bonus":0.8400000000000009},{"rt":1307.1000000089407,"stimulus":"bees-with-color/bee-B2SF.svg","response":0,"trial_type":"image-button-response","trial_index":59,"time_elapsed":475555,"internal_node_id":"0.0-4.0-0.24","subject_id":"5f6e0be76cea482e27d38c95","study_id":"60edd13110225f80f9f3709b","session_id":"6196c702573cb47beb2a57b1","condition":"contingent","relevant_dimensions":["wings","pattern"],"bee_group":{"antennae":"X","wings":"1","pattern":"S","legs":"X"},"action":"harvest","summary":"good-harvest","bonus":0.8400000000000009},{"rt":785.0999999940395,"stimulus":"\n                    <p><b>Action: <em>harvest</em></b></p>\n                    <p>This is the bee that you just saw.</p>\n                    <img src=\"bees-with-color/bee-B2SF.svg\" width=\"200\">\n                    <p><span class=\"greenText\"><b>Successful harvest!</b></span><br>Your pay has increased by $0.02. Your bonus pay is now $0.38.</p>\n            ","response":0,"trial_type":"html-button-response","trial_index":60,"time_elapsed":476341,"internal_node_id":"0.0-4.0-1.24","subject_id":"5f6e0be76cea482e27d38c95","study_id":"60edd13110225f80f9f3709b","session_id":"6196c702573cb47beb2a57b1","condition":"contingent","relevant_dimensions":["wings","pattern"],"bee_group":{"antennae":"X","wings":"1","pattern":"S","legs":"X"},"bonus":0.8400000000000009},{"rt":3680.2000000029802,"stimulus":"bees-with-color/bee-A1SF.svg","response":1,"trial_type":"image-button-response","trial_index":61,"time_elapsed":480022,"internal_node_id":"0.0-4.0-0.25","subject_id":"5f6e0be76cea482e27d38c95","study_id":"60edd13110225f80f9f3709b","session_id":"6196c702573cb47beb2a57b1","condition":"contingent","relevant_dimensions":["wings","pattern"],"bee_group":{"antennae":"X","wings":"1","pattern":"S","legs":"X"},"action":"avoid","summary":"good-avoid","bonus":0.8400000000000009},{"rt":878,"stimulus":"\n                    <p><b>Action: <em>avoid</em></b></p>\n                    <p>This is the bee that you just saw.</p>\n                    <img src=\"bees-with-color/bee-A1SF.svg\" width=\"200\">\n                    <p><br>Your bonus pay is unchanged, and remains at $0.38.</p>\n            ","response":0,"trial_type":"html-button-response","trial_index":62,"time_elapsed":480901,"internal_node_id":"0.0-4.0-1.25","subject_id":"5f6e0be76cea482e27d38c95","study_id":"60edd13110225f80f9f3709b","session_id":"6196c702573cb47beb2a57b1","condition":"contingent","relevant_dimensions":["wings","pattern"],"bee_group":{"antennae":"X","wings":"1","pattern":"S","legs":"X"},"bonus":0.8400000000000009},{"rt":2496,"stimulus":"bees-with-color/bee-B2SM.svg","response":0,"trial_type":"image-button-response","trial_index":63,"time_elapsed":483398,"internal_node_id":"0.0-4.0-0.26","subject_id":"5f6e0be76cea482e27d38c95","study_id":"60edd13110225f80f9f3709b","session_id":"6196c702573cb47beb2a57b1","condition":"contingent","relevant_dimensions":["wings","pattern"],"bee_group":{"antennae":"X","wings":"1","pattern":"S","legs":"X"},"action":"harvest","summary":"good-harvest","bonus":0.8400000000000009},{"rt":1860,"stimulus":"\n                    <p><b>Action: <em>harvest</em></b></p>\n                    <p>This is the bee that you just saw.</p>\n                    <img src=\"bees-with-color/bee-B2SM.svg\" width=\"200\">\n                    <p><span class=\"greenText\"><b>Successful harvest!</b></span><br>Your pay has increased by $0.02. Your bonus pay is now $0.40.</p>\n            ","response":0,"trial_type":"html-button-response","trial_index":64,"time_elapsed":485259,"internal_node_id":"0.0-4.0-1.26","subject_id":"5f6e0be76cea482e27d38c95","study_id":"60edd13110225f80f9f3709b","session_id":"6196c702573cb47beb2a57b1","condition":"contingent","relevant_dimensions":["wings","pattern"],"bee_group":{"antennae":"X","wings":"1","pattern":"S","legs":"X"},"bonus":0.8400000000000009},{"rt":3378.9000000059605,"stimulus":"bees-with-color/bee-A1SM.svg","response":1,"trial_type":"image-button-response","trial_index":65,"time_elapsed":488639,"internal_node_id":"0.0-4.0-0.27","subject_id":"5f6e0be76cea482e27d38c95","study_id":"60edd13110225f80f9f3709b","session_id":"6196c702573cb47beb2a57b1","condition":"contingent","relevant_dimensions":["wings","pattern"],"bee_group":{"antennae":"X","wings":"1","pattern":"S","legs":"X"},"action":"avoid","summary":"good-avoid","bonus":0.8400000000000009},{"rt":686,"stimulus":"\n                    <p><b>Action: <em>avoid</em></b></p>\n                    <p>This is the bee that you just saw.</p>\n                    <img src=\"bees-with-color/bee-A1SM.svg\" width=\"200\">\n                    <p><br>Your bonus pay is unchanged, and remains at $0.40.</p>\n            ","response":0,"trial_type":"html-button-response","trial_index":66,"time_elapsed":489326,"internal_node_id":"0.0-4.0-1.27","subject_id":"5f6e0be76cea482e27d38c95","study_id":"60edd13110225f80f9f3709b","session_id":"6196c702573cb47beb2a57b1","condition":"contingent","relevant_dimensions":["wings","pattern"],"bee_group":{"antennae":"X","wings":"1","pattern":"S","legs":"X"},"bonus":0.8400000000000009},{"rt":1350,"stimulus":"bees-with-color/bee-B1DF.svg","response":0,"trial_type":"image-button-response","trial_index":67,"time_elapsed":490678,"internal_node_id":"0.0-4.0-0.28","subject_id":"5f6e0be76cea482e27d38c95","study_id":"60edd13110225f80f9f3709b","session_id":"6196c702573cb47beb2a57b1","condition":"contingent","relevant_dimensions":["wings","pattern"],"bee_group":{"antennae":"X","wings":"1","pattern":"S","legs":"X"},"action":"harvest","summary":"good-harvest","bonus":0.8400000000000009},{"rt":598.9000000059605,"stimulus":"\n                    <p><b>Action: <em>harvest</em></b></p>\n                    <p>This is the bee that you just saw.</p>\n                    <img src=\"bees-with-color/bee-B1DF.svg\" width=\"200\">\n                    <p><span class=\"greenText\"><b>Successful harvest!</b></span><br>Your pay has increased by $0.02. Your bonus pay is now $0.42.</p>\n            ","response":0,"trial_type":"html-button-response","trial_index":68,"time_elapsed":491277,"internal_node_id":"0.0-4.0-1.28","subject_id":"5f6e0be76cea482e27d38c95","study_id":"60edd13110225f80f9f3709b","session_id":"6196c702573cb47beb2a57b1","condition":"contingent","relevant_dimensions":["wings","pattern"],"bee_group":{"antennae":"X","wings":"1","pattern":"S","legs":"X"},"bonus":0.8400000000000009},{"rt":3938.2000000029802,"stimulus":"bees-with-color/bee-A2DF.svg","response":1,"trial_type":"image-button-response","trial_index":69,"time_elapsed":495216,"internal_node_id":"0.0-4.0-0.29","subject_id":"5f6e0be76cea482e27d38c95","study_id":"60edd13110225f80f9f3709b","session_id":"6196c702573cb47beb2a57b1","condition":"contingent","relevant_dimensions":["wings","pattern"],"bee_group":{"antennae":"X","wings":"1","pattern":"S","legs":"X"},"action":"avoid","summary":"bad-avoid","bonus":0.8400000000000009},{"rt":594.0999999940395,"stimulus":"\n                    <p><b>Action: <em>avoid</em></b></p>\n                    <p>This is the bee that you just saw.</p>\n                    <img src=\"bees-with-color/bee-A2DF.svg\" width=\"200\">\n                    <p><br>Your bonus pay is unchanged, and remains at $0.42.</p>\n            ","response":0,"trial_type":"html-button-response","trial_index":70,"time_elapsed":495811,"internal_node_id":"0.0-4.0-1.29","subject_id":"5f6e0be76cea482e27d38c95","study_id":"60edd13110225f80f9f3709b","session_id":"6196c702573cb47beb2a57b1","condition":"contingent","relevant_dimensions":["wings","pattern"],"bee_group":{"antennae":"X","wings":"1","pattern":"S","legs":"X"},"bonus":0.8400000000000009},{"rt":6715.0999999940395,"stimulus":"bees-with-color/bee-A2DM.svg","response":1,"trial_type":"image-button-response","trial_index":71,"time_elapsed":502528,"internal_node_id":"0.0-4.0-0.30","subject_id":"5f6e0be76cea482e27d38c95","study_id":"60edd13110225f80f9f3709b","session_id":"6196c702573cb47beb2a57b1","condition":"contingent","relevant_dimensions":["wings","pattern"],"bee_group":{"antennae":"X","wings":"1","pattern":"S","legs":"X"},"action":"avoid","summary":"bad-avoid","bonus":0.8400000000000009},{"rt":533,"stimulus":"\n                    <p><b>Action: <em>avoid</em></b></p>\n                    <p>This is the bee that you just saw.</p>\n                    <img src=\"bees-with-color/bee-A2DM.svg\" width=\"200\">\n                    <p><br>Your bonus pay is unchanged, and remains at $0.42.</p>\n            ","response":0,"trial_type":"html-button-response","trial_index":72,"time_elapsed":503061,"internal_node_id":"0.0-4.0-1.30","subject_id":"5f6e0be76cea482e27d38c95","study_id":"60edd13110225f80f9f3709b","session_id":"6196c702573cb47beb2a57b1","condition":"contingent","relevant_dimensions":["wings","pattern"],"bee_group":{"antennae":"X","wings":"1","pattern":"S","legs":"X"},"bonus":0.8400000000000009},{"rt":2690.7000000029802,"stimulus":"bees-with-color/bee-A1DF.svg","response":0,"trial_type":"image-button-response","trial_index":73,"time_elapsed":505753,"internal_node_id":"0.0-4.0-0.31","subject_id":"5f6e0be76cea482e27d38c95","study_id":"60edd13110225f80f9f3709b","session_id":"6196c702573cb47beb2a57b1","condition":"contingent","relevant_dimensions":["wings","pattern"],"bee_group":{"antennae":"X","wings":"1","pattern":"S","legs":"X"},"action":"harvest","summary":"good-harvest","bonus":0.8400000000000009},{"rt":730.2999999970198,"stimulus":"\n                    <p><b>Action: <em>harvest</em></b></p>\n                    <p>This is the bee that you just saw.</p>\n                    <img src=\"bees-with-color/bee-A1DF.svg\" width=\"200\">\n                    <p><span class=\"greenText\"><b>Successful harvest!</b></span><br>Your pay has increased by $0.02. Your bonus pay is now $0.44.</p>\n            ","response":0,"trial_type":"html-button-response","trial_index":74,"time_elapsed":506485,"internal_node_id":"0.0-4.0-1.31","subject_id":"5f6e0be76cea482e27d38c95","study_id":"60edd13110225f80f9f3709b","session_id":"6196c702573cb47beb2a57b1","condition":"contingent","relevant_dimensions":["wings","pattern"],"bee_group":{"antennae":"X","wings":"1","pattern":"S","legs":"X"},"bonus":0.8400000000000009},{"rt":4689.300000011921,"stimulus":"bees-with-color/bee-A2DF.svg","response":1,"trial_type":"image-button-response","trial_index":75,"time_elapsed":511175,"internal_node_id":"0.0-4.0-0.32","subject_id":"5f6e0be76cea482e27d38c95","study_id":"60edd13110225f80f9f3709b","session_id":"6196c702573cb47beb2a57b1","condition":"contingent","relevant_dimensions":["wings","pattern"],"bee_group":{"antennae":"X","wings":"1","pattern":"S","legs":"X"},"action":"avoid","summary":"bad-avoid","bonus":0.8400000000000009},{"rt":559.5999999940395,"stimulus":"\n                    <p><b>Action: <em>avoid</em></b></p>\n                    <p>This is the bee that you just saw.</p>\n                    <img src=\"bees-with-color/bee-A2DF.svg\" width=\"200\">\n                    <p><br>Your bonus pay is unchanged, and remains at $0.44.</p>\n            ","response":0,"trial_type":"html-button-response","trial_index":76,"time_elapsed":511736,"internal_node_id":"0.0-4.0-1.32","subject_id":"5f6e0be76cea482e27d38c95","study_id":"60edd13110225f80f9f3709b","session_id":"6196c702573cb47beb2a57b1","condition":"contingent","relevant_dimensions":["wings","pattern"],"bee_group":{"antennae":"X","wings":"1","pattern":"S","legs":"X"},"bonus":0.8400000000000009},{"rt":5081.5999999940395,"stimulus":"bees-with-color/bee-A1SF.svg","response":1,"trial_type":"image-button-response","trial_index":77,"time_elapsed":516818,"internal_node_id":"0.0-4.0-0.33","subject_id":"5f6e0be76cea482e27d38c95","study_id":"60edd13110225f80f9f3709b","session_id":"6196c702573cb47beb2a57b1","condition":"contingent","relevant_dimensions":["wings","pattern"],"bee_group":{"antennae":"X","wings":"1","pattern":"S","legs":"X"},"action":"avoid","summary":"good-avoid","bonus":0.8400000000000009},{"rt":1216.7000000029802,"stimulus":"\n                    <p><b>Action: <em>avoid</em></b></p>\n                    <p>This is the bee that you just saw.</p>\n                    <img src=\"bees-with-color/bee-A1SF.svg\" width=\"200\">\n                    <p><br>Your bonus pay is unchanged, and remains at $0.44.</p>\n            ","response":0,"trial_type":"html-button-response","trial_index":78,"time_elapsed":518036,"internal_node_id":"0.0-4.0-1.33","subject_id":"5f6e0be76cea482e27d38c95","study_id":"60edd13110225f80f9f3709b","session_id":"6196c702573cb47beb2a57b1","condition":"contingent","relevant_dimensions":["wings","pattern"],"bee_group":{"antennae":"X","wings":"1","pattern":"S","legs":"X"},"bonus":0.8400000000000009},{"rt":4978.79999999702,"stimulus":"bees-with-color/bee-A2SF.svg","response":0,"trial_type":"image-button-response","trial_index":79,"time_elapsed":523017,"internal_node_id":"0.0-4.0-0.34","subject_id":"5f6e0be76cea482e27d38c95","study_id":"60edd13110225f80f9f3709b","session_id":"6196c702573cb47beb2a57b1","condition":"contingent","relevant_dimensions":["wings","pattern"],"bee_group":{"antennae":"X","wings":"1","pattern":"S","legs":"X"},"action":"harvest","summary":"good-harvest","bonus":0.8400000000000009},{"rt":585.2000000029802,"stimulus":"\n                    <p><b>Action: <em>harvest</em></b></p>\n                    <p>This is the bee that you just saw.</p>\n                    <img src=\"bees-with-color/bee-A2SF.svg\" width=\"200\">\n                    <p><span class=\"greenText\"><b>Successful harvest!</b></span><br>Your pay has increased by $0.02. Your bonus pay is now $0.46.</p>\n            ","response":0,"trial_type":"html-button-response","trial_index":80,"time_elapsed":523603,"internal_node_id":"0.0-4.0-1.34","subject_id":"5f6e0be76cea482e27d38c95","study_id":"60edd13110225f80f9f3709b","session_id":"6196c702573cb47beb2a57b1","condition":"contingent","relevant_dimensions":["wings","pattern"],"bee_group":{"antennae":"X","wings":"1","pattern":"S","legs":"X"},"bonus":0.8400000000000009},{"rt":1117.1000000089407,"stimulus":"bees-with-color/bee-B2SF.svg","response":0,"trial_type":"image-button-response","trial_index":81,"time_elapsed":524721,"internal_node_id":"0.0-4.0-0.35","subject_id":"5f6e0be76cea482e27d38c95","study_id":"60edd13110225f80f9f3709b","session_id":"6196c702573cb47beb2a57b1","condition":"contingent","relevant_dimensions":["wings","pattern"],"bee_group":{"antennae":"X","wings":"1","pattern":"S","legs":"X"},"action":"harvest","summary":"good-harvest","bonus":0.8400000000000009},{"rt":714.2000000029802,"stimulus":"\n                    <p><b>Action: <em>harvest</em></b></p>\n                    <p>This is the bee that you just saw.</p>\n                    <img src=\"bees-with-color/bee-B2SF.svg\" width=\"200\">\n                    <p><span class=\"greenText\"><b>Successful harvest!</b></span><br>Your pay has increased by $0.02. Your bonus pay is now $0.48.</p>\n            ","response":0,"trial_type":"html-button-response","trial_index":82,"time_elapsed":525436,"internal_node_id":"0.0-4.0-1.35","subject_id":"5f6e0be76cea482e27d38c95","study_id":"60edd13110225f80f9f3709b","session_id":"6196c702573cb47beb2a57b1","condition":"contingent","relevant_dimensions":["wings","pattern"],"bee_group":{"antennae":"X","wings":"1","pattern":"S","legs":"X"},"bonus":0.8400000000000009},{"rt":2410.300000011921,"stimulus":"bees-with-color/bee-B1DF.svg","response":0,"trial_type":"image-button-response","trial_index":83,"time_elapsed":527847,"internal_node_id":"0.0-4.0-0.36","subject_id":"5f6e0be76cea482e27d38c95","study_id":"60edd13110225f80f9f3709b","session_id":"6196c702573cb47beb2a57b1","condition":"contingent","relevant_dimensions":["wings","pattern"],"bee_group":{"antennae":"X","wings":"1","pattern":"S","legs":"X"},"action":"harvest","summary":"good-harvest","bonus":0.8400000000000009},{"rt":782,"stimulus":"\n                    <p><b>Action: <em>harvest</em></b></p>\n                    <p>This is the bee that you just saw.</p>\n                    <img src=\"bees-with-color/bee-B1DF.svg\" width=\"200\">\n                    <p><span class=\"greenText\"><b>Successful harvest!</b></span><br>Your pay has increased by $0.02. Your bonus pay is now $0.50.</p>\n            ","response":0,"trial_type":"html-button-response","trial_index":84,"time_elapsed":528630,"internal_node_id":"0.0-4.0-1.36","subject_id":"5f6e0be76cea482e27d38c95","study_id":"60edd13110225f80f9f3709b","session_id":"6196c702573cb47beb2a57b1","condition":"contingent","relevant_dimensions":["wings","pattern"],"bee_group":{"antennae":"X","wings":"1","pattern":"S","legs":"X"},"bonus":0.8400000000000009},{"rt":2796.2000000029802,"stimulus":"bees-with-color/bee-A2SM.svg","response":0,"trial_type":"image-button-response","trial_index":85,"time_elapsed":531427,"internal_node_id":"0.0-4.0-0.37","subject_id":"5f6e0be76cea482e27d38c95","study_id":"60edd13110225f80f9f3709b","session_id":"6196c702573cb47beb2a57b1","condition":"contingent","relevant_dimensions":["wings","pattern"],"bee_group":{"antennae":"X","wings":"1","pattern":"S","legs":"X"},"action":"harvest","summary":"good-harvest","bonus":0.8400000000000009},{"rt":640.9000000059605,"stimulus":"\n                    <p><b>Action: <em>harvest</em></b></p>\n                    <p>This is the bee that you just saw.</p>\n                    <img src=\"bees-with-color/bee-A2SM.svg\" width=\"200\">\n                    <p><span class=\"greenText\"><b>Successful harvest!</b></span><br>Your pay has increased by $0.02. Your bonus pay is now $0.52.</p>\n            ","response":0,"trial_type":"html-button-response","trial_index":86,"time_elapsed":532069,"internal_node_id":"0.0-4.0-1.37","subject_id":"5f6e0be76cea482e27d38c95","study_id":"60edd13110225f80f9f3709b","session_id":"6196c702573cb47beb2a57b1","condition":"contingent","relevant_dimensions":["wings","pattern"],"bee_group":{"antennae":"X","wings":"1","pattern":"S","legs":"X"},"bonus":0.8400000000000009},{"rt":7395.800000011921,"stimulus":"bees-with-color/bee-A1DM.svg","response":0,"trial_type":"image-button-response","trial_index":87,"time_elapsed":539466,"internal_node_id":"0.0-4.0-0.38","subject_id":"5f6e0be76cea482e27d38c95","study_id":"60edd13110225f80f9f3709b","session_id":"6196c702573cb47beb2a57b1","condition":"contingent","relevant_dimensions":["wings","pattern"],"bee_group":{"antennae":"X","wings":"1","pattern":"S","legs":"X"},"action":"harvest","summary":"good-harvest","bonus":0.8400000000000009},{"rt":5890,"stimulus":"\n                    <p><b>Action: <em>harvest</em></b></p>\n                    <p>This is the bee that you just saw.</p>\n                    <img src=\"bees-with-color/bee-A1DM.svg\" width=\"200\">\n                    <p><span class=\"greenText\"><b>Successful harvest!</b></span><br>Your pay has increased by $0.02. Your bonus pay is now $0.54.</p>\n            ","response":0,"trial_type":"html-button-response","trial_index":88,"time_elapsed":545357,"internal_node_id":"0.0-4.0-1.38","subject_id":"5f6e0be76cea482e27d38c95","study_id":"60edd13110225f80f9f3709b","session_id":"6196c702573cb47beb2a57b1","condition":"contingent","relevant_dimensions":["wings","pattern"],"bee_group":{"antennae":"X","wings":"1","pattern":"S","legs":"X"},"bonus":0.8400000000000009},{"rt":6457.70000000298,"stimulus":"bees-with-color/bee-B1SM.svg","response":1,"trial_type":"image-button-response","trial_index":89,"time_elapsed":551816,"internal_node_id":"0.0-4.0-0.39","subject_id":"5f6e0be76cea482e27d38c95","study_id":"60edd13110225f80f9f3709b","session_id":"6196c702573cb47beb2a57b1","condition":"contingent","relevant_dimensions":["wings","pattern"],"bee_group":{"antennae":"X","wings":"1","pattern":"S","legs":"X"},"action":"avoid","summary":"good-avoid","bonus":0.8400000000000009},{"rt":595.0999999940395,"stimulus":"\n                    <p><b>Action: <em>avoid</em></b></p>\n                    <p>This is the bee that you just saw.</p>\n                    <img src=\"bees-with-color/bee-B1SM.svg\" width=\"200\">\n                    <p><br>Your bonus pay is unchanged, and remains at $0.54.</p>\n            ","response":0,"trial_type":"html-button-response","trial_index":90,"time_elapsed":552412,"internal_node_id":"0.0-4.0-1.39","subject_id":"5f6e0be76cea482e27d38c95","study_id":"60edd13110225f80f9f3709b","session_id":"6196c702573cb47beb2a57b1","condition":"contingent","relevant_dimensions":["wings","pattern"],"bee_group":{"antennae":"X","wings":"1","pattern":"S","legs":"X"},"bonus":0.8400000000000009},{"rt":6367.899999991059,"stimulus":"bees-with-color/bee-A1SM.svg","response":1,"trial_type":"image-button-response","trial_index":91,"time_elapsed":558781,"internal_node_id":"0.0-4.0-0.40","subject_id":"5f6e0be76cea482e27d38c95","study_id":"60edd13110225f80f9f3709b","session_id":"6196c702573cb47beb2a57b1","condition":"contingent","relevant_dimensions":["wings","pattern"],"bee_group":{"antennae":"X","wings":"1","pattern":"S","legs":"X"},"action":"avoid","summary":"good-avoid","bonus":0.8400000000000009},{"rt":615.0999999940395,"stimulus":"\n                    <p><b>Action: <em>avoid</em></b></p>\n                    <p>This is the bee that you just saw.</p>\n                    <img src=\"bees-with-color/bee-A1SM.svg\" width=\"200\">\n                    <p><br>Your bonus pay is unchanged, and remains at $0.54.</p>\n            ","response":0,"trial_type":"html-button-response","trial_index":92,"time_elapsed":559397,"internal_node_id":"0.0-4.0-1.40","subject_id":"5f6e0be76cea482e27d38c95","study_id":"60edd13110225f80f9f3709b","session_id":"6196c702573cb47beb2a57b1","condition":"contingent","relevant_dimensions":["wings","pattern"],"bee_group":{"antennae":"X","wings":"1","pattern":"S","legs":"X"},"bonus":0.8400000000000009},{"rt":8126.100000008941,"stimulus":"bees-with-color/bee-A2DM.svg","response":1,"trial_type":"image-button-response","trial_index":93,"time_elapsed":567524,"internal_node_id":"0.0-4.0-0.41","subject_id":"5f6e0be76cea482e27d38c95","study_id":"60edd13110225f80f9f3709b","session_id":"6196c702573cb47beb2a57b1","condition":"contingent","relevant_dimensions":["wings","pattern"],"bee_group":{"antennae":"X","wings":"1","pattern":"S","legs":"X"},"action":"avoid","summary":"bad-avoid","bonus":0.8400000000000009},{"rt":1184.8999999910593,"stimulus":"\n                    <p><b>Action: <em>avoid</em></b></p>\n                    <p>This is the bee that you just saw.</p>\n                    <img src=\"bees-with-color/bee-A2DM.svg\" width=\"200\">\n                    <p><br>Your bonus pay is unchanged, and remains at $0.54.</p>\n            ","response":0,"trial_type":"html-button-response","trial_index":94,"time_elapsed":568710,"internal_node_id":"0.0-4.0-1.41","subject_id":"5f6e0be76cea482e27d38c95","study_id":"60edd13110225f80f9f3709b","session_id":"6196c702573cb47beb2a57b1","condition":"contingent","relevant_dimensions":["wings","pattern"],"bee_group":{"antennae":"X","wings":"1","pattern":"S","legs":"X"},"bonus":0.8400000000000009},{"rt":5630,"stimulus":"bees-with-color/bee-B1DM.svg","response":0,"trial_type":"image-button-response","trial_index":95,"time_elapsed":574341,"internal_node_id":"0.0-4.0-0.42","subject_id":"5f6e0be76cea482e27d38c95","study_id":"60edd13110225f80f9f3709b","session_id":"6196c702573cb47beb2a57b1","condition":"contingent","relevant_dimensions":["wings","pattern"],"bee_group":{"antennae":"X","wings":"1","pattern":"S","legs":"X"},"action":"harvest","summary":"good-harvest","bonus":0.8400000000000009},{"rt":614.0999999940395,"stimulus":"\n                    <p><b>Action: <em>harvest</em></b></p>\n                    <p>This is the bee that you just saw.</p>\n                    <img src=\"bees-with-color/bee-B1DM.svg\" width=\"200\">\n                    <p><span class=\"greenText\"><b>Successful harvest!</b></span><br>Your pay has increased by $0.02. Your bonus pay is now $0.56.</p>\n            ","response":0,"trial_type":"html-button-response","trial_index":96,"time_elapsed":574956,"internal_node_id":"0.0-4.0-1.42","subject_id":"5f6e0be76cea482e27d38c95","study_id":"60edd13110225f80f9f3709b","session_id":"6196c702573cb47beb2a57b1","condition":"contingent","relevant_dimensions":["wings","pattern"],"bee_group":{"antennae":"X","wings":"1","pattern":"S","legs":"X"},"bonus":0.8400000000000009},{"rt":3529,"stimulus":"bees-with-color/bee-B2SM.svg","response":0,"trial_type":"image-button-response","trial_index":97,"time_elapsed":578486,"internal_node_id":"0.0-4.0-0.43","subject_id":"5f6e0be76cea482e27d38c95","study_id":"60edd13110225f80f9f3709b","session_id":"6196c702573cb47beb2a57b1","condition":"contingent","relevant_dimensions":["wings","pattern"],"bee_group":{"antennae":"X","wings":"1","pattern":"S","legs":"X"},"action":"harvest","summary":"good-harvest","bonus":0.8400000000000009},{"rt":947.9000000059605,"stimulus":"\n                    <p><b>Action: <em>harvest</em></b></p>\n                    <p>This is the bee that you just saw.</p>\n                    <img src=\"bees-with-color/bee-B2SM.svg\" width=\"200\">\n                    <p><span class=\"greenText\"><b>Successful harvest!</b></span><br>Your pay has increased by $0.02. Your bonus pay is now $0.58.</p>\n            ","response":0,"trial_type":"html-button-response","trial_index":98,"time_elapsed":579435,"internal_node_id":"0.0-4.0-1.43","subject_id":"5f6e0be76cea482e27d38c95","study_id":"60edd13110225f80f9f3709b","session_id":"6196c702573cb47beb2a57b1","condition":"contingent","relevant_dimensions":["wings","pattern"],"bee_group":{"antennae":"X","wings":"1","pattern":"S","legs":"X"},"bonus":0.8400000000000009},{"rt":8758.10000000894,"stimulus":"bees-with-color/bee-B2DM.svg","response":1,"trial_type":"image-button-response","trial_index":99,"time_elapsed":588193,"internal_node_id":"0.0-4.0-0.44","subject_id":"5f6e0be76cea482e27d38c95","study_id":"60edd13110225f80f9f3709b","session_id":"6196c702573cb47beb2a57b1","condition":"contingent","relevant_dimensions":["wings","pattern"],"bee_group":{"antennae":"X","wings":"1","pattern":"S","legs":"X"},"action":"avoid","summary":"bad-avoid","bonus":0.8400000000000009},{"rt":1650,"stimulus":"\n                    <p><b>Action: <em>avoid</em></b></p>\n                    <p>This is the bee that you just saw.</p>\n                    <img src=\"bees-with-color/bee-B2DM.svg\" width=\"200\">\n                    <p><br>Your bonus pay is unchanged, and remains at $0.58.</p>\n            ","response":0,"trial_type":"html-button-response","trial_index":100,"time_elapsed":589844,"internal_node_id":"0.0-4.0-1.44","subject_id":"5f6e0be76cea482e27d38c95","study_id":"60edd13110225f80f9f3709b","session_id":"6196c702573cb47beb2a57b1","condition":"contingent","relevant_dimensions":["wings","pattern"],"bee_group":{"antennae":"X","wings":"1","pattern":"S","legs":"X"},"bonus":0.8400000000000009},{"rt":10760.79999999702,"stimulus":"bees-with-color/bee-B1SF.svg","response":1,"trial_type":"image-button-response","trial_index":101,"time_elapsed":600606,"internal_node_id":"0.0-4.0-0.45","subject_id":"5f6e0be76cea482e27d38c95","study_id":"60edd13110225f80f9f3709b","session_id":"6196c702573cb47beb2a57b1","condition":"contingent","relevant_dimensions":["wings","pattern"],"bee_group":{"antennae":"X","wings":"1","pattern":"S","legs":"X"},"action":"avoid","summary":"good-avoid","bonus":0.8400000000000009},{"rt":527.0999999940395,"stimulus":"\n                    <p><b>Action: <em>avoid</em></b></p>\n                    <p>This is the bee that you just saw.</p>\n                    <img src=\"bees-with-color/bee-B1SF.svg\" width=\"200\">\n                    <p><br>Your bonus pay is unchanged, and remains at $0.58.</p>\n            ","response":0,"trial_type":"html-button-response","trial_index":102,"time_elapsed":601134,"internal_node_id":"0.0-4.0-1.45","subject_id":"5f6e0be76cea482e27d38c95","study_id":"60edd13110225f80f9f3709b","session_id":"6196c702573cb47beb2a57b1","condition":"contingent","relevant_dimensions":["wings","pattern"],"bee_group":{"antennae":"X","wings":"1","pattern":"S","legs":"X"},"bonus":0.8400000000000009},{"rt":2111,"stimulus":"bees-with-color/bee-A1DF.svg","response":1,"trial_type":"image-button-response","trial_index":103,"time_elapsed":603247,"internal_node_id":"0.0-4.0-0.46","subject_id":"5f6e0be76cea482e27d38c95","study_id":"60edd13110225f80f9f3709b","session_id":"6196c702573cb47beb2a57b1","condition":"contingent","relevant_dimensions":["wings","pattern"],"bee_group":{"antennae":"X","wings":"1","pattern":"S","legs":"X"},"action":"avoid","summary":"bad-avoid","bonus":0.8400000000000009},{"rt":1450.2000000029802,"stimulus":"\n                    <p><b>Action: <em>avoid</em></b></p>\n                    <p>This is the bee that you just saw.</p>\n                    <img src=\"bees-with-color/bee-A1DF.svg\" width=\"200\">\n                    <p><br>Your bonus pay is unchanged, and remains at $0.58.</p>\n            ","response":0,"trial_type":"html-button-response","trial_index":104,"time_elapsed":604698,"internal_node_id":"0.0-4.0-1.46","subject_id":"5f6e0be76cea482e27d38c95","study_id":"60edd13110225f80f9f3709b","session_id":"6196c702573cb47beb2a57b1","condition":"contingent","relevant_dimensions":["wings","pattern"],"bee_group":{"antennae":"X","wings":"1","pattern":"S","legs":"X"},"bonus":0.8400000000000009},{"rt":10319.10000000894,"stimulus":"bees-with-color/bee-B2DF.svg","response":1,"trial_type":"image-button-response","trial_index":105,"time_elapsed":615018,"internal_node_id":"0.0-4.0-0.47","subject_id":"5f6e0be76cea482e27d38c95","study_id":"60edd13110225f80f9f3709b","session_id":"6196c702573cb47beb2a57b1","condition":"contingent","relevant_dimensions":["wings","pattern"],"bee_group":{"antennae":"X","wings":"1","pattern":"S","legs":"X"},"action":"avoid","summary":"bad-avoid","bonus":0.8400000000000009},{"rt":677,"stimulus":"\n                    <p><b>Action: <em>avoid</em></b></p>\n                    <p>This is the bee that you just saw.</p>\n                    <img src=\"bees-with-color/bee-B2DF.svg\" width=\"200\">\n                    <p><br>Your bonus pay is unchanged, and remains at $0.58.</p>\n            ","response":0,"trial_type":"html-button-response","trial_index":106,"time_elapsed":615696,"internal_node_id":"0.0-4.0-1.47","subject_id":"5f6e0be76cea482e27d38c95","study_id":"60edd13110225f80f9f3709b","session_id":"6196c702573cb47beb2a57b1","condition":"contingent","relevant_dimensions":["wings","pattern"],"bee_group":{"antennae":"X","wings":"1","pattern":"S","legs":"X"},"bonus":0.8400000000000009},{"rt":6499,"stimulus":"bees-with-color/bee-B1DF.svg","response":0,"trial_type":"image-button-response","trial_index":107,"time_elapsed":622196,"internal_node_id":"0.0-4.0-0.48","subject_id":"5f6e0be76cea482e27d38c95","study_id":"60edd13110225f80f9f3709b","session_id":"6196c702573cb47beb2a57b1","condition":"contingent","relevant_dimensions":["wings","pattern"],"bee_group":{"antennae":"X","wings":"1","pattern":"S","legs":"X"},"action":"harvest","summary":"good-harvest","bonus":0.8400000000000009},{"rt":754.1000000089407,"stimulus":"\n                    <p><b>Action: <em>harvest</em></b></p>\n                    <p>This is the bee that you just saw.</p>\n                    <img src=\"bees-with-color/bee-B1DF.svg\" width=\"200\">\n                    <p><span class=\"greenText\"><b>Successful harvest!</b></span><br>Your pay has increased by $0.02. Your bonus pay is now $0.60.</p>\n            ","response":0,"trial_type":"html-button-response","trial_index":108,"time_elapsed":622951,"internal_node_id":"0.0-4.0-1.48","subject_id":"5f6e0be76cea482e27d38c95","study_id":"60edd13110225f80f9f3709b","session_id":"6196c702573cb47beb2a57b1","condition":"contingent","relevant_dimensions":["wings","pattern"],"bee_group":{"antennae":"X","wings":"1","pattern":"S","legs":"X"},"bonus":0.8400000000000009},{"rt":13076.09999999404,"stimulus":"bees-with-color/bee-A2DM.svg","response":1,"trial_type":"image-button-response","trial_index":109,"time_elapsed":636028,"internal_node_id":"0.0-4.0-0.49","subject_id":"5f6e0be76cea482e27d38c95","study_id":"60edd13110225f80f9f3709b","session_id":"6196c702573cb47beb2a57b1","condition":"contingent","relevant_dimensions":["wings","pattern"],"bee_group":{"antennae":"X","wings":"1","pattern":"S","legs":"X"},"action":"avoid","summary":"bad-avoid","bonus":0.8400000000000009},{"rt":744.7000000029802,"stimulus":"\n                    <p><b>Action: <em>avoid</em></b></p>\n                    <p>This is the bee that you just saw.</p>\n                    <img src=\"bees-with-color/bee-A2DM.svg\" width=\"200\">\n                    <p><br>Your bonus pay is unchanged, and remains at $0.60.</p>\n            ","response":0,"trial_type":"html-button-response","trial_index":110,"time_elapsed":636774,"internal_node_id":"0.0-4.0-1.49","subject_id":"5f6e0be76cea482e27d38c95","study_id":"60edd13110225f80f9f3709b","session_id":"6196c702573cb47beb2a57b1","condition":"contingent","relevant_dimensions":["wings","pattern"],"bee_group":{"antennae":"X","wings":"1","pattern":"S","legs":"X"},"bonus":0.8400000000000009},{"rt":5209.0999999940395,"stimulus":"bees-with-color/bee-B1SF.svg","response":1,"trial_type":"image-button-response","trial_index":111,"time_elapsed":641984,"internal_node_id":"0.0-4.0-0.50","subject_id":"5f6e0be76cea482e27d38c95","study_id":"60edd13110225f80f9f3709b","session_id":"6196c702573cb47beb2a57b1","condition":"contingent","relevant_dimensions":["wings","pattern"],"bee_group":{"antennae":"X","wings":"1","pattern":"S","legs":"X"},"action":"avoid","summary":"good-avoid","bonus":0.8400000000000009},{"rt":745.7999999970198,"stimulus":"\n                    <p><b>Action: <em>avoid</em></b></p>\n                    <p>This is the bee that you just saw.</p>\n                    <img src=\"bees-with-color/bee-B1SF.svg\" width=\"200\">\n                    <p><br>Your bonus pay is unchanged, and remains at $0.60.</p>\n            ","response":0,"trial_type":"html-button-response","trial_index":112,"time_elapsed":642731,"internal_node_id":"0.0-4.0-1.50","subject_id":"5f6e0be76cea482e27d38c95","study_id":"60edd13110225f80f9f3709b","session_id":"6196c702573cb47beb2a57b1","condition":"contingent","relevant_dimensions":["wings","pattern"],"bee_group":{"antennae":"X","wings":"1","pattern":"S","legs":"X"},"bonus":0.8400000000000009},{"rt":1773.8999999910593,"stimulus":"bees-with-color/bee-B2DM.svg","response":1,"trial_type":"image-button-response","trial_index":113,"time_elapsed":644506,"internal_node_id":"0.0-4.0-0.51","subject_id":"5f6e0be76cea482e27d38c95","study_id":"60edd13110225f80f9f3709b","session_id":"6196c702573cb47beb2a57b1","condition":"contingent","relevant_dimensions":["wings","pattern"],"bee_group":{"antennae":"X","wings":"1","pattern":"S","legs":"X"},"action":"avoid","summary":"bad-avoid","bonus":0.8400000000000009},{"rt":671.9000000059605,"stimulus":"\n                    <p><b>Action: <em>avoid</em></b></p>\n                    <p>This is the bee that you just saw.</p>\n                    <img src=\"bees-with-color/bee-B2DM.svg\" width=\"200\">\n                    <p><br>Your bonus pay is unchanged, and remains at $0.60.</p>\n            ","response":0,"trial_type":"html-button-response","trial_index":114,"time_elapsed":645179,"internal_node_id":"0.0-4.0-1.51","subject_id":"5f6e0be76cea482e27d38c95","study_id":"60edd13110225f80f9f3709b","session_id":"6196c702573cb47beb2a57b1","condition":"contingent","relevant_dimensions":["wings","pattern"],"bee_group":{"antennae":"X","wings":"1","pattern":"S","legs":"X"},"bonus":0.8400000000000009},{"rt":1578.8999999910593,"stimulus":"bees-with-color/bee-B1SM.svg","response":0,"trial_type":"image-button-response","trial_index":115,"time_elapsed":646760,"internal_node_id":"0.0-4.0-0.52","subject_id":"5f6e0be76cea482e27d38c95","study_id":"60edd13110225f80f9f3709b","session_id":"6196c702573cb47beb2a57b1","condition":"contingent","relevant_dimensions":["wings","pattern"],"bee_group":{"antennae":"X","wings":"1","pattern":"S","legs":"X"},"action":"harvest","summary":"bad-harvest","bonus":0.8400000000000009},{"rt":1193.8999999910593,"stimulus":"\n                    <p><b>Action: <em>harvest</em></b></p>\n                    <p>This is the bee that you just saw.</p>\n                    <img src=\"bees-with-color/bee-B1SM.svg\" width=\"200\">\n                    <p><span class=\"redText\">Bad choice, the bee was angry.</span><br><b>You have been stung!</b><br>Your pay has been decreased by $0.10. Your bonus pay is now $0.50.</p>\n            ","response":0,"trial_type":"html-button-response","trial_index":116,"time_elapsed":647955,"internal_node_id":"0.0-4.0-1.52","subject_id":"5f6e0be76cea482e27d38c95","study_id":"60edd13110225f80f9f3709b","session_id":"6196c702573cb47beb2a57b1","condition":"contingent","relevant_dimensions":["wings","pattern"],"bee_group":{"antennae":"X","wings":"1","pattern":"S","legs":"X"},"bonus":0.8400000000000009},{"rt":1542.2000000029802,"stimulus":"bees-with-color/bee-A2SM.svg","response":1,"trial_type":"image-button-response","trial_index":117,"time_elapsed":649498,"internal_node_id":"0.0-4.0-0.53","subject_id":"5f6e0be76cea482e27d38c95","study_id":"60edd13110225f80f9f3709b","session_id":"6196c702573cb47beb2a57b1","condition":"contingent","relevant_dimensions":["wings","pattern"],"bee_group":{"antennae":"X","wings":"1","pattern":"S","legs":"X"},"action":"avoid","summary":"bad-avoid","bonus":0.8400000000000009},{"rt":717.6000000089407,"stimulus":"\n                    <p><b>Action: <em>avoid</em></b></p>\n                    <p>This is the bee that you just saw.</p>\n                    <img src=\"bees-with-color/bee-A2SM.svg\" width=\"200\">\n                    <p><br>Your bonus pay is unchanged, and remains at $0.50.</p>\n            ","response":0,"trial_type":"html-button-response","trial_index":118,"time_elapsed":650216,"internal_node_id":"0.0-4.0-1.53","subject_id":"5f6e0be76cea482e27d38c95","study_id":"60edd13110225f80f9f3709b","session_id":"6196c702573cb47beb2a57b1","condition":"contingent","relevant_dimensions":["wings","pattern"],"bee_group":{"antennae":"X","wings":"1","pattern":"S","legs":"X"},"bonus":0.8400000000000009},{"rt":3098.5,"stimulus":"bees-with-color/bee-B1DM.svg","response":0,"trial_type":"image-button-response","trial_index":119,"time_elapsed":653316,"internal_node_id":"0.0-4.0-0.54","subject_id":"5f6e0be76cea482e27d38c95","study_id":"60edd13110225f80f9f3709b","session_id":"6196c702573cb47beb2a57b1","condition":"contingent","relevant_dimensions":["wings","pattern"],"bee_group":{"antennae":"X","wings":"1","pattern":"S","legs":"X"},"action":"harvest","summary":"good-harvest","bonus":0.8400000000000009},{"rt":721.7999999970198,"stimulus":"\n                    <p><b>Action: <em>harvest</em></b></p>\n                    <p>This is the bee that you just saw.</p>\n                    <img src=\"bees-with-color/bee-B1DM.svg\" width=\"200\">\n                    <p><span class=\"greenText\"><b>Successful harvest!</b></span><br>Your pay has increased by $0.02. Your bonus pay is now $0.52.</p>\n            ","response":0,"trial_type":"html-button-response","trial_index":120,"time_elapsed":654039,"internal_node_id":"0.0-4.0-1.54","subject_id":"5f6e0be76cea482e27d38c95","study_id":"60edd13110225f80f9f3709b","session_id":"6196c702573cb47beb2a57b1","condition":"contingent","relevant_dimensions":["wings","pattern"],"bee_group":{"antennae":"X","wings":"1","pattern":"S","legs":"X"},"bonus":0.8400000000000009},{"rt":5962.9000000059605,"stimulus":"bees-with-color/bee-B2SM.svg","response":0,"trial_type":"image-button-response","trial_index":121,"time_elapsed":660003,"internal_node_id":"0.0-4.0-0.55","subject_id":"5f6e0be76cea482e27d38c95","study_id":"60edd13110225f80f9f3709b","session_id":"6196c702573cb47beb2a57b1","condition":"contingent","relevant_dimensions":["wings","pattern"],"bee_group":{"antennae":"X","wings":"1","pattern":"S","legs":"X"},"action":"harvest","summary":"good-harvest","bonus":0.8400000000000009},{"rt":759.2000000029802,"stimulus":"\n                    <p><b>Action: <em>harvest</em></b></p>\n                    <p>This is the bee that you just saw.</p>\n                    <img src=\"bees-with-color/bee-B2SM.svg\" width=\"200\">\n                    <p><span class=\"greenText\"><b>Successful harvest!</b></span><br>Your pay has increased by $0.02. Your bonus pay is now $0.54.</p>\n            ","response":0,"trial_type":"html-button-response","trial_index":122,"time_elapsed":660763,"internal_node_id":"0.0-4.0-1.55","subject_id":"5f6e0be76cea482e27d38c95","study_id":"60edd13110225f80f9f3709b","session_id":"6196c702573cb47beb2a57b1","condition":"contingent","relevant_dimensions":["wings","pattern"],"bee_group":{"antennae":"X","wings":"1","pattern":"S","legs":"X"},"bonus":0.8400000000000009},{"rt":5388.79999999702,"stimulus":"bees-with-color/bee-B2SF.svg","response":1,"trial_type":"image-button-response","trial_index":123,"time_elapsed":666153,"internal_node_id":"0.0-4.0-0.56","subject_id":"5f6e0be76cea482e27d38c95","study_id":"60edd13110225f80f9f3709b","session_id":"6196c702573cb47beb2a57b1","condition":"contingent","relevant_dimensions":["wings","pattern"],"bee_group":{"antennae":"X","wings":"1","pattern":"S","legs":"X"},"action":"avoid","summary":"bad-avoid","bonus":0.8400000000000009},{"rt":649.2000000029802,"stimulus":"\n                    <p><b>Action: <em>avoid</em></b></p>\n                    <p>This is the bee that you just saw.</p>\n                    <img src=\"bees-with-color/bee-B2SF.svg\" width=\"200\">\n                    <p><br>Your bonus pay is unchanged, and remains at $0.54.</p>\n            ","response":0,"trial_type":"html-button-response","trial_index":124,"time_elapsed":666803,"internal_node_id":"0.0-4.0-1.56","subject_id":"5f6e0be76cea482e27d38c95","study_id":"60edd13110225f80f9f3709b","session_id":"6196c702573cb47beb2a57b1","condition":"contingent","relevant_dimensions":["wings","pattern"],"bee_group":{"antennae":"X","wings":"1","pattern":"S","legs":"X"},"bonus":0.8400000000000009},{"rt":3459.8999999910593,"stimulus":"bees-with-color/bee-A2DF.svg","response":1,"trial_type":"image-button-response","trial_index":125,"time_elapsed":670264,"internal_node_id":"0.0-4.0-0.57","subject_id":"5f6e0be76cea482e27d38c95","study_id":"60edd13110225f80f9f3709b","session_id":"6196c702573cb47beb2a57b1","condition":"contingent","relevant_dimensions":["wings","pattern"],"bee_group":{"antennae":"X","wings":"1","pattern":"S","legs":"X"},"action":"avoid","summary":"bad-avoid","bonus":0.8400000000000009},{"rt":1159.9000000059605,"stimulus":"\n                    <p><b>Action: <em>avoid</em></b></p>\n                    <p>This is the bee that you just saw.</p>\n                    <img src=\"bees-with-color/bee-A2DF.svg\" width=\"200\">\n                    <p><br>Your bonus pay is unchanged, and remains at $0.54.</p>\n            ","response":0,"trial_type":"html-button-response","trial_index":126,"time_elapsed":671425,"internal_node_id":"0.0-4.0-1.57","subject_id":"5f6e0be76cea482e27d38c95","study_id":"60edd13110225f80f9f3709b","session_id":"6196c702573cb47beb2a57b1","condition":"contingent","relevant_dimensions":["wings","pattern"],"bee_group":{"antennae":"X","wings":"1","pattern":"S","legs":"X"},"bonus":0.8400000000000009},{"rt":2975.7000000029802,"stimulus":"bees-with-color/bee-A2SF.svg","response":1,"trial_type":"image-button-response","trial_index":127,"time_elapsed":674402,"internal_node_id":"0.0-4.0-0.58","subject_id":"5f6e0be76cea482e27d38c95","study_id":"60edd13110225f80f9f3709b","session_id":"6196c702573cb47beb2a57b1","condition":"contingent","relevant_dimensions":["wings","pattern"],"bee_group":{"antennae":"X","wings":"1","pattern":"S","legs":"X"},"action":"avoid","summary":"bad-avoid","bonus":0.8400000000000009},{"rt":459.6000000089407,"stimulus":"\n                    <p><b>Action: <em>avoid</em></b></p>\n                    <p>This is the bee that you just saw.</p>\n                    <img src=\"bees-with-color/bee-A2SF.svg\" width=\"200\">\n                    <p><br>Your bonus pay is unchanged, and remains at $0.54.</p>\n            ","response":0,"trial_type":"html-button-response","trial_index":128,"time_elapsed":674862,"internal_node_id":"0.0-4.0-1.58","subject_id":"5f6e0be76cea482e27d38c95","study_id":"60edd13110225f80f9f3709b","session_id":"6196c702573cb47beb2a57b1","condition":"contingent","relevant_dimensions":["wings","pattern"],"bee_group":{"antennae":"X","wings":"1","pattern":"S","legs":"X"},"bonus":0.8400000000000009},{"rt":9910.5,"stimulus":"bees-with-color/bee-A1SF.svg","response":1,"trial_type":"image-button-response","trial_index":129,"time_elapsed":684774,"internal_node_id":"0.0-4.0-0.59","subject_id":"5f6e0be76cea482e27d38c95","study_id":"60edd13110225f80f9f3709b","session_id":"6196c702573cb47beb2a57b1","condition":"contingent","relevant_dimensions":["wings","pattern"],"bee_group":{"antennae":"X","wings":"1","pattern":"S","legs":"X"},"action":"avoid","summary":"good-avoid","bonus":0.8400000000000009},{"rt":942.1000000089407,"stimulus":"\n                    <p><b>Action: <em>avoid</em></b></p>\n                    <p>This is the bee that you just saw.</p>\n                    <img src=\"bees-with-color/bee-A1SF.svg\" width=\"200\">\n                    <p><br>Your bonus pay is unchanged, and remains at $0.54.</p>\n            ","response":0,"trial_type":"html-button-response","trial_index":130,"time_elapsed":685717,"internal_node_id":"0.0-4.0-1.59","subject_id":"5f6e0be76cea482e27d38c95","study_id":"60edd13110225f80f9f3709b","session_id":"6196c702573cb47beb2a57b1","condition":"contingent","relevant_dimensions":["wings","pattern"],"bee_group":{"antennae":"X","wings":"1","pattern":"S","legs":"X"},"bonus":0.8400000000000009},{"rt":6742.9000000059605,"stimulus":"bees-with-color/bee-B2DF.svg","response":1,"trial_type":"image-button-response","trial_index":131,"time_elapsed":692461,"internal_node_id":"0.0-4.0-0.60","subject_id":"5f6e0be76cea482e27d38c95","study_id":"60edd13110225f80f9f3709b","session_id":"6196c702573cb47beb2a57b1","condition":"contingent","relevant_dimensions":["wings","pattern"],"bee_group":{"antennae":"X","wings":"1","pattern":"S","legs":"X"},"action":"avoid","summary":"bad-avoid","bonus":0.8400000000000009},{"rt":1104.1000000089407,"stimulus":"\n                    <p><b>Action: <em>avoid</em></b></p>\n                    <p>This is the bee that you just saw.</p>\n                    <img src=\"bees-with-color/bee-B2DF.svg\" width=\"200\">\n                    <p><br>Your bonus pay is unchanged, and remains at $0.54.</p>\n            ","response":0,"trial_type":"html-button-response","trial_index":132,"time_elapsed":693566,"internal_node_id":"0.0-4.0-1.60","subject_id":"5f6e0be76cea482e27d38c95","study_id":"60edd13110225f80f9f3709b","session_id":"6196c702573cb47beb2a57b1","condition":"contingent","relevant_dimensions":["wings","pattern"],"bee_group":{"antennae":"X","wings":"1","pattern":"S","legs":"X"},"bonus":0.8400000000000009},{"rt":7344,"stimulus":"bees-with-color/bee-A1SM.svg","response":1,"trial_type":"image-button-response","trial_index":133,"time_elapsed":700911,"internal_node_id":"0.0-4.0-0.61","subject_id":"5f6e0be76cea482e27d38c95","study_id":"60edd13110225f80f9f3709b","session_id":"6196c702573cb47beb2a57b1","condition":"contingent","relevant_dimensions":["wings","pattern"],"bee_group":{"antennae":"X","wings":"1","pattern":"S","legs":"X"},"action":"avoid","summary":"good-avoid","bonus":0.8400000000000009},{"rt":663.8999999910593,"stimulus":"\n                    <p><b>Action: <em>avoid</em></b></p>\n                    <p>This is the bee that you just saw.</p>\n                    <img src=\"bees-with-color/bee-A1SM.svg\" width=\"200\">\n                    <p><br>Your bonus pay is unchanged, and remains at $0.54.</p>\n            ","response":0,"trial_type":"html-button-response","trial_index":134,"time_elapsed":701576,"internal_node_id":"0.0-4.0-1.61","subject_id":"5f6e0be76cea482e27d38c95","study_id":"60edd13110225f80f9f3709b","session_id":"6196c702573cb47beb2a57b1","condition":"contingent","relevant_dimensions":["wings","pattern"],"bee_group":{"antennae":"X","wings":"1","pattern":"S","legs":"X"},"bonus":0.8400000000000009},{"rt":5871.9000000059605,"stimulus":"bees-with-color/bee-A1DM.svg","response":0,"trial_type":"image-button-response","trial_index":135,"time_elapsed":707449,"internal_node_id":"0.0-4.0-0.62","subject_id":"5f6e0be76cea482e27d38c95","study_id":"60edd13110225f80f9f3709b","session_id":"6196c702573cb47beb2a57b1","condition":"contingent","relevant_dimensions":["wings","pattern"],"bee_group":{"antennae":"X","wings":"1","pattern":"S","legs":"X"},"action":"harvest","summary":"good-harvest","bonus":0.8400000000000009},{"rt":883,"stimulus":"\n                    <p><b>Action: <em>harvest</em></b></p>\n                    <p>This is the bee that you just saw.</p>\n                    <img src=\"bees-with-color/bee-A1DM.svg\" width=\"200\">\n                    <p><span class=\"greenText\"><b>Successful harvest!</b></span><br>Your pay has increased by $0.02. Your bonus pay is now $0.56.</p>\n            ","response":0,"trial_type":"html-button-response","trial_index":136,"time_elapsed":708333,"internal_node_id":"0.0-4.0-1.62","subject_id":"5f6e0be76cea482e27d38c95","study_id":"60edd13110225f80f9f3709b","session_id":"6196c702573cb47beb2a57b1","condition":"contingent","relevant_dimensions":["wings","pattern"],"bee_group":{"antennae":"X","wings":"1","pattern":"S","legs":"X"},"bonus":0.8400000000000009},{"rt":1627.7999999970198,"stimulus":"bees-with-color/bee-A1DF.svg","response":0,"trial_type":"image-button-response","trial_index":137,"time_elapsed":709962,"internal_node_id":"0.0-4.0-0.63","subject_id":"5f6e0be76cea482e27d38c95","study_id":"60edd13110225f80f9f3709b","session_id":"6196c702573cb47beb2a57b1","condition":"contingent","relevant_dimensions":["wings","pattern"],"bee_group":{"antennae":"X","wings":"1","pattern":"S","legs":"X"},"action":"harvest","summary":"good-harvest","bonus":0.8400000000000009},{"rt":1132,"stimulus":"\n                    <p><b>Action: <em>harvest</em></b></p>\n                    <p>This is the bee that you just saw.</p>\n                    <img src=\"bees-with-color/bee-A1DF.svg\" width=\"200\">\n                    <p><span class=\"greenText\"><b>Successful harvest!</b></span><br>Your pay has increased by $0.02. Your bonus pay is now $0.58.</p>\n            ","response":0,"trial_type":"html-button-response","trial_index":138,"time_elapsed":711095,"internal_node_id":"0.0-4.0-1.63","subject_id":"5f6e0be76cea482e27d38c95","study_id":"60edd13110225f80f9f3709b","session_id":"6196c702573cb47beb2a57b1","condition":"contingent","relevant_dimensions":["wings","pattern"],"bee_group":{"antennae":"X","wings":"1","pattern":"S","legs":"X"},"bonus":0.8400000000000009},{"rt":9997.5,"stimulus":"You have completed the first part of this experiment.<br><br>You will now begin a shorter second part, in which you will receive no feedback.<br>The same rules regarding bonus pay apply.<br><br>Press any key to begin.","response":"n","trial_type":"html-keyboard-response","trial_index":139,"time_elapsed":721093,"internal_node_id":"0.0-5.0","subject_id":"5f6e0be76cea482e27d38c95","study_id":"60edd13110225f80f9f3709b","session_id":"6196c702573cb47beb2a57b1","condition":"contingent","relevant_dimensions":["wings","pattern"],"bee_group":{"antennae":"X","wings":"1","pattern":"S","legs":"X"},"bonus":0.8400000000000009},{"rt":10303.5,"stimulus":"bees-with-color/bee-A2DM.svg","response":1,"trial_type":"image-button-response","trial_index":140,"time_elapsed":731402,"internal_node_id":"0.0-6.0-0.0","subject_id":"5f6e0be76cea482e27d38c95","study_id":"60edd13110225f80f9f3709b","session_id":"6196c702573cb47beb2a57b1","condition":"contingent","relevant_dimensions":["wings","pattern"],"bee_group":{"antennae":"X","wings":"1","pattern":"S","legs":"X"},"bonus":0.8400000000000009},{"rt":6746.4000000059605,"stimulus":"bees-with-color/bee-B1SF.svg","response":1,"trial_type":"image-button-response","trial_index":141,"time_elapsed":738150,"internal_node_id":"0.0-6.0-0.1","subject_id":"5f6e0be76cea482e27d38c95","study_id":"60edd13110225f80f9f3709b","session_id":"6196c702573cb47beb2a57b1","condition":"contingent","relevant_dimensions":["wings","pattern"],"bee_group":{"antennae":"X","wings":"1","pattern":"S","legs":"X"},"bonus":0.8400000000000009},{"rt":3314.7999999970198,"stimulus":"bees-with-color/bee-B2SM.svg","response":0,"trial_type":"image-button-response","trial_index":142,"time_elapsed":741466,"internal_node_id":"0.0-6.0-0.2","subject_id":"5f6e0be76cea482e27d38c95","study_id":"60edd13110225f80f9f3709b","session_id":"6196c702573cb47beb2a57b1","condition":"contingent","relevant_dimensions":["wings","pattern"],"bee_group":{"antennae":"X","wings":"1","pattern":"S","legs":"X"},"bonus":0.8400000000000009},{"rt":7319.5999999940395,"stimulus":"bees-with-color/bee-B2DM.svg","response":1,"trial_type":"image-button-response","trial_index":143,"time_elapsed":748787,"internal_node_id":"0.0-6.0-0.3","subject_id":"5f6e0be76cea482e27d38c95","study_id":"60edd13110225f80f9f3709b","session_id":"6196c702573cb47beb2a57b1","condition":"contingent","relevant_dimensions":["wings","pattern"],"bee_group":{"antennae":"X","wings":"1","pattern":"S","legs":"X"},"bonus":0.8400000000000009},{"rt":5821.70000000298,"stimulus":"bees-with-color/bee-B1DF.svg","response":0,"trial_type":"image-button-response","trial_index":144,"time_elapsed":754610,"internal_node_id":"0.0-6.0-0.4","subject_id":"5f6e0be76cea482e27d38c95","study_id":"60edd13110225f80f9f3709b","session_id":"6196c702573cb47beb2a57b1","condition":"contingent","relevant_dimensions":["wings","pattern"],"bee_group":{"antennae":"X","wings":"1","pattern":"S","legs":"X"},"bonus":0.8400000000000009},{"rt":6541.199999988079,"stimulus":"bees-with-color/bee-B2DF.svg","response":1,"trial_type":"image-button-response","trial_index":145,"time_elapsed":761152,"internal_node_id":"0.0-6.0-0.5","subject_id":"5f6e0be76cea482e27d38c95","study_id":"60edd13110225f80f9f3709b","session_id":"6196c702573cb47beb2a57b1","condition":"contingent","relevant_dimensions":["wings","pattern"],"bee_group":{"antennae":"X","wings":"1","pattern":"S","legs":"X"},"bonus":0.8400000000000009},{"rt":5344.5,"stimulus":"bees-with-color/bee-A2SM.svg","response":0,"trial_type":"image-button-response","trial_index":146,"time_elapsed":766499,"internal_node_id":"0.0-6.0-0.6","subject_id":"5f6e0be76cea482e27d38c95","study_id":"60edd13110225f80f9f3709b","session_id":"6196c702573cb47beb2a57b1","condition":"contingent","relevant_dimensions":["wings","pattern"],"bee_group":{"antennae":"X","wings":"1","pattern":"S","legs":"X"},"bonus":0.8400000000000009},{"rt":6686.5,"stimulus":"bees-with-color/bee-A1SF.svg","response":1,"trial_type":"image-button-response","trial_index":147,"time_elapsed":773187,"internal_node_id":"0.0-6.0-0.7","subject_id":"5f6e0be76cea482e27d38c95","study_id":"60edd13110225f80f9f3709b","session_id":"6196c702573cb47beb2a57b1","condition":"contingent","relevant_dimensions":["wings","pattern"],"bee_group":{"antennae":"X","wings":"1","pattern":"S","legs":"X"},"bonus":0.8400000000000009},{"rt":2510.199999988079,"stimulus":"bees-with-color/bee-A1DM.svg","response":0,"trial_type":"image-button-response","trial_index":148,"time_elapsed":775699,"internal_node_id":"0.0-6.0-0.8","subject_id":"5f6e0be76cea482e27d38c95","study_id":"60edd13110225f80f9f3709b","session_id":"6196c702573cb47beb2a57b1","condition":"contingent","relevant_dimensions":["wings","pattern"],"bee_group":{"antennae":"X","wings":"1","pattern":"S","legs":"X"},"bonus":0.8400000000000009},{"rt":5917.4000000059605,"stimulus":"bees-with-color/bee-A2DF.svg","response":1,"trial_type":"image-button-response","trial_index":149,"time_elapsed":781618,"internal_node_id":"0.0-6.0-0.9","subject_id":"5f6e0be76cea482e27d38c95","study_id":"60edd13110225f80f9f3709b","session_id":"6196c702573cb47beb2a57b1","condition":"contingent","relevant_dimensions":["wings","pattern"],"bee_group":{"antennae":"X","wings":"1","pattern":"S","legs":"X"},"bonus":0.8400000000000009},{"rt":2225.5,"stimulus":"bees-with-color/bee-A2SF.svg","response":0,"trial_type":"image-button-response","trial_index":150,"time_elapsed":783845,"internal_node_id":"0.0-6.0-0.10","subject_id":"5f6e0be76cea482e27d38c95","study_id":"60edd13110225f80f9f3709b","session_id":"6196c702573cb47beb2a57b1","condition":"contingent","relevant_dimensions":["wings","pattern"],"bee_group":{"antennae":"X","wings":"1","pattern":"S","legs":"X"},"bonus":0.8400000000000009},{"rt":4919.79999999702,"stimulus":"bees-with-color/bee-B2SF.svg","response":0,"trial_type":"image-button-response","trial_index":151,"time_elapsed":788766,"internal_node_id":"0.0-6.0-0.11","subject_id":"5f6e0be76cea482e27d38c95","study_id":"60edd13110225f80f9f3709b","session_id":"6196c702573cb47beb2a57b1","condition":"contingent","relevant_dimensions":["wings","pattern"],"bee_group":{"antennae":"X","wings":"1","pattern":"S","legs":"X"},"bonus":0.8400000000000009},{"rt":13183.5,"stimulus":"bees-with-color/bee-B1SM.svg","response":1,"trial_type":"image-button-response","trial_index":152,"time_elapsed":801951,"internal_node_id":"0.0-6.0-0.12","subject_id":"5f6e0be76cea482e27d38c95","study_id":"60edd13110225f80f9f3709b","session_id":"6196c702573cb47beb2a57b1","condition":"contingent","relevant_dimensions":["wings","pattern"],"bee_group":{"antennae":"X","wings":"1","pattern":"S","legs":"X"},"bonus":0.8400000000000009},{"rt":9622.39999999106,"stimulus":"bees-with-color/bee-B1DM.svg","response":0,"trial_type":"image-button-response","trial_index":153,"time_elapsed":811575,"internal_node_id":"0.0-6.0-0.13","subject_id":"5f6e0be76cea482e27d38c95","study_id":"60edd13110225f80f9f3709b","session_id":"6196c702573cb47beb2a57b1","condition":"contingent","relevant_dimensions":["wings","pattern"],"bee_group":{"antennae":"X","wings":"1","pattern":"S","legs":"X"},"bonus":0.8400000000000009},{"rt":8773.40000000596,"stimulus":"bees-with-color/bee-A1SM.svg","response":1,"trial_type":"image-button-response","trial_index":154,"time_elapsed":820350,"internal_node_id":"0.0-6.0-0.14","subject_id":"5f6e0be76cea482e27d38c95","study_id":"60edd13110225f80f9f3709b","session_id":"6196c702573cb47beb2a57b1","condition":"contingent","relevant_dimensions":["wings","pattern"],"bee_group":{"antennae":"X","wings":"1","pattern":"S","legs":"X"},"bonus":0.8400000000000009},{"rt":5146.199999988079,"stimulus":"bees-with-color/bee-A1DF.svg","response":0,"trial_type":"image-button-response","trial_index":155,"time_elapsed":825498,"internal_node_id":"0.0-6.0-0.15","subject_id":"5f6e0be76cea482e27d38c95","study_id":"60edd13110225f80f9f3709b","session_id":"6196c702573cb47beb2a57b1","condition":"contingent","relevant_dimensions":["wings","pattern"],"bee_group":{"antennae":"X","wings":"1","pattern":"S","legs":"X"},"bonus":0.8400000000000009},{"rt":10057.699999988079,"stimulus":"bees-with-color/bee-A2SF.svg","response":1,"trial_type":"image-button-response","trial_index":156,"time_elapsed":835557,"internal_node_id":"0.0-6.0-0.16","subject_id":"5f6e0be76cea482e27d38c95","study_id":"60edd13110225f80f9f3709b","session_id":"6196c702573cb47beb2a57b1","condition":"contingent","relevant_dimensions":["wings","pattern"],"bee_group":{"antennae":"X","wings":"1","pattern":"S","legs":"X"},"bonus":0.8400000000000009},{"rt":8430,"stimulus":"bees-with-color/bee-B2SM.svg","response":0,"trial_type":"image-button-response","trial_index":157,"time_elapsed":843988,"internal_node_id":"0.0-6.0-0.17","subject_id":"5f6e0be76cea482e27d38c95","study_id":"60edd13110225f80f9f3709b","session_id":"6196c702573cb47beb2a57b1","condition":"contingent","relevant_dimensions":["wings","pattern"],"bee_group":{"antennae":"X","wings":"1","pattern":"S","legs":"X"},"bonus":0.8400000000000009},{"rt":9892.79999999702,"stimulus":"bees-with-color/bee-A1SM.svg","response":1,"trial_type":"image-button-response","trial_index":158,"time_elapsed":853882,"internal_node_id":"0.0-6.0-0.18","subject_id":"5f6e0be76cea482e27d38c95","study_id":"60edd13110225f80f9f3709b","session_id":"6196c702573cb47beb2a57b1","condition":"contingent","relevant_dimensions":["wings","pattern"],"bee_group":{"antennae":"X","wings":"1","pattern":"S","legs":"X"},"bonus":0.8400000000000009},{"rt":6765.79999999702,"stimulus":"bees-with-color/bee-A1SF.svg","response":1,"trial_type":"image-button-response","trial_index":159,"time_elapsed":860650,"internal_node_id":"0.0-6.0-0.19","subject_id":"5f6e0be76cea482e27d38c95","study_id":"60edd13110225f80f9f3709b","session_id":"6196c702573cb47beb2a57b1","condition":"contingent","relevant_dimensions":["wings","pattern"],"bee_group":{"antennae":"X","wings":"1","pattern":"S","legs":"X"},"bonus":0.8400000000000009},{"rt":4541.5999999940395,"stimulus":"bees-with-color/bee-B1DF.svg","response":1,"trial_type":"image-button-response","trial_index":160,"time_elapsed":865193,"internal_node_id":"0.0-6.0-0.20","subject_id":"5f6e0be76cea482e27d38c95","study_id":"60edd13110225f80f9f3709b","session_id":"6196c702573cb47beb2a57b1","condition":"contingent","relevant_dimensions":["wings","pattern"],"bee_group":{"antennae":"X","wings":"1","pattern":"S","legs":"X"},"bonus":0.8400000000000009},{"rt":6418.79999999702,"stimulus":"bees-with-color/bee-A2DM.svg","response":1,"trial_type":"image-button-response","trial_index":161,"time_elapsed":871613,"internal_node_id":"0.0-6.0-0.21","subject_id":"5f6e0be76cea482e27d38c95","study_id":"60edd13110225f80f9f3709b","session_id":"6196c702573cb47beb2a57b1","condition":"contingent","relevant_dimensions":["wings","pattern"],"bee_group":{"antennae":"X","wings":"1","pattern":"S","legs":"X"},"bonus":0.8400000000000009},{"rt":7737.699999988079,"stimulus":"bees-with-color/bee-A2SM.svg","response":0,"trial_type":"image-button-response","trial_index":162,"time_elapsed":879352,"internal_node_id":"0.0-6.0-0.22","subject_id":"5f6e0be76cea482e27d38c95","study_id":"60edd13110225f80f9f3709b","session_id":"6196c702573cb47beb2a57b1","condition":"contingent","relevant_dimensions":["wings","pattern"],"bee_group":{"antennae":"X","wings":"1","pattern":"S","legs":"X"},"bonus":0.8400000000000009},{"rt":8576.699999988079,"stimulus":"bees-