[{"success":true,"trial_type":"fullscreen","trial_index":0,"time_elapsed":27891,"internal_node_id":"0.0-0.0","subject_id":"5f0c6e39eff16b5d4f3b2914","study_id":"60edd13110225f80f9f3709b","session_id":"6196c907e3949be79fc01257","condition":"contingent","relevant_dimensions":["antennae","pattern"],"bee_group":{"antennae":"B","wings":"X","pattern":"S","legs":"X"},"bonus":1.280000000000001},{"success":true,"timeout":false,"failed_images":[],"failed_audio":[],"failed_video":[],"trial_type":"preload","trial_index":1,"time_elapsed":28955,"internal_node_id":"0.0-1.0","subject_id":"5f0c6e39eff16b5d4f3b2914","study_id":"60edd13110225f80f9f3709b","session_id":"6196c907e3949be79fc01257","condition":"contingent","relevant_dimensions":["antennae","pattern"],"bee_group":{"antennae":"B","wings":"X","pattern":"S","legs":"X"},"bonus":1.280000000000001},{"rt":21019.60000000894,"stimulus":"Welcome! Press any key to begin.","response":" ","trial_type":"html-keyboard-response","trial_index":2,"time_elapsed":49978,"internal_node_id":"0.0-2.0","subject_id":"5f0c6e39eff16b5d4f3b2914","study_id":"60edd13110225f80f9f3709b","session_id":"6196c907e3949be79fc01257","condition":"contingent","relevant_dimensions":["antennae","pattern"],"bee_group":{"antennae":"B","wings":"X","pattern":"S","legs":"X"},"bonus":1.280000000000001},{"view_history":[{"page_index":0,"viewing_time":167068.20000000298},{"page_index":1,"viewing_time":50684.70000000298},{"page_index":2,"viewing_time":17759.69999998808},{"page_index":3,"viewing_time":39120.10000000894},{"page_index":4,"viewing_time":12784},{"page_index":5,"viewing_time":9608},{"page_index":6,"viewing_time":12472},{"page_index":7,"viewing_time":10600},{"page_index":8,"viewing_time":4056},{"page_index":7,"viewing_time":4064.0999999940395},{"page_index":8,"viewing_time":8256},{"page_index":9,"viewing_time":4288},{"page_index":10,"viewing_time":3087.7999999970198},{"page_index":11,"viewing_time":18136.10000000894},{"page_index":12,"viewing_time":11568},{"page_index":13,"viewing_time":1848},{"page_index":14,"viewing_time":5296.0999999940395}],"rt":380697.09999999404,"trial_type":"instructions","trial_index":3,"time_elapsed":430676,"internal_node_id":"0.0-3.0-0.0","subject_id":"5f0c6e39eff16b5d4f3b2914","study_id":"60edd13110225f80f9f3709b","session_id":"6196c907e3949be79fc01257","condition":"contingent","relevant_dimensions":["antennae","pattern"],"bee_group":{"antennae":"B","wings":"X","pattern":"S","legs":"X"},"bonus":1.280000000000001},{"rt":15260.20000000298,"response":{"Q0":["Two or six legs","Stripes or spots on body","Single or double wings","Antennae or no antennae"]},"question_order":[0],"trial_type":"survey-multi-select","trial_index":4,"time_elapsed":445942,"internal_node_id":"0.0-3.0-1.0","subject_id":"5f0c6e39eff16b5d4f3b2914","study_id":"60edd13110225f80f9f3709b","session_id":"6196c907e3949be79fc01257","condition":"contingent","relevant_dimensions":["antennae","pattern"],"bee_group":{"antennae":"B","wings":"X","pattern":"S","legs":"X"},"correct":true,"bonus":1.280000000000001},{"rt":36336.10000000894,"response":{"Q1":"No.","Q2":"Based on the four features of the bee.","Q3":"You do not learn if it was friendly or dangerous, and do not alter your bonus."},"question_order":[0,1,2],"trial_type":"survey-multi-choice","trial_index":5,"time_elapsed":482285,"internal_node_id":"0.0-3.0-2.0","subject_id":"5f0c6e39eff16b5d4f3b2914","study_id":"60edd13110225f80f9f3709b","session_id":"6196c907e3949be79fc01257","condition":"contingent","relevant_dimensions":["antennae","pattern"],"bee_group":{"antennae":"B","wings":"X","pattern":"S","legs":"X"},"correct":true,"bonus":1.280000000000001},{"rt":5361.9000000059605,"stimulus":"<p>Congrats, you got everything right<br>When you're ready, click the button below to continue to the experiment.</p>","response":0,"trial_type":"html-button-response","trial_index":6,"time_elapsed":487653,"internal_node_id":"0.0-3.0-3.0","subject_id":"5f0c6e39eff16b5d4f3b2914","study_id":"60edd13110225f80f9f3709b","session_id":"6196c907e3949be79fc01257","condition":"contingent","relevant_dimensions":["antennae","pattern"],"bee_group":{"antennae":"B","wings":"X","pattern":"S","legs":"X"},"bonus":1.280000000000001},{"rt":16764.29999999702,"stimulus":"bees-with-color/bee-B1SF.svg","response":0,"trial_type":"image-button-response","trial_index":7,"time_elapsed":504421,"internal_node_id":"0.0-4.0-0.0","subject_id":"5f0c6e39eff16b5d4f3b2914","study_id":"60edd13110225f80f9f3709b","session_id":"6196c907e3949be79fc01257","condition":"contingent","relevant_dimensions":["antennae","pattern"],"bee_group":{"antennae":"B","wings":"X","pattern":"S","legs":"X"},"action":"harvest","summary":"bad-harvest","bonus":1.280000000000001},{"rt":21527.70000000298,"stimulus":"\n                    <p><b>Action: <em>harvest</em></b></p>\n                    <p>This is the bee that you just saw.</p>\n                    <img src=\"bees-with-color/bee-B1SF.svg\" width=\"200\">\n                    <p><span class=\"redText\">Bad choice, the bee was angry.</span><br><b>You have been stung!</b><br>Your pay has been decreased by $0.10. Your bonus pay is now $0.44.</p>\n            ","response":0,"trial_type":"html-button-response","trial_index":8,"time_elapsed":525996,"internal_node_id":"0.0-4.0-1.0","subject_id":"5f0c6e39eff16b5d4f3b2914","study_id":"60edd13110225f80f9f3709b","session_id":"6196c907e3949be79fc01257","condition":"contingent","relevant_dimensions":["antennae","pattern"],"bee_group":{"antennae":"B","wings":"X","pattern":"S","legs":"X"},"bonus":1.280000000000001},{"rt":5789.0999999940395,"stimulus":"bees-with-color/bee-A1DF.svg","response":0,"trial_type":"image-button-response","trial_index":9,"time_elapsed":531789,"internal_node_id":"0.0-4.0-0.1","subject_id":"5f0c6e39eff16b5d4f3b2914","study_id":"60edd13110225f80f9f3709b","session_id":"6196c907e3949be79fc01257","condition":"contingent","relevant_dimensions":["antennae","pattern"],"bee_group":{"antennae":"B","wings":"X","pattern":"S","legs":"X"},"action":"harvest","summary":"good-harvest","bonus":1.280000000000001},{"rt":25317.5,"stimulus":"\n                    <p><b>Action: <em>harvest</em></b></p>\n                    <p>This is the bee that you just saw.</p>\n                    <img src=\"bees-with-color/bee-A1DF.svg\" width=\"200\">\n                    <p><span class=\"greenText\"><b>Successful harvest!</b></span><br>Your pay has increased by $0.02. Your bonus pay is now $0.46.</p>\n            ","response":0,"trial_type":"html-button-response","trial_index":10,"time_elapsed":557108,"internal_node_id":"0.0-4.0-1.1","subject_id":"5f0c6e39eff16b5d4f3b2914","study_id":"60edd13110225f80f9f3709b","session_id":"6196c907e3949be79fc01257","condition":"contingent","relevant_dimensions":["antennae","pattern"],"bee_group":{"antennae":"B","wings":"X","pattern":"S","legs":"X"},"bonus":1.280000000000001},{"rt":2805,"stimulus":"bees-with-color/bee-A2DF.svg","response":0,"trial_type":"image-button-response","trial_index":11,"time_elapsed":559916,"internal_node_id":"0.0-4.0-0.2","subject_id":"5f0c6e39eff16b5d4f3b2914","study_id":"60edd13110225f80f9f3709b","session_id":"6196c907e3949be79fc01257","condition":"contingent","relevant_dimensions":["antennae","pattern"],"bee_group":{"antennae":"B","wings":"X","pattern":"S","legs":"X"},"action":"harvest","summary":"good-harvest","bonus":1.280000000000001},{"rt":17309.89999999106,"stimulus":"\n                    <p><b>Action: <em>harvest</em></b></p>\n                    <p>This is the bee that you just saw.</p>\n                    <img src=\"bees-with-color/bee-A2DF.svg\" width=\"200\">\n                    <p><span class=\"greenText\"><b>Successful harvest!</b></span><br>Your pay has increased by $0.02. Your bonus pay is now $0.48.</p>\n            ","response":0,"trial_type":"html-button-response","trial_index":12,"time_elapsed":577228,"internal_node_id":"0.0-4.0-1.2","subject_id":"5f0c6e39eff16b5d4f3b2914","study_id":"60edd13110225f80f9f3709b","session_id":"6196c907e3949be79fc01257","condition":"contingent","relevant_dimensions":["antennae","pattern"],"bee_group":{"antennae":"B","wings":"X","pattern":"S","legs":"X"},"bonus":1.280000000000001},{"rt":10445.79999999702,"stimulus":"bees-with-color/bee-A2SM.svg","response":1,"trial_type":"image-button-response","trial_index":13,"time_elapsed":587676,"internal_node_id":"0.0-4.0-0.3","subject_id":"5f0c6e39eff16b5d4f3b2914","study_id":"60edd13110225f80f9f3709b","session_id":"6196c907e3949be79fc01257","condition":"contingent","relevant_dimensions":["antennae","pattern"],"bee_group":{"antennae":"B","wings":"X","pattern":"S","legs":"X"},"action":"avoid","summary":"bad-avoid","bonus":1.280000000000001},{"rt":3958.2999999970198,"stimulus":"\n                    <p><b>Action: <em>avoid</em></b></p>\n                    <p>This is the bee that you just saw.</p>\n                    <img src=\"bees-with-color/bee-A2SM.svg\" width=\"200\">\n                    <p><br>Your bonus pay is unchanged, and remains at $0.48.</p>\n            ","response":0,"trial_type":"html-button-response","trial_index":14,"time_elapsed":591636,"internal_node_id":"0.0-4.0-1.3","subject_id":"5f0c6e39eff16b5d4f3b2914","study_id":"60edd13110225f80f9f3709b","session_id":"6196c907e3949be79fc01257","condition":"contingent","relevant_dimensions":["antennae","pattern"],"bee_group":{"antennae":"B","wings":"X","pattern":"S","legs":"X"},"bonus":1.280000000000001},{"rt":6150.4000000059605,"stimulus":"bees-with-color/bee-B1SM.svg","response":0,"trial_type":"image-button-response","trial_index":15,"time_elapsed":597788,"internal_node_id":"0.0-4.0-0.4","subject_id":"5f0c6e39eff16b5d4f3b2914","study_id":"60edd13110225f80f9f3709b","session_id":"6196c907e3949be79fc01257","condition":"contingent","relevant_dimensions":["antennae","pattern"],"bee_group":{"antennae":"B","wings":"X","pattern":"S","legs":"X"},"action":"harvest","summary":"bad-harvest","bonus":1.280000000000001},{"rt":2214.4000000059605,"stimulus":"\n                    <p><b>Action: <em>harvest</em></b></p>\n                    <p>This is the bee that you just saw.</p>\n                    <img src=\"bees-with-color/bee-B1SM.svg\" width=\"200\">\n                    <p><span class=\"redText\">Bad choice, the bee was angry.</span><br><b>You have been stung!</b><br>Your pay has been decreased by $0.10. Your bonus pay is now $0.38.</p>\n            ","response":0,"trial_type":"html-button-response","trial_index":16,"time_elapsed":600005,"internal_node_id":"0.0-4.0-1.4","subject_id":"5f0c6e39eff16b5d4f3b2914","study_id":"60edd13110225f80f9f3709b","session_id":"6196c907e3949be79fc01257","condition":"contingent","relevant_dimensions":["antennae","pattern"],"bee_group":{"antennae":"B","wings":"X","pattern":"S","legs":"X"},"bonus":1.280000000000001},{"rt":2908.8999999910593,"stimulus":"bees-with-color/bee-A2DM.svg","response":0,"trial_type":"image-button-response","trial_index":17,"time_elapsed":602915,"internal_node_id":"0.0-4.0-0.5","subject_id":"5f0c6e39eff16b5d4f3b2914","study_id":"60edd13110225f80f9f3709b","session_id":"6196c907e3949be79fc01257","condition":"contingent","relevant_dimensions":["antennae","pattern"],"bee_group":{"antennae":"B","wings":"X","pattern":"S","legs":"X"},"action":"harvest","summary":"good-harvest","bonus":1.280000000000001},{"rt":10094.29999999702,"stimulus":"\n                    <p><b>Action: <em>harvest</em></b></p>\n                    <p>This is the bee that you just saw.</p>\n                    <img src=\"bees-with-color/bee-A2DM.svg\" width=\"200\">\n                    <p><span class=\"greenText\"><b>Successful harvest!</b></span><br>Your pay has increased by $0.02. Your bonus pay is now $0.40.</p>\n            ","response":0,"trial_type":"html-button-response","trial_index":18,"time_elapsed":613012,"internal_node_id":"0.0-4.0-1.5","subject_id":"5f0c6e39eff16b5d4f3b2914","study_id":"60edd13110225f80f9f3709b","session_id":"6196c907e3949be79fc01257","condition":"contingent","relevant_dimensions":["antennae","pattern"],"bee_group":{"antennae":"B","wings":"X","pattern":"S","legs":"X"},"bonus":1.280000000000001},{"rt":4853.199999988079,"stimulus":"bees-with-color/bee-B2DM.svg","response":1,"trial_type":"image-button-response","trial_index":19,"time_elapsed":617868,"internal_node_id":"0.0-4.0-0.6","subject_id":"5f0c6e39eff16b5d4f3b2914","study_id":"60edd13110225f80f9f3709b","session_id":"6196c907e3949be79fc01257","condition":"contingent","relevant_dimensions":["antennae","pattern"],"bee_group":{"antennae":"B","wings":"X","pattern":"S","legs":"X"},"action":"avoid","summary":"bad-avoid","bonus":1.280000000000001},{"rt":1581.7999999970198,"stimulus":"\n                    <p><b>Action: <em>avoid</em></b></p>\n                    <p>This is the bee that you just saw.</p>\n                    <img src=\"bees-with-color/bee-B2DM.svg\" width=\"200\">\n                    <p><br>Your bonus pay is unchanged, and remains at $0.40.</p>\n            ","response":0,"trial_type":"html-button-response","trial_index":20,"time_elapsed":619452,"internal_node_id":"0.0-4.0-1.6","subject_id":"5f0c6e39eff16b5d4f3b2914","study_id":"60edd13110225f80f9f3709b","session_id":"6196c907e3949be79fc01257","condition":"contingent","relevant_dimensions":["antennae","pattern"],"bee_group":{"antennae":"B","wings":"X","pattern":"S","legs":"X"},"bonus":1.280000000000001},{"rt":4062.3999999910593,"stimulus":"bees-with-color/bee-A1SF.svg","response":1,"trial_type":"image-button-response","trial_index":21,"time_elapsed":623516,"internal_node_id":"0.0-4.0-0.7","subject_id":"5f0c6e39eff16b5d4f3b2914","study_id":"60edd13110225f80f9f3709b","session_id":"6196c907e3949be79fc01257","condition":"contingent","relevant_dimensions":["antennae","pattern"],"bee_group":{"antennae":"B","wings":"X","pattern":"S","legs":"X"},"action":"avoid","summary":"bad-avoid","bonus":1.280000000000001},{"rt":2437.7999999970198,"stimulus":"\n                    <p><b>Action: <em>avoid</em></b></p>\n                    <p>This is the bee that you just saw.</p>\n                    <img src=\"bees-with-color/bee-A1SF.svg\" width=\"200\">\n                    <p><br>Your bonus pay is unchanged, and remains at $0.40.</p>\n            ","response":0,"trial_type":"html-button-response","trial_index":22,"time_elapsed":625956,"internal_node_id":"0.0-4.0-1.7","subject_id":"5f0c6e39eff16b5d4f3b2914","study_id":"60edd13110225f80f9f3709b","session_id":"6196c907e3949be79fc01257","condition":"contingent","relevant_dimensions":["antennae","pattern"],"bee_group":{"antennae":"B","wings":"X","pattern":"S","legs":"X"},"bonus":1.280000000000001},{"rt":3157.3999999910593,"stimulus":"bees-with-color/bee-B2SF.svg","response":1,"trial_type":"image-button-response","trial_index":23,"time_elapsed":629116,"internal_node_id":"0.0-4.0-0.8","subject_id":"5f0c6e39eff16b5d4f3b2914","study_id":"60edd13110225f80f9f3709b","session_id":"6196c907e3949be79fc01257","condition":"contingent","relevant_dimensions":["antennae","pattern"],"bee_group":{"antennae":"B","wings":"X","pattern":"S","legs":"X"},"action":"avoid","summary":"good-avoid","bonus":1.280000000000001},{"rt":1622,"stimulus":"\n                    <p><b>Action: <em>avoid</em></b></p>\n                    <p>This is the bee that you just saw.</p>\n                    <img src=\"bees-with-color/bee-B2SF.svg\" width=\"200\">\n                    <p><br>Your bonus pay is unchanged, and remains at $0.40.</p>\n            ","response":0,"trial_type":"html-button-response","trial_index":24,"time_elapsed":630740,"internal_node_id":"0.0-4.0-1.8","subject_id":"5f0c6e39eff16b5d4f3b2914","study_id":"60edd13110225f80f9f3709b","session_id":"6196c907e3949be79fc01257","condition":"contingent","relevant_dimensions":["antennae","pattern"],"bee_group":{"antennae":"B","wings":"X","pattern":"S","legs":"X"},"bonus":1.280000000000001},{"rt":2989.8999999910593,"stimulus":"bees-with-color/bee-B2DF.svg","response":0,"trial_type":"image-button-response","trial_index":25,"time_elapsed":633732,"internal_node_id":"0.0-4.0-0.9","subject_id":"5f0c6e39eff16b5d4f3b2914","study_id":"60edd13110225f80f9f3709b","session_id":"6196c907e3949be79fc01257","condition":"contingent","relevant_dimensions":["antennae","pattern"],"bee_group":{"antennae":"B","wings":"X","pattern":"S","legs":"X"},"action":"harvest","summary":"good-harvest","bonus":1.280000000000001},{"rt":8902,"stimulus":"\n                    <p><b>Action: <em>harvest</em></b></p>\n                    <p>This is the bee that you just saw.</p>\n                    <img src=\"bees-with-color/bee-B2DF.svg\" width=\"200\">\n                    <p><span class=\"greenText\"><b>Successful harvest!</b></span><br>Your pay has increased by $0.02. Your bonus pay is now $0.42.</p>\n            ","response":0,"trial_type":"html-button-response","trial_index":26,"time_elapsed":642636,"internal_node_id":"0.0-4.0-1.9","subject_id":"5f0c6e39eff16b5d4f3b2914","study_id":"60edd13110225f80f9f3709b","session_id":"6196c907e3949be79fc01257","condition":"contingent","relevant_dimensions":["antennae","pattern"],"bee_group":{"antennae":"B","wings":"X","pattern":"S","legs":"X"},"bonus":1.280000000000001},{"rt":3853.7000000029802,"stimulus":"bees-with-color/bee-A2SF.svg","response":1,"trial_type":"image-button-response","trial_index":27,"time_elapsed":646492,"internal_node_id":"0.0-4.0-0.10","subject_id":"5f0c6e39eff16b5d4f3b2914","study_id":"60edd13110225f80f9f3709b","session_id":"6196c907e3949be79fc01257","condition":"contingent","relevant_dimensions":["antennae","pattern"],"bee_group":{"antennae":"B","wings":"X","pattern":"S","legs":"X"},"action":"avoid","summary":"bad-avoid","bonus":1.280000000000001},{"rt":1165,"stimulus":"\n                    <p><b>Action: <em>avoid</em></b></p>\n                    <p>This is the bee that you just saw.</p>\n                    <img src=\"bees-with-color/bee-A2SF.svg\" width=\"200\">\n                    <p><br>Your bonus pay is unchanged, and remains at $0.42.</p>\n            ","response":0,"trial_type":"html-button-response","trial_index":28,"time_elapsed":647660,"internal_node_id":"0.0-4.0-1.10","subject_id":"5f0c6e39eff16b5d4f3b2914","study_id":"60edd13110225f80f9f3709b","session_id":"6196c907e3949be79fc01257","condition":"contingent","relevant_dimensions":["antennae","pattern"],"bee_group":{"antennae":"B","wings":"X","pattern":"S","legs":"X"},"bonus":1.280000000000001},{"rt":3845.2999999970198,"stimulus":"bees-with-color/bee-A1SM.svg","response":1,"trial_type":"image-button-response","trial_index":29,"time_elapsed":651508,"internal_node_id":"0.0-4.0-0.11","subject_id":"5f0c6e39eff16b5d4f3b2914","study_id":"60edd13110225f80f9f3709b","session_id":"6196c907e3949be79fc01257","condition":"contingent","relevant_dimensions":["antennae","pattern"],"bee_group":{"antennae":"B","wings":"X","pattern":"S","legs":"X"},"action":"avoid","summary":"bad-avoid","bonus":1.280000000000001},{"rt":1309.2000000029802,"stimulus":"\n                    <p><b>Action: <em>avoid</em></b></p>\n                    <p>This is the bee that you just saw.</p>\n                    <img src=\"bees-with-color/bee-A1SM.svg\" width=\"200\">\n                    <p><br>Your bonus pay is unchanged, and remains at $0.42.</p>\n            ","response":0,"trial_type":"html-button-response","trial_index":30,"time_elapsed":652820,"internal_node_id":"0.0-4.0-1.11","subject_id":"5f0c6e39eff16b5d4f3b2914","study_id":"60edd13110225f80f9f3709b","session_id":"6196c907e3949be79fc01257","condition":"contingent","relevant_dimensions":["antennae","pattern"],"bee_group":{"antennae":"B","wings":"X","pattern":"S","legs":"X"},"bonus":1.280000000000001},{"rt":1573.7999999970198,"stimulus":"bees-with-color/bee-B1DM.svg","response":0,"trial_type":"image-button-response","trial_index":31,"time_elapsed":654396,"internal_node_id":"0.0-4.0-0.12","subject_id":"5f0c6e39eff16b5d4f3b2914","study_id":"60edd13110225f80f9f3709b","session_id":"6196c907e3949be79fc01257","condition":"contingent","relevant_dimensions":["antennae","pattern"],"bee_group":{"antennae":"B","wings":"X","pattern":"S","legs":"X"},"action":"harvest","summary":"good-harvest","bonus":1.280000000000001},{"rt":6430,"stimulus":"\n                    <p><b>Action: <em>harvest</em></b></p>\n                    <p>This is the bee that you just saw.</p>\n                    <img src=\"bees-with-color/bee-B1DM.svg\" width=\"200\">\n                    <p><span class=\"greenText\"><b>Successful harvest!</b></span><br>Your pay has increased by $0.02. Your bonus pay is now $0.44.</p>\n            ","response":0,"trial_type":"html-button-response","trial_index":32,"time_elapsed":660828,"internal_node_id":"0.0-4.0-1.12","subject_id":"5f0c6e39eff16b5d4f3b2914","study_id":"60edd13110225f80f9f3709b","session_id":"6196c907e3949be79fc01257","condition":"contingent","relevant_dimensions":["antennae","pattern"],"bee_group":{"antennae":"B","wings":"X","pattern":"S","legs":"X"},"bonus":1.280000000000001},{"rt":1181.6000000089407,"stimulus":"bees-with-color/bee-B1DF.svg","response":0,"trial_type":"image-button-response","trial_index":33,"time_elapsed":662012,"internal_node_id":"0.0-4.0-0.13","subject_id":"5f0c6e39eff16b5d4f3b2914","study_id":"60edd13110225f80f9f3709b","session_id":"6196c907e3949be79fc01257","condition":"contingent","relevant_dimensions":["antennae","pattern"],"bee_group":{"antennae":"B","wings":"X","pattern":"S","legs":"X"},"action":"harvest","summary":"good-harvest","bonus":1.280000000000001},{"rt":6174.0999999940395,"stimulus":"\n                    <p><b>Action: <em>harvest</em></b></p>\n                    <p>This is the bee that you just saw.</p>\n                    <img src=\"bees-with-color/bee-B1DF.svg\" width=\"200\">\n                    <p><span class=\"greenText\"><b>Successful harvest!</b></span><br>Your pay has increased by $0.02. Your bonus pay is now $0.46.</p>\n            ","response":0,"trial_type":"html-button-response","trial_index":34,"time_elapsed":668189,"internal_node_id":"0.0-4.0-1.13","subject_id":"5f0c6e39eff16b5d4f3b2914","study_id":"60edd13110225f80f9f3709b","session_id":"6196c907e3949be79fc01257","condition":"contingent","relevant_dimensions":["antennae","pattern"],"bee_group":{"antennae":"B","wings":"X","pattern":"S","legs":"X"},"bonus":1.280000000000001},{"rt":1333,"stimulus":"bees-with-color/bee-B2SM.svg","response":1,"trial_type":"image-button-response","trial_index":35,"time_elapsed":669524,"internal_node_id":"0.0-4.0-0.14","subject_id":"5f0c6e39eff16b5d4f3b2914","study_id":"60edd13110225f80f9f3709b","session_id":"6196c907e3949be79fc01257","condition":"contingent","relevant_dimensions":["antennae","pattern"],"bee_group":{"antennae":"B","wings":"X","pattern":"S","legs":"X"},"action":"avoid","summary":"good-avoid","bonus":1.280000000000001},{"rt":1125.7000000029802,"stimulus":"\n                    <p><b>Action: <em>avoid</em></b></p>\n                    <p>This is the bee that you just saw.</p>\n                    <img src=\"bees-with-color/bee-B2SM.svg\" width=\"200\">\n                    <p><br>Your bonus pay is unchanged, and remains at $0.46.</p>\n            ","response":0,"trial_type":"html-button-response","trial_index":36,"time_elapsed":670652,"internal_node_id":"0.0-4.0-1.14","subject_id":"5f0c6e39eff16b5d4f3b2914","study_id":"60edd13110225f80f9f3709b","session_id":"6196c907e3949be79fc01257","condition":"contingent","relevant_dimensions":["antennae","pattern"],"bee_group":{"antennae":"B","wings":"X","pattern":"S","legs":"X"},"bonus":1.280000000000001},{"rt":998.2999999970198,"stimulus":"bees-with-color/bee-A1DM.svg","response":0,"trial_type":"image-button-response","trial_index":37,"time_elapsed":671652,"internal_node_id":"0.0-4.0-0.15","subject_id":"5f0c6e39eff16b5d4f3b2914","study_id":"60edd13110225f80f9f3709b","session_id":"6196c907e3949be79fc01257","condition":"contingent","relevant_dimensions":["antennae","pattern"],"bee_group":{"antennae":"B","wings":"X","pattern":"S","legs":"X"},"action":"harvest","summary":"good-harvest","bonus":1.280000000000001},{"rt":1966,"stimulus":"\n                    <p><b>Action: <em>harvest</em></b></p>\n                    <p>This is the bee that you just saw.</p>\n                    <img src=\"bees-with-color/bee-A1DM.svg\" width=\"200\">\n                    <p><span class=\"greenText\"><b>Successful harvest!</b></span><br>Your pay has increased by $0.02. Your bonus pay is now $0.48.</p>\n            ","response":0,"trial_type":"html-button-response","trial_index":38,"time_elapsed":673621,"internal_node_id":"0.0-4.0-1.15","subject_id":"5f0c6e39eff16b5d4f3b2914","study_id":"60edd13110225f80f9f3709b","session_id":"6196c907e3949be79fc01257","condition":"contingent","relevant_dimensions":["antennae","pattern"],"bee_group":{"antennae":"B","wings":"X","pattern":"S","legs":"X"},"bonus":1.280000000000001},{"rt":1372.1000000089407,"stimulus":"bees-with-color/bee-A1SF.svg","response":1,"trial_type":"image-button-response","trial_index":39,"time_elapsed":674996,"internal_node_id":"0.0-4.0-0.16","subject_id":"5f0c6e39eff16b5d4f3b2914","study_id":"60edd13110225f80f9f3709b","session_id":"6196c907e3949be79fc01257","condition":"contingent","relevant_dimensions":["antennae","pattern"],"bee_group":{"antennae":"B","wings":"X","pattern":"S","legs":"X"},"action":"avoid","summary":"bad-avoid","bonus":1.280000000000001},{"rt":1277.7999999970198,"stimulus":"\n                    <p><b>Action: <em>avoid</em></b></p>\n                    <p>This is the bee that you just saw.</p>\n                    <img src=\"bees-with-color/bee-A1SF.svg\" width=\"200\">\n                    <p><br>Your bonus pay is unchanged, and remains at $0.48.</p>\n            ","response":0,"trial_type":"html-button-response","trial_index":40,"time_elapsed":676276,"internal_node_id":"0.0-4.0-1.16","subject_id":"5f0c6e39eff16b5d4f3b2914","study_id":"60edd13110225f80f9f3709b","session_id":"6196c907e3949be79fc01257","condition":"contingent","relevant_dimensions":["antennae","pattern"],"bee_group":{"antennae":"B","wings":"X","pattern":"S","legs":"X"},"bonus":1.280000000000001},{"rt":1359.2000000029802,"stimulus":"bees-with-color/bee-A2SF.svg","response":1,"trial_type":"image-button-response","trial_index":41,"time_elapsed":677637,"internal_node_id":"0.0-4.0-0.17","subject_id":"5f0c6e39eff16b5d4f3b2914","study_id":"60edd13110225f80f9f3709b","session_id":"6196c907e3949be79fc01257","condition":"contingent","relevant_dimensions":["antennae","pattern"],"bee_group":{"antennae":"B","wings":"X","pattern":"S","legs":"X"},"action":"avoid","summary":"bad-avoid","bonus":1.280000000000001},{"rt":1182,"stimulus":"\n                    <p><b>Action: <em>avoid</em></b></p>\n                    <p>This is the bee that you just saw.</p>\n                    <img src=\"bees-with-color/bee-A2SF.svg\" width=\"200\">\n                    <p><br>Your bonus pay is unchanged, and remains at $0.48.</p>\n            ","response":0,"trial_type":"html-button-response","trial_index":42,"time_elapsed":678820,"internal_node_id":"0.0-4.0-1.17","subject_id":"5f0c6e39eff16b5d4f3b2914","study_id":"60edd13110225f80f9f3709b","session_id":"6196c907e3949be79fc01257","condition":"contingent","relevant_dimensions":["antennae","pattern"],"bee_group":{"antennae":"B","wings":"X","pattern":"S","legs":"X"},"bonus":1.280000000000001},{"rt":1373.8999999910593,"stimulus":"bees-with-color/bee-A1SM.svg","response":1,"trial_type":"image-button-response","trial_index":43,"time_elapsed":680196,"internal_node_id":"0.0-4.0-0.18","subject_id":"5f0c6e39eff16b5d4f3b2914","study_id":"60edd13110225f80f9f3709b","session_id":"6196c907e3949be79fc01257","condition":"contingent","relevant_dimensions":["antennae","pattern"],"bee_group":{"antennae":"B","wings":"X","pattern":"S","legs":"X"},"action":"avoid","summary":"bad-avoid","bonus":1.280000000000001},{"rt":1510.3999999910593,"stimulus":"\n                    <p><b>Action: <em>avoid</em></b></p>\n                    <p>This is the bee that you just saw.</p>\n                    <img src=\"bees-with-color/bee-A1SM.svg\" width=\"200\">\n                    <p><br>Your bonus pay is unchanged, and remains at $0.48.</p>\n            ","response":0,"trial_type":"html-button-response","trial_index":44,"time_elapsed":681708,"internal_node_id":"0.0-4.0-1.18","subject_id":"5f0c6e39eff16b5d4f3b2914","study_id":"60edd13110225f80f9f3709b","session_id":"6196c907e3949be79fc01257","condition":"contingent","relevant_dimensions":["antennae","pattern"],"bee_group":{"antennae":"B","wings":"X","pattern":"S","legs":"X"},"bonus":1.280000000000001},{"rt":1398.7000000029802,"stimulus":"bees-with-color/bee-B2DF.svg","response":0,"trial_type":"image-button-response","trial_index":45,"time_elapsed":683108,"internal_node_id":"0.0-4.0-0.19","subject_id":"5f0c6e39eff16b5d4f3b2914","study_id":"60edd13110225f80f9f3709b","session_id":"6196c907e3949be79fc01257","condition":"contingent","relevant_dimensions":["antennae","pattern"],"bee_group":{"antennae":"B","wings":"X","pattern":"S","legs":"X"},"action":"harvest","summary":"good-harvest","bonus":1.280000000000001},{"rt":3150.4000000059605,"stimulus":"\n                    <p><b>Action: <em>harvest</em></b></p>\n                    <p>This is the bee that you just saw.</p>\n                    <img src=\"bees-with-color/bee-B2DF.svg\" width=\"200\">\n                    <p><span class=\"greenText\"><b>Successful harvest!</b></span><br>Your pay has increased by $0.02. Your bonus pay is now $0.50.</p>\n            ","response":0,"trial_type":"html-button-response","trial_index":46,"time_elapsed":686260,"internal_node_id":"0.0-4.0-1.19","subject_id":"5f0c6e39eff16b5d4f3b2914","study_id":"60edd13110225f80f9f3709b","session_id":"6196c907e3949be79fc01257","condition":"contingent","relevant_dimensions":["antennae","pattern"],"bee_group":{"antennae":"B","wings":"X","pattern":"S","legs":"X"},"bonus":1.280000000000001},{"rt":1550.2000000029802,"stimulus":"bees-with-color/bee-B2SF.svg","response":1,"trial_type":"image-button-response","trial_index":47,"time_elapsed":687812,"internal_node_id":"0.0-4.0-0.20","subject_id":"5f0c6e39eff16b5d4f3b2914","study_id":"60edd13110225f80f9f3709b","session_id":"6196c907e3949be79fc01257","condition":"contingent","relevant_dimensions":["antennae","pattern"],"bee_group":{"antennae":"B","wings":"X","pattern":"S","legs":"X"},"action":"avoid","summary":"good-avoid","bonus":1.280000000000001},{"rt":1142.4000000059605,"stimulus":"\n                    <p><b>Action: <em>avoid</em></b></p>\n                    <p>This is the bee that you just saw.</p>\n                    <img src=\"bees-with-color/bee-B2SF.svg\" width=\"200\">\n                    <p><br>Your bonus pay is unchanged, and remains at $0.50.</p>\n            ","response":0,"trial_type":"html-button-response","trial_index":48,"time_elapsed":688956,"internal_node_id":"0.0-4.0-1.20","subject_id":"5f0c6e39eff16b5d4f3b2914","study_id":"60edd13110225f80f9f3709b","session_id":"6196c907e3949be79fc01257","condition":"contingent","relevant_dimensions":["antennae","pattern"],"bee_group":{"antennae":"B","wings":"X","pattern":"S","legs":"X"},"bonus":1.280000000000001},{"rt":1150,"stimulus":"bees-with-color/bee-B2SM.svg","response":1,"trial_type":"image-button-response","trial_index":49,"time_elapsed":690108,"internal_node_id":"0.0-4.0-0.21","subject_id":"5f0c6e39eff16b5d4f3b2914","study_id":"60edd13110225f80f9f3709b","session_id":"6196c907e3949be79fc01257","condition":"contingent","relevant_dimensions":["antennae","pattern"],"bee_group":{"antennae":"B","wings":"X","pattern":"S","legs":"X"},"action":"avoid","summary":"good-avoid","bonus":1.280000000000001},{"rt":1006.4000000059605,"stimulus":"\n                    <p><b>Action: <em>avoid</em></b></p>\n                    <p>This is the bee that you just saw.</p>\n                    <img src=\"bees-with-color/bee-B2SM.svg\" width=\"200\">\n                    <p><br>Your bonus pay is unchanged, and remains at $0.50.</p>\n            ","response":0,"trial_type":"html-button-response","trial_index":50,"time_elapsed":691117,"internal_node_id":"0.0-4.0-1.21","subject_id":"5f0c6e39eff16b5d4f3b2914","study_id":"60edd13110225f80f9f3709b","session_id":"6196c907e3949be79fc01257","condition":"contingent","relevant_dimensions":["antennae","pattern"],"bee_group":{"antennae":"B","wings":"X","pattern":"S","legs":"X"},"bonus":1.280000000000001},{"rt":1549.6000000089407,"stimulus":"bees-with-color/bee-B2DM.svg","response":0,"trial_type":"image-button-response","trial_index":51,"time_elapsed":692668,"internal_node_id":"0.0-4.0-0.22","subject_id":"5f0c6e39eff16b5d4f3b2914","study_id":"60edd13110225f80f9f3709b","session_id":"6196c907e3949be79fc01257","condition":"contingent","relevant_dimensions":["antennae","pattern"],"bee_group":{"antennae":"B","wings":"X","pattern":"S","legs":"X"},"action":"harvest","summary":"good-harvest","bonus":1.280000000000001},{"rt":4558.29999999702,"stimulus":"\n                    <p><b>Action: <em>harvest</em></b></p>\n                    <p>This is the bee that you just saw.</p>\n                    <img src=\"bees-with-color/bee-B2DM.svg\" width=\"200\">\n                    <p><span class=\"greenText\"><b>Successful harvest!</b></span><br>Your pay has increased by $0.02. Your bonus pay is now $0.52.</p>\n            ","response":0,"trial_type":"html-button-response","trial_index":52,"time_elapsed":697228,"internal_node_id":"0.0-4.0-1.22","subject_id":"5f0c6e39eff16b5d4f3b2914","study_id":"60edd13110225f80f9f3709b","session_id":"6196c907e3949be79fc01257","condition":"contingent","relevant_dimensions":["antennae","pattern"],"bee_group":{"antennae":"B","wings":"X","pattern":"S","legs":"X"},"bonus":1.280000000000001},{"rt":1174.1000000089407,"stimulus":"bees-with-color/bee-A2DM.svg","response":0,"trial_type":"image-button-response","trial_index":53,"time_elapsed":698404,"internal_node_id":"0.0-4.0-0.23","subject_id":"5f0c6e39eff16b5d4f3b2914","study_id":"60edd13110225f80f9f3709b","session_id":"6196c907e3949be79fc01257","condition":"contingent","relevant_dimensions":["antennae","pattern"],"bee_group":{"antennae":"B","wings":"X","pattern":"S","legs":"X"},"action":"harvest","summary":"good-harvest","bonus":1.280000000000001},{"rt":1342.699999988079,"stimulus":"\n                    <p><b>Action: <em>harvest</em></b></p>\n                    <p>This is the bee that you just saw.</p>\n                    <img src=\"bees-with-color/bee-A2DM.svg\" width=\"200\">\n                    <p><span class=\"greenText\"><b>Successful harvest!</b></span><br>Your pay has increased by $0.02. Your bonus pay is now $0.54.</p>\n            ","response":0,"trial_type":"html-button-response","trial_index":54,"time_elapsed":699748,"internal_node_id":"0.0-4.0-1.23","subject_id":"5f0c6e39eff16b5d4f3b2914","study_id":"60edd13110225f80f9f3709b","session_id":"6196c907e3949be79fc01257","condition":"contingent","relevant_dimensions":["antennae","pattern"],"bee_group":{"antennae":"B","wings":"X","pattern":"S","legs":"X"},"bonus":1.280000000000001},{"rt":974.1000000089407,"stimulus":"bees-with-color/bee-A2SM.svg","response":1,"trial_type":"image-button-response","trial_index":55,"time_elapsed":700724,"internal_node_id":"0.0-4.0-0.24","subject_id":"5f0c6e39eff16b5d4f3b2914","study_id":"60edd13110225f80f9f3709b","session_id":"6196c907e3949be79fc01257","condition":"contingent","relevant_dimensions":["antennae","pattern"],"bee_group":{"antennae":"B","wings":"X","pattern":"S","legs":"X"},"action":"avoid","summary":"bad-avoid","bonus":1.280000000000001},{"rt":1262.2999999970198,"stimulus":"\n                    <p><b>Action: <em>avoid</em></b></p>\n                    <p>This is the bee that you just saw.</p>\n                    <img src=\"bees-with-color/bee-A2SM.svg\" width=\"200\">\n                    <p><br>Your bonus pay is unchanged, and remains at $0.54.</p>\n            ","response":0,"trial_type":"html-button-response","trial_index":56,"time_elapsed":701988,"internal_node_id":"0.0-4.0-1.24","subject_id":"5f0c6e39eff16b5d4f3b2914","study_id":"60edd13110225f80f9f3709b","session_id":"6196c907e3949be79fc01257","condition":"contingent","relevant_dimensions":["antennae","pattern"],"bee_group":{"antennae":"B","wings":"X","pattern":"S","legs":"X"},"bonus":1.280000000000001},{"rt":950.5,"stimulus":"bees-with-color/bee-B1DM.svg","response":0,"trial_type":"image-button-response","trial_index":57,"time_elapsed":702940,"internal_node_id":"0.0-4.0-0.25","subject_id":"5f0c6e39eff16b5d4f3b2914","study_id":"60edd13110225f80f9f3709b","session_id":"6196c907e3949be79fc01257","condition":"contingent","relevant_dimensions":["antennae","pattern"],"bee_group":{"antennae":"B","wings":"X","pattern":"S","legs":"X"},"action":"harvest","summary":"good-harvest","bonus":1.280000000000001},{"rt":1223,"stimulus":"\n                    <p><b>Action: <em>harvest</em></b></p>\n                    <p>This is the bee that you just saw.</p>\n                    <img src=\"bees-with-color/bee-B1DM.svg\" width=\"200\">\n                    <p><span class=\"greenText\"><b>Successful harvest!</b></span><br>Your pay has increased by $0.02. Your bonus pay is now $0.56.</p>\n            ","response":0,"trial_type":"html-button-response","trial_index":58,"time_elapsed":704165,"internal_node_id":"0.0-4.0-1.25","subject_id":"5f0c6e39eff16b5d4f3b2914","study_id":"60edd13110225f80f9f3709b","session_id":"6196c907e3949be79fc01257","condition":"contingent","relevant_dimensions":["antennae","pattern"],"bee_group":{"antennae":"B","wings":"X","pattern":"S","legs":"X"},"bonus":1.280000000000001},{"rt":989.5999999940395,"stimulus":"bees-with-color/bee-B1DF.svg","response":0,"trial_type":"image-button-response","trial_index":59,"time_elapsed":705156,"internal_node_id":"0.0-4.0-0.26","subject_id":"5f0c6e39eff16b5d4f3b2914","study_id":"60edd13110225f80f9f3709b","session_id":"6196c907e3949be79fc01257","condition":"contingent","relevant_dimensions":["antennae","pattern"],"bee_group":{"antennae":"B","wings":"X","pattern":"S","legs":"X"},"action":"harvest","summary":"good-harvest","bonus":1.280000000000001},{"rt":1310.2999999970198,"stimulus":"\n                    <p><b>Action: <em>harvest</em></b></p>\n                    <p>This is the bee that you just saw.</p>\n                    <img src=\"bees-with-color/bee-B1DF.svg\" width=\"200\">\n                    <p><span class=\"greenText\"><b>Successful harvest!</b></span><br>Your pay has increased by $0.02. Your bonus pay is now $0.58.</p>\n            ","response":0,"trial_type":"html-button-response","trial_index":60,"time_elapsed":706468,"internal_node_id":"0.0-4.0-1.26","subject_id":"5f0c6e39eff16b5d4f3b2914","study_id":"60edd13110225f80f9f3709b","session_id":"6196c907e3949be79fc01257","condition":"contingent","relevant_dimensions":["antennae","pattern"],"bee_group":{"antennae":"B","wings":"X","pattern":"S","legs":"X"},"bonus":1.280000000000001},{"rt":1294,"stimulus":"bees-with-color/bee-A2DF.svg","response":0,"trial_type":"image-button-response","trial_index":61,"time_elapsed":707764,"internal_node_id":"0.0-4.0-0.27","subject_id":"5f0c6e39eff16b5d4f3b2914","study_id":"60edd13110225f80f9f3709b","session_id":"6196c907e3949be79fc01257","condition":"contingent","relevant_dimensions":["antennae","pattern"],"bee_group":{"antennae":"B","wings":"X","pattern":"S","legs":"X"},"action":"harvest","summary":"good-harvest","bonus":1.280000000000001},{"rt":2374.2000000029802,"stimulus":"\n                    <p><b>Action: <em>harvest</em></b></p>\n                    <p>This is the bee that you just saw.</p>\n                    <img src=\"bees-with-color/bee-A2DF.svg\" width=\"200\">\n                    <p><span class=\"greenText\"><b>Successful harvest!</b></span><br>Your pay has increased by $0.02. Your bonus pay is now $0.60.</p>\n            ","response":0,"trial_type":"html-button-response","trial_index":62,"time_elapsed":710140,"internal_node_id":"0.0-4.0-1.27","subject_id":"5f0c6e39eff16b5d4f3b2914","study_id":"60edd13110225f80f9f3709b","session_id":"6196c907e3949be79fc01257","condition":"contingent","relevant_dimensions":["antennae","pattern"],"bee_group":{"antennae":"B","wings":"X","pattern":"S","legs":"X"},"bonus":1.280000000000001},{"rt":885.9000000059605,"stimulus":"bees-with-color/bee-A1DF.svg","response":0,"trial_type":"image-button-response","trial_index":63,"time_elapsed":711029,"internal_node_id":"0.0-4.0-0.28","subject_id":"5f0c6e39eff16b5d4f3b2914","study_id":"60edd13110225f80f9f3709b","session_id":"6196c907e3949be79fc01257","condition":"contingent","relevant_dimensions":["antennae","pattern"],"bee_group":{"antennae":"B","wings":"X","pattern":"S","legs":"X"},"action":"harvest","summary":"good-harvest","bonus":1.280000000000001},{"rt":1309.5999999940395,"stimulus":"\n                    <p><b>Action: <em>harvest</em></b></p>\n                    <p>This is the bee that you just saw.</p>\n                    <img src=\"bees-with-color/bee-A1DF.svg\" width=\"200\">\n                    <p><span class=\"greenText\"><b>Successful harvest!</b></span><br>Your pay has increased by $0.02. Your bonus pay is now $0.62.</p>\n            ","response":0,"trial_type":"html-button-response","trial_index":64,"time_elapsed":712340,"internal_node_id":"0.0-4.0-1.28","subject_id":"5f0c6e39eff16b5d4f3b2914","study_id":"60edd13110225f80f9f3709b","session_id":"6196c907e3949be79fc01257","condition":"contingent","relevant_dimensions":["antennae","pattern"],"bee_group":{"antennae":"B","wings":"X","pattern":"S","legs":"X"},"bonus":1.280000000000001},{"rt":1454.2000000029802,"stimulus":"bees-with-color/bee-B1SM.svg","response":1,"trial_type":"image-button-response","trial_index":65,"time_elapsed":713796,"internal_node_id":"0.0-4.0-0.29","subject_id":"5f0c6e39eff16b5d4f3b2914","study_id":"60edd13110225f80f9f3709b","session_id":"6196c907e3949be79fc01257","condition":"contingent","relevant_dimensions":["antennae","pattern"],"bee_group":{"antennae":"B","wings":"X","pattern":"S","legs":"X"},"action":"avoid","summary":"good-avoid","bonus":1.280000000000001},{"rt":1030.5,"stimulus":"\n                    <p><b>Action: <em>avoid</em></b></p>\n                    <p>This is the bee that you just saw.</p>\n                    <img src=\"bees-with-color/bee-B1SM.svg\" width=\"200\">\n                    <p><br>Your bonus pay is unchanged, and remains at $0.62.</p>\n            ","response":0,"trial_type":"html-button-response","trial_index":66,"time_elapsed":714829,"internal_node_id":"0.0-4.0-1.29","subject_id":"5f0c6e39eff16b5d4f3b2914","study_id":"60edd13110225f80f9f3709b","session_id":"6196c907e3949be79fc01257","condition":"contingent","relevant_dimensions":["antennae","pattern"],"bee_group":{"antennae":"B","wings":"X","pattern":"S","legs":"X"},"bonus":1.280000000000001},{"rt":1222,"stimulus":"bees-with-color/bee-A1DM.svg","response":0,"trial_type":"image-button-response","trial_index":67,"time_elapsed":716052,"internal_node_id":"0.0-4.0-0.30","subject_id":"5f0c6e39eff16b5d4f3b2914","study_id":"60edd13110225f80f9f3709b","session_id":"6196c907e3949be79fc01257","condition":"contingent","relevant_dimensions":["antennae","pattern"],"bee_group":{"antennae":"B","wings":"X","pattern":"S","legs":"X"},"action":"harvest","summary":"good-harvest","bonus":1.280000000000001},{"rt":1470.2999999970198,"stimulus":"\n                    <p><b>Action: <em>harvest</em></b></p>\n                    <p>This is the bee that you just saw.</p>\n                    <img src=\"bees-with-color/bee-A1DM.svg\" width=\"200\">\n                    <p><span class=\"greenText\"><b>Successful harvest!</b></span><br>Your pay has increased by $0.02. Your bonus pay is now $0.64.</p>\n            ","response":0,"trial_type":"html-button-response","trial_index":68,"time_elapsed":717524,"internal_node_id":"0.0-4.0-1.30","subject_id":"5f0c6e39eff16b5d4f3b2914","study_id":"60edd13110225f80f9f3709b","session_id":"6196c907e3949be79fc01257","condition":"contingent","relevant_dimensions":["antennae","pattern"],"bee_group":{"antennae":"B","wings":"X","pattern":"S","legs":"X"},"bonus":1.280000000000001},{"rt":1125.8999999910593,"stimulus":"bees-with-color/bee-B1SF.svg","response":1,"trial_type":"image-button-response","trial_index":69,"time_elapsed":718652,"internal_node_id":"0.0-4.0-0.31","subject_id":"5f0c6e39eff16b5d4f3b2914","study_id":"60edd13110225f80f9f3709b","session_id":"6196c907e3949be79fc01257","condition":"contingent","relevant_dimensions":["antennae","pattern"],"bee_group":{"antennae":"B","wings":"X","pattern":"S","legs":"X"},"action":"avoid","summary":"good-avoid","bonus":1.280000000000001},{"rt":997.5999999940395,"stimulus":"\n                    <p><b>Action: <em>avoid</em></b></p>\n                    <p>This is the bee that you just saw.</p>\n                    <img src=\"bees-with-color/bee-B1SF.svg\" width=\"200\">\n                    <p><br>Your bonus pay is unchanged, and remains at $0.64.</p>\n            ","response":0,"trial_type":"html-button-response","trial_index":70,"time_elapsed":719652,"internal_node_id":"0.0-4.0-1.31","subject_id":"5f0c6e39eff16b5d4f3b2914","study_id":"60edd13110225f80f9f3709b","session_id":"6196c907e3949be79fc01257","condition":"contingent","relevant_dimensions":["antennae","pattern"],"bee_group":{"antennae":"B","wings":"X","pattern":"S","legs":"X"},"bonus":1.280000000000001},{"rt":990.6999999880791,"stimulus":"bees-with-color/bee-B1DM.svg","response":0,"trial_type":"image-button-response","trial_index":71,"time_elapsed":720645,"internal_node_id":"0.0-4.0-0.32","subject_id":"5f0c6e39eff16b5d4f3b2914","study_id":"60edd13110225f80f9f3709b","session_id":"6196c907e3949be79fc01257","condition":"contingent","relevant_dimensions":["antennae","pattern"],"bee_group":{"antennae":"B","wings":"X","pattern":"S","legs":"X"},"action":"harvest","summary":"good-harvest","bonus":1.280000000000001},{"rt":1141.7000000029802,"stimulus":"\n                    <p><b>Action: <em>harvest</em></b></p>\n                    <p>This is the bee that you just saw.</p>\n                    <img src=\"bees-with-color/bee-B1DM.svg\" width=\"200\">\n                    <p><span class=\"greenText\"><b>Successful harvest!</b></span><br>Your pay has increased by $0.02. Your bonus pay is now $0.66.</p>\n            ","response":0,"trial_type":"html-button-response","trial_index":72,"time_elapsed":721788,"internal_node_id":"0.0-4.0-1.32","subject_id":"5f0c6e39eff16b5d4f3b2914","study_id":"60edd13110225f80f9f3709b","session_id":"6196c907e3949be79fc01257","condition":"contingent","relevant_dimensions":["antennae","pattern"],"bee_group":{"antennae":"B","wings":"X","pattern":"S","legs":"X"},"bonus":1.280000000000001},{"rt":806.2999999970198,"stimulus":"bees-with-color/bee-A1DM.svg","response":0,"trial_type":"image-button-response","trial_index":73,"time_elapsed":722596,"internal_node_id":"0.0-4.0-0.33","subject_id":"5f0c6e39eff16b5d4f3b2914","study_id":"60edd13110225f80f9f3709b","session_id":"6196c907e3949be79fc01257","condition":"contingent","relevant_dimensions":["antennae","pattern"],"bee_group":{"antennae":"B","wings":"X","pattern":"S","legs":"X"},"action":"harvest","summary":"good-harvest","bonus":1.280000000000001},{"rt":1366,"stimulus":"\n                    <p><b>Action: <em>harvest</em></b></p>\n                    <p>This is the bee that you just saw.</p>\n                    <img src=\"bees-with-color/bee-A1DM.svg\" width=\"200\">\n                    <p><span class=\"greenText\"><b>Successful harvest!</b></span><br>Your pay has increased by $0.02. Your bonus pay is now $0.68.</p>\n            ","response":0,"trial_type":"html-button-response","trial_index":74,"time_elapsed":723964,"internal_node_id":"0.0-4.0-1.33","subject_id":"5f0c6e39eff16b5d4f3b2914","study_id":"60edd13110225f80f9f3709b","session_id":"6196c907e3949be79fc01257","condition":"contingent","relevant_dimensions":["antennae","pattern"],"bee_group":{"antennae":"B","wings":"X","pattern":"S","legs":"X"},"bonus":1.280000000000001},{"rt":1214.2999999970198,"stimulus":"bees-with-color/bee-A2SM.svg","response":1,"trial_type":"image-button-response","trial_index":75,"time_elapsed":725180,"internal_node_id":"0.0-4.0-0.34","subject_id":"5f0c6e39eff16b5d4f3b2914","study_id":"60edd13110225f80f9f3709b","session_id":"6196c907e3949be79fc01257","condition":"contingent","relevant_dimensions":["antennae","pattern"],"bee_group":{"antennae":"B","wings":"X","pattern":"S","legs":"X"},"action":"avoid","summary":"bad-avoid","bonus":1.280000000000001},{"rt":974,"stimulus":"\n                    <p><b>Action: <em>avoid</em></b></p>\n                    <p>This is the bee that you just saw.</p>\n                    <img src=\"bees-with-color/bee-A2SM.svg\" width=\"200\">\n                    <p><br>Your bonus pay is unchanged, and remains at $0.68.</p>\n            ","response":0,"trial_type":"html-button-response","trial_index":76,"time_elapsed":726156,"internal_node_id":"0.0-4.0-1.34","subject_id":"5f0c6e39eff16b5d4f3b2914","study_id":"60edd13110225f80f9f3709b","session_id":"6196c907e3949be79fc01257","condition":"contingent","relevant_dimensions":["antennae","pattern"],"bee_group":{"antennae":"B","wings":"X","pattern":"S","legs":"X"},"bonus":1.280000000000001},{"rt":1134.7999999970198,"stimulus":"bees-with-color/bee-B1SF.svg","response":1,"trial_type":"image-button-response","trial_index":77,"time_elapsed":727293,"internal_node_id":"0.0-4.0-0.35","subject_id":"5f0c6e39eff16b5d4f3b2914","study_id":"60edd13110225f80f9f3709b","session_id":"6196c907e3949be79fc01257","condition":"contingent","relevant_dimensions":["antennae","pattern"],"bee_group":{"antennae":"B","wings":"X","pattern":"S","legs":"X"},"action":"avoid","summary":"good-avoid","bonus":1.280000000000001},{"rt":1037.7000000029802,"stimulus":"\n                    <p><b>Action: <em>avoid</em></b></p>\n                    <p>This is the bee that you just saw.</p>\n                    <img src=\"bees-with-color/bee-B1SF.svg\" width=\"200\">\n                    <p><br>Your bonus pay is unchanged, and remains at $0.68.</p>\n            ","response":0,"trial_type":"html-button-response","trial_index":78,"time_elapsed":728332,"internal_node_id":"0.0-4.0-1.35","subject_id":"5f0c6e39eff16b5d4f3b2914","study_id":"60edd13110225f80f9f3709b","session_id":"6196c907e3949be79fc01257","condition":"contingent","relevant_dimensions":["antennae","pattern"],"bee_group":{"antennae":"B","wings":"X","pattern":"S","legs":"X"},"bonus":1.280000000000001},{"rt":1150.2000000029802,"stimulus":"bees-with-color/bee-A2SF.svg","response":1,"trial_type":"image-button-response","trial_index":79,"time_elapsed":729484,"internal_node_id":"0.0-4.0-0.36","subject_id":"5f0c6e39eff16b5d4f3b2914","study_id":"60edd13110225f80f9f3709b","session_id":"6196c907e3949be79fc01257","condition":"contingent","relevant_dimensions":["antennae","pattern"],"bee_group":{"antennae":"B","wings":"X","pattern":"S","legs":"X"},"action":"avoid","summary":"bad-avoid","bonus":1.280000000000001},{"rt":1102.2000000029802,"stimulus":"\n                    <p><b>Action: <em>avoid</em></b></p>\n                    <p>This is the bee that you just saw.</p>\n                    <img src=\"bees-with-color/bee-A2SF.svg\" width=\"200\">\n                    <p><br>Your bonus pay is unchanged, and remains at $0.68.</p>\n            ","response":0,"trial_type":"html-button-response","trial_index":80,"time_elapsed":730588,"internal_node_id":"0.0-4.0-1.36","subject_id":"5f0c6e39eff16b5d4f3b2914","study_id":"60edd13110225f80f9f3709b","session_id":"6196c907e3949be79fc01257","condition":"contingent","relevant_dimensions":["antennae","pattern"],"bee_group":{"antennae":"B","wings":"X","pattern":"S","legs":"X"},"bonus":1.280000000000001},{"rt":1278.2999999970198,"stimulus":"bees-with-color/bee-B2SM.svg","response":1,"trial_type":"image-button-response","trial_index":81,"time_elapsed":731869,"internal_node_id":"0.0-4.0-0.37","subject_id":"5f0c6e39eff16b5d4f3b2914","study_id":"60edd13110225f80f9f3709b","session_id":"6196c907e3949be79fc01257","condition":"contingent","relevant_dimensions":["antennae","pattern"],"bee_group":{"antennae":"B","wings":"X","pattern":"S","legs":"X"},"action":"avoid","summary":"good-avoid","bonus":1.280000000000001},{"rt":1245.9000000059605,"stimulus":"\n                    <p><b>Action: <em>avoid</em></b></p>\n                    <p>This is the bee that you just saw.</p>\n                    <img src=\"bees-with-color/bee-B2SM.svg\" width=\"200\">\n                    <p><br>Your bonus pay is unchanged, and remains at $0.68.</p>\n            ","response":0,"trial_type":"html-button-response","trial_index":82,"time_elapsed":733116,"internal_node_id":"0.0-4.0-1.37","subject_id":"5f0c6e39eff16b5d4f3b2914","study_id":"60edd13110225f80f9f3709b","session_id":"6196c907e3949be79fc01257","condition":"contingent","relevant_dimensions":["antennae","pattern"],"bee_group":{"antennae":"B","wings":"X","pattern":"S","legs":"X"},"bonus":1.280000000000001},{"rt":974,"stimulus":"bees-with-color/bee-B1DF.svg","response":0,"trial_type":"image-button-response","trial_index":83,"time_elapsed":734092,"internal_node_id":"0.0-4.0-0.38","subject_id":"5f0c6e39eff16b5d4f3b2914","study_id":"60edd13110225f80f9f3709b","session_id":"6196c907e3949be79fc01257","condition":"contingent","relevant_dimensions":["antennae","pattern"],"bee_group":{"antennae":"B","wings":"X","pattern":"S","legs":"X"},"action":"harvest","summary":"good-harvest","bonus":1.280000000000001},{"rt":1030.0999999940395,"stimulus":"\n                    <p><b>Action: <em>harvest</em></b></p>\n                    <p>This is the bee that you just saw.</p>\n                    <img src=\"bees-with-color/bee-B1DF.svg\" width=\"200\">\n                    <p><span class=\"greenText\"><b>Successful harvest!</b></span><br>Your pay has increased by $0.02. Your bonus pay is now $0.70.</p>\n            ","response":0,"trial_type":"html-button-response","trial_index":84,"time_elapsed":735124,"internal_node_id":"0.0-4.0-1.38","subject_id":"5f0c6e39eff16b5d4f3b2914","study_id":"60edd13110225f80f9f3709b","session_id":"6196c907e3949be79fc01257","condition":"contingent","relevant_dimensions":["antennae","pattern"],"bee_group":{"antennae":"B","wings":"X","pattern":"S","legs":"X"},"bonus":1.280000000000001},{"rt":934.2999999970198,"stimulus":"bees-with-color/bee-A2DF.svg","response":0,"trial_type":"image-button-response","trial_index":85,"time_elapsed":736060,"internal_node_id":"0.0-4.0-0.39","subject_id":"5f0c6e39eff16b5d4f3b2914","study_id":"60edd13110225f80f9f3709b","session_id":"6196c907e3949be79fc01257","condition":"contingent","relevant_dimensions":["antennae","pattern"],"bee_group":{"antennae":"B","wings":"X","pattern":"S","legs":"X"},"action":"harvest","summary":"good-harvest","bonus":1.280000000000001},{"rt":1078.2000000029802,"stimulus":"\n                    <p><b>Action: <em>harvest</em></b></p>\n                    <p>This is the bee that you just saw.</p>\n                    <img src=\"bees-with-color/bee-A2DF.svg\" width=\"200\">\n                    <p><span class=\"greenText\"><b>Successful harvest!</b></span><br>Your pay has increased by $0.02. Your bonus pay is now $0.72.</p>\n            ","response":0,"trial_type":"html-button-response","trial_index":86,"time_elapsed":737141,"internal_node_id":"0.0-4.0-1.39","subject_id":"5f0c6e39eff16b5d4f3b2914","study_id":"60edd13110225f80f9f3709b","session_id":"6196c907e3949be79fc01257","condition":"contingent","relevant_dimensions":["antennae","pattern"],"bee_group":{"antennae":"B","wings":"X","pattern":"S","legs":"X"},"bonus":1.280000000000001},{"rt":806,"stimulus":"bees-with-color/bee-A1DF.svg","response":0,"trial_type":"image-button-response","trial_index":87,"time_elapsed":737948,"internal_node_id":"0.0-4.0-0.40","subject_id":"5f0c6e39eff16b5d4f3b2914","study_id":"60edd13110225f80f9f3709b","session_id":"6196c907e3949be79fc01257","condition":"contingent","relevant_dimensions":["antennae","pattern"],"bee_group":{"antennae":"B","wings":"X","pattern":"S","legs":"X"},"action":"harvest","summary":"good-harvest","bonus":1.280000000000001},{"rt":1078.2000000029802,"stimulus":"\n                    <p><b>Action: <em>harvest</em></b></p>\n                    <p>This is the bee that you just saw.</p>\n                    <img src=\"bees-with-color/bee-A1DF.svg\" width=\"200\">\n                    <p><span class=\"greenText\"><b>Successful harvest!</b></span><br>Your pay has increased by $0.02. Your bonus pay is now $0.74.</p>\n            ","response":0,"trial_type":"html-button-response","trial_index":88,"time_elapsed":739028,"internal_node_id":"0.0-4.0-1.40","subject_id":"5f0c6e39eff16b5d4f3b2914","study_id":"60edd13110225f80f9f3709b","session_id":"6196c907e3949be79fc01257","condition":"contingent","relevant_dimensions":["antennae","pattern"],"bee_group":{"antennae":"B","wings":"X","pattern":"S","legs":"X"},"bonus":1.280000000000001},{"rt":1358.5,"stimulus":"bees-with-color/bee-A1SF.svg","response":1,"trial_type":"image-button-response","trial_index":89,"time_elapsed":740389,"internal_node_id":"0.0-4.0-0.41","subject_id":"5f0c6e39eff16b5d4f3b2914","study_id":"60edd13110225f80f9f3709b","session_id":"6196c907e3949be79fc01257","condition":"contingent","relevant_dimensions":["antennae","pattern"],"bee_group":{"antennae":"B","wings":"X","pattern":"S","legs":"X"},"action":"avoid","summary":"bad-avoid","bonus":1.280000000000001},{"rt":868.3999999910593,"stimulus":"\n                    <p><b>Action: <em>avoid</em></b></p>\n                    <p>This is the bee that you just saw.</p>\n                    <img src=\"bees-with-color/bee-A1SF.svg\" width=\"200\">\n                    <p><br>Your bonus pay is unchanged, and remains at $0.74.</p>\n            ","response":0,"trial_type":"html-button-response","trial_index":90,"time_elapsed":741260,"internal_node_id":"0.0-4.0-1.41","subject_id":"5f0c6e39eff16b5d4f3b2914","study_id":"60edd13110225f80f9f3709b","session_id":"6196c907e3949be79fc01257","condition":"contingent","relevant_dimensions":["antennae","pattern"],"bee_group":{"antennae":"B","wings":"X","pattern":"S","legs":"X"},"bonus":1.280000000000001},{"rt":894.5999999940395,"stimulus":"bees-with-color/bee-B2DM.svg","response":0,"trial_type":"image-button-response","trial_index":91,"time_elapsed":742156,"internal_node_id":"0.0-4.0-0.42","subject_id":"5f0c6e39eff16b5d4f3b2914","study_id":"60edd13110225f80f9f3709b","session_id":"6196c907e3949be79fc01257","condition":"contingent","relevant_dimensions":["antennae","pattern"],"bee_group":{"antennae":"B","wings":"X","pattern":"S","legs":"X"},"action":"harvest","summary":"good-harvest","bonus":1.280000000000001},{"rt":1102.5,"stimulus":"\n                    <p><b>Action: <em>harvest</em></b></p>\n                    <p>This is the bee that you just saw.</p>\n                    <img src=\"bees-with-color/bee-B2DM.svg\" width=\"200\">\n                    <p><span class=\"greenText\"><b>Successful harvest!</b></span><br>Your pay has increased by $0.02. Your bonus pay is now $0.76.</p>\n            ","response":0,"trial_type":"html-button-response","trial_index":92,"time_elapsed":743260,"internal_node_id":"0.0-4.0-1.42","subject_id":"5f0c6e39eff16b5d4f3b2914","study_id":"60edd13110225f80f9f3709b","session_id":"6196c907e3949be79fc01257","condition":"contingent","relevant_dimensions":["antennae","pattern"],"bee_group":{"antennae":"B","wings":"X","pattern":"S","legs":"X"},"bonus":1.280000000000001},{"rt":878.5,"stimulus":"bees-with-color/bee-B2DF.svg","response":0,"trial_type":"image-button-response","trial_index":93,"time_elapsed":744140,"internal_node_id":"0.0-4.0-0.43","subject_id":"5f0c6e39eff16b5d4f3b2914","study_id":"60edd13110225f80f9f3709b","session_id":"6196c907e3949be79fc01257","condition":"contingent","relevant_dimensions":["antennae","pattern"],"bee_group":{"antennae":"B","wings":"X","pattern":"S","legs":"X"},"action":"harvest","summary":"good-harvest","bonus":1.280000000000001},{"rt":1118.5,"stimulus":"\n                    <p><b>Action: <em>harvest</em></b></p>\n                    <p>This is the bee that you just saw.</p>\n                    <img src=\"bees-with-color/bee-B2DF.svg\" width=\"200\">\n                    <p><span class=\"greenText\"><b>Successful harvest!</b></span><br>Your pay has increased by $0.02. Your bonus pay is now $0.78.</p>\n            ","response":0,"trial_type":"html-button-response","trial_index":94,"time_elapsed":745260,"internal_node_id":"0.0-4.0-1.43","subject_id":"5f0c6e39eff16b5d4f3b2914","study_id":"60edd13110225f80f9f3709b","session_id":"6196c907e3949be79fc01257","condition":"contingent","relevant_dimensions":["antennae","pattern"],"bee_group":{"antennae":"B","wings":"X","pattern":"S","legs":"X"},"bonus":1.280000000000001},{"rt":1006.5999999940395,"stimulus":"bees-with-color/bee-A1SM.svg","response":1,"trial_type":"image-button-response","trial_index":95,"time_elapsed":746268,"internal_node_id":"0.0-4.0-0.44","subject_id":"5f0c6e39eff16b5d4f3b2914","study_id":"60edd13110225f80f9f3709b","session_id":"6196c907e3949be79fc01257","condition":"contingent","relevant_dimensions":["antennae","pattern"],"bee_group":{"antennae":"B","wings":"X","pattern":"S","legs":"X"},"action":"avoid","summary":"bad-avoid","bonus":1.280000000000001},{"rt":974.5999999940395,"stimulus":"\n                    <p><b>Action: <em>avoid</em></b></p>\n                    <p>This is the bee that you just saw.</p>\n                    <img src=\"bees-with-color/bee-A1SM.svg\" width=\"200\">\n                    <p><br>Your bonus pay is unchanged, and remains at $0.78.</p>\n            ","response":0,"trial_type":"html-button-response","trial_index":96,"time_elapsed":747244,"internal_node_id":"0.0-4.0-1.44","subject_id":"5f0c6e39eff16b5d4f3b2914","study_id":"60edd13110225f80f9f3709b","session_id":"6196c907e3949be79fc01257","condition":"contingent","relevant_dimensions":["antennae","pattern"],"bee_group":{"antennae":"B","wings":"X","pattern":"S","legs":"X"},"bonus":1.280000000000001},{"rt":1358.7000000029802,"stimulus":"bees-with-color/bee-B2SF.svg","response":1,"trial_type":"image-button-response","trial_index":97,"time_elapsed":748604,"internal_node_id":"0.0-4.0-0.45","subject_id":"5f0c6e39eff16b5d4f3b2914","study_id":"60edd13110225f80f9f3709b","session_id":"6196c907e3949be79fc01257","condition":"contingent","relevant_dimensions":["antennae","pattern"],"bee_group":{"antennae":"B","wings":"X","pattern":"S","legs":"X"},"action":"avoid","summary":"good-avoid","bonus":1.280000000000001},{"rt":1878.2999999970198,"stimulus":"\n                    <p><b>Action: <em>avoid</em></b></p>\n                    <p>This is the bee that you just saw.</p>\n                    <img src=\"bees-with-color/bee-B2SF.svg\" width=\"200\">\n                    <p><br>Your bonus pay is unchanged, and remains at $0.78.</p>\n            ","response":0,"trial_type":"html-button-response","trial_index":98,"time_elapsed":750484,"internal_node_id":"0.0-4.0-1.45","subject_id":"5f0c6e39eff16b5d4f3b2914","study_id":"60edd13110225f80f9f3709b","session_id":"6196c907e3949be79fc01257","condition":"contingent","relevant_dimensions":["antennae","pattern"],"bee_group":{"antennae":"B","wings":"X","pattern":"S","legs":"X"},"bonus":1.280000000000001},{"rt":1030.5,"stimulus":"bees-with-color/bee-B1SM.svg","response":1,"trial_type":"image-button-response","trial_index":99,"time_elapsed":751516,"internal_node_id":"0.0-4.0-0.46","subject_id":"5f0c6e39eff16b5d4f3b2914","study_id":"60edd13110225f80f9f3709b","session_id":"6196c907e3949be79fc01257","condition":"contingent","relevant_dimensions":["antennae","pattern"],"bee_group":{"antennae":"B","wings":"X","pattern":"S","legs":"X"},"action":"avoid","summary":"good-avoid","bonus":1.280000000000001},{"rt":1526.4000000059605,"stimulus":"\n                    <p><b>Action: <em>avoid</em></b></p>\n                    <p>This is the bee that you just saw.</p>\n                    <img src=\"bees-with-color/bee-B1SM.svg\" width=\"200\">\n                    <p><br>Your bonus pay is unchanged, and remains at $0.78.</p>\n            ","response":0,"trial_type":"html-button-response","trial_index":100,"time_elapsed":753044,"internal_node_id":"0.0-4.0-1.46","subject_id":"5f0c6e39eff16b5d4f3b2914","study_id":"60edd13110225f80f9f3709b","session_id":"6196c907e3949be79fc01257","condition":"contingent","relevant_dimensions":["antennae","pattern"],"bee_group":{"antennae":"B","wings":"X","pattern":"S","legs":"X"},"bonus":1.280000000000001},{"rt":990.3000000119209,"stimulus":"bees-with-color/bee-A2DM.svg","response":0,"trial_type":"image-button-response","trial_index":101,"time_elapsed":754037,"internal_node_id":"0.0-4.0-0.47","subject_id":"5f0c6e39eff16b5d4f3b2914","study_id":"60edd13110225f80f9f3709b","session_id":"6196c907e3949be79fc01257","condition":"contingent","relevant_dimensions":["antennae","pattern"],"bee_group":{"antennae":"B","wings":"X","pattern":"S","legs":"X"},"action":"harvest","summary":"good-harvest","bonus":1.280000000000001},{"rt":1102,"stimulus":"\n                    <p><b>Action: <em>harvest</em></b></p>\n                    <p>This is the bee that you just saw.</p>\n                    <img src=\"bees-with-color/bee-A2DM.svg\" width=\"200\">\n                    <p><span class=\"greenText\"><b>Successful harvest!</b></span><br>Your pay has increased by $0.02. Your bonus pay is now $0.80.</p>\n            ","response":0,"trial_type":"html-button-response","trial_index":102,"time_elapsed":755140,"internal_node_id":"0.0-4.0-1.47","subject_id":"5f0c6e39eff16b5d4f3b2914","study_id":"60edd13110225f80f9f3709b","session_id":"6196c907e3949be79fc01257","condition":"contingent","relevant_dimensions":["antennae","pattern"],"bee_group":{"antennae":"B","wings":"X","pattern":"S","legs":"X"},"bonus":1.280000000000001},{"rt":1062.4000000059605,"stimulus":"bees-with-color/bee-A2DM.svg","response":0,"trial_type":"image-button-response","trial_index":103,"time_elapsed":756204,"internal_node_id":"0.0-4.0-0.48","subject_id":"5f0c6e39eff16b5d4f3b2914","study_id":"60edd13110225f80f9f3709b","session_id":"6196c907e3949be79fc01257","condition":"contingent","relevant_dimensions":["antennae","pattern"],"bee_group":{"antennae":"B","wings":"X","pattern":"S","legs":"X"},"action":"harvest","summary":"good-harvest","bonus":1.280000000000001},{"rt":822.7999999970198,"stimulus":"\n                    <p><b>Action: <em>harvest</em></b></p>\n                    <p>This is the bee that you just saw.</p>\n                    <img src=\"bees-with-color/bee-A2DM.svg\" width=\"200\">\n                    <p><span class=\"greenText\"><b>Successful harvest!</b></span><br>Your pay has increased by $0.02. Your bonus pay is now $0.82.</p>\n            ","response":0,"trial_type":"html-button-response","trial_index":104,"time_elapsed":757029,"internal_node_id":"0.0-4.0-1.48","subject_id":"5f0c6e39eff16b5d4f3b2914","study_id":"60edd13110225f80f9f3709b","session_id":"6196c907e3949be79fc01257","condition":"contingent","relevant_dimensions":["antennae","pattern"],"bee_group":{"antennae":"B","wings":"X","pattern":"S","legs":"X"},"bonus":1.280000000000001},{"rt":941.7000000029802,"stimulus":"bees-with-color/bee-A1SF.svg","response":1,"trial_type":"image-button-response","trial_index":105,"time_elapsed":757972,"internal_node_id":"0.0-4.0-0.49","subject_id":"5f0c6e39eff16b5d4f3b2914","study_id":"60edd13110225f80f9f3709b","session_id":"6196c907e3949be79fc01257","condition":"contingent","relevant_dimensions":["antennae","pattern"],"bee_group":{"antennae":"B","wings":"X","pattern":"S","legs":"X"},"action":"avoid","summary":"bad-avoid","bonus":1.280000000000001},{"rt":990.1999999880791,"stimulus":"\n                    <p><b>Action: <em>avoid</em></b></p>\n                    <p>This is the bee that you just saw.</p>\n                    <img src=\"bees-with-color/bee-A1SF.svg\" width=\"200\">\n                    <p><br>Your bonus pay is unchanged, and remains at $0.82.</p>\n            ","response":0,"trial_type":"html-button-response","trial_index":106,"time_elapsed":758964,"internal_node_id":"0.0-4.0-1.49","subject_id":"5f0c6e39eff16b5d4f3b2914","study_id":"60edd13110225f80f9f3709b","session_id":"6196c907e3949be79fc01257","condition":"contingent","relevant_dimensions":["antennae","pattern"],"bee_group":{"antennae":"B","wings":"X","pattern":"S","legs":"X"},"bonus":1.280000000000001},{"rt":902.6000000089407,"stimulus":"bees-with-color/bee-A1DF.svg","response":0,"trial_type":"image-button-response","trial_index":107,"time_elapsed":759868,"internal_node_id":"0.0-4.0-0.50","subject_id":"5f0c6e39eff16b5d4f3b2914","study_id":"60edd13110225f80f9f3709b","session_id":"6196c907e3949be79fc01257","condition":"contingent","relevant_dimensions":["antennae","pattern"],"bee_group":{"antennae":"B","wings":"X","pattern":"S","legs":"X"},"action":"harvest","summary":"good-harvest","bonus":1.280000000000001},{"rt":966.1000000089407,"stimulus":"\n                    <p><b>Action: <em>harvest</em></b></p>\n                    <p>This is the bee that you just saw.</p>\n                    <img src=\"bees-with-color/bee-A1DF.svg\" width=\"200\">\n                    <p><span class=\"greenText\"><b>Successful harvest!</b></span><br>Your pay has increased by $0.02. Your bonus pay is now $0.84.</p>\n            ","response":0,"trial_type":"html-button-response","trial_index":108,"time_elapsed":760836,"internal_node_id":"0.0-4.0-1.50","subject_id":"5f0c6e39eff16b5d4f3b2914","study_id":"60edd13110225f80f9f3709b","session_id":"6196c907e3949be79fc01257","condition":"contingent","relevant_dimensions":["antennae","pattern"],"bee_group":{"antennae":"B","wings":"X","pattern":"S","legs":"X"},"bonus":1.280000000000001},{"rt":958.4000000059605,"stimulus":"bees-with-color/bee-A2SM.svg","response":1,"trial_type":"image-button-response","trial_index":109,"time_elapsed":761796,"internal_node_id":"0.0-4.0-0.51","subject_id":"5f0c6e39eff16b5d4f3b2914","study_id":"60edd13110225f80f9f3709b","session_id":"6196c907e3949be79fc01257","condition":"contingent","relevant_dimensions":["antennae","pattern"],"bee_group":{"antennae":"B","wings":"X","pattern":"S","legs":"X"},"action":"avoid","summary":"bad-avoid","bonus":1.280000000000001},{"rt":790.2000000029802,"stimulus":"\n                    <p><b>Action: <em>avoid</em></b></p>\n                    <p>This is the bee that you just saw.</p>\n                    <img src=\"bees-with-color/bee-A2SM.svg\" width=\"200\">\n                    <p><br>Your bonus pay is unchanged, and remains at $0.84.</p>\n            ","response":0,"trial_type":"html-button-response","trial_index":110,"time_elapsed":762588,"internal_node_id":"0.0-4.0-1.51","subject_id":"5f0c6e39eff16b5d4f3b2914","study_id":"60edd13110225f80f9f3709b","session_id":"6196c907e3949be79fc01257","condition":"contingent","relevant_dimensions":["antennae","pattern"],"bee_group":{"antennae":"B","wings":"X","pattern":"S","legs":"X"},"bonus":1.280000000000001},{"rt":782.7000000029802,"stimulus":"bees-with-color/bee-B1SF.svg","response":1,"trial_type":"image-button-response","trial_index":111,"time_elapsed":763372,"internal_node_id":"0.0-4.0-0.52","subject_id":"5f0c6e39eff16b5d4f3b2914","study_id":"60edd13110225f80f9f3709b","session_id":"6196c907e3949be79fc01257","condition":"contingent","relevant_dimensions":["antennae","pattern"],"bee_group":{"antennae":"B","wings":"X","pattern":"S","legs":"X"},"action":"avoid","summary":"good-avoid","bonus":1.280000000000001},{"rt":830.1000000089407,"stimulus":"\n                    <p><b>Action: <em>avoid</em></b></p>\n                    <p>This is the bee that you just saw.</p>\n                    <img src=\"bees-with-color/bee-B1SF.svg\" width=\"200\">\n                    <p><br>Your bonus pay is unchanged, and remains at $0.84.</p>\n            ","response":0,"trial_type":"html-button-response","trial_index":112,"time_elapsed":764204,"internal_node_id":"0.0-4.0-1.52","subject_id":"5f0c6e39eff16b5d4f3b2914","study_id":"60edd13110225f80f9f3709b","session_id":"6196c907e3949be79fc01257","condition":"contingent","relevant_dimensions":["antennae","pattern"],"bee_group":{"antennae":"B","wings":"X","pattern":"S","legs":"X"},"bonus":1.280000000000001},{"rt":1190.5,"stimulus":"bees-with-color/bee-B2DF.svg","response":0,"trial_type":"image-button-response","trial_index":113,"time_elapsed":765397,"internal_node_id":"0.0-4.0-0.53","subject_id":"5f0c6e39eff16b5d4f3b2914","study_id":"60edd13110225f80f9f3709b","session_id":"6196c907e3949be79fc01257","condition":"contingent","relevant_dimensions":["antennae","pattern"],"bee_group":{"antennae":"B","wings":"X","pattern":"S","legs":"X"},"action":"harvest","summary":"good-harvest","bonus":1.280000000000001},{"rt":1101.7999999970198,"stimulus":"\n                    <p><b>Action: <em>harvest</em></b></p>\n                    <p>This is the bee that you just saw.</p>\n                    <img src=\"bees-with-color/bee-B2DF.svg\" width=\"200\">\n                    <p><span class=\"greenText\"><b>Successful harvest!</b></span><br>Your pay has increased by $0.02. Your bonus pay is now $0.86.</p>\n            ","response":0,"trial_type":"html-button-response","trial_index":114,"time_elapsed":766500,"internal_node_id":"0.0-4.0-1.53","subject_id":"5f0c6e39eff16b5d4f3b2914","study_id":"60edd13110225f80f9f3709b","session_id":"6196c907e3949be79fc01257","condition":"contingent","relevant_dimensions":["antennae","pattern"],"bee_group":{"antennae":"B","wings":"X","pattern":"S","legs":"X"},"bonus":1.280000000000001},{"rt":1294.0999999940395,"stimulus":"bees-with-color/bee-B2SF.svg","response":1,"trial_type":"image-button-response","trial_index":115,"time_elapsed":767796,"internal_node_id":"0.0-4.0-0.54","subject_id":"5f0c6e39eff16b5d4f3b2914","study_id":"60edd13110225f80f9f3709b","session_id":"6196c907e3949be79fc01257","condition":"contingent","relevant_dimensions":["antennae","pattern"],"bee_group":{"antennae":"B","wings":"X","pattern":"S","legs":"X"},"action":"avoid","summary":"good-avoid","bonus":1.280000000000001},{"rt":942.2000000029802,"stimulus":"\n                    <p><b>Action: <em>avoid</em></b></p>\n                    <p>This is the bee that you just saw.</p>\n                    <img src=\"bees-with-color/bee-B2SF.svg\" width=\"200\">\n                    <p><br>Your bonus pay is unchanged, and remains at $0.86.</p>\n            ","response":0,"trial_type":"html-button-response","trial_index":116,"time_elapsed":768740,"internal_node_id":"0.0-4.0-1.54","subject_id":"5f0c6e39eff16b5d4f3b2914","study_id":"60edd13110225f80f9f3709b","session_id":"6196c907e3949be79fc01257","condition":"contingent","relevant_dimensions":["antennae","pattern"],"bee_group":{"antennae":"B","wings":"X","pattern":"S","legs":"X"},"bonus":1.280000000000001},{"rt":878.3999999910593,"stimulus":"bees-with-color/bee-B1DM.svg","response":0,"trial_type":"image-button-response","trial_index":117,"time_elapsed":769620,"internal_node_id":"0.0-4.0-0.55","subject_id":"5f0c6e39eff16b5d4f3b2914","study_id":"60edd13110225f80f9f3709b","session_id":"6196c907e3949be79fc01257","condition":"contingent","relevant_dimensions":["antennae","pattern"],"bee_group":{"antennae":"B","wings":"X","pattern":"S","legs":"X"},"action":"harvest","summary":"good-harvest","bonus":1.280000000000001},{"rt":950.1000000089407,"stimulus":"\n                    <p><b>Action: <em>harvest</em></b></p>\n                    <p>This is the bee that you just saw.</p>\n                    <img src=\"bees-with-color/bee-B1DM.svg\" width=\"200\">\n                    <p><span class=\"greenText\"><b>Successful harvest!</b></span><br>Your pay has increased by $0.02. Your bonus pay is now $0.88.</p>\n            ","response":0,"trial_type":"html-button-response","trial_index":118,"time_elapsed":770572,"internal_node_id":"0.0-4.0-1.55","subject_id":"5f0c6e39eff16b5d4f3b2914","study_id":"60edd13110225f80f9f3709b","session_id":"6196c907e3949be79fc01257","condition":"contingent","relevant_dimensions":["antennae","pattern"],"bee_group":{"antennae":"B","wings":"X","pattern":"S","legs":"X"},"bonus":1.280000000000001},{"rt":997.7000000029802,"stimulus":"bees-with-color/bee-A2SF.svg","response":1,"trial_type":"image-button-response","trial_index":119,"time_elapsed":771572,"internal_node_id":"0.0-4.0-0.56","subject_id":"5f0c6e39eff16b5d4f3b2914","study_id":"60edd13110225f80f9f3709b","session_id":"6196c907e3949be79fc01257","condition":"contingent","relevant_dimensions":["antennae","pattern"],"bee_group":{"antennae":"B","wings":"X","pattern":"S","legs":"X"},"action":"avoid","summary":"bad-avoid","bonus":1.280000000000001},{"rt":1254.2999999970198,"stimulus":"\n                    <p><b>Action: <em>avoid</em></b></p>\n                    <p>This is the bee that you just saw.</p>\n                    <img src=\"bees-with-color/bee-A2SF.svg\" width=\"200\">\n                    <p><br>Your bonus pay is unchanged, and remains at $0.88.</p>\n            ","response":0,"trial_type":"html-button-response","trial_index":120,"time_elapsed":772828,"internal_node_id":"0.0-4.0-1.56","subject_id":"5f0c6e39eff16b5d4f3b2914","study_id":"60edd13110225f80f9f3709b","session_id":"6196c907e3949be79fc01257","condition":"contingent","relevant_dimensions":["antennae","pattern"],"bee_group":{"antennae":"B","wings":"X","pattern":"S","legs":"X"},"bonus":1.280000000000001},{"rt":718.5999999940395,"stimulus":"bees-with-color/bee-A1DM.svg","response":0,"trial_type":"image-button-response","trial_index":121,"time_elapsed":773549,"internal_node_id":"0.0-4.0-0.57","subject_id":"5f0c6e39eff16b5d4f3b2914","study_id":"60edd13110225f80f9f3709b","session_id":"6196c907e3949be79fc01257","condition":"contingent","relevant_dimensions":["antennae","pattern"],"bee_group":{"antennae":"B","wings":"X","pattern":"S","legs":"X"},"action":"harvest","summary":"good-harvest","bonus":1.280000000000001},{"rt":885.8999999910593,"stimulus":"\n                    <p><b>Action: <em>harvest</em></b></p>\n                    <p>This is the bee that you just saw.</p>\n                    <img src=\"bees-with-color/bee-A1DM.svg\" width=\"200\">\n                    <p><span class=\"greenText\"><b>Successful harvest!</b></span><br>Your pay has increased by $0.02. Your bonus pay is now $0.90.</p>\n            ","response":0,"trial_type":"html-button-response","trial_index":122,"time_elapsed":774436,"internal_node_id":"0.0-4.0-1.57","subject_id":"5f0c6e39eff16b5d4f3b2914","study_id":"60edd13110225f80f9f3709b","session_id":"6196c907e3949be79fc01257","condition":"contingent","relevant_dimensions":["antennae","pattern"],"bee_group":{"antennae":"B","wings":"X","pattern":"S","legs":"X"},"bonus":1.280000000000001},{"rt":806.5,"stimulus":"bees-with-color/bee-B1DF.svg","response":0,"trial_type":"image-button-response","trial_index":123,"time_elapsed":775244,"internal_node_id":"0.0-4.0-0.58","subject_id":"5f0c6e39eff16b5d4f3b2914","study_id":"60edd13110225f80f9f3709b","session_id":"6196c907e3949be79fc01257","condition":"contingent","relevant_dimensions":["antennae","pattern"],"bee_group":{"antennae":"B","wings":"X","pattern":"S","legs":"X"},"action":"harvest","summary":"good-harvest","bonus":1.280000000000001},{"rt":870.2000000029802,"stimulus":"\n                    <p><b>Action: <em>harvest</em></b></p>\n                    <p>This is the bee that you just saw.</p>\n                    <img src=\"bees-with-color/bee-B1DF.svg\" width=\"200\">\n                    <p><span class=\"greenText\"><b>Successful harvest!</b></span><br>Your pay has increased by $0.02. Your bonus pay is now $0.92.</p>\n            ","response":0,"trial_type":"html-button-response","trial_index":124,"time_elapsed":776116,"internal_node_id":"0.0-4.0-1.58","subject_id":"5f0c6e39eff16b5d4f3b2914","study_id":"60edd13110225f80f9f3709b","session_id":"6196c907e3949be79fc01257","condition":"contingent","relevant_dimensions":["antennae","pattern"],"bee_group":{"antennae":"B","wings":"X","pattern":"S","legs":"X"},"bonus":1.280000000000001},{"rt":822.2000000029802,"stimulus":"bees-with-color/bee-A2DF.svg","response":0,"trial_type":"image-button-response","trial_index":125,"time_elapsed":776940,"internal_node_id":"0.0-4.0-0.59","subject_id":"5f0c6e39eff16b5d4f3b2914","study_id":"60edd13110225f80f9f3709b","session_id":"6196c907e3949be79fc01257","condition":"contingent","relevant_dimensions":["antennae","pattern"],"bee_group":{"antennae":"B","wings":"X","pattern":"S","legs":"X"},"action":"harvest","summary":"good-harvest","bonus":1.280000000000001},{"rt":1006.2999999970198,"stimulus":"\n                    <p><b>Action: <em>harvest</em></b></p>\n                    <p>This is the bee that you just saw.</p>\n                    <img src=\"bees-with-color/bee-A2DF.svg\" width=\"200\">\n                    <p><span class=\"greenText\"><b>Successful harvest!</b></span><br>Your pay has increased by $0.02. Your bonus pay is now $0.94.</p>\n            ","response":0,"trial_type":"html-button-response","trial_index":126,"time_elapsed":777948,"internal_node_id":"0.0-4.0-1.59","subject_id":"5f0c6e39eff16b5d4f3b2914","study_id":"60edd13110225f80f9f3709b","session_id":"6196c907e3949be79fc01257","condition":"contingent","relevant_dimensions":["antennae","pattern"],"bee_group":{"antennae":"B","wings":"X","pattern":"S","legs":"X"},"bonus":1.280000000000001},{"rt":974.3999999910593,"stimulus":"bees-with-color/bee-B2SM.svg","response":1,"trial_type":"image-button-response","trial_index":127,"time_elapsed":778924,"internal_node_id":"0.0-4.0-0.60","subject_id":"5f0c6e39eff16b5d4f3b2914","study_id":"60edd13110225f80f9f3709b","session_id":"6196c907e3949be79fc01257","condition":"contingent","relevant_dimensions":["antennae","pattern"],"bee_group":{"antennae":"B","wings":"X","pattern":"S","legs":"X"},"action":"avoid","summary":"good-avoid","bonus":1.280000000000001},{"rt":814.1000000089407,"stimulus":"\n                    <p><b>Action: <em>avoid</em></b></p>\n                    <p>This is the bee that you just saw.</p>\n                    <img src=\"bees-with-color/bee-B2SM.svg\" width=\"200\">\n                    <p><br>Your bonus pay is unchanged, and remains at $0.94.</p>\n            ","response":0,"trial_type":"html-button-response","trial_index":128,"time_elapsed":779740,"internal_node_id":"0.0-4.0-1.60","subject_id":"5f0c6e39eff16b5d4f3b2914","study_id":"60edd13110225f80f9f3709b","session_id":"6196c907e3949be79fc01257","condition":"contingent","relevant_dimensions":["antennae","pattern"],"bee_group":{"antennae":"B","wings":"X","pattern":"S","legs":"X"},"bonus":1.280000000000001},{"rt":830.5,"stimulus":"bees-with-color/bee-B2DM.svg","response":0,"trial_type":"image-button-response","trial_index":129,"time_elapsed":780572,"internal_node_id":"0.0-4.0-0.61","subject_id":"5f0c6e39eff16b5d4f3b2914","study_id":"60edd13110225f80f9f3709b","session_id":"6196c907e3949be79fc01257","condition":"contingent","relevant_dimensions":["antennae","pattern"],"bee_group":{"antennae":"B","wings":"X","pattern":"S","legs":"X"},"action":"harvest","summary":"good-harvest","bonus":1.280000000000001},{"rt":853.8999999910593,"stimulus":"\n                    <p><b>Action: <em>harvest</em></b></p>\n                    <p>This is the bee that you just saw.</p>\n                    <img src=\"bees-with-color/bee-B2DM.svg\" width=\"200\">\n                    <p><span class=\"greenText\"><b>Successful harvest!</b></span><br>Your pay has increased by $0.02. Your bonus pay is now $0.96.</p>\n            ","response":0,"trial_type":"html-button-response","trial_index":130,"time_elapsed":781429,"internal_node_id":"0.0-4.0-1.61","subject_id":"5f0c6e39eff16b5d4f3b2914","study_id":"60edd13110225f80f9f3709b","session_id":"6196c907e3949be79fc01257","condition":"contingent","relevant_dimensions":["antennae","pattern"],"bee_group":{"antennae":"B","wings":"X","pattern":"S","legs":"X"},"bonus":1.280000000000001},{"rt":957.6000000089407,"stimulus":"bees-with-color/bee-A1SM.svg","response":1,"trial_type":"image-button-response","trial_index":131,"time_elapsed":782388,"internal_node_id":"0.0-4.0-0.62","subject_id":"5f0c6e39eff16b5d4f3b2914","study_id":"60edd13110225f80f9f3709b","session_id":"6196c907e3949be79fc01257","condition":"contingent","relevant_dimensions":["antennae","pattern"],"bee_group":{"antennae":"B","wings":"X","pattern":"S","legs":"X"},"action":"avoid","summary":"bad-avoid","bonus":1.280000000000001},{"rt":902,"stimulus":"\n                    <p><b>Action: <em>avoid</em></b></p>\n                    <p>This is the bee that you just saw.</p>\n                    <img src=\"bees-with-color/bee-A1SM.svg\" width=\"200\">\n                    <p><br>Your bonus pay is unchanged, and remains at $0.96.</p>\n            ","response":0,"trial_type":"html-button-response","trial_index":132,"time_elapsed":783292,"internal_node_id":"0.0-4.0-1.62","subject_id":"5f0c6e39eff16b5d4f3b2914","study_id":"60edd13110225f80f9f3709b","session_id":"6196c907e3949be79fc01257","condition":"contingent","relevant_dimensions":["antennae","pattern"],"bee_group":{"antennae":"B","wings":"X","pattern":"S","legs":"X"},"bonus":1.280000000000001},{"rt":1118.699999988079,"stimulus":"bees-with-color/bee-B1SM.svg","response":1,"trial_type":"image-button-response","trial_index":133,"time_elapsed":784413,"internal_node_id":"0.0-4.0-0.63","subject_id":"5f0c6e39eff16b5d4f3b2914","study_id":"60edd13110225f80f9f3709b","session_id":"6196c907e3949be79fc01257","condition":"contingent","relevant_dimensions":["antennae","pattern"],"bee_group":{"antennae":"B","wings":"X","pattern":"S","legs":"X"},"action":"avoid","summary":"good-avoid","bonus":1.280000000000001},{"rt":1149.6000000089407,"stimulus":"\n                    <p><b>Action: <em>avoid</em></b></p>\n                    <p>This is the bee that you just saw.</p>\n                    <img src=\"bees-with-color/bee-B1SM.svg\" width=\"200\">\n                    <p><br>Your bonus pay is unchanged, and remains at $0.96.</p>\n            ","response":0,"trial_type":"html-button-response","trial_index":134,"time_elapsed":785564,"internal_node_id":"0.0-4.0-1.63","subject_id":"5f0c6e39eff16b5d4f3b2914","study_id":"60edd13110225f80f9f3709b","session_id":"6196c907e3949be79fc01257","condition":"contingent","relevant_dimensions":["antennae","pattern"],"bee_group":{"antennae":"B","wings":"X","pattern":"S","legs":"X"},"bonus":1.280000000000001},{"rt":8677.90000000596,"stimulus":"You have completed the first part of this experiment.<br><br>You will now begin a shorter second part, in which you will receive no feedback.<br>The same rules regarding bonus pay apply.<br><br>Press any key to begin.","response":" ","trial_type":"html-keyboard-response","trial_index":135,"time_elapsed":794244,"internal_node_id":"0.0-5.0","subject_id":"5f0c6e39eff16b5d4f3b2914","study_id":"60edd13110225f80f9f3709b","session_id":"6196c907e3949be79fc01257","condition":"contingent","relevant_dimensions":["antennae","pattern"],"bee_group":{"antennae":"B","wings":"X","pattern":"S","legs":"X"},"bonus":1.280000000000001},{"rt":2015.2999999970198,"stimulus":"bees-with-color/bee-A1DM.svg","response":0,"trial_type":"image-button-response","trial_index":136,"time_elapsed":796317,"internal_node_id":"0.0-6.0-0.0","subject_id":"5f0c6e39eff16b5d4f3b2914","study_id":"60edd13110225f80f9f3709b","session_id":"6196c907e3949be79fc01257","condition":"contingent","relevant_dimensions":["antennae","pattern"],"bee_group":{"antennae":"B","wings":"X","pattern":"S","legs":"X"},"bonus":1.280000000000001},{"rt":1781.0999999940395,"stimulus":"bees-with-color/bee-A2DF.svg","response":0,"trial_type":"image-button-response","trial_index":137,"time_elapsed":798100,"internal_node_id":"0.0-6.0-0.1","subject_id":"5f0c6e39eff16b5d4f3b2914","study_id":"60edd13110225f80f9f3709b","session_id":"6196c907e3949be79fc01257","condition":"contingent","relevant_dimensions":["antennae","pattern"],"bee_group":{"antennae":"B","wings":"X","pattern":"S","legs":"X"},"bonus":1.280000000000001},{"rt":1957.2999999970198,"stimulus":"bees-with-color/bee-A1SF.svg","response":1,"trial_type":"image-button-response","trial_index":138,"time_elapsed":800060,"internal_node_id":"0.0-6.0-0.2","subject_id":"5f0c6e39eff16b5d4f3b2914","study_id":"60edd13110225f80f9f3709b","session_id":"6196c907e3949be79fc01257","condition":"contingent","relevant_dimensions":["antennae","pattern"],"bee_group":{"antennae":"B","wings":"X","pattern":"S","legs":"X"},"bonus":1.280000000000001},{"rt":1325.2000000029802,"stimulus":"bees-with-color/bee-B2SM.svg","response":1,"trial_type":"image-button-response","trial_index":139,"time_elapsed":801389,"internal_node_id":"0.0-6.0-0.3","subject_id":"5f0c6e39eff16b5d4f3b2914","study_id":"60edd13110225f80f9f3709b","session_id":"6196c907e3949be79fc01257","condition":"contingent","relevant_dimensions":["antennae","pattern"],"bee_group":{"antennae":"B","wings":"X","pattern":"S","legs":"X"},"bonus":1.280000000000001},{"rt":1556.2000000029802,"stimulus":"bees-with-color/bee-A2SM.svg","response":1,"trial_type":"image-button-response","trial_index":140,"time_elapsed":802948,"internal_node_id":"0.0-6.0-0.4","subject_id":"5f0c6e39eff16b5d4f3b2914","study_id":"60edd13110225f80f9f3709b","session_id":"6196c907e3949be79fc01257","condition":"contingent","relevant_dimensions":["antennae","pattern"],"bee_group":{"antennae":"B","wings":"X","pattern":"S","legs":"X"},"bonus":1.280000000000001},{"rt":1117.4000000059605,"stimulus":"bees-with-color/bee-A1SM.svg","response":1,"trial_type":"image-button-response","trial_index":141,"time_elapsed":804069,"internal_node_id":"0.0-6.0-0.5","subject_id":"5f0c6e39eff16b5d4f3b2914","study_id":"60edd13110225f80f9f3709b","session_id":"6196c907e3949be79fc01257","condition":"contingent","relevant_dimensions":["antennae","pattern"],"bee_group":{"antennae":"B","wings":"X","pattern":"S","legs":"X"},"bonus":1.280000000000001},{"rt":1019.9000000059605,"stimulus":"bees-with-color/bee-B2SF.svg","response":1,"trial_type":"image-button-response","trial_index":142,"time_elapsed":805092,"internal_node_id":"0.0-6.0-0.6","subject_id":"5f0c6e39eff16b5d4f3b2914","study_id":"60edd13110225f80f9f3709b","session_id":"6196c907e3949be79fc01257","condition":"contingent","relevant_dimensions":["antennae","pattern"],"bee_group":{"antennae":"B","wings":"X","pattern":"S","legs":"X"},"bonus":1.280000000000001},{"rt":1029.7000000029802,"stimulus":"bees-with-color/bee-A2SF.svg","response":1,"trial_type":"image-button-response","trial_index":143,"time_elapsed":806125,"internal_node_id":"0.0-6.0-0.7","subject_id":"5f0c6e39eff16b5d4f3b2914","study_id":"60edd13110225f80f9f3709b","session_id":"6196c907e3949be79fc01257","condition":"contingent","relevant_dimensions":["antennae","pattern"],"bee_group":{"antennae":"B","wings":"X","pattern":"S","legs":"X"},"bonus":1.280000000000001},{"rt":1076.7999999970198,"stimulus":"bees-with-color/bee-B2DF.svg","response":0,"trial_type":"image-button-response","trial_index":144,"time_elapsed":807204,"internal_node_id":"0.0-6.0-0.8","subject_id":"5f0c6e39eff16b5d4f3b2914","study_id":"60edd13110225f80f9f3709b","session_id":"6196c907e3949be79fc01257","condition":"contingent","relevant_dimensions":["antennae","pattern"],"bee_group":{"antennae":"B","wings":"X","pattern":"S","legs":"X"},"bonus":1.280000000000001},{"rt":1644.5999999940395,"stimulus":"bees-with-color/bee-B1DM.svg","response":0,"trial_type":"image-button-response","trial_index":145,"time_elapsed":808852,"internal_node_id":"0.0-6.0-0.9","subject_id":"5f0c6e39eff16b5d4f3b2914","study_id":"60edd13110225f80f9f3709b","session_id":"6196c907e3949be79fc01257","condition":"contingent","relevant_dimensions":["antennae","pattern"],"bee_group":{"antennae":"B","wings":"X","pattern":"S","legs":"X"},"bonus":1.280000000000001},{"rt":1213.800000011921,"stimulus":"bees-with-color/bee-B1SF.svg","response":1,"trial_type":"image-button-response","trial_index":146,"time_elapsed":810069,"internal_node_id":"0.0-6.0-0.10","subject_id":"5f0c6e39eff16b5d4f3b2914","study_id":"60edd13110225f80f9f3709b","session_id":"6196c907e3949be79fc01257","condition":"contingent","relevant_dimensions":["antennae","pattern"],"bee_group":{"antennae":"B","wings":"X","pattern":"S","legs":"X"},"bonus":1.280000000000001},{"rt":797.3999999910593,"stimulus":"bees-with-color/bee-B2DM.svg","response":0,"trial_type":"image-button-response","trial_index":147,"time_elapsed":810868,"internal_node_id":"0.0-6.0-0.11","subject_id":"5f0c6e39eff16b5d4f3b2914","study_id":"60edd13110225f80f9f3709b","session_id":"6196c907e3949be79fc01257","condition":"contingent","relevant_dimensions":["antennae","pattern"],"bee_group":{"antennae":"B","wings":"X","pattern":"S","legs":"X"},"bonus":1.280000000000001},{"rt":885.9000000059605,"stimulus":"bees-with-color/bee-A1DF.svg","response":0,"trial_type":"image-button-response","trial_index":148,"time_elapsed":811756,"internal_node_id":"0.0-6.0-0.12","subject_id":"5f0c6e39eff16b5d4f3b2914","study_id":"60edd13110225f80f9f3709b","session_id":"6196c907e3949be79fc01257","condition":"contingent","relevant_dimensions":["antennae","pattern"],"bee_group":{"antennae":"B","wings":"X","pattern":"S","legs":"X"},"bonus":1.280000000000001},{"rt":1221.5999999940395,"stimulus":"bees-with-color/bee-B1SM.svg","response":1,"trial_type":"image-button-response","trial_index":149,"time_elapsed":812980,"internal_node_id":"0.0-6.0-0.13","subject_id":"5f0c6e39eff16b5d4f3b2914","study_id":"60edd13110225f80f9f3709b","session_id":"6196c907e3949be79fc01257","condition":"contingent","relevant_dimensions":["antennae","pattern"],"bee_group":{"antennae":"B","wings":"X","pattern":"S","legs":"X"},"bonus":1.280000000000001},{"rt":773.5999999940395,"stimulus":"bees-with-color/bee-B1DF.svg","response":0,"trial_type":"image-button-response","trial_index":150,"time_elapsed":813756,"internal_node_id":"0.0-6.0-0.14","subject_id":"5f0c6e39eff16b5d4f3b2914","study_id":"60edd13110225f80f9f3709b","session_id":"6196c907e3949be79fc01257","condition":"contingent","relevant_dimensions":["antennae","pattern"],"bee_group":{"antennae":"B","wings":"X","pattern":"S","legs":"X"},"bonus":1.280000000000001},{"rt":917.8000000119209,"stimulus":"bees-with-color/bee-A2DM.svg","response":0,"trial_type":"image-button-response","trial_index":151,"time_elapsed":814676,"internal_node_id":"0.0-6.0-0.15","subject_id":"5f0c6e39eff16b5d4f3b2914","study_id":"60edd13110225f80f9f3709b","session_id":"6196c907e3949be79fc01257","condition":"contingent","relevant_dimensions":["antennae","pattern"],"bee_group":{"antennae":"B","wings":"X","pattern":"S","legs":"X"},"bonus":1.280000000000001},{"rt":1245.9000000059605,"stimulus":"bees-with-color/bee-A1SF.svg","response":1,"trial_type":"image-button-response","trial_index":152,"time_elapsed":815924,"internal_node_id":"0.0-6.0-0.16","subject_id":"5f0c6e39eff16b5d4f3b2914","study_id":"60edd13110225f80f9f3709b","session_id":"6196c907e3949be79fc01257","condition":"contingent","relevant_dimensions":["antennae","pattern"],"bee_group":{"antennae":"B","wings":"X","pattern":"S","legs":"X"},"bonus":1.280000000000001},{"rt":1037.9000000059605,"stimulus":"bees-with-color/bee-B1SM.svg","response":1,"trial_type":"image-button-response","trial_index":153,"time_elapsed":816964,"internal_node_id":"0.0-6.0-0.17","subject_id":"5f0c6e39eff16b5d4f3b2914","study_id":"60edd13110225f80f9f3709b","session_id":"6196c907e3949be79fc01257","condition":"contingent","relevant_dimensions":["antennae","pattern"],"bee_group":{"antennae":"B","wings":"X","pattern":"S","legs":"X"},"bonus":1.280000000000001},{"rt":1750,"stimulus":"bees-with-color/bee-B1SF.svg","response":1,"trial_type":"image-button-response","trial_index":154,"time_elapsed":818716,"internal_node_id":"0.0-6.0-0.18","subject_id":"5f0c6e39eff16b5d4f3b2914","study_id":"60edd13110225f80f9f3709b","session_id":"6196c907e3949be79fc01257","condition":"contingent","relevant_dimensions":["antennae","pattern"],"bee_group":{"antennae":"B","wings":"X","pattern":"S","legs":"X"},"bonus":1.280000000000001},{"rt":1206.0999999940395,"stimulus":"bees-with-color/bee-A2SF.svg","response":1,"trial_type":"image-button-response","trial_index":155,"time_elapsed":819924,"internal_node_id":"0.0-6.0-0.19","subject_id":"5f0c6e39eff16b5d4f3b2914","study_id":"60edd13110225f80f9f3709b","session_id":"6196c907e3949be79fc01257","condition":"contingent","relevant_dimensions":["antennae","pattern"],"bee_group":{"antennae":"B","wings":"X","pattern":"S","legs":"X"},"bonus":1.280000000000001},{"rt":846.2000000029802,"stimulus":"bees-with-color/bee-A2DM.svg","response":0,"trial_type":"image-button-response","trial_index":156,"time_elapsed":820772,"internal_node_id":"0.0-6.0-0.20","subject_id":"5f0c6e39eff16b5d4f3b2914","study_id":"60edd13110225f80f9f3709b","session_id":"6196c907e3949be79fc01257","condition":"contingent","relevant_dimensions":["antennae","pattern"],"bee_group":{"antennae":"B","wings":"X","pattern":"S","legs":"X"},"bonus":1.280000000000001},{"rt":1326.2000000029802,"stimulus":"bees-with-color/bee-A2SM.svg","response":1,"trial_type":"image-button-response","trial_index":157,"time_elapsed":822100,"internal_node_id":"0.0-6.0-0.21","subject_id":"5f0c6e39eff16b5d4f3b2914","study_id":"60edd13110225f80f9f3709b","session_id":"6196c907e3949be79fc01257","condition":"contingent","relevant_dimensions":["antennae","pattern"],"bee_group":{"antennae":"B","wings":"X","pattern":"S","legs":"X"},"bonus":1.280000000000001},{"rt":806.2000000029802,"stimulus":"bees-with-color/bee-B1DF.svg","response":0,"trial_type":"image-button-response","trial_index":158,"time_elapsed":822908,"internal_node_id":"0.0-6.0-0.22","subject_id":"5f0c6e39eff16b5d4f3b2914","study_id":"60edd13110225f80f9f3709b","session_id":"6196c907e3949be79fc01257","condition":"contingent","relevant_dimensions":["antennae","pattern"],"bee_group":{"antennae":"B","wings":"X","pattern":"S","legs":"X"},"bonus":1.280000000000001},{"rt":1286,"stimulus":"bees-with-color/bee-A1SM.svg","response":1,"trial_type":"image-button-response","trial_index":159,"time_elapsed":824196,"internal_node_id":"0.0-6.0-0.23","subject_id":"5f0c6e39eff16b5d4f3b2914","study_id":"60edd13110225f80f9f3709b","session_id":"6196c907e3949be79fc01257","condition":"contingent","relevant_dimensions":["antennae","pattern"],"bee_group":{"antennae":"B","wings":"X","pattern":"S","legs":"X"},"bonus":1.280000000000001},{"rt":902.3999999910593,"stimulus":"bees-with-color/bee-A2DF.svg","response":0,"trial_type":"image-button-response","trial_index":160,"time_elapsed":825101,"internal_node_id":"0.0-6.0-0.24","subject_id":"5f0c6e39eff16b5d4f3b2914","study_id":"60edd13110225f80f9f3709b","session_id":"6196c907e3949be79fc01257","condition":"contingent","relevant_dimensions":["antennae","pattern"],"bee_group":{"antennae":"B","wings":"X","pattern":"S","legs":"X"},"bonus":1.280000000000001},{"rt":1676.4000000059605,"stimulus":"bees-with-color/bee-B2SM.svg","response":1,"trial_type":"image-button-response","trial_index":161,"time_elapsed":826780,"internal_node_id":"0.0-6.0-0.25","subject_id":"5f0c6e39eff16b5d4f3b2914","study_id":"60edd13110225f80f9f3709b","session_id":"6196c907e3949be79fc01257","condition":"contingent","relevant_dimensions":["antennae","pattern"],"bee_group":{"antennae":"B","wings":"X","pattern":"S","legs":"X"},"bonus":1.280000000000001},{"rt":774.2000000029802,"stimulus":"bees-with-color/bee-A1DF.svg","response":0,"trial_type":"image-button-response","trial_index":162,"time_elapsed":827556,"internal_node_id":"0.0-6.0-0.26","subject_id":"5f0c6e39eff16b5d4f3b2914","study_id":"60edd13110225f80f9f3709b","session_id":"6196c907e3949be79fc01257","condition":"contingent","relevant_dimensions":["antennae","pattern"],"bee_group":{"antennae":"B","wings":"X","pattern":"S","legs":"X"},"bonus":1.280000000000001},{"rt":1094,"stimulus":"bees-with-color/bee-B2DM.svg","response":0,"trial_type":"image-button-response","trial_index":163,"time_elapsed":828653,"internal_node_id":"0.0-6.0-0.27","subject_id":"5f0c6e39eff16b5d4f3b2914","study_id":"60edd13110225f80f9f3709b","session_id":"6196c907e3949be79fc01257","condition":"contingent","relevant_dimensions":["antennae","