[{"success":true,"trial_type":"fullscreen","trial_index":0,"time_elapsed":117828,"internal_node_id":"0.0-0.0","subject_id":"59da7e94416c900001ea5b52","study_id":"6197b3f67c2b5cd3b6d9596a","session_id":"6197b8916e909f8a6c3948f5","condition":"full-information","relevant_dimensions":["wings","pattern"],"bee_group":{"antennae":"X","wings":"2","pattern":"D","legs":"X"},"bonus":0.11999999999999994},{"success":true,"timeout":false,"failed_images":[],"failed_audio":[],"failed_video":[],"trial_type":"preload","trial_index":1,"time_elapsed":119366,"internal_node_id":"0.0-1.0","subject_id":"59da7e94416c900001ea5b52","study_id":"6197b3f67c2b5cd3b6d9596a","session_id":"6197b8916e909f8a6c3948f5","condition":"full-information","relevant_dimensions":["wings","pattern"],"bee_group":{"antennae":"X","wings":"2","pattern":"D","legs":"X"},"bonus":0.11999999999999994},{"rt":21851.399999976158,"stimulus":"Welcome! Press any key to begin.","response":" ","trial_type":"html-keyboard-response","trial_index":2,"time_elapsed":141218,"internal_node_id":"0.0-2.0","subject_id":"59da7e94416c900001ea5b52","study_id":"6197b3f67c2b5cd3b6d9596a","session_id":"6197b8916e909f8a6c3948f5","condition":"full-information","relevant_dimensions":["wings","pattern"],"bee_group":{"antennae":"X","wings":"2","pattern":"D","legs":"X"},"bonus":0.11999999999999994},{"view_history":[{"page_index":0,"viewing_time":17563.099999904633},{"page_index":1,"viewing_time":17672.100000023842},{"page_index":2,"viewing_time":30296.200000047684},{"page_index":3,"viewing_time":13495.699999928474},{"page_index":4,"viewing_time":10472.100000023842},{"page_index":5,"viewing_time":16615.600000023842},{"page_index":6,"viewing_time":20440.299999952316},{"page_index":7,"viewing_time":27112.400000095367},{"page_index":8,"viewing_time":4967.5},{"page_index":9,"viewing_time":3248.0999999046326},{"page_index":10,"viewing_time":4104},{"page_index":11,"viewing_time":9791.900000095367},{"page_index":12,"viewing_time":9576},{"page_index":13,"viewing_time":1464},{"page_index":14,"viewing_time":1616}],"rt":188435.19999992847,"trial_type":"instructions","trial_index":3,"time_elapsed":329654,"internal_node_id":"0.0-3.0-0.0","subject_id":"59da7e94416c900001ea5b52","study_id":"6197b3f67c2b5cd3b6d9596a","session_id":"6197b8916e909f8a6c3948f5","condition":"full-information","relevant_dimensions":["wings","pattern"],"bee_group":{"antennae":"X","wings":"2","pattern":"D","legs":"X"},"bonus":0.11999999999999994},{"rt":16205.400000095367,"response":{"Q0":["Two or six legs","Stripes or spots on body","Single or double wings","Antennae or no antennae"]},"question_order":[0],"trial_type":"survey-multi-select","trial_index":4,"time_elapsed":345863,"internal_node_id":"0.0-3.0-1.0","subject_id":"59da7e94416c900001ea5b52","study_id":"6197b3f67c2b5cd3b6d9596a","session_id":"6197b8916e909f8a6c3948f5","condition":"full-information","relevant_dimensions":["wings","pattern"],"bee_group":{"antennae":"X","wings":"2","pattern":"D","legs":"X"},"correct":true,"bonus":0.11999999999999994},{"rt":34214.200000047684,"response":{"Q1":"No.","Q2":"Based on the four features of the bee.","Q3":"You learn if it was friendly or dangerous, but do not alter your bonus."},"question_order":[0,1,2],"trial_type":"survey-multi-choice","trial_index":5,"time_elapsed":380078,"internal_node_id":"0.0-3.0-2.0","subject_id":"59da7e94416c900001ea5b52","study_id":"6197b3f67c2b5cd3b6d9596a","session_id":"6197b8916e909f8a6c3948f5","condition":"full-information","relevant_dimensions":["wings","pattern"],"bee_group":{"antennae":"X","wings":"2","pattern":"D","legs":"X"},"correct":true,"bonus":0.11999999999999994},{"rt":2238.5,"stimulus":"<p>Congrats, you got everything right<br>When you're ready, click the button below to continue to the experiment.</p>","response":0,"trial_type":"html-button-response","trial_index":6,"time_elapsed":382318,"internal_node_id":"0.0-3.0-3.0","subject_id":"59da7e94416c900001ea5b52","study_id":"6197b3f67c2b5cd3b6d9596a","session_id":"6197b8916e909f8a6c3948f5","condition":"full-information","relevant_dimensions":["wings","pattern"],"bee_group":{"antennae":"X","wings":"2","pattern":"D","legs":"X"},"bonus":0.11999999999999994},{"rt":8765.899999976158,"stimulus":"bees-with-color/bee-B2SF.svg","response":0,"trial_type":"image-button-response","trial_index":7,"time_elapsed":391086,"internal_node_id":"0.0-4.0-0.0","subject_id":"59da7e94416c900001ea5b52","study_id":"6197b3f67c2b5cd3b6d9596a","session_id":"6197b8916e909f8a6c3948f5","condition":"full-information","relevant_dimensions":["wings","pattern"],"bee_group":{"antennae":"X","wings":"2","pattern":"D","legs":"X"},"action":"harvest","summary":"good-harvest","bonus":0.11999999999999994},{"rt":11117.5,"stimulus":"\n                    <p><b>Action: <em>harvest</em></b></p>\n                    <p>This is the bee that you just saw.</p>\n                    <img src=\"bees-with-color/bee-B2SF.svg\" width=\"200\">\n                    <p><span class=\"greenText\"><b>Successful harvest!</b></span><br>Your pay has increased by $0.02. Your bonus pay is now $0.56.</p>\n            ","response":0,"trial_type":"html-button-response","trial_index":8,"time_elapsed":402206,"internal_node_id":"0.0-4.0-1.0","subject_id":"59da7e94416c900001ea5b52","study_id":"6197b3f67c2b5cd3b6d9596a","session_id":"6197b8916e909f8a6c3948f5","condition":"full-information","relevant_dimensions":["wings","pattern"],"bee_group":{"antennae":"X","wings":"2","pattern":"D","legs":"X"},"bonus":0.11999999999999994},{"rt":6533.899999976158,"stimulus":"bees-with-color/bee-B2DM.svg","response":1,"trial_type":"image-button-response","trial_index":9,"time_elapsed":408742,"internal_node_id":"0.0-4.0-0.1","subject_id":"59da7e94416c900001ea5b52","study_id":"6197b3f67c2b5cd3b6d9596a","session_id":"6197b8916e909f8a6c3948f5","condition":"full-information","relevant_dimensions":["wings","pattern"],"bee_group":{"antennae":"X","wings":"2","pattern":"D","legs":"X"},"action":"avoid","summary":"good-avoid","bonus":0.11999999999999994},{"rt":13142.299999952316,"stimulus":"\n                    <p><b>Action: <em>avoid</em></b></p>\n                    <p>This is the bee that you just saw.</p>\n                    <img src=\"bees-with-color/bee-B2DM.svg\" width=\"200\">\n                    <p><span class=\"greenText\">Good choice!</span>  This bee would have stung you.<br>Your bonus pay is unchanged, and remains at $0.56.</p>\n            ","response":0,"trial_type":"html-button-response","trial_index":10,"time_elapsed":421886,"internal_node_id":"0.0-4.0-1.1","subject_id":"59da7e94416c900001ea5b52","study_id":"6197b3f67c2b5cd3b6d9596a","session_id":"6197b8916e909f8a6c3948f5","condition":"full-information","relevant_dimensions":["wings","pattern"],"bee_group":{"antennae":"X","wings":"2","pattern":"D","legs":"X"},"bonus":0.11999999999999994},{"rt":2605.899999976158,"stimulus":"bees-with-color/bee-A1SF.svg","response":0,"trial_type":"image-button-response","trial_index":11,"time_elapsed":424494,"internal_node_id":"0.0-4.0-0.2","subject_id":"59da7e94416c900001ea5b52","study_id":"6197b3f67c2b5cd3b6d9596a","session_id":"6197b8916e909f8a6c3948f5","condition":"full-information","relevant_dimensions":["wings","pattern"],"bee_group":{"antennae":"X","wings":"2","pattern":"D","legs":"X"},"action":"harvest","summary":"good-harvest","bonus":0.11999999999999994},{"rt":7166.600000023842,"stimulus":"\n                    <p><b>Action: <em>harvest</em></b></p>\n                    <p>This is the bee that you just saw.</p>\n                    <img src=\"bees-with-color/bee-A1SF.svg\" width=\"200\">\n                    <p><span class=\"greenText\"><b>Successful harvest!</b></span><br>Your pay has increased by $0.02. Your bonus pay is now $0.58.</p>\n            ","response":0,"trial_type":"html-button-response","trial_index":12,"time_elapsed":431661,"internal_node_id":"0.0-4.0-1.2","subject_id":"59da7e94416c900001ea5b52","study_id":"6197b3f67c2b5cd3b6d9596a","session_id":"6197b8916e909f8a6c3948f5","condition":"full-information","relevant_dimensions":["wings","pattern"],"bee_group":{"antennae":"X","wings":"2","pattern":"D","legs":"X"},"bonus":0.11999999999999994},{"rt":5966.799999952316,"stimulus":"bees-with-color/bee-A2SF.svg","response":0,"trial_type":"image-button-response","trial_index":13,"time_elapsed":437630,"internal_node_id":"0.0-4.0-0.3","subject_id":"59da7e94416c900001ea5b52","study_id":"6197b3f67c2b5cd3b6d9596a","session_id":"6197b8916e909f8a6c3948f5","condition":"full-information","relevant_dimensions":["wings","pattern"],"bee_group":{"antennae":"X","wings":"2","pattern":"D","legs":"X"},"action":"harvest","summary":"good-harvest","bonus":0.11999999999999994},{"rt":1950.5,"stimulus":"\n                    <p><b>Action: <em>harvest</em></b></p>\n                    <p>This is the bee that you just saw.</p>\n                    <img src=\"bees-with-color/bee-A2SF.svg\" width=\"200\">\n                    <p><span class=\"greenText\"><b>Successful harvest!</b></span><br>Your pay has increased by $0.02. Your bonus pay is now $0.60.</p>\n            ","response":0,"trial_type":"html-button-response","trial_index":14,"time_elapsed":439581,"internal_node_id":"0.0-4.0-1.3","subject_id":"59da7e94416c900001ea5b52","study_id":"6197b3f67c2b5cd3b6d9596a","session_id":"6197b8916e909f8a6c3948f5","condition":"full-information","relevant_dimensions":["wings","pattern"],"bee_group":{"antennae":"X","wings":"2","pattern":"D","legs":"X"},"bonus":0.11999999999999994},{"rt":1918.6000000238419,"stimulus":"bees-with-color/bee-A2SM.svg","response":1,"trial_type":"image-button-response","trial_index":15,"time_elapsed":441501,"internal_node_id":"0.0-4.0-0.4","subject_id":"59da7e94416c900001ea5b52","study_id":"6197b3f67c2b5cd3b6d9596a","session_id":"6197b8916e909f8a6c3948f5","condition":"full-information","relevant_dimensions":["wings","pattern"],"bee_group":{"antennae":"X","wings":"2","pattern":"D","legs":"X"},"action":"avoid","summary":"bad-avoid","bonus":0.11999999999999994},{"rt":6942.700000047684,"stimulus":"\n                    <p><b>Action: <em>avoid</em></b></p>\n                    <p>This is the bee that you just saw.</p>\n                    <img src=\"bees-with-color/bee-A2SM.svg\" width=\"200\">\n                    <p><span class=\"redText\">Bad choice,</span> the bee was friendly.<br>Your bonus pay is unchanged, and remains at $0.60.</p>\n            ","response":0,"trial_type":"html-button-response","trial_index":16,"time_elapsed":448445,"internal_node_id":"0.0-4.0-1.4","subject_id":"59da7e94416c900001ea5b52","study_id":"6197b3f67c2b5cd3b6d9596a","session_id":"6197b8916e909f8a6c3948f5","condition":"full-information","relevant_dimensions":["wings","pattern"],"bee_group":{"antennae":"X","wings":"2","pattern":"D","legs":"X"},"bonus":0.11999999999999994},{"rt":2470.600000023842,"stimulus":"bees-with-color/bee-B1DF.svg","response":1,"trial_type":"image-button-response","trial_index":17,"time_elapsed":450918,"internal_node_id":"0.0-4.0-0.5","subject_id":"59da7e94416c900001ea5b52","study_id":"6197b3f67c2b5cd3b6d9596a","session_id":"6197b8916e909f8a6c3948f5","condition":"full-information","relevant_dimensions":["wings","pattern"],"bee_group":{"antennae":"X","wings":"2","pattern":"D","legs":"X"},"action":"avoid","summary":"bad-avoid","bonus":0.11999999999999994},{"rt":4214.399999976158,"stimulus":"\n                    <p><b>Action: <em>avoid</em></b></p>\n                    <p>This is the bee that you just saw.</p>\n                    <img src=\"bees-with-color/bee-B1DF.svg\" width=\"200\">\n                    <p><span class=\"redText\">Bad choice,</span> the bee was friendly.<br>Your bonus pay is unchanged, and remains at $0.60.</p>\n            ","response":0,"trial_type":"html-button-response","trial_index":18,"time_elapsed":455133,"internal_node_id":"0.0-4.0-1.5","subject_id":"59da7e94416c900001ea5b52","study_id":"6197b3f67c2b5cd3b6d9596a","session_id":"6197b8916e909f8a6c3948f5","condition":"full-information","relevant_dimensions":["wings","pattern"],"bee_group":{"antennae":"X","wings":"2","pattern":"D","legs":"X"},"bonus":0.11999999999999994},{"rt":7582.5,"stimulus":"bees-with-color/bee-B2DF.svg","response":0,"trial_type":"image-button-response","trial_index":19,"time_elapsed":462717,"internal_node_id":"0.0-4.0-0.6","subject_id":"59da7e94416c900001ea5b52","study_id":"6197b3f67c2b5cd3b6d9596a","session_id":"6197b8916e909f8a6c3948f5","condition":"full-information","relevant_dimensions":["wings","pattern"],"bee_group":{"antennae":"X","wings":"2","pattern":"D","legs":"X"},"action":"harvest","summary":"bad-harvest","bonus":0.11999999999999994},{"rt":3190,"stimulus":"\n                    <p><b>Action: <em>harvest</em></b></p>\n                    <p>This is the bee that you just saw.</p>\n                    <img src=\"bees-with-color/bee-B2DF.svg\" width=\"200\">\n                    <p><span class=\"redText\">Bad choice, the bee was angry.</span><br><b>You have been stung!</b><br>Your pay has been decreased by $0.10. Your bonus pay is now $0.50.</p>\n            ","response":0,"trial_type":"html-button-response","trial_index":20,"time_elapsed":465909,"internal_node_id":"0.0-4.0-1.6","subject_id":"59da7e94416c900001ea5b52","study_id":"6197b3f67c2b5cd3b6d9596a","session_id":"6197b8916e909f8a6c3948f5","condition":"full-information","relevant_dimensions":["wings","pattern"],"bee_group":{"antennae":"X","wings":"2","pattern":"D","legs":"X"},"bonus":0.11999999999999994},{"rt":2854,"stimulus":"bees-with-color/bee-A1DM.svg","response":1,"trial_type":"image-button-response","trial_index":21,"time_elapsed":468765,"internal_node_id":"0.0-4.0-0.7","subject_id":"59da7e94416c900001ea5b52","study_id":"6197b3f67c2b5cd3b6d9596a","session_id":"6197b8916e909f8a6c3948f5","condition":"full-information","relevant_dimensions":["wings","pattern"],"bee_group":{"antennae":"X","wings":"2","pattern":"D","legs":"X"},"action":"avoid","summary":"bad-avoid","bonus":0.11999999999999994},{"rt":5606.399999976158,"stimulus":"\n                    <p><b>Action: <em>avoid</em></b></p>\n                    <p>This is the bee that you just saw.</p>\n                    <img src=\"bees-with-color/bee-A1DM.svg\" width=\"200\">\n                    <p><span class=\"redText\">Bad choice,</span> the bee was friendly.<br>Your bonus pay is unchanged, and remains at $0.50.</p>\n            ","response":0,"trial_type":"html-button-response","trial_index":22,"time_elapsed":474373,"internal_node_id":"0.0-4.0-1.7","subject_id":"59da7e94416c900001ea5b52","study_id":"6197b3f67c2b5cd3b6d9596a","session_id":"6197b8916e909f8a6c3948f5","condition":"full-information","relevant_dimensions":["wings","pattern"],"bee_group":{"antennae":"X","wings":"2","pattern":"D","legs":"X"},"bonus":0.11999999999999994},{"rt":1725.7999999523163,"stimulus":"bees-with-color/bee-B1DM.svg","response":1,"trial_type":"image-button-response","trial_index":23,"time_elapsed":476101,"internal_node_id":"0.0-4.0-0.8","subject_id":"59da7e94416c900001ea5b52","study_id":"6197b3f67c2b5cd3b6d9596a","session_id":"6197b8916e909f8a6c3948f5","condition":"full-information","relevant_dimensions":["wings","pattern"],"bee_group":{"antennae":"X","wings":"2","pattern":"D","legs":"X"},"action":"avoid","summary":"bad-avoid","bonus":0.11999999999999994},{"rt":4718.299999952316,"stimulus":"\n                    <p><b>Action: <em>avoid</em></b></p>\n                    <p>This is the bee that you just saw.</p>\n                    <img src=\"bees-with-color/bee-B1DM.svg\" width=\"200\">\n                    <p><span class=\"redText\">Bad choice,</span> the bee was friendly.<br>Your bonus pay is unchanged, and remains at $0.50.</p>\n            ","response":0,"trial_type":"html-button-response","trial_index":24,"time_elapsed":480821,"internal_node_id":"0.0-4.0-1.8","subject_id":"59da7e94416c900001ea5b52","study_id":"6197b3f67c2b5cd3b6d9596a","session_id":"6197b8916e909f8a6c3948f5","condition":"full-information","relevant_dimensions":["wings","pattern"],"bee_group":{"antennae":"X","wings":"2","pattern":"D","legs":"X"},"bonus":0.11999999999999994},{"rt":3878,"stimulus":"bees-with-color/bee-A2DF.svg","response":0,"trial_type":"image-button-response","trial_index":25,"time_elapsed":484702,"internal_node_id":"0.0-4.0-0.9","subject_id":"59da7e94416c900001ea5b52","study_id":"6197b3f67c2b5cd3b6d9596a","session_id":"6197b8916e909f8a6c3948f5","condition":"full-information","relevant_dimensions":["wings","pattern"],"bee_group":{"antennae":"X","wings":"2","pattern":"D","legs":"X"},"action":"harvest","summary":"bad-harvest","bonus":0.11999999999999994},{"rt":3077.600000023842,"stimulus":"\n                    <p><b>Action: <em>harvest</em></b></p>\n                    <p>This is the bee that you just saw.</p>\n                    <img src=\"bees-with-color/bee-A2DF.svg\" width=\"200\">\n                    <p><span class=\"redText\">Bad choice, the bee was angry.</span><br><b>You have been stung!</b><br>Your pay has been decreased by $0.10. Your bonus pay is now $0.40.</p>\n            ","response":0,"trial_type":"html-button-response","trial_index":26,"time_elapsed":487782,"internal_node_id":"0.0-4.0-1.9","subject_id":"59da7e94416c900001ea5b52","study_id":"6197b3f67c2b5cd3b6d9596a","session_id":"6197b8916e909f8a6c3948f5","condition":"full-information","relevant_dimensions":["wings","pattern"],"bee_group":{"antennae":"X","wings":"2","pattern":"D","legs":"X"},"bonus":0.11999999999999994},{"rt":4198,"stimulus":"bees-with-color/bee-A2DM.svg","response":1,"trial_type":"image-button-response","trial_index":27,"time_elapsed":491982,"internal_node_id":"0.0-4.0-0.10","subject_id":"59da7e94416c900001ea5b52","study_id":"6197b3f67c2b5cd3b6d9596a","session_id":"6197b8916e909f8a6c3948f5","condition":"full-information","relevant_dimensions":["wings","pattern"],"bee_group":{"antennae":"X","wings":"2","pattern":"D","legs":"X"},"action":"avoid","summary":"good-avoid","bonus":0.11999999999999994},{"rt":1918.1999999284744,"stimulus":"\n                    <p><b>Action: <em>avoid</em></b></p>\n                    <p>This is the bee that you just saw.</p>\n                    <img src=\"bees-with-color/bee-A2DM.svg\" width=\"200\">\n                    <p><span class=\"greenText\">Good choice!</span>  This bee would have stung you.<br>Your bonus pay is unchanged, and remains at $0.40.</p>\n            ","response":0,"trial_type":"html-button-response","trial_index":28,"time_elapsed":493902,"internal_node_id":"0.0-4.0-1.10","subject_id":"59da7e94416c900001ea5b52","study_id":"6197b3f67c2b5cd3b6d9596a","session_id":"6197b8916e909f8a6c3948f5","condition":"full-information","relevant_dimensions":["wings","pattern"],"bee_group":{"antennae":"X","wings":"2","pattern":"D","legs":"X"},"bonus":0.11999999999999994},{"rt":1830.1000000238419,"stimulus":"bees-with-color/bee-A1DF.svg","response":0,"trial_type":"image-button-response","trial_index":29,"time_elapsed":495734,"internal_node_id":"0.0-4.0-0.11","subject_id":"59da7e94416c900001ea5b52","study_id":"6197b3f67c2b5cd3b6d9596a","session_id":"6197b8916e909f8a6c3948f5","condition":"full-information","relevant_dimensions":["wings","pattern"],"bee_group":{"antennae":"X","wings":"2","pattern":"D","legs":"X"},"action":"harvest","summary":"good-harvest","bonus":0.11999999999999994},{"rt":1606.2999999523163,"stimulus":"\n                    <p><b>Action: <em>harvest</em></b></p>\n                    <p>This is the bee that you just saw.</p>\n                    <img src=\"bees-with-color/bee-A1DF.svg\" width=\"200\">\n                    <p><span class=\"greenText\"><b>Successful harvest!</b></span><br>Your pay has increased by $0.02. Your bonus pay is now $0.42.</p>\n            ","response":0,"trial_type":"html-button-response","trial_index":30,"time_elapsed":497342,"internal_node_id":"0.0-4.0-1.11","subject_id":"59da7e94416c900001ea5b52","study_id":"6197b3f67c2b5cd3b6d9596a","session_id":"6197b8916e909f8a6c3948f5","condition":"full-information","relevant_dimensions":["wings","pattern"],"bee_group":{"antennae":"X","wings":"2","pattern":"D","legs":"X"},"bonus":0.11999999999999994},{"rt":2574.399999976158,"stimulus":"bees-with-color/bee-A1SM.svg","response":1,"trial_type":"image-button-response","trial_index":31,"time_elapsed":499918,"internal_node_id":"0.0-4.0-0.12","subject_id":"59da7e94416c900001ea5b52","study_id":"6197b3f67c2b5cd3b6d9596a","session_id":"6197b8916e909f8a6c3948f5","condition":"full-information","relevant_dimensions":["wings","pattern"],"bee_group":{"antennae":"X","wings":"2","pattern":"D","legs":"X"},"action":"avoid","summary":"bad-avoid","bonus":0.11999999999999994},{"rt":1974.3999999761581,"stimulus":"\n                    <p><b>Action: <em>avoid</em></b></p>\n                    <p>This is the bee that you just saw.</p>\n                    <img src=\"bees-with-color/bee-A1SM.svg\" width=\"200\">\n                    <p><span class=\"redText\">Bad choice,</span> the bee was friendly.<br>Your bonus pay is unchanged, and remains at $0.42.</p>\n            ","response":0,"trial_type":"html-button-response","trial_index":32,"time_elapsed":501894,"internal_node_id":"0.0-4.0-1.12","subject_id":"59da7e94416c900001ea5b52","study_id":"6197b3f67c2b5cd3b6d9596a","session_id":"6197b8916e909f8a6c3948f5","condition":"full-information","relevant_dimensions":["wings","pattern"],"bee_group":{"antennae":"X","wings":"2","pattern":"D","legs":"X"},"bonus":0.11999999999999994},{"rt":3614.399999976158,"stimulus":"bees-with-color/bee-B1SM.svg","response":1,"trial_type":"image-button-response","trial_index":33,"time_elapsed":505510,"internal_node_id":"0.0-4.0-0.13","subject_id":"59da7e94416c900001ea5b52","study_id":"6197b3f67c2b5cd3b6d9596a","session_id":"6197b8916e909f8a6c3948f5","condition":"full-information","relevant_dimensions":["wings","pattern"],"bee_group":{"antennae":"X","wings":"2","pattern":"D","legs":"X"},"action":"avoid","summary":"bad-avoid","bonus":0.11999999999999994},{"rt":2006.5,"stimulus":"\n                    <p><b>Action: <em>avoid</em></b></p>\n                    <p>This is the bee that you just saw.</p>\n                    <img src=\"bees-with-color/bee-B1SM.svg\" width=\"200\">\n                    <p><span class=\"redText\">Bad choice,</span> the bee was friendly.<br>Your bonus pay is unchanged, and remains at $0.42.</p>\n            ","response":0,"trial_type":"html-button-response","trial_index":34,"time_elapsed":507518,"internal_node_id":"0.0-4.0-1.13","subject_id":"59da7e94416c900001ea5b52","study_id":"6197b3f67c2b5cd3b6d9596a","session_id":"6197b8916e909f8a6c3948f5","condition":"full-information","relevant_dimensions":["wings","pattern"],"bee_group":{"antennae":"X","wings":"2","pattern":"D","legs":"X"},"bonus":0.11999999999999994},{"rt":6622.199999928474,"stimulus":"bees-with-color/bee-B1SF.svg","response":0,"trial_type":"image-button-response","trial_index":35,"time_elapsed":514142,"internal_node_id":"0.0-4.0-0.14","subject_id":"59da7e94416c900001ea5b52","study_id":"6197b3f67c2b5cd3b6d9596a","session_id":"6197b8916e909f8a6c3948f5","condition":"full-information","relevant_dimensions":["wings","pattern"],"bee_group":{"antennae":"X","wings":"2","pattern":"D","legs":"X"},"action":"harvest","summary":"good-harvest","bonus":0.11999999999999994},{"rt":1694.3999999761581,"stimulus":"\n                    <p><b>Action: <em>harvest</em></b></p>\n                    <p>This is the bee that you just saw.</p>\n                    <img src=\"bees-with-color/bee-B1SF.svg\" width=\"200\">\n                    <p><span class=\"greenText\"><b>Successful harvest!</b></span><br>Your pay has increased by $0.02. Your bonus pay is now $0.44.</p>\n            ","response":0,"trial_type":"html-button-response","trial_index":36,"time_elapsed":515838,"internal_node_id":"0.0-4.0-1.14","subject_id":"59da7e94416c900001ea5b52","study_id":"6197b3f67c2b5cd3b6d9596a","session_id":"6197b8916e909f8a6c3948f5","condition":"full-information","relevant_dimensions":["wings","pattern"],"bee_group":{"antennae":"X","wings":"2","pattern":"D","legs":"X"},"bonus":0.11999999999999994},{"rt":7630.5,"stimulus":"bees-with-color/bee-B2SM.svg","response":0,"trial_type":"image-button-response","trial_index":37,"time_elapsed":523470,"internal_node_id":"0.0-4.0-0.15","subject_id":"59da7e94416c900001ea5b52","study_id":"6197b3f67c2b5cd3b6d9596a","session_id":"6197b8916e909f8a6c3948f5","condition":"full-information","relevant_dimensions":["wings","pattern"],"bee_group":{"antennae":"X","wings":"2","pattern":"D","legs":"X"},"action":"harvest","summary":"good-harvest","bonus":0.11999999999999994},{"rt":1598.7999999523163,"stimulus":"\n                    <p><b>Action: <em>harvest</em></b></p>\n                    <p>This is the bee that you just saw.</p>\n                    <img src=\"bees-with-color/bee-B2SM.svg\" width=\"200\">\n                    <p><span class=\"greenText\"><b>Successful harvest!</b></span><br>Your pay has increased by $0.02. Your bonus pay is now $0.46.</p>\n            ","response":0,"trial_type":"html-button-response","trial_index":38,"time_elapsed":525070,"internal_node_id":"0.0-4.0-1.15","subject_id":"59da7e94416c900001ea5b52","study_id":"6197b3f67c2b5cd3b6d9596a","session_id":"6197b8916e909f8a6c3948f5","condition":"full-information","relevant_dimensions":["wings","pattern"],"bee_group":{"antennae":"X","wings":"2","pattern":"D","legs":"X"},"bonus":0.11999999999999994},{"rt":3638.399999976158,"stimulus":"bees-with-color/bee-A2DF.svg","response":0,"trial_type":"image-button-response","trial_index":39,"time_elapsed":528710,"internal_node_id":"0.0-4.0-0.16","subject_id":"59da7e94416c900001ea5b52","study_id":"6197b3f67c2b5cd3b6d9596a","session_id":"6197b8916e909f8a6c3948f5","condition":"full-information","relevant_dimensions":["wings","pattern"],"bee_group":{"antennae":"X","wings":"2","pattern":"D","legs":"X"},"action":"harvest","summary":"bad-harvest","bonus":0.11999999999999994},{"rt":1870.3999999761581,"stimulus":"\n                    <p><b>Action: <em>harvest</em></b></p>\n                    <p>This is the bee that you just saw.</p>\n                    <img src=\"bees-with-color/bee-A2DF.svg\" width=\"200\">\n                    <p><span class=\"redText\">Bad choice, the bee was angry.</span><br><b>You have been stung!</b><br>Your pay has been decreased by $0.10. Your bonus pay is now $0.36.</p>\n            ","response":0,"trial_type":"html-button-response","trial_index":40,"time_elapsed":530582,"internal_node_id":"0.0-4.0-1.16","subject_id":"59da7e94416c900001ea5b52","study_id":"6197b3f67c2b5cd3b6d9596a","session_id":"6197b8916e909f8a6c3948f5","condition":"full-information","relevant_dimensions":["wings","pattern"],"bee_group":{"antennae":"X","wings":"2","pattern":"D","legs":"X"},"bonus":0.11999999999999994},{"rt":3998.600000023842,"stimulus":"bees-with-color/bee-A1SM.svg","response":1,"trial_type":"image-button-response","trial_index":41,"time_elapsed":534582,"internal_node_id":"0.0-4.0-0.17","subject_id":"59da7e94416c900001ea5b52","study_id":"6197b3f67c2b5cd3b6d9596a","session_id":"6197b8916e909f8a6c3948f5","condition":"full-information","relevant_dimensions":["wings","pattern"],"bee_group":{"antennae":"X","wings":"2","pattern":"D","legs":"X"},"action":"avoid","summary":"bad-avoid","bonus":0.11999999999999994},{"rt":1478.6999999284744,"stimulus":"\n                    <p><b>Action: <em>avoid</em></b></p>\n                    <p>This is the bee that you just saw.</p>\n                    <img src=\"bees-with-color/bee-A1SM.svg\" width=\"200\">\n                    <p><span class=\"redText\">Bad choice,</span> the bee was friendly.<br>Your bonus pay is unchanged, and remains at $0.36.</p>\n            ","response":0,"trial_type":"html-button-response","trial_index":42,"time_elapsed":536062,"internal_node_id":"0.0-4.0-1.17","subject_id":"59da7e94416c900001ea5b52","study_id":"6197b3f67c2b5cd3b6d9596a","session_id":"6197b8916e909f8a6c3948f5","condition":"full-information","relevant_dimensions":["wings","pattern"],"bee_group":{"antennae":"X","wings":"2","pattern":"D","legs":"X"},"bonus":0.11999999999999994},{"rt":4670.5,"stimulus":"bees-with-color/bee-A2SF.svg","response":0,"trial_type":"image-button-response","trial_index":43,"time_elapsed":540734,"internal_node_id":"0.0-4.0-0.18","subject_id":"59da7e94416c900001ea5b52","study_id":"6197b3f67c2b5cd3b6d9596a","session_id":"6197b8916e909f8a6c3948f5","condition":"full-information","relevant_dimensions":["wings","pattern"],"bee_group":{"antennae":"X","wings":"2","pattern":"D","legs":"X"},"action":"harvest","summary":"good-harvest","bonus":0.11999999999999994},{"rt":1334.7999999523163,"stimulus":"\n                    <p><b>Action: <em>harvest</em></b></p>\n                    <p>This is the bee that you just saw.</p>\n                    <img src=\"bees-with-color/bee-A2SF.svg\" width=\"200\">\n                    <p><span class=\"greenText\"><b>Successful harvest!</b></span><br>Your pay has increased by $0.02. Your bonus pay is now $0.38.</p>\n            ","response":0,"trial_type":"html-button-response","trial_index":44,"time_elapsed":542070,"internal_node_id":"0.0-4.0-1.18","subject_id":"59da7e94416c900001ea5b52","study_id":"6197b3f67c2b5cd3b6d9596a","session_id":"6197b8916e909f8a6c3948f5","condition":"full-information","relevant_dimensions":["wings","pattern"],"bee_group":{"antennae":"X","wings":"2","pattern":"D","legs":"X"},"bonus":0.11999999999999994},{"rt":2622.5,"stimulus":"bees-with-color/bee-B1SM.svg","response":1,"trial_type":"image-button-response","trial_index":45,"time_elapsed":544694,"internal_node_id":"0.0-4.0-0.19","subject_id":"59da7e94416c900001ea5b52","study_id":"6197b3f67c2b5cd3b6d9596a","session_id":"6197b8916e909f8a6c3948f5","condition":"full-information","relevant_dimensions":["wings","pattern"],"bee_group":{"antennae":"X","wings":"2","pattern":"D","legs":"X"},"action":"avoid","summary":"bad-avoid","bonus":0.11999999999999994},{"rt":1463.2000000476837,"stimulus":"\n                    <p><b>Action: <em>avoid</em></b></p>\n                    <p>This is the bee that you just saw.</p>\n                    <img src=\"bees-with-color/bee-B1SM.svg\" width=\"200\">\n                    <p><span class=\"redText\">Bad choice,</span> the bee was friendly.<br>Your bonus pay is unchanged, and remains at $0.38.</p>\n            ","response":0,"trial_type":"html-button-response","trial_index":46,"time_elapsed":546158,"internal_node_id":"0.0-4.0-1.19","subject_id":"59da7e94416c900001ea5b52","study_id":"6197b3f67c2b5cd3b6d9596a","session_id":"6197b8916e909f8a6c3948f5","condition":"full-information","relevant_dimensions":["wings","pattern"],"bee_group":{"antennae":"X","wings":"2","pattern":"D","legs":"X"},"bonus":0.11999999999999994},{"rt":1942.3999999761581,"stimulus":"bees-with-color/bee-A2DM.svg","response":1,"trial_type":"image-button-response","trial_index":47,"time_elapsed":548102,"internal_node_id":"0.0-4.0-0.20","subject_id":"59da7e94416c900001ea5b52","study_id":"6197b3f67c2b5cd3b6d9596a","session_id":"6197b8916e909f8a6c3948f5","condition":"full-information","relevant_dimensions":["wings","pattern"],"bee_group":{"antennae":"X","wings":"2","pattern":"D","legs":"X"},"action":"avoid","summary":"good-avoid","bonus":0.11999999999999994},{"rt":1367.5999999046326,"stimulus":"\n                    <p><b>Action: <em>avoid</em></b></p>\n                    <p>This is the bee that you just saw.</p>\n                    <img src=\"bees-with-color/bee-A2DM.svg\" width=\"200\">\n                    <p><span class=\"greenText\">Good choice!</span>  This bee would have stung you.<br>Your bonus pay is unchanged, and remains at $0.38.</p>\n            ","response":0,"trial_type":"html-button-response","trial_index":48,"time_elapsed":549471,"internal_node_id":"0.0-4.0-1.20","subject_id":"59da7e94416c900001ea5b52","study_id":"6197b3f67c2b5cd3b6d9596a","session_id":"6197b8916e909f8a6c3948f5","condition":"full-information","relevant_dimensions":["wings","pattern"],"bee_group":{"antennae":"X","wings":"2","pattern":"D","legs":"X"},"bonus":0.11999999999999994},{"rt":6741.599999904633,"stimulus":"bees-with-color/bee-B2SM.svg","response":1,"trial_type":"image-button-response","trial_index":49,"time_elapsed":556214,"internal_node_id":"0.0-4.0-0.21","subject_id":"59da7e94416c900001ea5b52","study_id":"6197b3f67c2b5cd3b6d9596a","session_id":"6197b8916e909f8a6c3948f5","condition":"full-information","relevant_dimensions":["wings","pattern"],"bee_group":{"antennae":"X","wings":"2","pattern":"D","legs":"X"},"action":"avoid","summary":"bad-avoid","bonus":0.11999999999999994},{"rt":1518.7999999523163,"stimulus":"\n                    <p><b>Action: <em>avoid</em></b></p>\n                    <p>This is the bee that you just saw.</p>\n                    <img src=\"bees-with-color/bee-B2SM.svg\" width=\"200\">\n                    <p><span class=\"redText\">Bad choice,</span> the bee was friendly.<br>Your bonus pay is unchanged, and remains at $0.38.</p>\n            ","response":0,"trial_type":"html-button-response","trial_index":50,"time_elapsed":557734,"internal_node_id":"0.0-4.0-1.21","subject_id":"59da7e94416c900001ea5b52","study_id":"6197b3f67c2b5cd3b6d9596a","session_id":"6197b8916e909f8a6c3948f5","condition":"full-information","relevant_dimensions":["wings","pattern"],"bee_group":{"antennae":"X","wings":"2","pattern":"D","legs":"X"},"bonus":0.11999999999999994},{"rt":1758.5,"stimulus":"bees-with-color/bee-A1SF.svg","response":0,"trial_type":"image-button-response","trial_index":51,"time_elapsed":559494,"internal_node_id":"0.0-4.0-0.22","subject_id":"59da7e94416c900001ea5b52","study_id":"6197b3f67c2b5cd3b6d9596a","session_id":"6197b8916e909f8a6c3948f5","condition":"full-information","relevant_dimensions":["wings","pattern"],"bee_group":{"antennae":"X","wings":"2","pattern":"D","legs":"X"},"action":"harvest","summary":"good-harvest","bonus":0.11999999999999994},{"rt":1350.6000000238419,"stimulus":"\n                    <p><b>Action: <em>harvest</em></b></p>\n                    <p>This is the bee that you just saw.</p>\n                    <img src=\"bees-with-color/bee-A1SF.svg\" width=\"200\">\n                    <p><span class=\"greenText\"><b>Successful harvest!</b></span><br>Your pay has increased by $0.02. Your bonus pay is now $0.40.</p>\n            ","response":0,"trial_type":"html-button-response","trial_index":52,"time_elapsed":560846,"internal_node_id":"0.0-4.0-1.22","subject_id":"59da7e94416c900001ea5b52","study_id":"6197b3f67c2b5cd3b6d9596a","session_id":"6197b8916e909f8a6c3948f5","condition":"full-information","relevant_dimensions":["wings","pattern"],"bee_group":{"antennae":"X","wings":"2","pattern":"D","legs":"X"},"bonus":0.11999999999999994},{"rt":2934.6999999284744,"stimulus":"bees-with-color/bee-A2SM.svg","response":1,"trial_type":"image-button-response","trial_index":53,"time_elapsed":563782,"internal_node_id":"0.0-4.0-0.23","subject_id":"59da7e94416c900001ea5b52","study_id":"6197b3f67c2b5cd3b6d9596a","session_id":"6197b8916e909f8a6c3948f5","condition":"full-information","relevant_dimensions":["wings","pattern"],"bee_group":{"antennae":"X","wings":"2","pattern":"D","legs":"X"},"action":"avoid","summary":"bad-avoid","bonus":0.11999999999999994},{"rt":1446.6000000238419,"stimulus":"\n                    <p><b>Action: <em>avoid</em></b></p>\n                    <p>This is the bee that you just saw.</p>\n                    <img src=\"bees-with-color/bee-A2SM.svg\" width=\"200\">\n                    <p><span class=\"redText\">Bad choice,</span> the bee was friendly.<br>Your bonus pay is unchanged, and remains at $0.40.</p>\n            ","response":0,"trial_type":"html-button-response","trial_index":54,"time_elapsed":565230,"internal_node_id":"0.0-4.0-1.23","subject_id":"59da7e94416c900001ea5b52","study_id":"6197b3f67c2b5cd3b6d9596a","session_id":"6197b8916e909f8a6c3948f5","condition":"full-information","relevant_dimensions":["wings","pattern"],"bee_group":{"antennae":"X","wings":"2","pattern":"D","legs":"X"},"bonus":0.11999999999999994},{"rt":4550.399999976158,"stimulus":"bees-with-color/bee-B1DM.svg","response":1,"trial_type":"image-button-response","trial_index":55,"time_elapsed":569782,"internal_node_id":"0.0-4.0-0.24","subject_id":"59da7e94416c900001ea5b52","study_id":"6197b3f67c2b5cd3b6d9596a","session_id":"6197b8916e909f8a6c3948f5","condition":"full-information","relevant_dimensions":["wings","pattern"],"bee_group":{"antennae":"X","wings":"2","pattern":"D","legs":"X"},"action":"avoid","summary":"bad-avoid","bonus":0.11999999999999994},{"rt":2358,"stimulus":"\n                    <p><b>Action: <em>avoid</em></b></p>\n                    <p>This is the bee that you just saw.</p>\n                    <img src=\"bees-with-color/bee-B1DM.svg\" width=\"200\">\n                    <p><span class=\"redText\">Bad choice,</span> the bee was friendly.<br>Your bonus pay is unchanged, and remains at $0.40.</p>\n            ","response":0,"trial_type":"html-button-response","trial_index":56,"time_elapsed":572142,"internal_node_id":"0.0-4.0-1.24","subject_id":"59da7e94416c900001ea5b52","study_id":"6197b3f67c2b5cd3b6d9596a","session_id":"6197b8916e909f8a6c3948f5","condition":"full-information","relevant_dimensions":["wings","pattern"],"bee_group":{"antennae":"X","wings":"2","pattern":"D","legs":"X"},"bonus":0.11999999999999994},{"rt":5014.199999928474,"stimulus":"bees-with-color/bee-B1SF.svg","response":0,"trial_type":"image-button-response","trial_index":57,"time_elapsed":577158,"internal_node_id":"0.0-4.0-0.25","subject_id":"59da7e94416c900001ea5b52","study_id":"6197b3f67c2b5cd3b6d9596a","session_id":"6197b8916e909f8a6c3948f5","condition":"full-information","relevant_dimensions":["wings","pattern"],"bee_group":{"antennae":"X","wings":"2","pattern":"D","legs":"X"},"action":"harvest","summary":"good-harvest","bonus":0.11999999999999994},{"rt":1238.8000000715256,"stimulus":"\n                    <p><b>Action: <em>harvest</em></b></p>\n                    <p>This is the bee that you just saw.</p>\n                    <img src=\"bees-with-color/bee-B1SF.svg\" width=\"200\">\n                    <p><span class=\"greenText\"><b>Successful harvest!</b></span><br>Your pay has increased by $0.02. Your bonus pay is now $0.42.</p>\n            ","response":0,"trial_type":"html-button-response","trial_index":58,"time_elapsed":578398,"internal_node_id":"0.0-4.0-1.25","subject_id":"59da7e94416c900001ea5b52","study_id":"6197b3f67c2b5cd3b6d9596a","session_id":"6197b8916e909f8a6c3948f5","condition":"full-information","relevant_dimensions":["wings","pattern"],"bee_group":{"antennae":"X","wings":"2","pattern":"D","legs":"X"},"bonus":0.11999999999999994},{"rt":5511,"stimulus":"bees-with-color/bee-B2DF.svg","response":0,"trial_type":"image-button-response","trial_index":59,"time_elapsed":583910,"internal_node_id":"0.0-4.0-0.26","subject_id":"59da7e94416c900001ea5b52","study_id":"6197b3f67c2b5cd3b6d9596a","session_id":"6197b8916e909f8a6c3948f5","condition":"full-information","relevant_dimensions":["wings","pattern"],"bee_group":{"antennae":"X","wings":"2","pattern":"D","legs":"X"},"action":"harvest","summary":"bad-harvest","bonus":0.11999999999999994},{"rt":1575,"stimulus":"\n                    <p><b>Action: <em>harvest</em></b></p>\n                    <p>This is the bee that you just saw.</p>\n                    <img src=\"bees-with-color/bee-B2DF.svg\" width=\"200\">\n                    <p><span class=\"redText\">Bad choice, the bee was angry.</span><br><b>You have been stung!</b><br>Your pay has been decreased by $0.10. Your bonus pay is now $0.32.</p>\n            ","response":0,"trial_type":"html-button-response","trial_index":60,"time_elapsed":585486,"internal_node_id":"0.0-4.0-1.26","subject_id":"59da7e94416c900001ea5b52","study_id":"6197b3f67c2b5cd3b6d9596a","session_id":"6197b8916e909f8a6c3948f5","condition":"full-information","relevant_dimensions":["wings","pattern"],"bee_group":{"antennae":"X","wings":"2","pattern":"D","legs":"X"},"bonus":0.11999999999999994},{"rt":2958.6999999284744,"stimulus":"bees-with-color/bee-A1DF.svg","response":0,"trial_type":"image-button-response","trial_index":61,"time_elapsed":588446,"internal_node_id":"0.0-4.0-0.27","subject_id":"59da7e94416c900001ea5b52","study_id":"6197b3f67c2b5cd3b6d9596a","session_id":"6197b8916e909f8a6c3948f5","condition":"full-information","relevant_dimensions":["wings","pattern"],"bee_group":{"antennae":"X","wings":"2","pattern":"D","legs":"X"},"action":"harvest","summary":"good-harvest","bonus":0.11999999999999994},{"rt":1303.7000000476837,"stimulus":"\n                    <p><b>Action: <em>harvest</em></b></p>\n                    <p>This is the bee that you just saw.</p>\n                    <img src=\"bees-with-color/bee-A1DF.svg\" width=\"200\">\n                    <p><span class=\"greenText\"><b>Successful harvest!</b></span><br>Your pay has increased by $0.02. Your bonus pay is now $0.34.</p>\n            ","response":0,"trial_type":"html-button-response","trial_index":62,"time_elapsed":589751,"internal_node_id":"0.0-4.0-1.27","subject_id":"59da7e94416c900001ea5b52","study_id":"6197b3f67c2b5cd3b6d9596a","session_id":"6197b8916e909f8a6c3948f5","condition":"full-information","relevant_dimensions":["wings","pattern"],"bee_group":{"antennae":"X","wings":"2","pattern":"D","legs":"X"},"bonus":0.11999999999999994},{"rt":4014.100000023842,"stimulus":"bees-with-color/bee-B2SF.svg","response":1,"trial_type":"image-button-response","trial_index":63,"time_elapsed":593766,"internal_node_id":"0.0-4.0-0.28","subject_id":"59da7e94416c900001ea5b52","study_id":"6197b3f67c2b5cd3b6d9596a","session_id":"6197b8916e909f8a6c3948f5","condition":"full-information","relevant_dimensions":["wings","pattern"],"bee_group":{"antennae":"X","wings":"2","pattern":"D","legs":"X"},"action":"avoid","summary":"bad-avoid","bonus":0.11999999999999994},{"rt":1334.8999999761581,"stimulus":"\n                    <p><b>Action: <em>avoid</em></b></p>\n                    <p>This is the bee that you just saw.</p>\n                    <img src=\"bees-with-color/bee-B2SF.svg\" width=\"200\">\n                    <p><span class=\"redText\">Bad choice,</span> the bee was friendly.<br>Your bonus pay is unchanged, and remains at $0.34.</p>\n            ","response":0,"trial_type":"html-button-response","trial_index":64,"time_elapsed":595102,"internal_node_id":"0.0-4.0-1.28","subject_id":"59da7e94416c900001ea5b52","study_id":"6197b3f67c2b5cd3b6d9596a","session_id":"6197b8916e909f8a6c3948f5","condition":"full-information","relevant_dimensions":["wings","pattern"],"bee_group":{"antennae":"X","wings":"2","pattern":"D","legs":"X"},"bonus":0.11999999999999994},{"rt":2742.5999999046326,"stimulus":"bees-with-color/bee-B1DF.svg","response":1,"trial_type":"image-button-response","trial_index":65,"time_elapsed":597846,"internal_node_id":"0.0-4.0-0.29","subject_id":"59da7e94416c900001ea5b52","study_id":"6197b3f67c2b5cd3b6d9596a","session_id":"6197b8916e909f8a6c3948f5","condition":"full-information","relevant_dimensions":["wings","pattern"],"bee_group":{"antennae":"X","wings":"2","pattern":"D","legs":"X"},"action":"avoid","summary":"bad-avoid","bonus":0.11999999999999994},{"rt":1294.8999999761581,"stimulus":"\n                    <p><b>Action: <em>avoid</em></b></p>\n                    <p>This is the bee that you just saw.</p>\n                    <img src=\"bees-with-color/bee-B1DF.svg\" width=\"200\">\n                    <p><span class=\"redText\">Bad choice,</span> the bee was friendly.<br>Your bonus pay is unchanged, and remains at $0.34.</p>\n            ","response":0,"trial_type":"html-button-response","trial_index":66,"time_elapsed":599142,"internal_node_id":"0.0-4.0-1.29","subject_id":"59da7e94416c900001ea5b52","study_id":"6197b3f67c2b5cd3b6d9596a","session_id":"6197b8916e909f8a6c3948f5","condition":"full-information","relevant_dimensions":["wings","pattern"],"bee_group":{"antennae":"X","wings":"2","pattern":"D","legs":"X"},"bonus":0.11999999999999994},{"rt":1678.6999999284744,"stimulus":"bees-with-color/bee-A1DM.svg","response":1,"trial_type":"image-button-response","trial_index":67,"time_elapsed":600822,"internal_node_id":"0.0-4.0-0.30","subject_id":"59da7e94416c900001ea5b52","study_id":"6197b3f67c2b5cd3b6d9596a","session_id":"6197b8916e909f8a6c3948f5","condition":"full-information","relevant_dimensions":["wings","pattern"],"bee_group":{"antennae":"X","wings":"2","pattern":"D","legs":"X"},"action":"avoid","summary":"bad-avoid","bonus":0.11999999999999994},{"rt":1566.6000000238419,"stimulus":"\n                    <p><b>Action: <em>avoid</em></b></p>\n                    <p>This is the bee that you just saw.</p>\n                    <img src=\"bees-with-color/bee-A1DM.svg\" width=\"200\">\n                    <p><span class=\"redText\">Bad choice,</span> the bee was friendly.<br>Your bonus pay is unchanged, and remains at $0.34.</p>\n            ","response":0,"trial_type":"html-button-response","trial_index":68,"time_elapsed":602390,"internal_node_id":"0.0-4.0-1.30","subject_id":"59da7e94416c900001ea5b52","study_id":"6197b3f67c2b5cd3b6d9596a","session_id":"6197b8916e909f8a6c3948f5","condition":"full-information","relevant_dimensions":["wings","pattern"],"bee_group":{"antennae":"X","wings":"2","pattern":"D","legs":"X"},"bonus":0.11999999999999994},{"rt":1838.7999999523163,"stimulus":"bees-with-color/bee-B2DM.svg","response":1,"trial_type":"image-button-response","trial_index":69,"time_elapsed":604230,"internal_node_id":"0.0-4.0-0.31","subject_id":"59da7e94416c900001ea5b52","study_id":"6197b3f67c2b5cd3b6d9596a","session_id":"6197b8916e909f8a6c3948f5","condition":"full-information","relevant_dimensions":["wings","pattern"],"bee_group":{"antennae":"X","wings":"2","pattern":"D","legs":"X"},"action":"avoid","summary":"good-avoid","bonus":0.11999999999999994},{"rt":1694.7999999523163,"stimulus":"\n                    <p><b>Action: <em>avoid</em></b></p>\n                    <p>This is the bee that you just saw.</p>\n                    <img src=\"bees-with-color/bee-B2DM.svg\" width=\"200\">\n                    <p><span class=\"greenText\">Good choice!</span>  This bee would have stung you.<br>Your bonus pay is unchanged, and remains at $0.34.</p>\n            ","response":0,"trial_type":"html-button-response","trial_index":70,"time_elapsed":605926,"internal_node_id":"0.0-4.0-1.31","subject_id":"59da7e94416c900001ea5b52","study_id":"6197b3f67c2b5cd3b6d9596a","session_id":"6197b8916e909f8a6c3948f5","condition":"full-information","relevant_dimensions":["wings","pattern"],"bee_group":{"antennae":"X","wings":"2","pattern":"D","legs":"X"},"bonus":0.11999999999999994},{"rt":2183,"stimulus":"bees-with-color/bee-B1SM.svg","response":0,"trial_type":"image-button-response","trial_index":71,"time_elapsed":608110,"internal_node_id":"0.0-4.0-0.32","subject_id":"59da7e94416c900001ea5b52","study_id":"6197b3f67c2b5cd3b6d9596a","session_id":"6197b8916e909f8a6c3948f5","condition":"full-information","relevant_dimensions":["wings","pattern"],"bee_group":{"antennae":"X","wings":"2","pattern":"D","legs":"X"},"action":"harvest","summary":"good-harvest","bonus":0.11999999999999994},{"rt":1158.7000000476837,"stimulus":"\n                    <p><b>Action: <em>harvest</em></b></p>\n                    <p>This is the bee that you just saw.</p>\n                    <img src=\"bees-with-color/bee-B1SM.svg\" width=\"200\">\n                    <p><span class=\"greenText\"><b>Successful harvest!</b></span><br>Your pay has increased by $0.02. Your bonus pay is now $0.36.</p>\n            ","response":0,"trial_type":"html-button-response","trial_index":72,"time_elapsed":609270,"internal_node_id":"0.0-4.0-1.32","subject_id":"59da7e94416c900001ea5b52","study_id":"6197b3f67c2b5cd3b6d9596a","session_id":"6197b8916e909f8a6c3948f5","condition":"full-information","relevant_dimensions":["wings","pattern"],"bee_group":{"antennae":"X","wings":"2","pattern":"D","legs":"X"},"bonus":0.11999999999999994},{"rt":14830.600000023842,"stimulus":"bees-with-color/bee-A1SM.svg","response":1,"trial_type":"image-button-response","trial_index":73,"time_elapsed":624102,"internal_node_id":"0.0-4.0-0.33","subject_id":"59da7e94416c900001ea5b52","study_id":"6197b3f67c2b5cd3b6d9596a","session_id":"6197b8916e909f8a6c3948f5","condition":"full-information","relevant_dimensions":["wings","pattern"],"bee_group":{"antennae":"X","wings":"2","pattern":"D","legs":"X"},"action":"avoid","summary":"bad-avoid","bonus":0.11999999999999994},{"rt":1222.6999999284744,"stimulus":"\n                    <p><b>Action: <em>avoid</em></b></p>\n                    <p>This is the bee that you just saw.</p>\n                    <img src=\"bees-with-color/bee-A1SM.svg\" width=\"200\">\n                    <p><span class=\"redText\">Bad choice,</span> the bee was friendly.<br>Your bonus pay is unchanged, and remains at $0.36.</p>\n            ","response":0,"trial_type":"html-button-response","trial_index":74,"time_elapsed":625326,"internal_node_id":"0.0-4.0-1.33","subject_id":"59da7e94416c900001ea5b52","study_id":"6197b3f67c2b5cd3b6d9596a","session_id":"6197b8916e909f8a6c3948f5","condition":"full-information","relevant_dimensions":["wings","pattern"],"bee_group":{"antennae":"X","wings":"2","pattern":"D","legs":"X"},"bonus":0.11999999999999994},{"rt":3390.3000000715256,"stimulus":"bees-with-color/bee-A1SF.svg","response":0,"trial_type":"image-button-response","trial_index":75,"time_elapsed":628718,"internal_node_id":"0.0-4.0-0.34","subject_id":"59da7e94416c900001ea5b52","study_id":"6197b3f67c2b5cd3b6d9596a","session_id":"6197b8916e909f8a6c3948f5","condition":"full-information","relevant_dimensions":["wings","pattern"],"bee_group":{"antennae":"X","wings":"2","pattern":"D","legs":"X"},"action":"harvest","summary":"good-harvest","bonus":0.11999999999999994},{"rt":1446.6000000238419,"stimulus":"\n                    <p><b>Action: <em>harvest</em></b></p>\n                    <p>This is the bee that you just saw.</p>\n                    <img src=\"bees-with-color/bee-A1SF.svg\" width=\"200\">\n                    <p><span class=\"greenText\"><b>Successful harvest!</b></span><br>Your pay has increased by $0.02. Your bonus pay is now $0.38.</p>\n            ","response":0,"trial_type":"html-button-response","trial_index":76,"time_elapsed":630166,"internal_node_id":"0.0-4.0-1.34","subject_id":"59da7e94416c900001ea5b52","study_id":"6197b3f67c2b5cd3b6d9596a","session_id":"6197b8916e909f8a6c3948f5","condition":"full-information","relevant_dimensions":["wings","pattern"],"bee_group":{"antennae":"X","wings":"2","pattern":"D","legs":"X"},"bonus":0.11999999999999994},{"rt":3590.5,"stimulus":"bees-with-color/bee-B2SF.svg","response":0,"trial_type":"image-button-response","trial_index":77,"time_elapsed":633758,"internal_node_id":"0.0-4.0-0.35","subject_id":"59da7e94416c900001ea5b52","study_id":"6197b3f67c2b5cd3b6d9596a","session_id":"6197b8916e909f8a6c3948f5","condition":"full-information","relevant_dimensions":["wings","pattern"],"bee_group":{"antennae":"X","wings":"2","pattern":"D","legs":"X"},"action":"harvest","summary":"good-harvest","bonus":0.11999999999999994},{"rt":942.6999999284744,"stimulus":"\n                    <p><b>Action: <em>harvest</em></b></p>\n                    <p>This is the bee that you just saw.</p>\n                    <img src=\"bees-with-color/bee-B2SF.svg\" width=\"200\">\n                    <p><span class=\"greenText\"><b>Successful harvest!</b></span><br>Your pay has increased by $0.02. Your bonus pay is now $0.40.</p>\n            ","response":0,"trial_type":"html-button-response","trial_index":78,"time_elapsed":634702,"internal_node_id":"0.0-4.0-1.35","subject_id":"59da7e94416c900001ea5b52","study_id":"6197b3f67c2b5cd3b6d9596a","session_id":"6197b8916e909f8a6c3948f5","condition":"full-information","relevant_dimensions":["wings","pattern"],"bee_group":{"antennae":"X","wings":"2","pattern":"D","legs":"X"},"bonus":0.11999999999999994},{"rt":5134.5,"stimulus":"bees-with-color/bee-B2DM.svg","response":1,"trial_type":"image-button-response","trial_index":79,"time_elapsed":639838,"internal_node_id":"0.0-4.0-0.36","subject_id":"59da7e94416c900001ea5b52","study_id":"6197b3f67c2b5cd3b6d9596a","session_id":"6197b8916e909f8a6c3948f5","condition":"full-information","relevant_dimensions":["wings","pattern"],"bee_group":{"antennae":"X","wings":"2","pattern":"D","legs":"X"},"action":"avoid","summary":"good-avoid","bonus":0.11999999999999994},{"rt":1102.5,"stimulus":"\n                    <p><b>Action: <em>avoid</em></b></p>\n                    <p>This is the bee that you just saw.</p>\n                    <img src=\"bees-with-color/bee-B2DM.svg\" width=\"200\">\n                    <p><span class=\"greenText\">Good choice!</span>  This bee would have stung you.<br>Your bonus pay is unchanged, and remains at $0.40.</p>\n            ","response":0,"trial_type":"html-button-response","trial_index":80,"time_elapsed":640942,"internal_node_id":"0.0-4.0-1.36","subject_id":"59da7e94416c900001ea5b52","study_id":"6197b3f67c2b5cd3b6d9596a","session_id":"6197b8916e909f8a6c3948f5","condition":"full-information","relevant_dimensions":["wings","pattern"],"bee_group":{"antennae":"X","wings":"2","pattern":"D","legs":"X"},"bonus":0.11999999999999994},{"rt":4510.299999952316,"stimulus":"bees-with-color/bee-B1DM.svg","response":0,"trial_type":"image-button-response","trial_index":81,"time_elapsed":645454,"internal_node_id":"0.0-4.0-0.37","subject_id":"59da7e94416c900001ea5b52","study_id":"6197b3f67c2b5cd3b6d9596a","session_id":"6197b8916e909f8a6c3948f5","condition":"full-information","relevant_dimensions":["wings","pattern"],"bee_group":{"antennae":"X","wings":"2","pattern":"D","legs":"X"},"action":"harvest","summary":"good-harvest","bonus":0.11999999999999994},{"rt":1014.4000000953674,"stimulus":"\n                    <p><b>Action: <em>harvest</em></b></p>\n                    <p>This is the bee that you just saw.</p>\n                    <img src=\"bees-with-color/bee-B1DM.svg\" width=\"200\">\n                    <p><span class=\"greenText\"><b>Successful harvest!</b></span><br>Your pay has increased by $0.02. Your bonus pay is now $0.42.</p>\n            ","response":0,"trial_type":"html-button-response","trial_index":82,"time_elapsed":646470,"internal_node_id":"0.0-4.0-1.37","subject_id":"59da7e94416c900001ea5b52","study_id":"6197b3f67c2b5cd3b6d9596a","session_id":"6197b8916e909f8a6c3948f5","condition":"full-information","relevant_dimensions":["wings","pattern"],"bee_group":{"antennae":"X","wings":"2","pattern":"D","legs":"X"},"bonus":0.11999999999999994},{"rt":2086.3000000715256,"stimulus":"bees-with-color/bee-B1DF.svg","response":0,"trial_type":"image-button-response","trial_index":83,"time_elapsed":648558,"internal_node_id":"0.0-4.0-0.38","subject_id":"59da7e94416c900001ea5b52","study_id":"6197b3f67c2b5cd3b6d9596a","session_id":"6197b8916e909f8a6c3948f5","condition":"full-information","relevant_dimensions":["wings","pattern"],"bee_group":{"antennae":"X","wings":"2","pattern":"D","legs":"X"},"action":"harvest","summary":"good-harvest","bonus":0.11999999999999994},{"rt":998.5999999046326,"stimulus":"\n                    <p><b>Action: <em>harvest</em></b></p>\n                    <p>This is the bee that you just saw.</p>\n                    <img src=\"bees-with-color/bee-B1DF.svg\" width=\"200\">\n                    <p><span class=\"greenText\"><b>Successful harvest!</b></span><br>Your pay has increased by $0.02. Your bonus pay is now $0.44.</p>\n            ","response":0,"trial_type":"html-button-response","trial_index":84,"time_elapsed":649558,"internal_node_id":"0.0-4.0-1.38","subject_id":"59da7e94416c900001ea5b52","study_id":"6197b3f67c2b5cd3b6d9596a","session_id":"6197b8916e909f8a6c3948f5","condition":"full-information","relevant_dimensions":["wings","pattern"],"bee_group":{"antennae":"X","wings":"2","pattern":"D","legs":"X"},"bonus":0.11999999999999994},{"rt":1870.4000000953674,"stimulus":"bees-with-color/bee-B2DF.svg","response":0,"trial_type":"image-button-response","trial_index":85,"time_elapsed":651430,"internal_node_id":"0.0-4.0-0.39","subject_id":"59da7e94416c900001ea5b52","study_id":"6197b3f67c2b5cd3b6d9596a","session_id":"6197b8916e909f8a6c3948f5","condition":"full-information","relevant_dimensions":["wings","pattern"],"bee_group":{"antennae":"X","wings":"2","pattern":"D","legs":"X"},"action":"harvest","summary":"bad-harvest","bonus":0.11999999999999994},{"rt":1286.5,"stimulus":"\n                    <p><b>Action: <em>harvest</em></b></p>\n                    <p>This is the bee that you just saw.</p>\n                    <img src=\"bees-with-color/bee-B2DF.svg\" width=\"200\">\n                    <p><span class=\"redText\">Bad choice, the bee was angry.</span><br><b>You have been stung!</b><br>Your pay has been decreased by $0.10. Your bonus pay is now $0.34.</p>\n            ","response":0,"trial_type":"html-button-response","trial_index":86,"time_elapsed":652718,"internal_node_id":"0.0-4.0-1.39","subject_id":"59da7e94416c900001ea5b52","study_id":"6197b3f67c2b5cd3b6d9596a","session_id":"6197b8916e909f8a6c3948f5","condition":"full-information","relevant_dimensions":["wings","pattern"],"bee_group":{"antennae":"X","wings":"2","pattern":"D","legs":"X"},"bonus":0.11999999999999994},{"rt":1599.1000000238419,"stimulus":"bees-with-color/bee-A2DF.svg","response":0,"trial_type":"image-button-response","trial_index":87,"time_elapsed":654318,"internal_node_id":"0.0-4.0-0.40","subject_id":"59da7e94416c900001ea5b52","study_id":"6197b3f67c2b5cd3b6d9596a","session_id":"6197b8916e909f8a6c3948f5","condition":"full-information","relevant_dimensions":["wings","pattern"],"bee_group":{"antennae":"X","wings":"2","pattern":"D","legs":"X"},"action":"harvest","summary":"bad-harvest","bonus":0.11999999999999994},{"rt":1222.9000000953674,"stimulus":"\n                    <p><b>Action: <em>harvest</em></b></p>\n                    <p>This is the bee that you just saw.</p>\n                    <img src=\"bees-with-color/bee-A2DF.svg\" width=\"200\">\n                    <p><span class=\"redText\">Bad choice, the bee was angry.</span><br><b>You have been stung!</b><br>Your pay has been decreased by $0.10. Your bonus pay is now $0.24.</p>\n            ","response":0,"trial_type":"html-button-response","trial_index":88,"time_elapsed":655542,"internal_node_id":"0.0-4.0-1.40","subject_id":"59da7e94416c900001ea5b52","study_id":"6197b3f67c2b5cd3b6d9596a","session_id":"6197b8916e909f8a6c3948f5","condition":"full-information","relevant_dimensions":["wings","pattern"],"bee_group":{"antennae":"X","wings":"2","pattern":"D","legs":"X"},"bonus":0.11999999999999994},{"rt":2014.8000000715256,"stimulus":"bees-with-color/bee-A2DM.svg","response":1,"trial_type":"image-button-response","trial_index":89,"time_elapsed":657558,"internal_node_id":"0.0-4.0-0.41","subject_id":"59da7e94416c900001ea5b52","study_id":"6197b3f67c2b5cd3b6d9596a","session_id":"6197b8916e909f8a6c3948f5","condition":"full-information","relevant_dimensions":["wings","pattern"],"bee_group":{"antennae":"X","wings":"2","pattern":"D","legs":"X"},"action":"avoid","summary":"good-avoid","bonus":0.11999999999999994},{"rt":1094.3999999761581,"stimulus":"\n                    <p><b>Action: <em>avoid</em></b></p>\n                    <p>This is the bee that you just saw.</p>\n                    <img src=\"bees-with-color/bee-A2DM.svg\" width=\"200\">\n                    <p><span class=\"greenText\">Good choice!</span>  This bee would have stung you.<br>Your bonus pay is unchanged, and remains at $0.24.</p>\n            ","response":0,"trial_type":"html-button-response","trial_index":90,"time_elapsed":658654,"internal_node_id":"0.0-4.0-1.41","subject_id":"59da7e94416c900001ea5b52","study_id":"6197b3f67c2b5cd3b6d9596a","session_id":"6197b8916e909f8a6c3948f5","condition":"full-information","relevant_dimensions":["wings","pattern"],"bee_group":{"antennae":"X","wings":"2","pattern":"D","legs":"X"},"bonus":0.11999999999999994},{"rt":3415.3000000715256,"stimulus":"bees-with-color/bee-A1DF.svg","response":0,"trial_type":"image-button-response","trial_index":91,"time_elapsed":662070,"internal_node_id":"0.0-4.0-0.42","subject_id":"59da7e94416c900001ea5b52","study_id":"6197b3f67c2b5cd3b6d9596a","session_id":"6197b8916e909f8a6c3948f5","condition":"full-information","relevant_dimensions":["wings","pattern"],"bee_group":{"antennae":"X","wings":"2","pattern":"D","legs":"X"},"action":"harvest","summary":"good-harvest","bonus":0.11999999999999994},{"rt":1142.6000000238419,"stimulus":"\n                    <p><b>Action: <em>harvest</em></b></p>\n                    <p>This is the bee that you just saw.</p>\n                    <img src=\"bees-with-color/bee-A1DF.svg\" width=\"200\">\n                    <p><span class=\"greenText\"><b>Successful harvest!</b></span><br>Your pay has increased by $0.02. Your bonus pay is now $0.26.</p>\n            ","response":0,"trial_type":"html-button-response","trial_index":92,"time_elapsed":663214,"internal_node_id":"0.0-4.0-1.42","subject_id":"59da7e94416c900001ea5b52","study_id":"6197b3f67c2b5cd3b6d9596a","session_id":"6197b8916e909f8a6c3948f5","condition":"full-information","relevant_dimensions":["wings","pattern"],"bee_group":{"antennae":"X","wings":"2","pattern":"D","legs":"X"},"bonus":0.11999999999999994},{"rt":6406.800000071526,"stimulus":"bees-with-color/bee-B1SF.svg","response":0,"trial_type":"image-button-response","trial_index":93,"time_elapsed":669621,"internal_node_id":"0.0-4.0-0.43","subject_id":"59da7e94416c900001ea5b52","study_id":"6197b3f67c2b5cd3b6d9596a","session_id":"6197b8916e909f8a6c3948f5","condition":"full-information","relevant_dimensions":["wings","pattern"],"bee_group":{"antennae":"X","wings":"2","pattern":"D","legs":"X"},"action":"harvest","summary":"good-harvest","bonus":0.11999999999999994},{"rt":1030.9000000953674,"stimulus":"\n                    <p><b>Action: <em>harvest</em></b></p>\n                    <p>This is the bee that you just saw.</p>\n                    <img src=\"bees-with-color/bee-B1SF.svg\" width=\"200\">\n                    <p><span class=\"greenText\"><b>Successful harvest!</b></span><br>Your pay has increased by $0.02. Your bonus pay is now $0.28.</p>\n            ","response":0,"trial_type":"html-button-response","trial_index":94,"time_elapsed":670653,"internal_node_id":"0.0-4.0-1.43","subject_id":"59da7e94416c900001ea5b52","study_id":"6197b3f67c2b5cd3b6d9596a","session_id":"6197b8916e909f8a6c3948f5","condition":"full-information","relevant_dimensions":["wings","pattern"],"bee_group":{"antennae":"X","wings":"2","pattern":"D","legs":"X"},"bonus":0.11999999999999994},{"rt":6390.600000023842,"stimulus":"bees-with-color/bee-A2SF.svg","response":0,"trial_type":"image-button-response","trial_index":95,"time_elapsed":677046,"internal_node_id":"0.0-4.0-0.44","subject_id":"59da7e94416c900001ea5b52","study_id":"6197b3f67c2b5cd3b6d9596a","session_id":"6197b8916e909f8a6c3948f5","condition":"full-information","relevant_dimensions":["wings","pattern"],"bee_group":{"antennae":"X","wings":"2","pattern":"D","legs":"X"},"action":"harvest","summary":"good-harvest","bonus":0.11999999999999994},{"rt":1614.7000000476837,"stimulus":"\n                    <p><b>Action: <em>harvest</em></b></p>\n                    <p>This is the bee that you just saw.</p>\n                    <img src=\"bees-with-color/bee-A2SF.svg\" width=\"200\">\n                    <p><span class=\"greenText\"><b>Successful harvest!</b></span><br>Your pay has increased by $0.02. Your bonus pay is now $0.30.</p>\n            ","response":0,"trial_type":"html-button-response","trial_index":96,"time_elapsed":678661,"internal_node_id":"0.0-4.0-1.44","subject_id":"59da7e94416c900001ea5b52","study_id":"6197b3f67c2b5cd3b6d9596a","session_id":"6197b8916e909f8a6c3948f5","condition":"full-information","relevant_dimensions":["wings","pattern"],"bee_group":{"antennae":"X","wings":"2","pattern":"D","legs":"X"},"bonus":0.11999999999999994},{"rt":9654.399999976158,"stimulus":"bees-with-color/bee-A1DM.svg","response":0,"trial_type":"image-button-response","trial_index":97,"time_elapsed":688318,"internal_node_id":"0.0-4.0-0.45","subject_id":"59da7e94416c900001ea5b52","study_id":"6197b3f67c2b5cd3b6d9596a","session_id":"6197b8916e909f8a6c3948f5","condition":"full-information","relevant_dimensions":["wings","pattern"],"bee_group":{"antennae":"X","wings":"2","pattern":"D","legs":"X"},"action":"harvest","summary":"good-harvest","bonus":0.11999999999999994},{"rt":1046.8000000715256,"stimulus":"\n                    <p><b>Action: <em>harvest</em></b></p>\n                    <p>This is the bee that you just saw.</p>\n                    <img src=\"bees-with-color/bee-A1DM.svg\" width=\"200\">\n                    <p><span class=\"greenText\"><b>Successful harvest!</b></span><br>Your pay has increased by $0.02. Your bonus pay is now $0.32.</p>\n            ","response":0,"trial_type":"html-button-response","trial_index":98,"time_elapsed":689366,"internal_node_id":"0.0-4.0-1.45","subject_id":"59da7e94416c900001ea5b52","study_id":"6197b3f67c2b5cd3b6d9596a","session_id":"6197b8916e909f8a6c3948f5","condition":"full-information","relevant_dimensions":["wings","pattern"],"bee_group":{"antennae":"X","wings":"2","pattern":"D","legs":"X"},"bonus":0.11999999999999994},{"rt":3734.5,"stimulus":"bees-with-color/bee-B2SM.svg","response":1,"trial_type":"image-button-response","trial_index":99,"time_elapsed":693102,"internal_node_id":"0.0-4.0-0.46","subject_id":"59da7e94416c900001ea5b52","study_id":"6197b3f67c2b5cd3b6d9596a","session_id":"6197b8916e909f8a6c3948f5","condition":"full-information","relevant_dimensions":["wings","pattern"],"bee_group":{"antennae":"X","wings":"2","pattern":"D","legs":"X"},"action":"avoid","summary":"bad-avoid","bonus":0.11999999999999994},{"rt":1318.6000000238419,"stimulus":"\n                    <p><b>Action: <em>avoid</em></b></p>\n                    <p>This is the bee that you just saw.</p>\n                    <img src=\"bees-with-color/bee-B2SM.svg\" width=\"200\">\n                    <p><span class=\"redText\">Bad choice,</span> the bee was friendly.<br>Your bonus pay is unchanged, and remains at $0.32.</p>\n            ","response":0,"trial_type":"html-button-response","trial_index":100,"time_elapsed":694421,"internal_node_id":"0.0-4.0-1.46","subject_id":"59da7e94416c900001ea5b52","study_id":"6197b3f67c2b5cd3b6d9596a","session_id":"6197b8916e909f8a6c3948f5","condition":"full-information","relevant_dimensions":["wings","pattern"],"bee_group":{"antennae":"X","wings":"2","pattern":"D","legs":"X"},"bonus":0.11999999999999994},{"rt":6454.600000023842,"stimulus":"bees-with-color/bee-A2SM.svg","response":0,"trial_type":"image-button-response","trial_index":101,"time_elapsed":700877,"internal_node_id":"0.0-4.0-0.47","subject_id":"59da7e94416c900001ea5b52","study_id":"6197b3f67c2b5cd3b6d9596a","session_id":"6197b8916e909f8a6c3948f5","condition":"full-information","relevant_dimensions":["wings","pattern"],"bee_group":{"antennae":"X","wings":"2","pattern":"D","legs":"X"},"action":"harvest","summary":"good-harvest","bonus":0.11999999999999994},{"rt":1230.8000000715256,"stimulus":"\n                    <p><b>Action: <em>harvest</em></b></p>\n                    <p>This is the bee that you just saw.</p>\n                    <img src=\"bees-with-color/bee-A2SM.svg\" width=\"200\">\n                    <p><span class=\"greenText\"><b>Successful harvest!</b></span><br>Your pay has increased by $0.02. Your bonus pay is now $0.34.</p>\n            ","response":0,"trial_type":"html-button-response","trial_index":102,"time_elapsed":702109,"internal_node_id":"0.0-4.0-1.47","subject_id":"59da7e94416c900001ea5b52","study_id":"6197b3f67c2b5cd3b6d9596a","session_id":"6197b8916e909f8a6c3948f5","condition":"full-information","relevant_dimensions":["wings","pattern"],"bee_group":{"antennae":"X","wings":"2","pattern":"D","legs":"X"},"bonus":0.11999999999999994},{"rt":4470.399999976158,"stimulus":"bees-with-color/bee-A1DF.svg","response":0,"trial_type":"image-button-response","trial_index":103,"time_elapsed":706581,"internal_node_id":"0.0-4.0-0.48","subject_id":"59da7e94416c900001ea5b52","study_id":"6197b3f67c2b5cd3b6d9596a","session_id":"6197b8916e909f8a6c3948f5","condition":"full-information","relevant_dimensions":["wings","pattern"],"bee_group":{"antennae":"X","wings":"2","pattern":"D","legs":"X"},"action":"harvest","summary":"good-harvest","bonus":0.11999999999999994},{"rt":1366.8000000715256,"stimulus":"\n                    <p><b>Action: <em>harvest</em></b></p>\n                    <p>This is the bee that you just saw.</p>\n                    <img src=\"bees-with-color/bee-A1DF.svg\" width=\"200\">\n                    <p><span class=\"greenText\"><b>Successful harvest!</b></span><br>Your pay has increased by $0.02. Your bonus pay is now $0.36.</p>\n            ","response":0,"trial_type":"html-button-response","trial_index":104,"time_elapsed":707950,"internal_node_id":"0.0-4.0-1.48","subject_id":"59da7e94416c900001ea5b52","study_id":"6197b3f67c2b5cd3b6d9596a","session_id":"6197b8916e909f8a6c3948f5","condition":"full-information","relevant_dimensions":["wings","pattern"],"bee_group":{"antennae":"X","wings":"2","pattern":"D","legs":"X"},"bonus":0.11999999999999994},{"rt":2806.5,"stimulus":"bees-with-color/bee-B1DM.svg","response":0,"trial_type":"image-button-response","trial_index":105,"time_elapsed":710758,"internal_node_id":"0.0-4.0-0.49","subject_id":"59da7e94416c900001ea5b52","study_id":"6197b3f67c2b5cd3b6d9596a","session_id":"6197b8916e909f8a6c3948f5","condition":"full-information","relevant_dimensions":["wings","pattern"],"bee_group":{"antennae":"X","wings":"2","pattern":"D","legs":"X"},"action":"harvest","summary":"good-harvest","bonus":0.11999999999999994},{"rt":1198.5,"stimulus":"\n                    <p><b>Action: <em>harvest</em></b></p>\n                    <p>This is the bee that you just saw.</p>\n                    <img src=\"bees-with-color/bee-B1DM.svg\" width=\"200\">\n                    <p><span class=\"greenText\"><b>Successful harvest!</b></span><br>Your pay has increased by $0.02. Your bonus pay is now $0.38.</p>\n            ","response":0,"trial_type":"html-button-response","trial_index":106,"time_elapsed":711958,"internal_node_id":"0.0-4.0-1.49","subject_id":"59da7e94416c900001ea5b52","study_id":"6197b3f67c2b5cd3b6d9596a","session_id":"6197b8916e909f8a6c3948f5","condition":"full-information","relevant_dimensions":["wings","pattern"],"bee_group":{"antennae":"X","wings":"2","pattern":"D","legs":"X"},"bonus":0.11999999999999994},{"rt":3862.3000000715256,"stimulus":"bees-with-color/bee-B2DF.svg","response":0,"trial_type":"image-button-response","trial_index":107,"time_elapsed":715822,"internal_node_id":"0.0-4.0-0.50","subject_id":"59da7e94416c900001ea5b52","study_id":"6197b3f67c2b5cd3b6d9596a","session_id":"6197b8916e909f8a6c3948f5","condition":"full-information","relevant_dimensions":["wings","pattern"],"bee_group":{"antennae":"X","wings":"2","pattern":"D","legs":"X"},"action":"harvest","summary":"bad-harvest","bonus":0.11999999999999994},{"rt":1534.7000000476837,"stimulus":"\n                    <p><b>Action: <em>harvest</em></b></p>\n                    <p>This is the bee that you just saw.</p>\n                    <img src=\"bees-with-color/bee-B2DF.svg\" width=\"200\">\n                    <p><span class=\"redText\">Bad choice, the bee was angry.</span><br><b>You have been stung!</b><br>Your pay has been decreased by $0.10. Your bonus pay is now $0.28.</p>\n            ","response":0,"trial_type":"html-button-response","trial_index":108,"time_elapsed":717358,"internal_node_id":"0.0-4.0-1.50","subject_id":"59da7e94416c900001ea5b52","study_id":"6197b3f67c2b5cd3b6d9596a","session_id":"6197b8916e909f8a6c3948f5","condition":"full-information","relevant_dimensions":["wings","pattern"],"bee_group":{"antennae":"X","wings":"2","pattern":"D","legs":"X"},"bonus":0.11999999999999994},{"rt":2942.5,"stimulus":"bees-with-color/bee-A1SF.svg","response":0,"trial_type":"image-button-response","trial_index":109,"time_elapsed":720302,"internal_node_id":"0.0-4.0-0.51","subject_id":"59da7e94416c900001ea5b52","study_id":"6197b3f67c2b5cd3b6d9596a","session_id":"6197b8916e909f8a6c3948f5","condition":"full-information","relevant_dimensions":["wings","pattern"],"bee_group":{"antennae":"X","wings":"2","pattern":"D","legs":"X"},"action":"harvest","summary":"good-harvest","bonus":0.11999999999999994},{"rt":1582.6000000238419,"stimulus":"\n                    <p><b>Action: <em>harvest</em></b></p>\n                    <p>This is the bee that you just saw.</p>\n                    <img src=\"bees-with-color/bee-A1SF.svg\" width=\"200\">\n                    <p><span class=\"greenText\"><b>Successful harvest!</b></span><br>Your pay has increased by $0.02. Your bonus pay is now $0.30.</p>\n            ","response":0,"trial_type":"html-button-response","trial_index":110,"time_elapsed":721885,"internal_node_id":"0.0-4.0-1.51","subject_id":"59da7e94416c900001ea5b52","study_id":"6197b3f67c2b5cd3b6d9596a","session_id":"6197b8916e909f8a6c3948f5","condition":"full-information","relevant_dimensions":["wings","pattern"],"bee_group":{"antennae":"X","wings":"2","pattern":"D","legs":"X"},"bonus":0.11999999999999994},{"rt":3470.5,"stimulus":"bees-with-color/bee-B2DM.svg","response":0,"trial_type":"image-button-response","trial_index":111,"time_elapsed":725358,"internal_node_id":"0.0-4.0-0.52","subject_id":"59da7e94416c900001ea5b52","study_id":"6197b3f67c2b5cd3b6d9596a","session_id":"6197b8916e909f8a6c3948f5","condition":"full-information","relevant_dimensions":["wings","pattern"],"bee_group":{"antennae":"X","wings":"2","pattern":"D","legs":"X"},"action":"harvest","summary":"bad-harvest","bonus":0.11999999999999994},{"rt":2910.600000023842,"stimulus":"\n                    <p><b>Action: <em>harvest</em></b></p>\n                    <p>This is the bee that you just saw.</p>\n                    <img src=\"bees-with-color/bee-B2DM.svg\" width=\"200\">\n                    <p><span class=\"redText\">Bad choice, the bee was angry.</span><br><b>You have been stung!</b><br>Your pay has been decreased by $0.10. Your bonus pay is now $0.20.</p>\n            ","response":0,"trial_type":"html-button-response","trial_index":112,"time_elapsed":728270,"internal_node_id":"0.0-4.0-1.52","subject_id":"59da7e94416c900001ea5b52","study_id":"6197b3f67c2b5cd3b6d9596a","session_id":"6197b8916e909f8a6c3948f5","condition":"full-information","relevant_dimensions":["wings","pattern"],"bee_group":{"antennae":"X","wings":"2","pattern":"D","legs":"X"},"bonus":0.11999999999999994},{"rt":2078.3000000715256,"stimulus":"bees-with-color/bee-A2SM.svg","response":0,"trial_type":"image-button-response","trial_index":113,"time_elapsed":730350,"internal_node_id":"0.0-4.0-0.53","subject_id":"59da7e94416c900001ea5b52","study_id":"6197b3f67c2b5cd3b6d9596a","session_id":"6197b8916e909f8a6c3948f5","condition":"full-information","relevant_dimensions":["wings","pattern"],"bee_group":{"antennae":"X","wings":"2","pattern":"D","legs":"X"},"action":"harvest","summary":"good-harvest","bonus":0.11999999999999994},{"rt":1302.3999999761581,"stimulus":"\n                    <p><b>Action: <em>harvest</em></b></p>\n                    <p>This is the bee that you just saw.</p>\n                    <img src=\"bees-with-color/bee-A2SM.svg\" width=\"200\">\n                    <p><span class=\"greenText\"><b>Successful harvest!</b></span><br>Your pay has increased by $0.02. Your bonus pay is now $0.22.</p>\n            ","response":0,"trial_type":"html-button-response","trial_index":114,"time_elapsed":731653,"internal_node_id":"0.0-4.0-1.53","subject_id":"59da7e94416c900001ea5b52","study_id":"6197b3f67c2b5cd3b6d9596a","session_id":"6197b8916e909f8a6c3948f5","condition":"full-information","relevant_dimensions":["wings","pattern"],"bee_group":{"antennae":"X","wings":"2","pattern":"D","legs":"X"},"bonus":0.11999999999999994},{"rt":1926.8999999761581,"stimulus":"bees-with-color/bee-B1DF.svg","response":0,"trial_type":"image-button-response","trial_index":115,"time_elapsed":733582,"internal_node_id":"0.0-4.0-0.54","subject_id":"59da7e94416c900001ea5b52","study_id":"6197b3f67c2b5cd3b6d9596a","session_id":"6197b8916e909f8a6c3948f5","condition":"full-information","relevant_dimensions":["wings","pattern"],"bee_group":{"antennae":"X","wings":"2","pattern":"D","legs":"X"},"action":"harvest","summary":"good-harvest","bonus":0.11999999999999994},{"rt":1262.5,"stimulus":"\n                    <p><b>Action: <em>harvest</em></b></p>\n                    <p>This is the bee that you just saw.</p>\n                    <img src=\"bees-with-color/bee-B1DF.svg\" width=\"200\">\n                    <p><span class=\"greenText\"><b>Successful harvest!</b></span><br>Your pay has increased by $0.02. Your bonus pay is now $0.24.</p>\n            ","response":0,"trial_type":"html-button-response","trial_index":116,"time_elapsed":734846,"internal_node_id":"0.0-4.0-1.54","subject_id":"59da7e94416c900001ea5b52","study_id":"6197b3f67c2b5cd3b6d9596a","session_id":"6197b8916e909f8a6c3948f5","condition":"full-information","relevant_dimensions":["wings","pattern"],"bee_group":{"antennae":"X","wings":"2","pattern":"D","legs":"X"},"bonus":0.11999999999999994},{"rt":8166.599999904633,"stimulus":"bees-with-color/bee-B2SM.svg","response":1,"trial_type":"image-button-response","trial_index":117,"time_elapsed":743014,"internal_node_id":"0.0-4.0-0.55","subject_id":"59da7e94416c900001ea5b52","study_id":"6197b3f67c2b5cd3b6d9596a","session_id":"6197b8916e909f8a6c3948f5","condition":"full-information","relevant_dimensions":["wings","pattern"],"bee_group":{"antennae":"X","wings":"2","pattern":"D","legs":"X"},"action":"avoid","summary":"bad-avoid","bonus":0.11999999999999994},{"rt":1222.2000000476837,"stimulus":"\n                    <p><b>Action: <em>avoid</em></b></p>\n                    <p>This is the bee that you just saw.</p>\n                    <img src=\"bees-with-color/bee-B2SM.svg\" width=\"200\">\n                    <p><span class=\"redText\">Bad choice,</span> the bee was friendly.<br>Your bonus pay is unchanged, and remains at $0.24.</p>\n            ","response":0,"trial_type":"html-button-response","trial_index":118,"time_elapsed":744238,"internal_node_id":"0.0-4.0-1.55","subject_id":"59da7e94416c900001ea5b52","study_id":"6197b3f67c2b5cd3b6d9596a","session_id":"6197b8916e909f8a6c3948f5","condition":"full-information","relevant_dimensions":["wings","pattern"],"bee_group":{"antennae":"X","wings":"2","pattern":"D","legs":"X"},"bonus":0.11999999999999994},{"rt":1590.6000000238419,"stimulus":"bees-with-color/bee-A1DM.svg","response":0,"trial_type":"image-button-response","trial_index":119,"time_elapsed":745830,"internal_node_id":"0.0-4.0-0.56","subject_id":"59da7e94416c900001ea5b52","study_id":"6197b3f67c2b5cd3b6d9596a","session_id":"6197b8916e909f8a6c3948f5","condition":"full-information","relevant_dimensions":["wings","pattern"],"bee_group":{"antennae":"X","wings":"2","pattern":"D","legs":"X"},"action":"harvest","summary":"good-harvest","bonus":0.11999999999999994},{"rt":1070.7000000476837,"stimulus":"\n                    <p><b>Action: <em>harvest</em></b></p>\n                    <p>This is the bee that you just saw.</p>\n                    <img src=\"bees-with-color/bee-A1DM.svg\" width=\"200\">\n                    <p><span class=\"greenText\"><b>Successful harvest!</b></span><br>Your pay has increased by $0.02. Your bonus pay is now $0.26.</p>\n            ","response":0,"trial_type":"html-button-response","trial_index":120,"time_elapsed":746901,"internal_node_id":"0.0-4.0-1.56","subject_id":"59da7e94416c900001ea5b52","study_id":"6197b3f67c2b5cd3b6d9596a","session_id":"6197b8916e909f8a6c3948f5","condition":"full-information","relevant_dimensions":["wings","pattern"],"bee_group":{"antennae":"X","wings":"2","pattern":"D","legs":"X"},"bonus":0.11999999999999994},{"rt":1327,"stimulus":"bees-with-color/bee-A2SF.svg","response":0,"trial_type":"image-button-response","trial_index":121,"time_elapsed":748230,"internal_node_id":"0.0-4.0-0.57","subject_id":"59da7e94416c900001ea5b52","study_id":"6197b3f67c2b5cd3b6d9596a","session_id":"6197b8916e909f8a6c3948f5","condition":"full-information","relevant_dimensions":["wings","pattern"],"bee_group":{"antennae":"X","wings":"2","pattern":"D","legs":"X"},"action":"harvest","summary":"good-harvest","bonus":0.11999999999999994},{"rt":1238.8999999761581,"stimulus":"\n                    <p><b>Action: <em>harvest</em></b></p>\n                    <p>This is the bee that you just saw.</p>\n                    <img src=\"bees-with-color/bee-A2SF.svg\" width=\"200\">\n                    <p><span class=\"greenText\"><b>Successful harvest!</b></span><br>Your pay has increased by $0.02. Your bonus pay is now $0.28.</p>\n            ","response":0,"trial_type":"html-button-response","trial_index":122,"time_elapsed":749469,"internal_node_id":"0.0-4.0-1.57","subject_id":"59da7e94416c900001ea5b52","study_id":"6197b3f67c2b5cd3b6d9596a","session_id":"6197b8916e909f8a6c3948f5","condition":"full-information","relevant_dimensions":["wings","pattern"],"bee_group":{"antennae":"X","wings":"2","pattern":"D","legs":"X"},"bonus":0.11999999999999994},{"rt":3463.2000000476837,"stimulus":"bees-with-color/bee-A2DM.svg","response":0,"trial_type":"image-button-response","trial_index":123,"time_elapsed":752933,"internal_node_id":"0.0-4.0-0.58","subject_id":"59da7e94416c900001ea5b52","study_id":"6197b3f67c2b5cd3b6d9596a","session_id":"6197b8916e909f8a6c3948f5","condition":"full-information","relevant_dimensions":["wings","pattern"],"bee_group":{"antennae":"X","wings":"2","pattern":"D","legs":"X"},"action":"harvest","summary":"bad-harvest","bonus":0.11999999999999994},{"rt":1775,"stimulus":"\n                    <p><b>Action: <em>harvest</em></b></p>\n                    <p>This is the bee that you just saw.</p>\n                    <img src=\"bees-with-color/bee-A2DM.svg\" width=\"200\">\n                    <p><span class=\"redText\">Bad choice, the bee was angry.</span><br><b>You have been stung!</b><br>Your pay has been decreased by $0.10. Your bonus pay is now $0.18.</p>\n            ","response":0,"trial_type":"html-button-response","trial_index":124,"time_elapsed":754709,"internal_node_id":"0.0-4.0-1.58","subject_id":"59da7e94416c900001ea5b52","study_id":"6197b3f67c2b5cd3b6d9596a","session_id":"6197b8916e909f8a6c3948f5","condition":"full-information","relevant_dimensions":["wings","pattern"],"bee_group":{"antennae":"X","wings":"2","pattern":"D","legs":"X"},"bonus":0.11999999999999994},{"rt":3446.7000000476837,"stimulus":"bees-with-color/bee-B2SF.svg","response":0,"trial_type":"image-button-response","trial_index":125,"time_elapsed":758157,"internal_node_id":"0.0-4.0-0.59","subject_id":"59da7e94416c900001ea5b52","study_id":"6197b3f67c2b5cd3b6d9596a","session_id":"6197b8916e909f8a6c3948f5","condition":"full-information","relevant_dimensions":["wings","pattern"],"bee_group":{"antennae":"X","wings":"2","pattern":"D","legs":"X"},"action":"harvest","summary":"good-harvest","bonus":0.11999999999999994},{"rt":1598.8999999761581,"stimulus":"\n                    <p><b>Action: <em>harvest</em></b></p>\n                    <p>This is the bee that you just saw.</p>\n                    <img src=\"bees-with-color/bee-B2SF.svg\" width=\"200\">\n                    <p><span class=\"greenText\"><b>Successful harvest!</b></span><br>Your pay has increased by $0.02. Your bonus pay is now $0.20.</p>\n            ","response":0,"trial_type":"html-button-response","trial_index":126,"time_elapsed":759757,"internal_node_id":"0.0-4.0-1.59","subject_id":"59da7e94416c900001ea5b52","study_id":"6197b3f67c2b5cd3b6d9596a","session_id":"6197b8916e909f8a6c3948f5","condition":"full-information","relevant_dimensions":["wings","pattern"],"bee_group":{"antennae":"X","wings":"2","pattern":"D","legs":"X"},"bonus":0.11999999999999994},{"rt":1230.5,"stimulus":"bees-with-color/bee-B1SM.svg","response":0,"trial_type":"image-button-response","trial_index":127,"time_elapsed":760989,"internal_node_id":"0.0-4.0-0.60","subject_id":"59da7e94416c900001ea5b52","study_id":"6197b3f67c2b5cd3b6d9596a","session_id":"6197b8916e909f8a6c3948f5","condition":"full-information","relevant_dimensions":["wings","pattern"],"bee_group":{"antennae":"X","wings":"2","pattern":"D","legs":"X"},"action":"harvest","summary":"good-harvest","bonus":0.11999999999999994},{"rt":1343.8999999761581,"stimulus":"\n                    <p><b>Action: <em>harvest</em></b></p>\n                    <p>This is the bee that you just saw.</p>\n                    <img src=\"bees-with-color/bee-B1SM.svg\" width=\"200\">\n                    <p><span class=\"greenText\"><b>Successful harvest!</b></span><br>Your pay has increased by $0.02. Your bonus pay is now $0.22.</p>\n            ","response":0,"trial_type":"html-button-response","trial_index":128,"time_elapsed":762334,"internal_node_id":"0.0-4.0-1.60","subject_id":"59da7e94416c900001ea5b52","study_id":"6197b3f67c2b5cd3b6d9596a","session_id":"6197b8916e909f8a6c3948f5","condition":"full-information","relevant_dimensions":["wings","pattern"],"bee_group":{"antennae":"X","wings":"2","pattern":"D","legs":"X"},"bonus":0.11999999999999994},{"rt":1309.7999999523163,"stimulus":"bees-with-color/bee-B1SF.svg","response":0,"trial_type":"image-button-response","trial_index":129,"time_elapsed":763645,"internal_node_id":"0.0-4.0-0.61","subject_id":"59da7e94416c900001ea5b52","study_id":"6197b3f67c2b5cd3b6d9596a","session_id":"6197b8916e909f8a6c3948f5","condition":"full-information","relevant_dimensions":["wings","pattern"],"bee_group":{"antennae":"X","wings":"2","pattern":"D","legs":"X"},"action":"harvest","summary":"good-harvest","bonus":0.11999999999999994},{"rt":2654.5,"stimulus":"\n                    <p><b>Action: <em>harvest</em></b></p>\n                    <p>This is the bee that you just saw.</p>\n                    <img src=\"bees-with-color/bee-B1SF.svg\" width=\"200\">\n                    <p><span class=\"greenText\"><b>Successful harvest!</b></span><br>Your pay has increased by $0.02. Your bonus pay is now $0.24.</p>\n            ","response":0,"trial_type":"html-button-response","trial_index":130,"time_elapsed":766301,"internal_node_id":"0.0-4.0-1.61","subject_id":"59da7e94416c900001ea5b52","study_id":"6197b3f67c2b5cd3b6d9596a","session_id":"6197b8916e909f8a6c3948f5","condition":"full-information","relevant_dimensions":["wings","pattern"],"bee_group":{"antennae":"X","wings":"2","pattern":"D","legs":"X"},"bonus":0.11999999999999994},{"rt":2334.7999999523163,"stimulus":"bees-with-color/bee-A1SM.svg","response":0,"trial_type":"image-button-response","trial_index":131,"time_elapsed":768638,"internal_node_id":"0.0-4.0-0.62","subject_id":"59da7e94416c900001ea5b52","study_id":"6197b3f67c2b5cd3b6d9596a","session_id":"6197b8916e909f8a6c3948f5","condition":"full-information","relevant_dimensions":["wings","pattern"],"bee_group":{"antennae":"X","wings":"2","pattern":"D","legs":"X"},"action":"harvest","summary":"good-harvest","bonus":0.11999999999999994},{"rt":1862.7999999523163,"stimulus":"\n                    <p><b>Action: <em>harvest</em></b></p>\n                    <p>This is the bee that you just saw.</p>\n                    <img src=\"bees-with-color/bee-A1SM.svg\" width=\"200\">\n                    <p><span class=\"greenText\"><b>Successful harvest!</b></span><br>Your pay has increased by $0.02. Your bonus pay is now $0.26.</p>\n            ","response":0,"trial_type":"html-button-response","trial_index":132,"time_elapsed":770502,"internal_node_id":"0.0-4.0-1.62","subject_id":"59da7e94416c900001ea5b52","study_id":"6197b3f67c2b5cd3b6d9596a","session_id":"6197b8916e909f8a6c3948f5","condition":"full-information","relevant_dimensions":["wings","pattern"],"bee_group":{"antennae":"X","wings":"2","pattern":"D","legs":"X"},"bonus":0.11999999999999994},{"rt":2142.7000000476837,"stimulus":"bees-with-color/bee-A2DF.svg","response":0,"trial_type":"image-button-response","trial_index":133,"time_elapsed":772646,"internal_node_id":"0.0-4.0-0.63","subject_id":"59da7e94416c900001ea5b52","study_id":"6197b3f67c2b5cd3b6d9596a","session_id":"6197b8916e909f8a6c3948f5","condition":"full-information","relevant_dimensions":["wings","pattern"],"bee_group":{"antennae":"X","wings":"2","pattern":"D","legs":"X"},"action":"harvest","summary":"bad-harvest","bonus":0.11999999999999994},{"rt":6550.899999976158,"stimulus":"\n                    <p><b>Action: <em>harvest</em></b></p>\n                    <p>This is the bee that you just saw.</p>\n                    <img src=\"bees-with-color/bee-A2DF.svg\" width=\"200\">\n                    <p><span class=\"redText\">Bad choice, the bee was angry.</span><br><b>You have been stung!</b><br>Your pay has been decreased by $0.10. Your bonus pay is now $0.16.</p>\n            ","response":0,"trial_type":"html-button-response","trial_index":134,"time_elapsed":779198,"internal_node_id":"0.0-4.0-1.63","subject_id":"59da7e94416c900001ea5b52","study_id":"6197b3f67c2b5cd3b6d9596a","session_id":"6197b8916e909f8a6c3948f5","condition":"full-information","relevant_dimensions":["wings","pattern"],"bee_group":{"antennae":"X","wings":"2","pattern":"D","legs":"X"},"bonus":0.11999999999999994},{"rt":7293.399999976158,"stimulus":"You have completed the first part of this experiment.<br><br>You will now begin a shorter second part, in which you will receive no feedback.<br>The same rules regarding bonus pay apply.<br><br>Press any key to begin.","response":"control","trial_type":"html-keyboard-response","trial_index":135,"time_elapsed":786492,"internal_node_id":"0.0-5.0","subject_id":"59da7e94416c900001ea5b52","study_id":"6197b3f67c2b5cd3b6d9596a","session_id":"6197b8916e909f8a6c3948f5","condition":"full-information","relevant_dimensions":["wings","pattern"],"bee_group":{"antennae":"X","wings":"2","pattern":"D","legs":"X"},"bonus":0.11999999999999994},{"rt":8510.699999928474,"stimulus":"bees-with-color/bee-A2DF.svg","response":0,"trial_type":"image-button-response","trial_index":136,"time_elapsed":795013,"internal_node_id":"0.0-6.0-0.0","subject_id":"59da7e94416c900001ea5b52","study_id":"6197b3f67c2b5cd3b6d9596a","session_id":"6197b8916e909f8a6c3948f5","condition":"full-information","relevant_dimensions":["wings","pattern"],"bee_group":{"antennae":"X","wings":"2","pattern":"D","legs":"X"},"bonus":0.11999999999999994},{"rt":2053.7000000476837,"stimulus":"bees-with-color/bee-B1DM.svg","response":0,"trial_type":"image-button-response","trial_index":137,"time_elapsed":797069,"internal_node_id":"0.0-6.0-0.1","subject_id":"59da7e94416c900001ea5b52","study_id":"6197b3f67c2b5cd3b6d9596a","session_id":"6197b8916e909f8a6c3948f5","condition":"full-information","relevant_dimensions":["wings","pattern"],"bee_group":{"antennae":"X","wings":"2","pattern":"D","legs":"X"},"bonus":0.11999999999999994},{"rt":1310.6999999284744,"stimulus":"bees-with-color/bee-A2DM.svg","response":0,"trial_type":"image-button-response","trial_index":138,"time_elapsed":798382,"internal_node_id":"0.0-6.0-0.2","subject_id":"59da7e94416c900001ea5b52","study_id":"6197b3f67c2b5cd3b6d9596a","session_id":"6197b8916e909f8a6c3948f5","condition":"full-information","relevant_dimensions":["wings","pattern"],"bee_group":{"antennae":"X","wings":"2","pattern":"D","legs":"X"},"bonus":0.11999999999999994},{"rt":8189.899999976158,"stimulus":"bees-with-color/bee-A2SM.svg","response":1,"trial_type":"image-button-response","trial_index":139,"time_elapsed":806573,"internal_node_id":"0.0-6.0-0.3","subject_id":"59da7e94416c900001ea5b52","study_id":"6197b3f67c2b5cd3b6d9596a","session_id":"6197b8916e909f8a6c3948f5","condition":"full-information","relevant_dimensions":["wings","pattern"],"bee_group":{"antennae":"X","wings":"2","pattern":"D","legs":"X"},"bonus":0.11999999999999994},{"rt":1822,"stimulus":"bees-with-color/bee-A1DM.svg","response":0,"trial_type":"image-button-response","trial_index":140,"time_elapsed":808398,"internal_node_id":"0.0-6.0-0.4","subject_id":"59da7e94416c900001ea5b52","study_id":"6197b3f67c2b5cd3b6d9596a","session_id":"6197b8916e909f8a6c3948f5","condition":"full-information","relevant_dimensions":["wings","pattern"],"bee_group":{"antennae":"X","wings":"2","pattern":"D","legs":"X"},"bonus":0.11999999999999994},{"rt":3342.2999999523163,"stimulus":"bees-with-color/bee-B1DF.svg","response":0,"trial_type":"image-button-response","trial_index":141,"time_elapsed":811741,"internal_node_id":"0.0-6.0-0.5","subject_id":"59da7e94416c900001ea5b52","study_id":"6197b3f67c2b5cd3b6d9596a","session_id":"6197b8916e909f8a6c3948f5","condition":"full-information","relevant_dimensions":["wings","pattern"],"bee_group":{"antennae":"X","wings":"2","pattern":"D","legs":"X"},"bonus":0.11999999999999994},{"rt":1397.8999999761581,"stimulus":"bees-with-color/bee-A1SF.svg","response":0,"trial_type":"image-button-response","trial_index":142,"time_elapsed":813141,"internal_node_id":"0.0-6.0-0.6","subject_id":"59da7e94416c900001ea5b52","study_id":"6197b3f67c2b5cd3b6d9596a","session_id":"6197b8916e909f8a6c3948f5","condition":"full-information","relevant_dimensions":["wings","pattern"],"bee_group":{"antennae":"X","wings":"2","pattern":"D","legs":"X"},"bonus":0.11999999999999994},{"rt":4766.100000023842,"stimulus":"bees-with-color/bee-A1DF.svg","response":1,"trial_type":"image-button-response","trial_index":143,"time_elapsed":817910,"internal_node_id":"0.0-6.0-0.7","subject_id":"59da7e94416c900001ea5b52","study_id":"6197b3f67c2b5cd3b6d9596a","session_id":"6197b8916e909f8a6c3948f5","condition":"full-information","relevant_dimensions":["wings","pattern"],"bee_group":{"antennae":"X","wings":"2","pattern":"D","legs":"X"},"bonus":0.11999999999999994},{"rt":2173.1999999284744,"stimulus":"bees-with-color/bee-B1SM.svg","response":0,"trial_type":"image-button-response","trial_index":144,"time_elapsed":820085,"internal_node_id":"0.0-6.0-0.8","subject_id":"59da7e94416c900001ea5b52","study_id":"6197b3f67c2b5cd3b6d9596a","session_id":"6197b8916e909f8a6c3948f5","condition":"full-information","relevant_dimensions":["wings","pattern"],"bee_group":{"antennae":"X","wings":"2","pattern":"D","legs":"X"},"bonus":0.11999999999999994},{"rt":4327,"stimulus":"bees-with-color/bee-A1SM.svg","response":0,"trial_type":"image-button-response","trial_index":145,"time_elapsed":824414,"internal_node_id":"0.0-6.0-0.9","subject_id":"59da7e94416c900001ea5b52","study_id":"6197b3f67c2b5cd3b6d9596a","session_id":"6197b8916e909f8a6c3948f5","condition":"full-information","relevant_dimensions":["wings","pattern"],"bee_group":{"antennae":"X","wings":"2","pattern":"D","legs":"X"},"bonus":0.11999999999999994},{"rt":1469.5,"stimulus":"bees-with-color/bee-B2DM.svg","response":1,"trial_type":"image-button-response","trial_index":146,"time_elapsed":825885,"internal_node_id":"0.0-6.0-0.10","subject_id":"59da7e94416c900001ea5b52","study_id":"6197b3f67c2b5cd3b6d9596a","session_id":"6197b8916e909f8a6c3948f5","condition":"full-information","relevant_dimensions":["wings","pattern"],"bee_group":{"antennae":"X","wings":"2","pattern":"D","legs":"X"},"bonus":0.11999999999999994},{"rt":1375,"stimulus":"bees-with-color/bee-B2SF.svg","response":0,"trial_type":"image-button-response","trial_index":147,"time_elapsed":827262,"internal_node_id":"0.0-6.0-0.11","subject_id":"59da7e94416c900001ea5b52","study_id":"6197b3f67c2b5cd3b6d9596a","session_id":"6197b8916e909f8a6c3948f5","condition":"full-information","relevant_dimensions":["wings","pattern"],"bee_group":{"antennae":"X","wings":"2","pattern":"D","legs":"X"},"bonus":0.11999999999999994},{"rt":1078.1000000238419,"stimulus":"bees-with-color/bee-B1SF.svg","response":0,"trial_type":"image-button-response","trial_index":148,"time_elapsed":828341,"internal_node_id":"0.0-6.0-0.12","subject_id":"59da7e94416c900001ea5b52","study_id":"6197b3f67c2b5cd3b6d9596a","session_id":"6197b8916e909f8a6c3948f5","condition":"full-information","relevant_dimensions":["wings","pattern"],"bee_group":{"antennae":"X","wings":"2","pattern":"D","legs":"X"},"bonus":0.11999999999999994},{"rt":1910.6000000238419,"stimulus":"bees-with-color/bee-B2DF.svg","response":1,"trial_type":"image-button-response","trial_index":149,"time_elapsed":830253,"internal_node_id":"0.0-6.0-0.13","subject_id":"59da7e94416c900001ea5b52","study_id":"6197b3f67c2b5cd3b6d9596a","session_id":"6197b8916e909f8a6c3948f5","condition":"full-information","relevant_dimensions":["wings","pattern"],"bee_group":{"antennae":"X","wings":"2","pattern":"D","legs":"X"},"bonus":0.11999999999999994},{"rt":6678.200000047684,"stimulus":"bees-with-color/bee-B2SM.svg","response":1,"trial_type":"image-button-response","trial_index":150,"time_elapsed":836933,"internal_node_id":"0.0-6.0-0.14","subject_id":"59da7e94416c900001ea5b52","study_id":"6197b3f67c2b5cd3b6d9596a","session_id":"6197b8916e909f8a6c3948f5","condition":"full-information","relevant_dimensions":["wings","pattern"],"bee_group":{"antennae":"X","wings":"2","pattern":"D","legs":"X"},"bonus":0.11999999999999994},{"rt":1246.2999999523163,"stimulus":"bees-with-color/bee-A2SF.svg","response":0,"trial_type":"image-button-response","trial_index":151,"time_elapsed":838181,"internal_node_id":"0.0-6.0-0.15","subject_id":"59da7e94416c900001ea5b52","study_id":"6197b3f67c2b5cd3b6d9596a","session_id":"6197b8916e909f8a6c3948f5","condition":"full-information","relevant_dimensions":["wings","pattern"],"bee_group":{"antennae":"X","wings":"2","pattern":"D","legs":"X"},"bonus":0.11999999999999994},{"rt":918.6999999284744,"stimulus":"bees-with-color/bee-A1SF.svg","response":0,"trial_type":"image-button-response","trial_index":152,"time_elapsed":839101,"internal_node_id":"0.0-6.0-0.16","subject_id":"59da7e94416c900001ea5b52","study_id":"6197b3f67c2b5cd3b6d9596a","session_id":"6197b8916e909f8a6c3948f5","condition":"full-information","relevant_dimensions":["wings","pattern"],"bee_group":{"antennae":"X","wings":"2","pattern":"D","legs":"X"},"bonus":0.11999999999999994},{"rt":2694.7999999523163,"stimulus":"bees-with-color/bee-B1DM.svg","response":1,"trial_type":"image-button-response","trial_index":153,"time_elapsed":841797,"internal_node_id":"0.0-6.0-0.17","subject_id":"59da7e94416c900001ea5b52","study_id":"6197b3f67c2b5cd3b6d9596a","session_id":"6197b8916e909f8a6c3948f5","condition":"full-information","relevant_dimensions":["wings","pattern"],"bee_group":{"antennae":"X","wings":"2","pattern":"D","legs":"X"},"bonus":0.11999999999999994},{"rt":1734.6999999284744,"stimulus":"bees-with-color/bee-A1DM.svg","response":1,"trial_type":"image-button-response","trial_index":154,"time_elapsed":843533,"internal_node_id":"0.0-6.0-0.18","subject_id":"59da7e94416c900001ea5b52","study_id":"6197b3f67c2b5cd3b6d9596a","session_id":"6197b8916e909f8a6c3948f5","condition":"full-information","relevant_dimensions":["wings","pattern"],"bee_group":{"antennae":"X","wings":"2","pattern":"D","legs":"X"},"bonus":0.11999999999999994},{"rt":3814.7999999523163,"stimulus":"bees-with-color/bee-B1SM.svg","response":0,"trial_type":"image-button-response","trial_index":155,"time_elapsed":847349,"internal_node_id":"0.0-6.0-0.19","subject_id":"59da7e94416c900001ea5b52","study_id":"6197b3f67c2b5cd3b6d9596a","session_id":"6197b8916e909f8a6c3948f5","condition":"full-information","relevant_dimensions":["wings","pattern"],"bee_group":{"antennae":"X","wings":"2","pattern":"D","legs":"X"},"bonus":0.11999999999999994},{"rt":1366.3999999761581,"stimulus":"bees-with-color/bee-B1DF.svg","response":0,"trial_type":"image-button-response","trial_index":156,"time_elapsed":848717,"internal_node_id":"0.0-6.0-0.20","subject_id":"59da7e94416c900001ea5b52","study_id":"6197b3f67c2b5cd3b6d9596a","session_id":"6197b8916e909f8a6c3948f5","condition":"full-information","relevant_dimensions":["wings","pattern"],"bee_group":{"antennae":"X","wings":"2","pattern":"D","legs":"X"},"bonus":0.1199999999999999