[{"success":true,"trial_type":"fullscreen","trial_index":0,"time_elapsed":2887,"internal_node_id":"0.0-0.0","subject_id":"5b339152afe1d00001c6c509","study_id":"6197b3f67c2b5cd3b6d9596a","session_id":"619bfbdd57d790152c1911e8","condition":"contingent","relevant_dimensions":["antennae","wings"],"bee_group":{"antennae":"B","wings":"1","pattern":"X","legs":"X"},"bonus":0.840000000000001},{"success":true,"timeout":false,"failed_images":[],"failed_audio":[],"failed_video":[],"trial_type":"preload","trial_index":1,"time_elapsed":5876,"internal_node_id":"0.0-1.0","subject_id":"5b339152afe1d00001c6c509","study_id":"6197b3f67c2b5cd3b6d9596a","session_id":"619bfbdd57d790152c1911e8","condition":"contingent","relevant_dimensions":["antennae","wings"],"bee_group":{"antennae":"B","wings":"1","pattern":"X","legs":"X"},"bonus":0.840000000000001},{"rt":2274,"stimulus":"Welcome! Press any key to begin.","response":"f","trial_type":"html-keyboard-response","trial_index":2,"time_elapsed":8151,"internal_node_id":"0.0-2.0","subject_id":"5b339152afe1d00001c6c509","study_id":"6197b3f67c2b5cd3b6d9596a","session_id":"619bfbdd57d790152c1911e8","condition":"contingent","relevant_dimensions":["antennae","wings"],"bee_group":{"antennae":"B","wings":"1","pattern":"X","legs":"X"},"bonus":0.840000000000001},{"view_history":[{"page_index":0,"viewing_time":6362},{"page_index":1,"viewing_time":13166},{"page_index":2,"viewing_time":7134},{"page_index":3,"viewing_time":20898},{"page_index":4,"viewing_time":7141},{"page_index":5,"viewing_time":6030},{"page_index":6,"viewing_time":8414},{"page_index":7,"viewing_time":18979},{"page_index":8,"viewing_time":10924},{"page_index":9,"viewing_time":7885},{"page_index":10,"viewing_time":8791},{"page_index":11,"viewing_time":7157},{"page_index":12,"viewing_time":4723},{"page_index":13,"viewing_time":983},{"page_index":14,"viewing_time":1137}],"rt":129724,"trial_type":"instructions","trial_index":3,"time_elapsed":137877,"internal_node_id":"0.0-3.0-0.0","subject_id":"5b339152afe1d00001c6c509","study_id":"6197b3f67c2b5cd3b6d9596a","session_id":"619bfbdd57d790152c1911e8","condition":"contingent","relevant_dimensions":["antennae","wings"],"bee_group":{"antennae":"B","wings":"1","pattern":"X","legs":"X"},"bonus":0.840000000000001},{"rt":21987,"response":{"Q0":["Two or six legs","Stripes or spots on body","Single or double wings","Antennae or no antennae"]},"question_order":[0],"trial_type":"survey-multi-select","trial_index":4,"time_elapsed":159870,"internal_node_id":"0.0-3.0-1.0","subject_id":"5b339152afe1d00001c6c509","study_id":"6197b3f67c2b5cd3b6d9596a","session_id":"619bfbdd57d790152c1911e8","condition":"contingent","relevant_dimensions":["antennae","wings"],"bee_group":{"antennae":"B","wings":"1","pattern":"X","legs":"X"},"correct":true,"bonus":0.840000000000001},{"rt":9683,"response":{"Q1":"No.","Q2":"Based on the four features of the bee.","Q3":"You do not learn if it was friendly or dangerous, and do not alter your bonus."},"question_order":[0,1,2],"trial_type":"survey-multi-choice","trial_index":5,"time_elapsed":169554,"internal_node_id":"0.0-3.0-2.0","subject_id":"5b339152afe1d00001c6c509","study_id":"6197b3f67c2b5cd3b6d9596a","session_id":"619bfbdd57d790152c1911e8","condition":"contingent","relevant_dimensions":["antennae","wings"],"bee_group":{"antennae":"B","wings":"1","pattern":"X","legs":"X"},"correct":true,"bonus":0.840000000000001},{"rt":1713,"stimulus":"<p>Congrats, you got everything right<br>When you're ready, click the button below to continue to the experiment.</p>","response":0,"trial_type":"html-button-response","trial_index":6,"time_elapsed":171270,"internal_node_id":"0.0-3.0-3.0","subject_id":"5b339152afe1d00001c6c509","study_id":"6197b3f67c2b5cd3b6d9596a","session_id":"619bfbdd57d790152c1911e8","condition":"contingent","relevant_dimensions":["antennae","wings"],"bee_group":{"antennae":"B","wings":"1","pattern":"X","legs":"X"},"bonus":0.840000000000001},{"rt":5091,"stimulus":"bees-with-color/bee-A2SM.svg","response":0,"trial_type":"image-button-response","trial_index":7,"time_elapsed":176364,"internal_node_id":"0.0-4.0-0.0","subject_id":"5b339152afe1d00001c6c509","study_id":"6197b3f67c2b5cd3b6d9596a","session_id":"619bfbdd57d790152c1911e8","condition":"contingent","relevant_dimensions":["antennae","wings"],"bee_group":{"antennae":"B","wings":"1","pattern":"X","legs":"X"},"action":"harvest","summary":"good-harvest","bonus":0.840000000000001},{"rt":20383,"stimulus":"\n                    <p><b>Action: <em>harvest</em></b></p>\n                    <p>This is the bee that you just saw.</p>\n                    <img src=\"bees-with-color/bee-A2SM.svg\" width=\"200\">\n                    <p><span class=\"greenText\"><b>Successful harvest!</b></span><br>Your pay has increased by $0.02. Your bonus pay is now $0.56.</p>\n            ","response":0,"trial_type":"html-button-response","trial_index":8,"time_elapsed":196774,"internal_node_id":"0.0-4.0-1.0","subject_id":"5b339152afe1d00001c6c509","study_id":"6197b3f67c2b5cd3b6d9596a","session_id":"619bfbdd57d790152c1911e8","condition":"contingent","relevant_dimensions":["antennae","wings"],"bee_group":{"antennae":"B","wings":"1","pattern":"X","legs":"X"},"bonus":0.840000000000001},{"rt":6853,"stimulus":"bees-with-color/bee-B1DF.svg","response":0,"trial_type":"image-button-response","trial_index":9,"time_elapsed":203628,"internal_node_id":"0.0-4.0-0.1","subject_id":"5b339152afe1d00001c6c509","study_id":"6197b3f67c2b5cd3b6d9596a","session_id":"619bfbdd57d790152c1911e8","condition":"contingent","relevant_dimensions":["antennae","wings"],"bee_group":{"antennae":"B","wings":"1","pattern":"X","legs":"X"},"action":"harvest","summary":"bad-harvest","bonus":0.840000000000001},{"rt":7331,"stimulus":"\n                    <p><b>Action: <em>harvest</em></b></p>\n                    <p>This is the bee that you just saw.</p>\n                    <img src=\"bees-with-color/bee-B1DF.svg\" width=\"200\">\n                    <p><span class=\"redText\">Bad choice, the bee was angry.</span><br><b>You have been stung!</b><br>Your pay has been decreased by $0.10. Your bonus pay is now $0.46.</p>\n            ","response":0,"trial_type":"html-button-response","trial_index":10,"time_elapsed":210962,"internal_node_id":"0.0-4.0-1.1","subject_id":"5b339152afe1d00001c6c509","study_id":"6197b3f67c2b5cd3b6d9596a","session_id":"619bfbdd57d790152c1911e8","condition":"contingent","relevant_dimensions":["antennae","wings"],"bee_group":{"antennae":"B","wings":"1","pattern":"X","legs":"X"},"bonus":0.840000000000001},{"rt":25378,"stimulus":"bees-with-color/bee-B2DF.svg","response":0,"trial_type":"image-button-response","trial_index":11,"time_elapsed":236340,"internal_node_id":"0.0-4.0-0.2","subject_id":"5b339152afe1d00001c6c509","study_id":"6197b3f67c2b5cd3b6d9596a","session_id":"619bfbdd57d790152c1911e8","condition":"contingent","relevant_dimensions":["antennae","wings"],"bee_group":{"antennae":"B","wings":"1","pattern":"X","legs":"X"},"action":"harvest","summary":"good-harvest","bonus":0.840000000000001},{"rt":3997,"stimulus":"\n                    <p><b>Action: <em>harvest</em></b></p>\n                    <p>This is the bee that you just saw.</p>\n                    <img src=\"bees-with-color/bee-B2DF.svg\" width=\"200\">\n                    <p><span class=\"greenText\"><b>Successful harvest!</b></span><br>Your pay has increased by $0.02. Your bonus pay is now $0.48.</p>\n            ","response":0,"trial_type":"html-button-response","trial_index":12,"time_elapsed":240338,"internal_node_id":"0.0-4.0-1.2","subject_id":"5b339152afe1d00001c6c509","study_id":"6197b3f67c2b5cd3b6d9596a","session_id":"619bfbdd57d790152c1911e8","condition":"contingent","relevant_dimensions":["antennae","wings"],"bee_group":{"antennae":"B","wings":"1","pattern":"X","legs":"X"},"bonus":0.840000000000001},{"rt":10981,"stimulus":"bees-with-color/bee-A1SM.svg","response":0,"trial_type":"image-button-response","trial_index":13,"time_elapsed":251320,"internal_node_id":"0.0-4.0-0.3","subject_id":"5b339152afe1d00001c6c509","study_id":"6197b3f67c2b5cd3b6d9596a","session_id":"619bfbdd57d790152c1911e8","condition":"contingent","relevant_dimensions":["antennae","wings"],"bee_group":{"antennae":"B","wings":"1","pattern":"X","legs":"X"},"action":"harvest","summary":"good-harvest","bonus":0.840000000000001},{"rt":3935,"stimulus":"\n                    <p><b>Action: <em>harvest</em></b></p>\n                    <p>This is the bee that you just saw.</p>\n                    <img src=\"bees-with-color/bee-A1SM.svg\" width=\"200\">\n                    <p><span class=\"greenText\"><b>Successful harvest!</b></span><br>Your pay has increased by $0.02. Your bonus pay is now $0.50.</p>\n            ","response":0,"trial_type":"html-button-response","trial_index":14,"time_elapsed":255258,"internal_node_id":"0.0-4.0-1.3","subject_id":"5b339152afe1d00001c6c509","study_id":"6197b3f67c2b5cd3b6d9596a","session_id":"619bfbdd57d790152c1911e8","condition":"contingent","relevant_dimensions":["antennae","wings"],"bee_group":{"antennae":"B","wings":"1","pattern":"X","legs":"X"},"bonus":0.840000000000001},{"rt":12983,"stimulus":"bees-with-color/bee-A2DM.svg","response":0,"trial_type":"image-button-response","trial_index":15,"time_elapsed":268242,"internal_node_id":"0.0-4.0-0.4","subject_id":"5b339152afe1d00001c6c509","study_id":"6197b3f67c2b5cd3b6d9596a","session_id":"619bfbdd57d790152c1911e8","condition":"contingent","relevant_dimensions":["antennae","wings"],"bee_group":{"antennae":"B","wings":"1","pattern":"X","legs":"X"},"action":"harvest","summary":"good-harvest","bonus":0.840000000000001},{"rt":4187,"stimulus":"\n                    <p><b>Action: <em>harvest</em></b></p>\n                    <p>This is the bee that you just saw.</p>\n                    <img src=\"bees-with-color/bee-A2DM.svg\" width=\"200\">\n                    <p><span class=\"greenText\"><b>Successful harvest!</b></span><br>Your pay has increased by $0.02. Your bonus pay is now $0.52.</p>\n            ","response":0,"trial_type":"html-button-response","trial_index":16,"time_elapsed":272430,"internal_node_id":"0.0-4.0-1.4","subject_id":"5b339152afe1d00001c6c509","study_id":"6197b3f67c2b5cd3b6d9596a","session_id":"619bfbdd57d790152c1911e8","condition":"contingent","relevant_dimensions":["antennae","wings"],"bee_group":{"antennae":"B","wings":"1","pattern":"X","legs":"X"},"bonus":0.840000000000001},{"rt":13407,"stimulus":"bees-with-color/bee-A2SF.svg","response":0,"trial_type":"image-button-response","trial_index":17,"time_elapsed":285839,"internal_node_id":"0.0-4.0-0.5","subject_id":"5b339152afe1d00001c6c509","study_id":"6197b3f67c2b5cd3b6d9596a","session_id":"619bfbdd57d790152c1911e8","condition":"contingent","relevant_dimensions":["antennae","wings"],"bee_group":{"antennae":"B","wings":"1","pattern":"X","legs":"X"},"action":"harvest","summary":"good-harvest","bonus":0.840000000000001},{"rt":3488,"stimulus":"\n                    <p><b>Action: <em>harvest</em></b></p>\n                    <p>This is the bee that you just saw.</p>\n                    <img src=\"bees-with-color/bee-A2SF.svg\" width=\"200\">\n                    <p><span class=\"greenText\"><b>Successful harvest!</b></span><br>Your pay has increased by $0.02. Your bonus pay is now $0.54.</p>\n            ","response":0,"trial_type":"html-button-response","trial_index":18,"time_elapsed":289328,"internal_node_id":"0.0-4.0-1.5","subject_id":"5b339152afe1d00001c6c509","study_id":"6197b3f67c2b5cd3b6d9596a","session_id":"619bfbdd57d790152c1911e8","condition":"contingent","relevant_dimensions":["antennae","wings"],"bee_group":{"antennae":"B","wings":"1","pattern":"X","legs":"X"},"bonus":0.840000000000001},{"rt":12231,"stimulus":"bees-with-color/bee-B1DM.svg","response":1,"trial_type":"image-button-response","trial_index":19,"time_elapsed":301560,"internal_node_id":"0.0-4.0-0.6","subject_id":"5b339152afe1d00001c6c509","study_id":"6197b3f67c2b5cd3b6d9596a","session_id":"619bfbdd57d790152c1911e8","condition":"contingent","relevant_dimensions":["antennae","wings"],"bee_group":{"antennae":"B","wings":"1","pattern":"X","legs":"X"},"action":"avoid","summary":"good-avoid","bonus":0.840000000000001},{"rt":1273,"stimulus":"\n                    <p><b>Action: <em>avoid</em></b></p>\n                    <p>This is the bee that you just saw.</p>\n                    <img src=\"bees-with-color/bee-B1DM.svg\" width=\"200\">\n                    <p><br>Your bonus pay is unchanged, and remains at $0.54.</p>\n            ","response":0,"trial_type":"html-button-response","trial_index":20,"time_elapsed":302836,"internal_node_id":"0.0-4.0-1.6","subject_id":"5b339152afe1d00001c6c509","study_id":"6197b3f67c2b5cd3b6d9596a","session_id":"619bfbdd57d790152c1911e8","condition":"contingent","relevant_dimensions":["antennae","wings"],"bee_group":{"antennae":"B","wings":"1","pattern":"X","legs":"X"},"bonus":0.840000000000001},{"rt":27279,"stimulus":"bees-with-color/bee-A1SF.svg","response":0,"trial_type":"image-button-response","trial_index":21,"time_elapsed":330116,"internal_node_id":"0.0-4.0-0.7","subject_id":"5b339152afe1d00001c6c509","study_id":"6197b3f67c2b5cd3b6d9596a","session_id":"619bfbdd57d790152c1911e8","condition":"contingent","relevant_dimensions":["antennae","wings"],"bee_group":{"antennae":"B","wings":"1","pattern":"X","legs":"X"},"action":"harvest","summary":"good-harvest","bonus":0.840000000000001},{"rt":3103,"stimulus":"\n                    <p><b>Action: <em>harvest</em></b></p>\n                    <p>This is the bee that you just saw.</p>\n                    <img src=\"bees-with-color/bee-A1SF.svg\" width=\"200\">\n                    <p><span class=\"greenText\"><b>Successful harvest!</b></span><br>Your pay has increased by $0.02. Your bonus pay is now $0.56.</p>\n            ","response":0,"trial_type":"html-button-response","trial_index":22,"time_elapsed":333219,"internal_node_id":"0.0-4.0-1.7","subject_id":"5b339152afe1d00001c6c509","study_id":"6197b3f67c2b5cd3b6d9596a","session_id":"619bfbdd57d790152c1911e8","condition":"contingent","relevant_dimensions":["antennae","wings"],"bee_group":{"antennae":"B","wings":"1","pattern":"X","legs":"X"},"bonus":0.840000000000001},{"rt":8510,"stimulus":"bees-with-color/bee-A2DF.svg","response":0,"trial_type":"image-button-response","trial_index":23,"time_elapsed":341731,"internal_node_id":"0.0-4.0-0.8","subject_id":"5b339152afe1d00001c6c509","study_id":"6197b3f67c2b5cd3b6d9596a","session_id":"619bfbdd57d790152c1911e8","condition":"contingent","relevant_dimensions":["antennae","wings"],"bee_group":{"antennae":"B","wings":"1","pattern":"X","legs":"X"},"action":"harvest","summary":"good-harvest","bonus":0.840000000000001},{"rt":9378,"stimulus":"\n                    <p><b>Action: <em>harvest</em></b></p>\n                    <p>This is the bee that you just saw.</p>\n                    <img src=\"bees-with-color/bee-A2DF.svg\" width=\"200\">\n                    <p><span class=\"greenText\"><b>Successful harvest!</b></span><br>Your pay has increased by $0.02. Your bonus pay is now $0.58.</p>\n            ","response":0,"trial_type":"html-button-response","trial_index":24,"time_elapsed":351110,"internal_node_id":"0.0-4.0-1.8","subject_id":"5b339152afe1d00001c6c509","study_id":"6197b3f67c2b5cd3b6d9596a","session_id":"619bfbdd57d790152c1911e8","condition":"contingent","relevant_dimensions":["antennae","wings"],"bee_group":{"antennae":"B","wings":"1","pattern":"X","legs":"X"},"bonus":0.840000000000001},{"rt":9156,"stimulus":"bees-with-color/bee-B2SM.svg","response":0,"trial_type":"image-button-response","trial_index":25,"time_elapsed":360267,"internal_node_id":"0.0-4.0-0.9","subject_id":"5b339152afe1d00001c6c509","study_id":"6197b3f67c2b5cd3b6d9596a","session_id":"619bfbdd57d790152c1911e8","condition":"contingent","relevant_dimensions":["antennae","wings"],"bee_group":{"antennae":"B","wings":"1","pattern":"X","legs":"X"},"action":"harvest","summary":"good-harvest","bonus":0.840000000000001},{"rt":10268,"stimulus":"\n                    <p><b>Action: <em>harvest</em></b></p>\n                    <p>This is the bee that you just saw.</p>\n                    <img src=\"bees-with-color/bee-B2SM.svg\" width=\"200\">\n                    <p><span class=\"greenText\"><b>Successful harvest!</b></span><br>Your pay has increased by $0.02. Your bonus pay is now $0.60.</p>\n            ","response":0,"trial_type":"html-button-response","trial_index":26,"time_elapsed":370538,"internal_node_id":"0.0-4.0-1.9","subject_id":"5b339152afe1d00001c6c509","study_id":"6197b3f67c2b5cd3b6d9596a","session_id":"619bfbdd57d790152c1911e8","condition":"contingent","relevant_dimensions":["antennae","wings"],"bee_group":{"antennae":"B","wings":"1","pattern":"X","legs":"X"},"bonus":0.840000000000001},{"rt":7786,"stimulus":"bees-with-color/bee-B1SM.svg","response":0,"trial_type":"image-button-response","trial_index":27,"time_elapsed":378326,"internal_node_id":"0.0-4.0-0.10","subject_id":"5b339152afe1d00001c6c509","study_id":"6197b3f67c2b5cd3b6d9596a","session_id":"619bfbdd57d790152c1911e8","condition":"contingent","relevant_dimensions":["antennae","wings"],"bee_group":{"antennae":"B","wings":"1","pattern":"X","legs":"X"},"action":"harvest","summary":"bad-harvest","bonus":0.840000000000001},{"rt":15254,"stimulus":"\n                    <p><b>Action: <em>harvest</em></b></p>\n                    <p>This is the bee that you just saw.</p>\n                    <img src=\"bees-with-color/bee-B1SM.svg\" width=\"200\">\n                    <p><span class=\"redText\">Bad choice, the bee was angry.</span><br><b>You have been stung!</b><br>Your pay has been decreased by $0.10. Your bonus pay is now $0.50.</p>\n            ","response":0,"trial_type":"html-button-response","trial_index":28,"time_elapsed":393582,"internal_node_id":"0.0-4.0-1.10","subject_id":"5b339152afe1d00001c6c509","study_id":"6197b3f67c2b5cd3b6d9596a","session_id":"619bfbdd57d790152c1911e8","condition":"contingent","relevant_dimensions":["antennae","wings"],"bee_group":{"antennae":"B","wings":"1","pattern":"X","legs":"X"},"bonus":0.840000000000001},{"rt":8581,"stimulus":"bees-with-color/bee-B1SF.svg","response":0,"trial_type":"image-button-response","trial_index":29,"time_elapsed":402164,"internal_node_id":"0.0-4.0-0.11","subject_id":"5b339152afe1d00001c6c509","study_id":"6197b3f67c2b5cd3b6d9596a","session_id":"619bfbdd57d790152c1911e8","condition":"contingent","relevant_dimensions":["antennae","wings"],"bee_group":{"antennae":"B","wings":"1","pattern":"X","legs":"X"},"action":"harvest","summary":"bad-harvest","bonus":0.840000000000001},{"rt":14290,"stimulus":"\n                    <p><b>Action: <em>harvest</em></b></p>\n                    <p>This is the bee that you just saw.</p>\n                    <img src=\"bees-with-color/bee-B1SF.svg\" width=\"200\">\n                    <p><span class=\"redText\">Bad choice, the bee was angry.</span><br><b>You have been stung!</b><br>Your pay has been decreased by $0.10. Your bonus pay is now $0.40.</p>\n            ","response":0,"trial_type":"html-button-response","trial_index":30,"time_elapsed":416455,"internal_node_id":"0.0-4.0-1.11","subject_id":"5b339152afe1d00001c6c509","study_id":"6197b3f67c2b5cd3b6d9596a","session_id":"619bfbdd57d790152c1911e8","condition":"contingent","relevant_dimensions":["antennae","wings"],"bee_group":{"antennae":"B","wings":"1","pattern":"X","legs":"X"},"bonus":0.840000000000001},{"rt":13460,"stimulus":"bees-with-color/bee-A1DM.svg","response":0,"trial_type":"image-button-response","trial_index":31,"time_elapsed":429917,"internal_node_id":"0.0-4.0-0.12","subject_id":"5b339152afe1d00001c6c509","study_id":"6197b3f67c2b5cd3b6d9596a","session_id":"619bfbdd57d790152c1911e8","condition":"contingent","relevant_dimensions":["antennae","wings"],"bee_group":{"antennae":"B","wings":"1","pattern":"X","legs":"X"},"action":"harvest","summary":"good-harvest","bonus":0.840000000000001},{"rt":9184,"stimulus":"\n                    <p><b>Action: <em>harvest</em></b></p>\n                    <p>This is the bee that you just saw.</p>\n                    <img src=\"bees-with-color/bee-A1DM.svg\" width=\"200\">\n                    <p><span class=\"greenText\"><b>Successful harvest!</b></span><br>Your pay has increased by $0.02. Your bonus pay is now $0.42.</p>\n            ","response":0,"trial_type":"html-button-response","trial_index":32,"time_elapsed":439102,"internal_node_id":"0.0-4.0-1.12","subject_id":"5b339152afe1d00001c6c509","study_id":"6197b3f67c2b5cd3b6d9596a","session_id":"619bfbdd57d790152c1911e8","condition":"contingent","relevant_dimensions":["antennae","wings"],"bee_group":{"antennae":"B","wings":"1","pattern":"X","legs":"X"},"bonus":0.840000000000001},{"rt":8956,"stimulus":"bees-with-color/bee-B2SF.svg","response":0,"trial_type":"image-button-response","trial_index":33,"time_elapsed":448058,"internal_node_id":"0.0-4.0-0.13","subject_id":"5b339152afe1d00001c6c509","study_id":"6197b3f67c2b5cd3b6d9596a","session_id":"619bfbdd57d790152c1911e8","condition":"contingent","relevant_dimensions":["antennae","wings"],"bee_group":{"antennae":"B","wings":"1","pattern":"X","legs":"X"},"action":"harvest","summary":"good-harvest","bonus":0.840000000000001},{"rt":21836,"stimulus":"\n                    <p><b>Action: <em>harvest</em></b></p>\n                    <p>This is the bee that you just saw.</p>\n                    <img src=\"bees-with-color/bee-B2SF.svg\" width=\"200\">\n                    <p><span class=\"greenText\"><b>Successful harvest!</b></span><br>Your pay has increased by $0.02. Your bonus pay is now $0.44.</p>\n            ","response":0,"trial_type":"html-button-response","trial_index":34,"time_elapsed":469896,"internal_node_id":"0.0-4.0-1.13","subject_id":"5b339152afe1d00001c6c509","study_id":"6197b3f67c2b5cd3b6d9596a","session_id":"619bfbdd57d790152c1911e8","condition":"contingent","relevant_dimensions":["antennae","wings"],"bee_group":{"antennae":"B","wings":"1","pattern":"X","legs":"X"},"bonus":0.840000000000001},{"rt":22201,"stimulus":"bees-with-color/bee-B2DM.svg","response":0,"trial_type":"image-button-response","trial_index":35,"time_elapsed":492099,"internal_node_id":"0.0-4.0-0.14","subject_id":"5b339152afe1d00001c6c509","study_id":"6197b3f67c2b5cd3b6d9596a","session_id":"619bfbdd57d790152c1911e8","condition":"contingent","relevant_dimensions":["antennae","wings"],"bee_group":{"antennae":"B","wings":"1","pattern":"X","legs":"X"},"action":"harvest","summary":"good-harvest","bonus":0.840000000000001},{"rt":19692,"stimulus":"\n                    <p><b>Action: <em>harvest</em></b></p>\n                    <p>This is the bee that you just saw.</p>\n                    <img src=\"bees-with-color/bee-B2DM.svg\" width=\"200\">\n                    <p><span class=\"greenText\"><b>Successful harvest!</b></span><br>Your pay has increased by $0.02. Your bonus pay is now $0.46.</p>\n            ","response":0,"trial_type":"html-button-response","trial_index":36,"time_elapsed":511792,"internal_node_id":"0.0-4.0-1.14","subject_id":"5b339152afe1d00001c6c509","study_id":"6197b3f67c2b5cd3b6d9596a","session_id":"619bfbdd57d790152c1911e8","condition":"contingent","relevant_dimensions":["antennae","wings"],"bee_group":{"antennae":"B","wings":"1","pattern":"X","legs":"X"},"bonus":0.840000000000001},{"rt":17294,"stimulus":"bees-with-color/bee-A1DF.svg","response":0,"trial_type":"image-button-response","trial_index":37,"time_elapsed":529088,"internal_node_id":"0.0-4.0-0.15","subject_id":"5b339152afe1d00001c6c509","study_id":"6197b3f67c2b5cd3b6d9596a","session_id":"619bfbdd57d790152c1911e8","condition":"contingent","relevant_dimensions":["antennae","wings"],"bee_group":{"antennae":"B","wings":"1","pattern":"X","legs":"X"},"action":"harvest","summary":"good-harvest","bonus":0.840000000000001},{"rt":10047,"stimulus":"\n                    <p><b>Action: <em>harvest</em></b></p>\n                    <p>This is the bee that you just saw.</p>\n                    <img src=\"bees-with-color/bee-A1DF.svg\" width=\"200\">\n                    <p><span class=\"greenText\"><b>Successful harvest!</b></span><br>Your pay has increased by $0.02. Your bonus pay is now $0.48.</p>\n            ","response":0,"trial_type":"html-button-response","trial_index":38,"time_elapsed":539136,"internal_node_id":"0.0-4.0-1.15","subject_id":"5b339152afe1d00001c6c509","study_id":"6197b3f67c2b5cd3b6d9596a","session_id":"619bfbdd57d790152c1911e8","condition":"contingent","relevant_dimensions":["antennae","wings"],"bee_group":{"antennae":"B","wings":"1","pattern":"X","legs":"X"},"bonus":0.840000000000001},{"rt":9512,"stimulus":"bees-with-color/bee-B1SM.svg","response":1,"trial_type":"image-button-response","trial_index":39,"time_elapsed":548651,"internal_node_id":"0.0-4.0-0.16","subject_id":"5b339152afe1d00001c6c509","study_id":"6197b3f67c2b5cd3b6d9596a","session_id":"619bfbdd57d790152c1911e8","condition":"contingent","relevant_dimensions":["antennae","wings"],"bee_group":{"antennae":"B","wings":"1","pattern":"X","legs":"X"},"action":"avoid","summary":"good-avoid","bonus":0.840000000000001},{"rt":958,"stimulus":"\n                    <p><b>Action: <em>avoid</em></b></p>\n                    <p>This is the bee that you just saw.</p>\n                    <img src=\"bees-with-color/bee-B1SM.svg\" width=\"200\">\n                    <p><br>Your bonus pay is unchanged, and remains at $0.48.</p>\n            ","response":0,"trial_type":"html-button-response","trial_index":40,"time_elapsed":549610,"internal_node_id":"0.0-4.0-1.16","subject_id":"5b339152afe1d00001c6c509","study_id":"6197b3f67c2b5cd3b6d9596a","session_id":"619bfbdd57d790152c1911e8","condition":"contingent","relevant_dimensions":["antennae","wings"],"bee_group":{"antennae":"B","wings":"1","pattern":"X","legs":"X"},"bonus":0.840000000000001},{"rt":9775,"stimulus":"bees-with-color/bee-B2SF.svg","response":0,"trial_type":"image-button-response","trial_index":41,"time_elapsed":559387,"internal_node_id":"0.0-4.0-0.17","subject_id":"5b339152afe1d00001c6c509","study_id":"6197b3f67c2b5cd3b6d9596a","session_id":"619bfbdd57d790152c1911e8","condition":"contingent","relevant_dimensions":["antennae","wings"],"bee_group":{"antennae":"B","wings":"1","pattern":"X","legs":"X"},"action":"harvest","summary":"good-harvest","bonus":0.840000000000001},{"rt":1050,"stimulus":"\n                    <p><b>Action: <em>harvest</em></b></p>\n                    <p>This is the bee that you just saw.</p>\n                    <img src=\"bees-with-color/bee-B2SF.svg\" width=\"200\">\n                    <p><span class=\"greenText\"><b>Successful harvest!</b></span><br>Your pay has increased by $0.02. Your bonus pay is now $0.50.</p>\n            ","response":0,"trial_type":"html-button-response","trial_index":42,"time_elapsed":560438,"internal_node_id":"0.0-4.0-1.17","subject_id":"5b339152afe1d00001c6c509","study_id":"6197b3f67c2b5cd3b6d9596a","session_id":"619bfbdd57d790152c1911e8","condition":"contingent","relevant_dimensions":["antennae","wings"],"bee_group":{"antennae":"B","wings":"1","pattern":"X","legs":"X"},"bonus":0.840000000000001},{"rt":6129,"stimulus":"bees-with-color/bee-A2SF.svg","response":0,"trial_type":"image-button-response","trial_index":43,"time_elapsed":566569,"internal_node_id":"0.0-4.0-0.18","subject_id":"5b339152afe1d00001c6c509","study_id":"6197b3f67c2b5cd3b6d9596a","session_id":"619bfbdd57d790152c1911e8","condition":"contingent","relevant_dimensions":["antennae","wings"],"bee_group":{"antennae":"B","wings":"1","pattern":"X","legs":"X"},"action":"harvest","summary":"good-harvest","bonus":0.840000000000001},{"rt":1227,"stimulus":"\n                    <p><b>Action: <em>harvest</em></b></p>\n                    <p>This is the bee that you just saw.</p>\n                    <img src=\"bees-with-color/bee-A2SF.svg\" width=\"200\">\n                    <p><span class=\"greenText\"><b>Successful harvest!</b></span><br>Your pay has increased by $0.02. Your bonus pay is now $0.52.</p>\n            ","response":0,"trial_type":"html-button-response","trial_index":44,"time_elapsed":567797,"internal_node_id":"0.0-4.0-1.18","subject_id":"5b339152afe1d00001c6c509","study_id":"6197b3f67c2b5cd3b6d9596a","session_id":"619bfbdd57d790152c1911e8","condition":"contingent","relevant_dimensions":["antennae","wings"],"bee_group":{"antennae":"B","wings":"1","pattern":"X","legs":"X"},"bonus":0.840000000000001},{"rt":6828,"stimulus":"bees-with-color/bee-A2SM.svg","response":0,"trial_type":"image-button-response","trial_index":45,"time_elapsed":574626,"internal_node_id":"0.0-4.0-0.19","subject_id":"5b339152afe1d00001c6c509","study_id":"6197b3f67c2b5cd3b6d9596a","session_id":"619bfbdd57d790152c1911e8","condition":"contingent","relevant_dimensions":["antennae","wings"],"bee_group":{"antennae":"B","wings":"1","pattern":"X","legs":"X"},"action":"harvest","summary":"good-harvest","bonus":0.840000000000001},{"rt":759,"stimulus":"\n                    <p><b>Action: <em>harvest</em></b></p>\n                    <p>This is the bee that you just saw.</p>\n                    <img src=\"bees-with-color/bee-A2SM.svg\" width=\"200\">\n                    <p><span class=\"greenText\"><b>Successful harvest!</b></span><br>Your pay has increased by $0.02. Your bonus pay is now $0.54.</p>\n            ","response":0,"trial_type":"html-button-response","trial_index":46,"time_elapsed":575386,"internal_node_id":"0.0-4.0-1.19","subject_id":"5b339152afe1d00001c6c509","study_id":"6197b3f67c2b5cd3b6d9596a","session_id":"619bfbdd57d790152c1911e8","condition":"contingent","relevant_dimensions":["antennae","wings"],"bee_group":{"antennae":"B","wings":"1","pattern":"X","legs":"X"},"bonus":0.840000000000001},{"rt":17731,"stimulus":"bees-with-color/bee-B2DM.svg","response":0,"trial_type":"image-button-response","trial_index":47,"time_elapsed":593119,"internal_node_id":"0.0-4.0-0.20","subject_id":"5b339152afe1d00001c6c509","study_id":"6197b3f67c2b5cd3b6d9596a","session_id":"619bfbdd57d790152c1911e8","condition":"contingent","relevant_dimensions":["antennae","wings"],"bee_group":{"antennae":"B","wings":"1","pattern":"X","legs":"X"},"action":"harvest","summary":"good-harvest","bonus":0.840000000000001},{"rt":913,"stimulus":"\n                    <p><b>Action: <em>harvest</em></b></p>\n                    <p>This is the bee that you just saw.</p>\n                    <img src=\"bees-with-color/bee-B2DM.svg\" width=\"200\">\n                    <p><span class=\"greenText\"><b>Successful harvest!</b></span><br>Your pay has increased by $0.02. Your bonus pay is now $0.56.</p>\n            ","response":0,"trial_type":"html-button-response","trial_index":48,"time_elapsed":594032,"internal_node_id":"0.0-4.0-1.20","subject_id":"5b339152afe1d00001c6c509","study_id":"6197b3f67c2b5cd3b6d9596a","session_id":"619bfbdd57d790152c1911e8","condition":"contingent","relevant_dimensions":["antennae","wings"],"bee_group":{"antennae":"B","wings":"1","pattern":"X","legs":"X"},"bonus":0.840000000000001},{"rt":6699,"stimulus":"bees-with-color/bee-A1SF.svg","response":0,"trial_type":"image-button-response","trial_index":49,"time_elapsed":600731,"internal_node_id":"0.0-4.0-0.21","subject_id":"5b339152afe1d00001c6c509","study_id":"6197b3f67c2b5cd3b6d9596a","session_id":"619bfbdd57d790152c1911e8","condition":"contingent","relevant_dimensions":["antennae","wings"],"bee_group":{"antennae":"B","wings":"1","pattern":"X","legs":"X"},"action":"harvest","summary":"good-harvest","bonus":0.840000000000001},{"rt":5213,"stimulus":"\n                    <p><b>Action: <em>harvest</em></b></p>\n                    <p>This is the bee that you just saw.</p>\n                    <img src=\"bees-with-color/bee-A1SF.svg\" width=\"200\">\n                    <p><span class=\"greenText\"><b>Successful harvest!</b></span><br>Your pay has increased by $0.02. Your bonus pay is now $0.58.</p>\n            ","response":0,"trial_type":"html-button-response","trial_index":50,"time_elapsed":605947,"internal_node_id":"0.0-4.0-1.21","subject_id":"5b339152afe1d00001c6c509","study_id":"6197b3f67c2b5cd3b6d9596a","session_id":"619bfbdd57d790152c1911e8","condition":"contingent","relevant_dimensions":["antennae","wings"],"bee_group":{"antennae":"B","wings":"1","pattern":"X","legs":"X"},"bonus":0.840000000000001},{"rt":8517,"stimulus":"bees-with-color/bee-A1SM.svg","response":0,"trial_type":"image-button-response","trial_index":51,"time_elapsed":614464,"internal_node_id":"0.0-4.0-0.22","subject_id":"5b339152afe1d00001c6c509","study_id":"6197b3f67c2b5cd3b6d9596a","session_id":"619bfbdd57d790152c1911e8","condition":"contingent","relevant_dimensions":["antennae","wings"],"bee_group":{"antennae":"B","wings":"1","pattern":"X","legs":"X"},"action":"harvest","summary":"good-harvest","bonus":0.840000000000001},{"rt":22918,"stimulus":"\n                    <p><b>Action: <em>harvest</em></b></p>\n                    <p>This is the bee that you just saw.</p>\n                    <img src=\"bees-with-color/bee-A1SM.svg\" width=\"200\">\n                    <p><span class=\"greenText\"><b>Successful harvest!</b></span><br>Your pay has increased by $0.02. Your bonus pay is now $0.60.</p>\n            ","response":0,"trial_type":"html-button-response","trial_index":52,"time_elapsed":637384,"internal_node_id":"0.0-4.0-1.22","subject_id":"5b339152afe1d00001c6c509","study_id":"6197b3f67c2b5cd3b6d9596a","session_id":"619bfbdd57d790152c1911e8","condition":"contingent","relevant_dimensions":["antennae","wings"],"bee_group":{"antennae":"B","wings":"1","pattern":"X","legs":"X"},"bonus":0.840000000000001},{"rt":6547,"stimulus":"bees-with-color/bee-B1DM.svg","response":1,"trial_type":"image-button-response","trial_index":53,"time_elapsed":643930,"internal_node_id":"0.0-4.0-0.23","subject_id":"5b339152afe1d00001c6c509","study_id":"6197b3f67c2b5cd3b6d9596a","session_id":"619bfbdd57d790152c1911e8","condition":"contingent","relevant_dimensions":["antennae","wings"],"bee_group":{"antennae":"B","wings":"1","pattern":"X","legs":"X"},"action":"avoid","summary":"good-avoid","bonus":0.840000000000001},{"rt":1155,"stimulus":"\n                    <p><b>Action: <em>avoid</em></b></p>\n                    <p>This is the bee that you just saw.</p>\n                    <img src=\"bees-with-color/bee-B1DM.svg\" width=\"200\">\n                    <p><br>Your bonus pay is unchanged, and remains at $0.60.</p>\n            ","response":0,"trial_type":"html-button-response","trial_index":54,"time_elapsed":645086,"internal_node_id":"0.0-4.0-1.23","subject_id":"5b339152afe1d00001c6c509","study_id":"6197b3f67c2b5cd3b6d9596a","session_id":"619bfbdd57d790152c1911e8","condition":"contingent","relevant_dimensions":["antennae","wings"],"bee_group":{"antennae":"B","wings":"1","pattern":"X","legs":"X"},"bonus":0.840000000000001},{"rt":6273,"stimulus":"bees-with-color/bee-A1DM.svg","response":0,"trial_type":"image-button-response","trial_index":55,"time_elapsed":651361,"internal_node_id":"0.0-4.0-0.24","subject_id":"5b339152afe1d00001c6c509","study_id":"6197b3f67c2b5cd3b6d9596a","session_id":"619bfbdd57d790152c1911e8","condition":"contingent","relevant_dimensions":["antennae","wings"],"bee_group":{"antennae":"B","wings":"1","pattern":"X","legs":"X"},"action":"harvest","summary":"good-harvest","bonus":0.840000000000001},{"rt":9117,"stimulus":"\n                    <p><b>Action: <em>harvest</em></b></p>\n                    <p>This is the bee that you just saw.</p>\n                    <img src=\"bees-with-color/bee-A1DM.svg\" width=\"200\">\n                    <p><span class=\"greenText\"><b>Successful harvest!</b></span><br>Your pay has increased by $0.02. Your bonus pay is now $0.62.</p>\n            ","response":0,"trial_type":"html-button-response","trial_index":56,"time_elapsed":660478,"internal_node_id":"0.0-4.0-1.24","subject_id":"5b339152afe1d00001c6c509","study_id":"6197b3f67c2b5cd3b6d9596a","session_id":"619bfbdd57d790152c1911e8","condition":"contingent","relevant_dimensions":["antennae","wings"],"bee_group":{"antennae":"B","wings":"1","pattern":"X","legs":"X"},"bonus":0.840000000000001},{"rt":9605,"stimulus":"bees-with-color/bee-B1SF.svg","response":0,"trial_type":"image-button-response","trial_index":57,"time_elapsed":670085,"internal_node_id":"0.0-4.0-0.25","subject_id":"5b339152afe1d00001c6c509","study_id":"6197b3f67c2b5cd3b6d9596a","session_id":"619bfbdd57d790152c1911e8","condition":"contingent","relevant_dimensions":["antennae","wings"],"bee_group":{"antennae":"B","wings":"1","pattern":"X","legs":"X"},"action":"harvest","summary":"bad-harvest","bonus":0.840000000000001},{"rt":16635,"stimulus":"\n                    <p><b>Action: <em>harvest</em></b></p>\n                    <p>This is the bee that you just saw.</p>\n                    <img src=\"bees-with-color/bee-B1SF.svg\" width=\"200\">\n                    <p><span class=\"redText\">Bad choice, the bee was angry.</span><br><b>You have been stung!</b><br>Your pay has been decreased by $0.10. Your bonus pay is now $0.52.</p>\n            ","response":0,"trial_type":"html-button-response","trial_index":58,"time_elapsed":686722,"internal_node_id":"0.0-4.0-1.25","subject_id":"5b339152afe1d00001c6c509","study_id":"6197b3f67c2b5cd3b6d9596a","session_id":"619bfbdd57d790152c1911e8","condition":"contingent","relevant_dimensions":["antennae","wings"],"bee_group":{"antennae":"B","wings":"1","pattern":"X","legs":"X"},"bonus":0.840000000000001},{"rt":11762,"stimulus":"bees-with-color/bee-A1DF.svg","response":0,"trial_type":"image-button-response","trial_index":59,"time_elapsed":698486,"internal_node_id":"0.0-4.0-0.26","subject_id":"5b339152afe1d00001c6c509","study_id":"6197b3f67c2b5cd3b6d9596a","session_id":"619bfbdd57d790152c1911e8","condition":"contingent","relevant_dimensions":["antennae","wings"],"bee_group":{"antennae":"B","wings":"1","pattern":"X","legs":"X"},"action":"harvest","summary":"good-harvest","bonus":0.840000000000001},{"rt":1147,"stimulus":"\n                    <p><b>Action: <em>harvest</em></b></p>\n                    <p>This is the bee that you just saw.</p>\n                    <img src=\"bees-with-color/bee-A1DF.svg\" width=\"200\">\n                    <p><span class=\"greenText\"><b>Successful harvest!</b></span><br>Your pay has increased by $0.02. Your bonus pay is now $0.54.</p>\n            ","response":0,"trial_type":"html-button-response","trial_index":60,"time_elapsed":699634,"internal_node_id":"0.0-4.0-1.26","subject_id":"5b339152afe1d00001c6c509","study_id":"6197b3f67c2b5cd3b6d9596a","session_id":"619bfbdd57d790152c1911e8","condition":"contingent","relevant_dimensions":["antennae","wings"],"bee_group":{"antennae":"B","wings":"1","pattern":"X","legs":"X"},"bonus":0.840000000000001},{"rt":12811,"stimulus":"bees-with-color/bee-B2SM.svg","response":0,"trial_type":"image-button-response","trial_index":61,"time_elapsed":712447,"internal_node_id":"0.0-4.0-0.27","subject_id":"5b339152afe1d00001c6c509","study_id":"6197b3f67c2b5cd3b6d9596a","session_id":"619bfbdd57d790152c1911e8","condition":"contingent","relevant_dimensions":["antennae","wings"],"bee_group":{"antennae":"B","wings":"1","pattern":"X","legs":"X"},"action":"harvest","summary":"good-harvest","bonus":0.840000000000001},{"rt":890,"stimulus":"\n                    <p><b>Action: <em>harvest</em></b></p>\n                    <p>This is the bee that you just saw.</p>\n                    <img src=\"bees-with-color/bee-B2SM.svg\" width=\"200\">\n                    <p><span class=\"greenText\"><b>Successful harvest!</b></span><br>Your pay has increased by $0.02. Your bonus pay is now $0.56.</p>\n            ","response":0,"trial_type":"html-button-response","trial_index":62,"time_elapsed":713337,"internal_node_id":"0.0-4.0-1.27","subject_id":"5b339152afe1d00001c6c509","study_id":"6197b3f67c2b5cd3b6d9596a","session_id":"619bfbdd57d790152c1911e8","condition":"contingent","relevant_dimensions":["antennae","wings"],"bee_group":{"antennae":"B","wings":"1","pattern":"X","legs":"X"},"bonus":0.840000000000001},{"rt":10848,"stimulus":"bees-with-color/bee-B2DF.svg","response":0,"trial_type":"image-button-response","trial_index":63,"time_elapsed":724188,"internal_node_id":"0.0-4.0-0.28","subject_id":"5b339152afe1d00001c6c509","study_id":"6197b3f67c2b5cd3b6d9596a","session_id":"619bfbdd57d790152c1911e8","condition":"contingent","relevant_dimensions":["antennae","wings"],"bee_group":{"antennae":"B","wings":"1","pattern":"X","legs":"X"},"action":"harvest","summary":"good-harvest","bonus":0.840000000000001},{"rt":995,"stimulus":"\n                    <p><b>Action: <em>harvest</em></b></p>\n                    <p>This is the bee that you just saw.</p>\n                    <img src=\"bees-with-color/bee-B2DF.svg\" width=\"200\">\n                    <p><span class=\"greenText\"><b>Successful harvest!</b></span><br>Your pay has increased by $0.02. Your bonus pay is now $0.58.</p>\n            ","response":0,"trial_type":"html-button-response","trial_index":64,"time_elapsed":725184,"internal_node_id":"0.0-4.0-1.28","subject_id":"5b339152afe1d00001c6c509","study_id":"6197b3f67c2b5cd3b6d9596a","session_id":"619bfbdd57d790152c1911e8","condition":"contingent","relevant_dimensions":["antennae","wings"],"bee_group":{"antennae":"B","wings":"1","pattern":"X","legs":"X"},"bonus":0.840000000000001},{"rt":23634,"stimulus":"bees-with-color/bee-B1DF.svg","response":0,"trial_type":"image-button-response","trial_index":65,"time_elapsed":748820,"internal_node_id":"0.0-4.0-0.29","subject_id":"5b339152afe1d00001c6c509","study_id":"6197b3f67c2b5cd3b6d9596a","session_id":"619bfbdd57d790152c1911e8","condition":"contingent","relevant_dimensions":["antennae","wings"],"bee_group":{"antennae":"B","wings":"1","pattern":"X","legs":"X"},"action":"harvest","summary":"bad-harvest","bonus":0.840000000000001},{"rt":18071,"stimulus":"\n                    <p><b>Action: <em>harvest</em></b></p>\n                    <p>This is the bee that you just saw.</p>\n                    <img src=\"bees-with-color/bee-B1DF.svg\" width=\"200\">\n                    <p><span class=\"redText\">Bad choice, the bee was angry.</span><br><b>You have been stung!</b><br>Your pay has been decreased by $0.10. Your bonus pay is now $0.48.</p>\n            ","response":0,"trial_type":"html-button-response","trial_index":66,"time_elapsed":766892,"internal_node_id":"0.0-4.0-1.29","subject_id":"5b339152afe1d00001c6c509","study_id":"6197b3f67c2b5cd3b6d9596a","session_id":"619bfbdd57d790152c1911e8","condition":"contingent","relevant_dimensions":["antennae","wings"],"bee_group":{"antennae":"B","wings":"1","pattern":"X","legs":"X"},"bonus":0.840000000000001},{"rt":13003,"stimulus":"bees-with-color/bee-A2DF.svg","response":0,"trial_type":"image-button-response","trial_index":67,"time_elapsed":779896,"internal_node_id":"0.0-4.0-0.30","subject_id":"5b339152afe1d00001c6c509","study_id":"6197b3f67c2b5cd3b6d9596a","session_id":"619bfbdd57d790152c1911e8","condition":"contingent","relevant_dimensions":["antennae","wings"],"bee_group":{"antennae":"B","wings":"1","pattern":"X","legs":"X"},"action":"harvest","summary":"good-harvest","bonus":0.840000000000001},{"rt":880,"stimulus":"\n                    <p><b>Action: <em>harvest</em></b></p>\n                    <p>This is the bee that you just saw.</p>\n                    <img src=\"bees-with-color/bee-A2DF.svg\" width=\"200\">\n                    <p><span class=\"greenText\"><b>Successful harvest!</b></span><br>Your pay has increased by $0.02. Your bonus pay is now $0.50.</p>\n            ","response":0,"trial_type":"html-button-response","trial_index":68,"time_elapsed":780777,"internal_node_id":"0.0-4.0-1.30","subject_id":"5b339152afe1d00001c6c509","study_id":"6197b3f67c2b5cd3b6d9596a","session_id":"619bfbdd57d790152c1911e8","condition":"contingent","relevant_dimensions":["antennae","wings"],"bee_group":{"antennae":"B","wings":"1","pattern":"X","legs":"X"},"bonus":0.840000000000001},{"rt":5941,"stimulus":"bees-with-color/bee-A2DM.svg","response":0,"trial_type":"image-button-response","trial_index":69,"time_elapsed":786718,"internal_node_id":"0.0-4.0-0.31","subject_id":"5b339152afe1d00001c6c509","study_id":"6197b3f67c2b5cd3b6d9596a","session_id":"619bfbdd57d790152c1911e8","condition":"contingent","relevant_dimensions":["antennae","wings"],"bee_group":{"antennae":"B","wings":"1","pattern":"X","legs":"X"},"action":"harvest","summary":"good-harvest","bonus":0.840000000000001},{"rt":1287,"stimulus":"\n                    <p><b>Action: <em>harvest</em></b></p>\n                    <p>This is the bee that you just saw.</p>\n                    <img src=\"bees-with-color/bee-A2DM.svg\" width=\"200\">\n                    <p><span class=\"greenText\"><b>Successful harvest!</b></span><br>Your pay has increased by $0.02. Your bonus pay is now $0.52.</p>\n            ","response":0,"trial_type":"html-button-response","trial_index":70,"time_elapsed":788006,"internal_node_id":"0.0-4.0-1.31","subject_id":"5b339152afe1d00001c6c509","study_id":"6197b3f67c2b5cd3b6d9596a","session_id":"619bfbdd57d790152c1911e8","condition":"contingent","relevant_dimensions":["antennae","wings"],"bee_group":{"antennae":"B","wings":"1","pattern":"X","legs":"X"},"bonus":0.840000000000001},{"rt":9751,"stimulus":"bees-with-color/bee-A2SF.svg","response":0,"trial_type":"image-button-response","trial_index":71,"time_elapsed":797759,"internal_node_id":"0.0-4.0-0.32","subject_id":"5b339152afe1d00001c6c509","study_id":"6197b3f67c2b5cd3b6d9596a","session_id":"619bfbdd57d790152c1911e8","condition":"contingent","relevant_dimensions":["antennae","wings"],"bee_group":{"antennae":"B","wings":"1","pattern":"X","legs":"X"},"action":"harvest","summary":"good-harvest","bonus":0.840000000000001},{"rt":1006,"stimulus":"\n                    <p><b>Action: <em>harvest</em></b></p>\n                    <p>This is the bee that you just saw.</p>\n                    <img src=\"bees-with-color/bee-A2SF.svg\" width=\"200\">\n                    <p><span class=\"greenText\"><b>Successful harvest!</b></span><br>Your pay has increased by $0.02. Your bonus pay is now $0.54.</p>\n            ","response":0,"trial_type":"html-button-response","trial_index":72,"time_elapsed":798766,"internal_node_id":"0.0-4.0-1.32","subject_id":"5b339152afe1d00001c6c509","study_id":"6197b3f67c2b5cd3b6d9596a","session_id":"619bfbdd57d790152c1911e8","condition":"contingent","relevant_dimensions":["antennae","wings"],"bee_group":{"antennae":"B","wings":"1","pattern":"X","legs":"X"},"bonus":0.840000000000001},{"rt":16368,"stimulus":"bees-with-color/bee-A1DF.svg","response":0,"trial_type":"image-button-response","trial_index":73,"time_elapsed":815134,"internal_node_id":"0.0-4.0-0.33","subject_id":"5b339152afe1d00001c6c509","study_id":"6197b3f67c2b5cd3b6d9596a","session_id":"619bfbdd57d790152c1911e8","condition":"contingent","relevant_dimensions":["antennae","wings"],"bee_group":{"antennae":"B","wings":"1","pattern":"X","legs":"X"},"action":"harvest","summary":"good-harvest","bonus":0.840000000000001},{"rt":874,"stimulus":"\n                    <p><b>Action: <em>harvest</em></b></p>\n                    <p>This is the bee that you just saw.</p>\n                    <img src=\"bees-with-color/bee-A1DF.svg\" width=\"200\">\n                    <p><span class=\"greenText\"><b>Successful harvest!</b></span><br>Your pay has increased by $0.02. Your bonus pay is now $0.56.</p>\n            ","response":0,"trial_type":"html-button-response","trial_index":74,"time_elapsed":816011,"internal_node_id":"0.0-4.0-1.33","subject_id":"5b339152afe1d00001c6c509","study_id":"6197b3f67c2b5cd3b6d9596a","session_id":"619bfbdd57d790152c1911e8","condition":"contingent","relevant_dimensions":["antennae","wings"],"bee_group":{"antennae":"B","wings":"1","pattern":"X","legs":"X"},"bonus":0.840000000000001},{"rt":5228,"stimulus":"bees-with-color/bee-B1DF.svg","response":1,"trial_type":"image-button-response","trial_index":75,"time_elapsed":821240,"internal_node_id":"0.0-4.0-0.34","subject_id":"5b339152afe1d00001c6c509","study_id":"6197b3f67c2b5cd3b6d9596a","session_id":"619bfbdd57d790152c1911e8","condition":"contingent","relevant_dimensions":["antennae","wings"],"bee_group":{"antennae":"B","wings":"1","pattern":"X","legs":"X"},"action":"avoid","summary":"good-avoid","bonus":0.840000000000001},{"rt":1215,"stimulus":"\n                    <p><b>Action: <em>avoid</em></b></p>\n                    <p>This is the bee that you just saw.</p>\n                    <img src=\"bees-with-color/bee-B1DF.svg\" width=\"200\">\n                    <p><br>Your bonus pay is unchanged, and remains at $0.56.</p>\n            ","response":0,"trial_type":"html-button-response","trial_index":76,"time_elapsed":822456,"internal_node_id":"0.0-4.0-1.34","subject_id":"5b339152afe1d00001c6c509","study_id":"6197b3f67c2b5cd3b6d9596a","session_id":"619bfbdd57d790152c1911e8","condition":"contingent","relevant_dimensions":["antennae","wings"],"bee_group":{"antennae":"B","wings":"1","pattern":"X","legs":"X"},"bonus":0.840000000000001},{"rt":10590,"stimulus":"bees-with-color/bee-A1SF.svg","response":0,"trial_type":"image-button-response","trial_index":77,"time_elapsed":833048,"internal_node_id":"0.0-4.0-0.35","subject_id":"5b339152afe1d00001c6c509","study_id":"6197b3f67c2b5cd3b6d9596a","session_id":"619bfbdd57d790152c1911e8","condition":"contingent","relevant_dimensions":["antennae","wings"],"bee_group":{"antennae":"B","wings":"1","pattern":"X","legs":"X"},"action":"harvest","summary":"good-harvest","bonus":0.840000000000001},{"rt":890,"stimulus":"\n                    <p><b>Action: <em>harvest</em></b></p>\n                    <p>This is the bee that you just saw.</p>\n                    <img src=\"bees-with-color/bee-A1SF.svg\" width=\"200\">\n                    <p><span class=\"greenText\"><b>Successful harvest!</b></span><br>Your pay has increased by $0.02. Your bonus pay is now $0.58.</p>\n            ","response":0,"trial_type":"html-button-response","trial_index":78,"time_elapsed":833939,"internal_node_id":"0.0-4.0-1.35","subject_id":"5b339152afe1d00001c6c509","study_id":"6197b3f67c2b5cd3b6d9596a","session_id":"619bfbdd57d790152c1911e8","condition":"contingent","relevant_dimensions":["antennae","wings"],"bee_group":{"antennae":"B","wings":"1","pattern":"X","legs":"X"},"bonus":0.840000000000001},{"rt":12683,"stimulus":"bees-with-color/bee-A2DF.svg","response":0,"trial_type":"image-button-response","trial_index":79,"time_elapsed":846624,"internal_node_id":"0.0-4.0-0.36","subject_id":"5b339152afe1d00001c6c509","study_id":"6197b3f67c2b5cd3b6d9596a","session_id":"619bfbdd57d790152c1911e8","condition":"contingent","relevant_dimensions":["antennae","wings"],"bee_group":{"antennae":"B","wings":"1","pattern":"X","legs":"X"},"action":"harvest","summary":"good-harvest","bonus":0.840000000000001},{"rt":702,"stimulus":"\n                    <p><b>Action: <em>harvest</em></b></p>\n                    <p>This is the bee that you just saw.</p>\n                    <img src=\"bees-with-color/bee-A2DF.svg\" width=\"200\">\n                    <p><span class=\"greenText\"><b>Successful harvest!</b></span><br>Your pay has increased by $0.02. Your bonus pay is now $0.60.</p>\n            ","response":0,"trial_type":"html-button-response","trial_index":80,"time_elapsed":847328,"internal_node_id":"0.0-4.0-1.36","subject_id":"5b339152afe1d00001c6c509","study_id":"6197b3f67c2b5cd3b6d9596a","session_id":"619bfbdd57d790152c1911e8","condition":"contingent","relevant_dimensions":["antennae","wings"],"bee_group":{"antennae":"B","wings":"1","pattern":"X","legs":"X"},"bonus":0.840000000000001},{"rt":5180,"stimulus":"bees-with-color/bee-B1SM.svg","response":1,"trial_type":"image-button-response","trial_index":81,"time_elapsed":852510,"internal_node_id":"0.0-4.0-0.37","subject_id":"5b339152afe1d00001c6c509","study_id":"6197b3f67c2b5cd3b6d9596a","session_id":"619bfbdd57d790152c1911e8","condition":"contingent","relevant_dimensions":["antennae","wings"],"bee_group":{"antennae":"B","wings":"1","pattern":"X","legs":"X"},"action":"avoid","summary":"good-avoid","bonus":0.840000000000001},{"rt":1103,"stimulus":"\n                    <p><b>Action: <em>avoid</em></b></p>\n                    <p>This is the bee that you just saw.</p>\n                    <img src=\"bees-with-color/bee-B1SM.svg\" width=\"200\">\n                    <p><br>Your bonus pay is unchanged, and remains at $0.60.</p>\n            ","response":0,"trial_type":"html-button-response","trial_index":82,"time_elapsed":853614,"internal_node_id":"0.0-4.0-1.37","subject_id":"5b339152afe1d00001c6c509","study_id":"6197b3f67c2b5cd3b6d9596a","session_id":"619bfbdd57d790152c1911e8","condition":"contingent","relevant_dimensions":["antennae","wings"],"bee_group":{"antennae":"B","wings":"1","pattern":"X","legs":"X"},"bonus":0.840000000000001},{"rt":14307,"stimulus":"bees-with-color/bee-B2SM.svg","response":0,"trial_type":"image-button-response","trial_index":83,"time_elapsed":867922,"internal_node_id":"0.0-4.0-0.38","subject_id":"5b339152afe1d00001c6c509","study_id":"6197b3f67c2b5cd3b6d9596a","session_id":"619bfbdd57d790152c1911e8","condition":"contingent","relevant_dimensions":["antennae","wings"],"bee_group":{"antennae":"B","wings":"1","pattern":"X","legs":"X"},"action":"harvest","summary":"good-harvest","bonus":0.840000000000001},{"rt":807,"stimulus":"\n                    <p><b>Action: <em>harvest</em></b></p>\n                    <p>This is the bee that you just saw.</p>\n                    <img src=\"bees-with-color/bee-B2SM.svg\" width=\"200\">\n                    <p><span class=\"greenText\"><b>Successful harvest!</b></span><br>Your pay has increased by $0.02. Your bonus pay is now $0.62.</p>\n            ","response":0,"trial_type":"html-button-response","trial_index":84,"time_elapsed":868730,"internal_node_id":"0.0-4.0-1.38","subject_id":"5b339152afe1d00001c6c509","study_id":"6197b3f67c2b5cd3b6d9596a","session_id":"619bfbdd57d790152c1911e8","condition":"contingent","relevant_dimensions":["antennae","wings"],"bee_group":{"antennae":"B","wings":"1","pattern":"X","legs":"X"},"bonus":0.840000000000001},{"rt":13067,"stimulus":"bees-with-color/bee-B2SF.svg","response":0,"trial_type":"image-button-response","trial_index":85,"time_elapsed":881799,"internal_node_id":"0.0-4.0-0.39","subject_id":"5b339152afe1d00001c6c509","study_id":"6197b3f67c2b5cd3b6d9596a","session_id":"619bfbdd57d790152c1911e8","condition":"contingent","relevant_dimensions":["antennae","wings"],"bee_group":{"antennae":"B","wings":"1","pattern":"X","legs":"X"},"action":"harvest","summary":"good-harvest","bonus":0.840000000000001},{"rt":778,"stimulus":"\n                    <p><b>Action: <em>harvest</em></b></p>\n                    <p>This is the bee that you just saw.</p>\n                    <img src=\"bees-with-color/bee-B2SF.svg\" width=\"200\">\n                    <p><span class=\"greenText\"><b>Successful harvest!</b></span><br>Your pay has increased by $0.02. Your bonus pay is now $0.64.</p>\n            ","response":0,"trial_type":"html-button-response","trial_index":86,"time_elapsed":882578,"internal_node_id":"0.0-4.0-1.39","subject_id":"5b339152afe1d00001c6c509","study_id":"6197b3f67c2b5cd3b6d9596a","session_id":"619bfbdd57d790152c1911e8","condition":"contingent","relevant_dimensions":["antennae","wings"],"bee_group":{"antennae":"B","wings":"1","pattern":"X","legs":"X"},"bonus":0.840000000000001},{"rt":9130,"stimulus":"bees-with-color/bee-A2SM.svg","response":0,"trial_type":"image-button-response","trial_index":87,"time_elapsed":891708,"internal_node_id":"0.0-4.0-0.40","subject_id":"5b339152afe1d00001c6c509","study_id":"6197b3f67c2b5cd3b6d9596a","session_id":"619bfbdd57d790152c1911e8","condition":"contingent","relevant_dimensions":["antennae","wings"],"bee_group":{"antennae":"B","wings":"1","pattern":"X","legs":"X"},"action":"harvest","summary":"good-harvest","bonus":0.840000000000001},{"rt":840,"stimulus":"\n                    <p><b>Action: <em>harvest</em></b></p>\n                    <p>This is the bee that you just saw.</p>\n                    <img src=\"bees-with-color/bee-A2SM.svg\" width=\"200\">\n                    <p><span class=\"greenText\"><b>Successful harvest!</b></span><br>Your pay has increased by $0.02. Your bonus pay is now $0.66.</p>\n            ","response":0,"trial_type":"html-button-response","trial_index":88,"time_elapsed":892548,"internal_node_id":"0.0-4.0-1.40","subject_id":"5b339152afe1d00001c6c509","study_id":"6197b3f67c2b5cd3b6d9596a","session_id":"619bfbdd57d790152c1911e8","condition":"contingent","relevant_dimensions":["antennae","wings"],"bee_group":{"antennae":"B","wings":"1","pattern":"X","legs":"X"},"bonus":0.840000000000001},{"rt":6525,"stimulus":"bees-with-color/bee-B1DM.svg","response":1,"trial_type":"image-button-response","trial_index":89,"time_elapsed":899075,"internal_node_id":"0.0-4.0-0.41","subject_id":"5b339152afe1d00001c6c509","study_id":"6197b3f67c2b5cd3b6d9596a","session_id":"619bfbdd57d790152c1911e8","condition":"contingent","relevant_dimensions":["antennae","wings"],"bee_group":{"antennae":"B","wings":"1","pattern":"X","legs":"X"},"action":"avoid","summary":"good-avoid","bonus":0.840000000000001},{"rt":760,"stimulus":"\n                    <p><b>Action: <em>avoid</em></b></p>\n                    <p>This is the bee that you just saw.</p>\n                    <img src=\"bees-with-color/bee-B1DM.svg\" width=\"200\">\n                    <p><br>Your bonus pay is unchanged, and remains at $0.66.</p>\n            ","response":0,"trial_type":"html-button-response","trial_index":90,"time_elapsed":899836,"internal_node_id":"0.0-4.0-1.41","subject_id":"5b339152afe1d00001c6c509","study_id":"6197b3f67c2b5cd3b6d9596a","session_id":"619bfbdd57d790152c1911e8","condition":"contingent","relevant_dimensions":["antennae","wings"],"bee_group":{"antennae":"B","wings":"1","pattern":"X","legs":"X"},"bonus":0.840000000000001},{"rt":9141,"stimulus":"bees-with-color/bee-A2DM.svg","response":0,"trial_type":"image-button-response","trial_index":91,"time_elapsed":908978,"internal_node_id":"0.0-4.0-0.42","subject_id":"5b339152afe1d00001c6c509","study_id":"6197b3f67c2b5cd3b6d9596a","session_id":"619bfbdd57d790152c1911e8","condition":"contingent","relevant_dimensions":["antennae","wings"],"bee_group":{"antennae":"B","wings":"1","pattern":"X","legs":"X"},"action":"harvest","summary":"good-harvest","bonus":0.840000000000001},{"rt":983,"stimulus":"\n                    <p><b>Action: <em>harvest</em></b></p>\n                    <p>This is the bee that you just saw.</p>\n                    <img src=\"bees-with-color/bee-A2DM.svg\" width=\"200\">\n                    <p><span class=\"greenText\"><b>Successful harvest!</b></span><br>Your pay has increased by $0.02. Your bonus pay is now $0.68.</p>\n            ","response":0,"trial_type":"html-button-response","trial_index":92,"time_elapsed":909963,"internal_node_id":"0.0-4.0-1.42","subject_id":"5b339152afe1d00001c6c509","study_id":"6197b3f67c2b5cd3b6d9596a","session_id":"619bfbdd57d790152c1911e8","condition":"contingent","relevant_dimensions":["antennae","wings"],"bee_group":{"antennae":"B","wings":"1","pattern":"X","legs":"X"},"bonus":0.840000000000001},{"rt":6028,"stimulus":"bees-with-color/bee-B2DM.svg","response":0,"trial_type":"image-button-response","trial_index":93,"time_elapsed":915992,"internal_node_id":"0.0-4.0-0.43","subject_id":"5b339152afe1d00001c6c509","study_id":"6197b3f67c2b5cd3b6d9596a","session_id":"619bfbdd57d790152c1911e8","condition":"contingent","relevant_dimensions":["antennae","wings"],"bee_group":{"antennae":"B","wings":"1","pattern":"X","legs":"X"},"action":"harvest","summary":"good-harvest","bonus":0.840000000000001},{"rt":635,"stimulus":"\n                    <p><b>Action: <em>harvest</em></b></p>\n                    <p>This is the bee that you just saw.</p>\n                    <img src=\"bees-with-color/bee-B2DM.svg\" width=\"200\">\n                    <p><span class=\"greenText\"><b>Successful harvest!</b></span><br>Your pay has increased by $0.02. Your bonus pay is now $0.70.</p>\n            ","response":0,"trial_type":"html-button-response","trial_index":94,"time_elapsed":916629,"internal_node_id":"0.0-4.0-1.43","subject_id":"5b339152afe1d00001c6c509","study_id":"6197b3f67c2b5cd3b6d9596a","session_id":"619bfbdd57d790152c1911e8","condition":"contingent","relevant_dimensions":["antennae","wings"],"bee_group":{"antennae":"B","wings":"1","pattern":"X","legs":"X"},"bonus":0.840000000000001},{"rt":6040,"stimulus":"bees-with-color/bee-B2DF.svg","response":0,"trial_type":"image-button-response","trial_index":95,"time_elapsed":922671,"internal_node_id":"0.0-4.0-0.44","subject_id":"5b339152afe1d00001c6c509","study_id":"6197b3f67c2b5cd3b6d9596a","session_id":"619bfbdd57d790152c1911e8","condition":"contingent","relevant_dimensions":["antennae","wings"],"bee_group":{"antennae":"B","wings":"1","pattern":"X","legs":"X"},"action":"harvest","summary":"good-harvest","bonus":0.840000000000001},{"rt":671,"stimulus":"\n                    <p><b>Action: <em>harvest</em></b></p>\n                    <p>This is the bee that you just saw.</p>\n                    <img src=\"bees-with-color/bee-B2DF.svg\" width=\"200\">\n                    <p><span class=\"greenText\"><b>Successful harvest!</b></span><br>Your pay has increased by $0.02. Your bonus pay is now $0.72.</p>\n            ","response":0,"trial_type":"html-button-response","trial_index":96,"time_elapsed":923342,"internal_node_id":"0.0-4.0-1.44","subject_id":"5b339152afe1d00001c6c509","study_id":"6197b3f67c2b5cd3b6d9596a","session_id":"619bfbdd57d790152c1911e8","condition":"contingent","relevant_dimensions":["antennae","wings"],"bee_group":{"antennae":"B","wings":"1","pattern":"X","legs":"X"},"bonus":0.840000000000001},{"rt":18759,"stimulus":"bees-with-color/bee-A1DM.svg","response":0,"trial_type":"image-button-response","trial_index":97,"time_elapsed":942104,"internal_node_id":"0.0-4.0-0.45","subject_id":"5b339152afe1d00001c6c509","study_id":"6197b3f67c2b5cd3b6d9596a","session_id":"619bfbdd57d790152c1911e8","condition":"contingent","relevant_dimensions":["antennae","wings"],"bee_group":{"antennae":"B","wings":"1","pattern":"X","legs":"X"},"action":"harvest","summary":"good-harvest","bonus":0.840000000000001},{"rt":647,"stimulus":"\n                    <p><b>Action: <em>harvest</em></b></p>\n                    <p>This is the bee that you just saw.</p>\n                    <img src=\"bees-with-color/bee-A1DM.svg\" width=\"200\">\n                    <p><span class=\"greenText\"><b>Successful harvest!</b></span><br>Your pay has increased by $0.02. Your bonus pay is now $0.74.</p>\n            ","response":0,"trial_type":"html-button-response","trial_index":98,"time_elapsed":942753,"internal_node_id":"0.0-4.0-1.45","subject_id":"5b339152afe1d00001c6c509","study_id":"6197b3f67c2b5cd3b6d9596a","session_id":"619bfbdd57d790152c1911e8","condition":"contingent","relevant_dimensions":["antennae","wings"],"bee_group":{"antennae":"B","wings":"1","pattern":"X","legs":"X"},"bonus":0.840000000000001},{"rt":20717,"stimulus":"bees-with-color/bee-A1SM.svg","response":0,"trial_type":"image-button-response","trial_index":99,"time_elapsed":963471,"internal_node_id":"0.0-4.0-0.46","subject_id":"5b339152afe1d00001c6c509","study_id":"6197b3f67c2b5cd3b6d9596a","session_id":"619bfbdd57d790152c1911e8","condition":"contingent","relevant_dimensions":["antennae","wings"],"bee_group":{"antennae":"B","wings":"1","pattern":"X","legs":"X"},"action":"harvest","summary":"good-harvest","bonus":0.840000000000001},{"rt":855,"stimulus":"\n                    <p><b>Action: <em>harvest</em></b></p>\n                    <p>This is the bee that you just saw.</p>\n                    <img src=\"bees-with-color/bee-A1SM.svg\" width=\"200\">\n                    <p><span class=\"greenText\"><b>Successful harvest!</b></span><br>Your pay has increased by $0.02. Your bonus pay is now $0.76.</p>\n            ","response":0,"trial_type":"html-button-response","trial_index":100,"time_elapsed":964326,"internal_node_id":"0.0-4.0-1.46","subject_id":"5b339152afe1d00001c6c509","study_id":"6197b3f67c2b5cd3b6d9596a","session_id":"619bfbdd57d790152c1911e8","condition":"contingent","relevant_dimensions":["antennae","wings"],"bee_group":{"antennae":"B","wings":"1","pattern":"X","legs":"X"},"bonus":0.840000000000001},{"rt":7801,"stimulus":"bees-with-color/bee-B1SF.svg","response":1,"trial_type":"image-button-response","trial_index":101,"time_elapsed":972128,"internal_node_id":"0.0-4.0-0.47","subject_id":"5b339152afe1d00001c6c509","study_id":"6197b3f67c2b5cd3b6d9596a","session_id":"619bfbdd57d790152c1911e8","condition":"contingent","relevant_dimensions":["antennae","wings"],"bee_group":{"antennae":"B","wings":"1","pattern":"X","legs":"X"},"action":"avoid","summary":"good-avoid","bonus":0.840000000000001},{"rt":600,"stimulus":"\n                    <p><b>Action: <em>avoid</em></b></p>\n                    <p>This is the bee that you just saw.</p>\n                    <img src=\"bees-with-color/bee-B1SF.svg\" width=\"200\">\n                    <p><br>Your bonus pay is unchanged, and remains at $0.76.</p>\n            ","response":0,"trial_type":"html-button-response","trial_index":102,"time_elapsed":972728,"internal_node_id":"0.0-4.0-1.47","subject_id":"5b339152afe1d00001c6c509","study_id":"6197b3f67c2b5cd3b6d9596a","session_id":"619bfbdd57d790152c1911e8","condition":"contingent","relevant_dimensions":["antennae","wings"],"bee_group":{"antennae":"B","wings":"1","pattern":"X","legs":"X"},"bonus":0.840000000000001},{"rt":11638,"stimulus":"bees-with-color/bee-B2DF.svg","response":0,"trial_type":"image-button-response","trial_index":103,"time_elapsed":984368,"internal_node_id":"0.0-4.0-0.48","subject_id":"5b339152afe1d00001c6c509","study_id":"6197b3f67c2b5cd3b6d9596a","session_id":"619bfbdd57d790152c1911e8","condition":"contingent","relevant_dimensions":["antennae","wings"],"bee_group":{"antennae":"B","wings":"1","pattern":"X","legs":"X"},"action":"harvest","summary":"good-harvest","bonus":0.840000000000001},{"rt":6365,"stimulus":"\n                    <p><b>Action: <em>harvest</em></b></p>\n                    <p>This is the bee that you just saw.</p>\n                    <img src=\"bees-with-color/bee-B2DF.svg\" width=\"200\">\n                    <p><span class=\"greenText\"><b>Successful harvest!</b></span><br>Your pay has increased by $0.02. Your bonus pay is now $0.78.</p>\n            ","response":0,"trial_type":"html-button-response","trial_index":104,"time_elapsed":990734,"internal_node_id":"0.0-4.0-1.48","subject_id":"5b339152afe1d00001c6c509","study_id":"6197b3f67c2b5cd3b6d9596a","session_id":"619bfbdd57d790152c1911e8","condition":"contingent","relevant_dimensions":["antennae","wings"],"bee_group":{"antennae":"B","wings":"1","pattern":"X","legs":"X"},"bonus":0.840000000000001},{"rt":5899,"stimulus":"bees-with-color/bee-B1SM.svg","response":1,"trial_type":"image-button-response","trial_index":105,"time_elapsed":996635,"internal_node_id":"0.0-4.0-0.49","subject_id":"5b339152afe1d00001c6c509","study_id":"6197b3f67c2b5cd3b6d9596a","session_id":"619bfbdd57d790152c1911e8","condition":"contingent","relevant_dimensions":["antennae","wings"],"bee_group":{"antennae":"B","wings":"1","pattern":"X","legs":"X"},"action":"avoid","summary":"good-avoid","bonus":0.840000000000001},{"rt":672,"stimulus":"\n                    <p><b>Action: <em>avoid</em></b></p>\n                    <p>This is the bee that you just saw.</p>\n                    <img src=\"bees-with-color/bee-B1SM.svg\" width=\"200\">\n                    <p><br>Your bonus pay is unchanged, and remains at $0.78.</p>\n            ","response":0,"trial_type":"html-button-response","trial_index":106,"time_elapsed":997308,"internal_node_id":"0.0-4.0-1.49","subject_id":"5b339152afe1d00001c6c509","study_id":"6197b3f67c2b5cd3b6d9596a","session_id":"619bfbdd57d790152c1911e8","condition":"contingent","relevant_dimensions":["antennae","wings"],"bee_group":{"antennae":"B","wings":"1","pattern":"X","legs":"X"},"bonus":0.840000000000001},{"rt":5167,"stimulus":"bees-with-color/bee-A1SM.svg","response":0,"trial_type":"image-button-response","trial_index":107,"time_elapsed":1002476,"internal_node_id":"0.0-4.0-0.50","subject_id":"5b339152afe1d00001c6c509","study_id":"6197b3f67c2b5cd3b6d9596a","session_id":"619bfbdd57d790152c1911e8","condition":"contingent","relevant_dimensions":["antennae","wings"],"bee_group":{"antennae":"B","wings":"1","pattern":"X","legs":"X"},"action":"harvest","summary":"good-harvest","bonus":0.840000000000001},{"rt":735,"stimulus":"\n                    <p><b>Action: <em>harvest</em></b></p>\n                    <p>This is the bee that you just saw.</p>\n                    <img src=\"bees-with-color/bee-A1SM.svg\" width=\"200\">\n                    <p><span class=\"greenText\"><b>Successful harvest!</b></span><br>Your pay has increased by $0.02. Your bonus pay is now $0.80.</p>\n            ","response":0,"trial_type":"html-button-response","trial_index":108,"time_elapsed":1003212,"internal_node_id":"0.0-4.0-1.50","subject_id":"5b339152afe1d00001c6c509","study_id":"6197b3f67c2b5cd3b6d9596a","session_id":"619bfbdd57d790152c1911e8","condition":"contingent","relevant_dimensions":["antennae","wings"],"bee_group":{"antennae":"B","wings":"1","pattern":"X","legs":"X"},"bonus":0.840000000000001},{"rt":7571,"stimulus":"bees-with-color/bee-B2SM.svg","response":0,"trial_type":"image-button-response","trial_index":109,"time_elapsed":1010785,"internal_node_id":"0.0-4.0-0.51","subject_id":"5b339152afe1d00001c6c509","study_id":"6197b3f67c2b5cd3b6d9596a","session_id":"619bfbdd57d790152c1911e8","condition":"contingent","relevant_dimensions":["antennae","wings"],"bee_group":{"antennae":"B","wings":"1","pattern":"X","legs":"X"},"action":"harvest","summary":"good-harvest","bonus":0.840000000000001},{"rt":1203,"stimulus":"\n                    <p><b>Action: <em>harvest</em></b></p>\n                    <p>This is the bee that you just saw.</p>\n                    <img src=\"bees-with-color/bee-B2SM.svg\" width=\"200\">\n                    <p><span class=\"greenText\"><b>Successful harvest!</b></span><br>Your pay has increased by $0.02. Your bonus pay is now $0.82.</p>\n            ","response":0,"trial_type":"html-button-response","trial_index":110,"time_elapsed":1011989,"internal_node_id":"0.0-4.0-1.51","subject_id":"5b339152afe1d00001c6c509","study_id":"6197b3f67c2b5cd3b6d9596a","session_id":"619bfbdd57d790152c1911e8","condition":"contingent","relevant_dimensions":["antennae","wings"],"bee_group":{"antennae":"B","wings":"1","pattern":"X","legs":"X"},"bonus":0.840000000000001},{"rt":9965,"stimulus":"bees-with-color/bee-B2DM.svg","response":0,"trial_type":"image-button-response","trial_index":111,"time_elapsed":1021955,"internal_node_id":"0.0-4.0-0.52","subject_id":"5b339152afe1d00001c6c509","study_id":"6197b3f67c2b5cd3b6d9596a","session_id":"619bfbdd57d790152c1911e8","condition":"contingent","relevant_dimensions":["antennae","wings"],"bee_group":{"antennae":"B","wings":"1","pattern":"X","legs":"X"},"action":"harvest","summary":"good-harvest","bonus":0.840000000000001},{"rt":1078,"stimulus":"\n                    <p><b>Action: <em>harvest</em></b></p>\n                    <p>This is the bee that you just saw.</p>\n                    <img src=\"bees-with-color/bee-B2DM.svg\" width=\"200\">\n                    <p><span class=\"greenText\"><b>Successful harvest!</b></span><br>Your pay has increased by $0.02. Your bonus pay is now $0.84.</p>\n            ","response":0,"trial_type":"html-button-response","trial_index":112,"time_elapsed":1023034,"internal_node_id":"0.0-4.0-1.52","subject_id":"5b339152afe1d00001c6c509","study_id":"6197b3f67c2b5cd3b6d9596a","session_id":"619bfbdd57d790152c1911e8","condition":"contingent","relevant_dimensions":["antennae","wings"],"bee_group":{"antennae":"B","wings":"1","pattern":"X","legs":"X"},"bonus":0.840000000000001},{"rt":9796,"stimulus":"bees-with-color/bee-A1SF.svg","response":0,"trial_type":"image-button-response","trial_index":113,"time_elapsed":1032831,"internal_node_id":"0.0-4.0-0.53","subject_id":"5b339152afe1d00001c6c509","study_id":"6197b3f67c2b5cd3b6d9596a","session_id":"619bfbdd57d790152c1911e8","condition":"contingent","relevant_dimensions":["antennae","wings"],"bee_group":{"antennae":"B","wings":"1","pattern":"X","legs":"X"},"action":"harvest","summary":"good-harvest","bonus":0.840000000000001},{"rt":631,"stimulus":"\n                    <p><b>Action: <em>harvest</em></b></p>\n                    <p>This is the bee that you just saw.</p>\n                    <img src=\"bees-with-color/bee-A1SF.svg\" width=\"200\">\n                    <p><span class=\"greenText\"><b>Successful harvest!</b></span><br>Your pay has increased by $0.02. Your bonus pay is now $0.86.</p>\n            ","response":0,"trial_type":"html-button-response","trial_index":114,"time_elapsed":1033462,"internal_node_id":"0.0-4.0-1.53","subject_id":"5b339152afe1d00001c6c509","study_id":"6197b3f67c2b5cd3b6d9596a","session_id":"619bfbdd57d790152c1911e8","condition":"contingent","relevant_dimensions":["antennae","wings"],"bee_group":{"antennae":"B","wings":"1","pattern":"X","legs":"X"},"bonus":0.840000000000001},{"rt":8045,"stimulus":"bees-with-color/bee-B1SF.svg","response":1,"trial_type":"image-button-response","trial_index":115,"time_elapsed":1041508,"internal_node_id":"0.0-4.0-0.54","subject_id":"5b339152afe1d00001c6c509","study_id":"6197b3f67c2b5cd3b6d9596a","session_id":"619bfbdd57d790152c1911e8","condition":"contingent","relevant_dimensions":["antennae","wings"],"bee_group":{"antennae":"B","wings":"1","pattern":"X","legs":"X"},"action":"avoid","summary":"good-avoid","bonus":0.840000000000001},{"rt":626,"stimulus":"\n                    <p><b>Action: <em>avoid</em></b></p>\n                    <p>This is the bee that you just saw.</p>\n                    <img src=\"bees-with-color/bee-B1SF.svg\" width=\"200\">\n                    <p><br>Your bonus pay is unchanged, and remains at $0.86.</p>\n            ","response":0,"trial_type":"html-button-response","trial_index":116,"time_elapsed":1042136,"internal_node_id":"0.0-4.0-1.54","subject_id":"5b339152afe1d00001c6c509","study_id":"6197b3f67c2b5cd3b6d9596a","session_id":"619bfbdd57d790152c1911e8","condition":"contingent","relevant_dimensions":["antennae","wings"],"bee_group":{"antennae":"B","wings":"1","pattern":"X","legs":"X"},"bonus":0.840000000000001},{"rt":10979,"stimulus":"bees-with-color/bee-B2SF.svg","response":0,"trial_type":"image-button-response","trial_index":117,"time_elapsed":1053116,"internal_node_id":"0.0-4.0-0.55","subject_id":"5b339152afe1d00001c6c509","study_id":"6197b3f67c2b5cd3b6d9596a","session_id":"619bfbdd57d790152c1911e8","condition":"contingent","relevant_dimensions":["antennae","wings"],"bee_group":{"antennae":"B","wings":"1","pattern":"X","legs":"X"},"action":"harvest","summary":"good-harvest","bonus":0.840000000000001},{"rt":610,"stimulus":"\n                    <p><b>Action: <em>harvest</em></b></p>\n                    <p>This is the bee that you just saw.</p>\n                    <img src=\"bees-with-color/bee-B2SF.svg\" width=\"200\">\n                    <p><span class=\"greenText\"><b>Successful harvest!</b></span><br>Your pay has increased by $0.02. Your bonus pay is now $0.88.</p>\n            ","response":0,"trial_type":"html-button-response","trial_index":118,"time_elapsed":1053729,"internal_node_id":"0.0-4.0-1.55","subject_id":"5b339152afe1d00001c6c509","study_id":"6197b3f67c2b5cd3b6d9596a","session_id":"619bfbdd57d790152c1911e8","condition":"contingent","relevant_dimensions":["antennae","wings"],"bee_group":{"antennae":"B","wings":"1","pattern":"X","legs":"X"},"bonus":0.840000000000001},{"rt":10453,"stimulus":"bees-with-color/bee-A2SF.svg","response":0,"trial_type":"image-button-response","trial_index":119,"time_elapsed":1064182,"internal_node_id":"0.0-4.0-0.56","subject_id":"5b339152afe1d00001c6c509","study_id":"6197b3f67c2b5cd3b6d9596a","session_id":"619bfbdd57d790152c1911e8","condition":"contingent","relevant_dimensions":["antennae","wings"],"bee_group":{"antennae":"B","wings":"1","pattern":"X","legs":"X"},"action":"harvest","summary":"good-harvest","bonus":0.840000000000001},{"rt":739,"stimulus":"\n                    <p><b>Action: <em>harvest</em></b></p>\n                    <p>This is the bee that you just saw.</p>\n                    <img src=\"bees-with-color/bee-A2SF.svg\" width=\"200\">\n                    <p><span class=\"greenText\"><b>Successful harvest!</b></span><br>Your pay has increased by $0.02. Your bonus pay is now $0.90.</p>\n            ","response":0,"trial_type":"html-button-response","trial_index":120,"time_elapsed":1064923,"internal_node_id":"0.0-4.0-1.56","subject_id":"5b339152afe1d00001c6c509","study_id":"6197b3f67c2b5cd3b6d9596a","session_id":"619bfbdd57d790152c1911e8","condition":"contingent","relevant_dimensions":["antennae","wings"],"bee_group":{"antennae":"B","wings":"1","pattern":"X","legs":"X"},"bonus":0.840000000000001},{"rt":9330,"stimulus":"bees-with-color/bee-A2DM.svg","response":0,"trial_type":"image-button-response","trial_index":121,"time_elapsed":1074255,"internal_node_id":"0.0-4.0-0.57","subject_id":"5b339152afe1d00001c6c509","study_id":"6197b3f67c2b5cd3b6d9596a","session_id":"619bfbdd57d790152c1911e8","condition":"contingent","relevant_dimensions":["antennae","wings"],"bee_group":{"antennae":"B","wings":"1","pattern":"X","legs":"X"},"action":"harvest","summary":"good-harvest","bonus":0.840000000000001},{"rt":974,"stimulus":"\n                    <p><b>Action: <em>harvest</em></b></p>\n                    <p>This is the bee that you just saw.</p>\n                    <img src=\"bees-with-color/bee-A2DM.svg\" width=\"200\">\n                    <p><span class=\"greenText\"><b>Successful harvest!</b></span><br>Your pay has increased by $0.02. Your bonus pay is now $0.92.</p>\n            ","response":0,"trial_type":"html-button-response","trial_index":122,"time_elapsed":1075230,"internal_node_id":"0.0-4.0-1.57","subject_id":"5b339152afe1d00001c6c509","study_id":"6197b3f67c2b5cd3b6d9596a","session_id":"619bfbdd57d790152c1911e8","condition":"contingent","relevant_dimensions":["antennae","wings"],"bee_group":{"antennae":"B","wings":"1","pattern":"X","legs":"X"},"bonus":0.840000000000001},{"rt":8278,"stimulus":"bees-with-color/bee-B1DM.svg","response":1,"trial_type":"image-button-response","trial_index":123,"time_elapsed":1083509,"internal_node_id":"0.0-4.0-0.58","subject_id":"5b339152afe1d00001c6c509","study_id":"6197b3f67c2b5cd3b6d9596a","session_id":"619bfbdd57d790152c1911e8","condition":"contingent","relevant_dimensions":["antennae","wings"],"bee_group":{"antennae":"B","wings":"1","pattern":"X","legs":"X"},"action":"avoid","summary":"good-avoid","bonus":0.840000000000001},{"rt":622,"stimulus":"\n                    <p><b>Action: <em>avoid</em></b></p>\n                    <p>This is the bee that you just saw.</p>\n                    <img src=\"bees-with-color/bee-B1DM.svg\" width=\"200\">\n                    <p><br>Your bonus pay is unchanged, and remains at $0.92.</p>\n            ","response":0,"trial_type":"html-button-response","trial_index":124,"time_elapsed":1084133,"internal_node_id":"0.0-4.0-1.58","subject_id":"5b339152afe1d00001c6c509","study_id":"6197b3f67c2b5cd3b6d9596a","session_id":"619bfbdd57d790152c1911e8","condition":"contingent","relevant_dimensions":["antennae","wings"],"bee_group":{"antennae":"B","wings":"1","pattern":"X","legs":"X"},"bonus":0.840000000000001},{"rt":5565,"stimulus":"bees-with-color/bee-B1DF.svg","response":1,"trial_type":"image-button-response","trial_index":125,"time_elapsed":1089699,"internal_node_id":"0.0-4.0-0.59","subject_id":"5b339152afe1d00001c6c509","study_id":"6197b3f67c2b5cd3b6d9596a","session_id":"619bfbdd57d790152c1911e8","condition":"contingent","relevant_dimensions":["antennae","wings"],"bee_group":{"antennae":"B","wings":"1","pattern":"X","legs":"X"},"action":"avoid","summary":"good-avoid","bonus":0.840000000000001},{"rt":610,"stimulus":"\n                    <p><b>Action: <em>avoid</em></b></p>\n                    <p>This is the bee that you just saw.</p>\n                    <img src=\"bees-with-color/bee-B1DF.svg\" width=\"200\">\n                    <p><br>Your bonus pay is unchanged, and remains at $0.92.</p>\n            ","response":0,"trial_type":"html-button-response","trial_index":126,"time_elapsed":1090310,"internal_node_id":"0.0-4.0-1.59","subject_id":"5b339152afe1d00001c6c509","study_id":"6197b3f67c2b5cd3b6d9596a","session_id":"619bfbdd57d790152c1911e8","condition":"contingent","relevant_dimensions":["antennae","wings"],"bee_group":{"antennae":"B","wings":"1","pattern":"X","legs":"X"},"bonus":0.840000000000001},{"rt":6629,"stimulus":"bees-with-color/bee-A2DF.svg","response":0,"trial_type":"image-button-response","trial_index":127,"time_elapsed":1096940,"internal_node_id":"0.0-4.0-0.60","subject_id":"5b339152afe1d00001c6c509","study_id":"6197b3f67c2b5cd3b6d9596a","session_id":"619bfbdd57d790152c1911e8","condition":"contingent","relevant_dimensions":["antennae","wings"],"bee_group":{"antennae":"B","wings":"1","pattern":"X","legs":"X"},"action":"harvest","summary":"good-harvest","bonus":0.840000000000001},{"rt":1050,"stimulus":"\n                    <p><b>Action: <em>harvest</em></b></p>\n                    <p>This is the bee that you just saw.</p>\n                    <img src=\"bees-with-color/bee-A2DF.svg\" width=\"200\">\n                    <p><span class=\"greenText\"><b>Successful harvest!</b></span><br>Your pay has increased by $0.02. Your bonus pay is now $0.94.</p>\n            ","response":0,"trial_type":"html-button-response","trial_index":128,"time_elapsed":1097992,"internal_node_id":"0.0-4.0-1.60","subject_id":"5b339152afe1d00001c6c509","study_id":"6197b3f67c2b5cd3b6d9596a","session_id":"619bfbdd57d790152c1911e8","condition":"contingent","relevant_dimensions":["antennae","wings"],"bee_group":{"antennae":"B","wings":"1","pattern":"X","legs":"X"},"bonus":0.840000000000001},{"rt":6800,"stimulus":"bees-with-color/bee-A2SM.svg","response":0,"trial_type":"image-button-response","trial_index":129,"time_elapsed":1104794,"internal_node_id":"0.0-4.0-0.61","subject_id":"5b339152afe1d00001c6c509","study_id":"6197b3f67c2b5cd3b6d9596a","session_id":"619bfbdd57d790152c1911e8","condition":"contingent","relevant_dimensions":["antennae","wings"],"bee_group":{"antennae":"B","wings":"1","pattern":"X","legs":"X"},"action":"harvest","summary":"good-harvest","bonus":0.840000000000001},{"rt":2007,"stimulus":"\n                    <p><b>Action: <em>harvest</em></b></p>\n                    <p>This is the bee that you just saw.</p>\n                    <img src=\"bees-with-color/bee-A2SM.svg\" width=\"200\">\n                    <p><span class=\"greenText\"><b>Successful harvest!</b></span><br>Your pay has increased by $0.02. Your bonus pay is now $0.96.</p>\n            ","response":0,"trial_type":"html-button-response","trial_index":130,"time_elapsed":1106803,"internal_node_id":"0.0-4.0-1.61","subject_id":"5b339152afe1d00001c6c509","study_id":"6197b3f67c2b5cd3b6d9596a","session_id":"619bfbdd57d790152c1911e8","condition":"contingent","relevant_dimensions":["antennae","wings"],"bee_group":{"antennae":"B","wings":"1","pattern":"X","legs":"X"},"bonus":0.840000000000001},{"rt":7617,"stimulus":"bees-with-color/bee-A1DM.svg","response":0,"trial_type":"image-button-response","trial_index":131,"time_elapsed":1114421,"internal_node_id":"0.0-4.0-0.62","subject_id":"5b339152afe1d00001c6c509","study_id":"6197b3f67c2b5cd3b6d9596a","session_id":"619bfbdd57d790152c1911e8","condition":"contingent","relevant_dimensions":["antennae","wings"],"bee_group":{"antennae":"B","wings":"1","pattern":"X","legs":"X"},"action":"harvest","summary":"good-harvest","bonus":0.840000000000001},{"rt":810,"stimulus":"\n                    <p><b>Action: <em>harvest</em></b></p>\n                    <p>This is the bee that you just saw.</p>\n                    <img src=\"bees-with-color/bee-A1DM.svg\" width=\"200\">\n                    <p><span class=\"greenText\"><b>Successful harvest!</b></span><br>Your pay has increased by $0.02. Your bonus pay is now $0.98.</p>\n            ","response":0,"trial_type":"html-button-response","trial_index":132,"time_elapsed":1115231,"internal_node_id":"0.0-4.0-1.62","subject_id":"5b339152afe1d00001c6c509","study_id":"6197b3f67c2b5cd3b6d9596a","session_id":"619bfbdd57d790152c1911e8","condition":"contingent","relevant_dimensions":["antennae","wings"],"bee_group":{"antennae":"B","wings":"1","pattern":"X","legs":"X"},"bonus":0.840000000000001},{"rt":12536,"stimulus":"bees-with-color/bee-A1DF.svg","response":0,"trial_type":"image-button-response","trial_index":133,"time_elapsed":1127768,"internal_node_id":"0.0-4.0-0.63","subject_id":"5b339152afe1d00001c6c509","study_id":"6197b3f67c2b5cd3b6d9596a","session_id":"619bfbdd57d790152c1911e8","condition":"contingent","relevant_dimensions":["antennae","wings"],"bee_group":{"antennae":"B","wings":"1","pattern":"X","legs":"X"},"action":"harvest","summary":"good-harvest","bonus":0.840000000000001},{"rt":1161,"stimulus":"\n                    <p><b>Action: <em>harvest</em></b></p>\n                    <p>This is the bee that you just saw.</p>\n                    <img src=\"bees-with-color/bee-A1DF.svg\" width=\"200\">\n                    <p><span class=\"greenText\"><b>Successful harvest!</b></span><br>Your pay has increased by $0.02. Your bonus pay is now $1.00.</p>\n            ","response":0,"trial_type":"html-button-response","trial_index":134,"time_elapsed":1128931,"internal_node_id":"0.0-4.0-1.63","subject_id":"5b339152afe1d00001c6c509","study_id":"6197b3f67c2b5cd3b6d9596a","session_id":"619bfbdd57d790152c1911e8","condition":"contingent","relevant_dimensions":["antennae","wings"],"bee_group":{"antennae":"B","wings":"1","pattern":"X","legs":"X"},"bonus":0.840000000000001},{"rt":9755,"stimulus":"You have completed the first part of this experiment.<br><br>You will now begin a shorter second part, in which you will receive no feedback.<br>The same rules regarding bonus pay apply.<br><br>Press any key to begin.","response":"v","trial_type":"html-keyboard-response","trial_index":135,"time_elapsed":1138687,"internal_node_id":"0.0-5.0","subject_id":"5b339152afe1d00001c6c509","study_id":"6197b3f67c2b5cd3b6d9596a","session_id":"619bfbdd57d790152c1911e8","condition":"contingent","relevant_dimensions":["antennae","wings"],"bee_group":{"antennae":"B","wings":"1","pattern":"X","legs":"X"},"bonus":0.840000000000001},{"rt":4741,"stimulus":"bees-with-color/bee-B2DM.svg","response":0,"trial_type":"image-button-response","trial_index":136,"time_elapsed":1143430,"internal_node_id":"0.0-6.0-0.0","subject_id":"5b339152afe1d00001c6c509","study_id":"6197b3f67c2b5cd3b6d9596a","session_id":"619bfbdd57d790152c1911e8","condition":"contingent","relevant_dimensions":["antennae","wings"],"bee_group":{"antennae":"B","wings":"1","pattern":"X","legs":"X"},"bonus":0.840000000000001},{"rt":4347,"stimulus":"bees-with-color/bee-B2SF.svg","response":0,"trial_type":"image-button-response","trial_index":137,"time_elapsed":1147779,"internal_node_id":"0.0-6.0-0.1","subject_id":"5b339152afe1d00001c6c509","study_id":"6197b3f67c2b5cd3b6d9596a","session_id":"619bfbdd57d790152c1911e8","condition":"contingent","relevant_dimensions":["antennae","wings"],"bee_group":{"antennae":"B","wings":"1","pattern":"X","legs":"X"},"bonus":0.840000000000001},{"rt":826,"stimulus":"bees-with-color/bee-B1SM.svg","response":1,"trial_type":"image-button-response","trial_index":138,"time_elapsed":1148607,"internal_node_id":"0.0-6.0-0.2","subject_id":"5b339152afe1d00001c6c509","study_id":"6197b3f67c2b5cd3b6d9596a","session_id":"619bfbdd57d790152c1911e8","condition":"contingent","relevant_dimensions":["antennae","wings"],"bee_group":{"antennae":"B","wings":"1","pattern":"X","legs":"X"},"bonus":0.840000000000001},{"rt":937,"stimulus":"bees-with-color/bee-A2SM.svg","response":0,"trial_type":"image-button-response","trial_index":139,"time_elapsed":1149544,"internal_node_id":"0.0-6.0-0.3","subject_id":"5b339152afe1d00001c6c509","study_id":"6197b3f67c2b5cd3b6d9596a","session_id":"619bfbdd57d790152c1911e8","condition":"contingent","relevant_dimensions":["antennae","wings"],"bee_group":{"antennae":"B","wings":"1","pattern":"X","legs":"X"},"bonus":0.840000000000001},{"rt":2071,"stimulus":"bees-with-color/bee-A2DM.svg","response":0,"trial_type":"image-button-response","trial_index":140,"time_elapsed":1151617,"internal_node_id":"0.0-6.0-0.4","subject_id":"5b339152afe1d00001c6c509","study_id":"6197b3f67c2b5cd3b6d9596a","session_id":"619bfbdd57d790152c1911e8","condition":"contingent","relevant_dimensions":["antennae","wings"],"bee_group":{"antennae":"B","wings":"1","pattern":"X","legs":"X"},"bonus":0.840000000000001},{"rt":390,"stimulus":"bees-with-color/bee-B2SM.svg","response":0,"trial_type":"image-button-response","trial_index":141,"time_elapsed":1152008,"internal_node_id":"0.0-6.0-0.5","subject_id":"5b339152afe1d00001c6c509","study_id":"6197b3f67c2b5cd3b6d9596a","session_id":"619bfbdd57d790152c1911e8","condition":"contingent","relevant_dimensions":["antennae","wings"],"bee_group":{"antennae":"B","wings":"1","pattern":"X","legs":"X"},"bonus":0.840000000000001},{"rt":342,"stimulus":"bees-with-color/bee-B1SF.svg","response":0,"trial_type":"image-button-response","trial_index":142,"time_elapsed":1152353,"internal_node_id":"0.0-6.0-0.6","subject_id":"5b339152afe1d00001c6c509","study_id":"6197b3f67c2b5cd3b6d9596a","session_id":"619bfbdd57d790152c1911e8","condition":"contingent","relevant_dimensions":["antennae","wings"],"bee_group":{"antennae":"B","wings":"1","pattern":"X","legs":"X"},"bonus":0.840000000000001},{"rt":323,"stimulus":"bees-with-color/bee-A2DF.svg","response":0,"trial_type":"image-button-response","trial_index":143,"time_elapsed":1152676,"internal_node_id":"0.0-6.0-0.7","subject_id":"5b339152afe1d00001c6c509","study_id":"6197b3f67c2b5cd3b6d9596a","session_id":"619bfbdd57d790152c1911e8","condition":"contingent","relevant_dimensions":["antennae","wings"],"bee_group":{"antennae":"B","wings":"1","pattern":"X","legs":"X"},"bonus":0.840000000000001},{"rt":794,"stimulus":"bees-with-color/bee-A1SF.svg","response":1,"trial_type":"image-button-response","trial_index":144,"time_elapsed":1153472,"internal_node_id":"0.0-6.0-0.8","subject_id":"5b339152afe1d00001c6c509","study_id":"6197b3f67c2b5cd3b6d9596a","session_id":"619bfbdd57d790152c1911e8","condition":"contingent","relevant_dimensions":["antennae","wings"],"bee_group":{"antennae":"B","wings":"1","pattern":"X","legs":"X"},"bonus":0.840000000000001},{"rt":224,"stimulus":"bees-with-color/bee-A1SM.svg","response":1,"trial_type":"image-button-response","trial_index":145,"time_elapsed":1153697,"internal_node_id":"0.0-6.0-0.9","subject_id":"5b339152afe1d00001c6c509","study_id":"6197b3f67c2b5cd3b6d9596a","session_id":"619bfbdd57d790152c1911e8","condition":"contingent","relevant_dimensions":["antennae","wings"],"bee_group":{"antennae":"B","wings":"1","pattern":"X","legs":"X"},"bonus":0.840000000000001},{"rt":179,"stimulus":"bees-with-color/bee-A1DM.svg","response":1,"trial_type":"image-button-response","trial_index":146,"time_elapsed":1153876,"internal_node_id":"0.0-6.0-0.10","subject_id":"5b339152afe1d00001c6c509","study_id":"6197b3f67c2b5cd3b6d9596a","session_id":"619bfbdd57d790152c1911e8","condition":"contingent","relevant_dimensions":["antennae","wings"],"bee_group":{"antennae":"B","wings":"1","pattern":"X","legs":"X"},"bonus":0.840000000000001},{"rt":183,"stimulus":"bees-with-color/bee-B1DF.svg","response":1,"trial_type":"image-button-response","trial_index":147,"time_elapsed":1154061,"internal_node_id":"0.0-6.0-0.11","subject_id":"5b339152afe1d00001c6c509","study_id":"6197b3f67c2b5cd3b6d9596a","session_id":"619bfbdd57d790152c1911e8","condition":"contingent","relevant_dimensions":["antennae","wings"],"bee_group":{"antennae":"B","wings":"1","pattern":"X","legs":"X"},"bonus":0.840000000000001},{"rt":184,"stimulus":"bees-with-color/bee-B2DF.svg","response":1,"trial_type":"image-button-response","trial_index":148,"time_elapsed":1154245,"internal_node_id":"0.0-6.0-0.12","subject_id":"5b339152afe1d00001c6c509","study_id":"6197b3f67c2b5cd3b6d9596a","session_id":"619bfbdd57d790152c1911e8","condition":"contingent","relevant_dimensions":["antennae","wings"],"bee_group":{"antennae":"B","wings":"1","pattern":"X","legs":"X"},"bonus":0.840000000000001},{"rt":206,"stimulus":"bees-with-color/bee-A1DF.svg","response":1,"trial_type":"image-button-response","trial_index":149,"time_elapsed":1154452,"internal_node_id":"0.0-6.0-0.13","subject_id":"5b339152afe1d00001c6c509","study_id":"6197b3f67c2b5cd3b6d9596a","session_id":"619bfbdd57d790152c1911e8","condition":"contingent","relevant_dimensions":["antennae","wings"],"bee_group":{"antennae":"B","wings":"1","pattern":"X","legs":"X"},"bonus":0.840000000000001},{"rt":679,"stimulus":"bees-with-color/bee-A2SF.svg","response":0,"trial_type":"image-button-response","trial_index":150,"time_elapsed":1155132,"internal_node_id":"0.0-6.0-0.14","subject_id":"5b339152afe1d00001c6c509","study_id":"6197b3f67c2b5cd3b6d9596a","session_id":"619bfbdd57d790152c1911e8","condition":"contingent","relevant_dimensions":["antennae","wings"],"bee_group":{"antennae":"B","wings":"1","pattern":"X","legs":"X"},"bonus":0.840000000000001},{"rt":758,"stimulus":"bees-with-color/bee-B1DM.svg","response":1,"trial_type":"image-button-response","trial_index":151,"time_elapsed":1155892,"internal_node_id":"0.0-6.0-0.15","subject_id":"5b339152afe1d00001c6c509","study_id":"6197b3f67c2b5cd3b6d9596a","session_id":"619bfbdd57d790152c1911e8","condition":"contingent","relevant_dimensions":["antennae","wings"],"bee_group":{"antennae":"B","wings":"1","pattern":"X","legs":"X"},"bonus":0.840000000000001},{"rt":197,"stimulus":"bees-with-color/bee-B1DF.svg","response":1,"trial_type":"image-button-response","trial_index":152,"time_elapsed":1156089,"internal_node_id":"0.0-6.0-0.16","subject_id":"5b339152afe1d00001c6c509","study_id":"6197b3f67c2b5cd3b6d9596a","session_id":"619bfbdd57d790152c1911e8","condition":"contingent","relevant_dimensions":["antennae","wings"],"bee_group":{"antennae":"B","wings":"1","pattern":"X","legs":"X"},"bonus":0.840000000000001},{"rt":1101,"stimulus":"bees-with-color/bee-A1SM.svg","response":0,"trial_type":"image-button-response","trial_index":153,"time_elapsed":1157190,"internal_node_id":"0.0-6.0-0.17","subject_id":"5b339152afe1d00001c6c509","study_id":"6197b3f67c2b5cd3b6d9596a","session_id":"619bfbdd57d790152c1911e8","condition":"contingent","relevant_dimensions":["antennae","wings"],"bee_group":{"antennae":"B","wings":"1","pattern":"X","legs":"X"},"bonus":0.840000000000001},{"rt":575,"stimulus":"bees-with-color/bee-A1SF.svg","response":0,"trial_type":"image-button-response","trial_index":154,"time_elapsed":1157766,"internal_node_id":"0.0-6.0-0.18","subject_id":"5b339152afe1d00001c6c509","study_id":"6197b3f67c2b5cd3b6d9596a","session_id":"619bfbdd57d790152c1911e8","condition":"contingent","relevant_dimensions":["antennae","wings"],"bee_group":{"antennae":"B","wings":"1","pattern":"X","legs":"X"},"bonus":0.840000000000001},{"rt":711,"stimulus":"bees-with-color/bee-B2DM.svg","response":1,"trial_type":"image-button-response","trial_index":155,"time_elapsed":1158478,"internal_node_id":"0.0-6.0-0.19","subject_id":"5b339152afe1d00001c6c509","study_id":"6197b3f67c2b5cd3b6d9596a","session_id":"619bfbdd57d790152c1911e8","condition":"contingent","relevant_dimensions":["antennae","wings"],"bee_group":{"antennae":"B","wings":"1","pattern":"X","legs":"X"},"bonus":0.840000000000001},{"rt":907,"stimulus":"bees-with-color/bee-B1SF.svg","response":0,"trial_type":"image-button-response","trial_index":156,"time_elapsed":1159386,"internal_node_id":"0.0-6.0-0.20","subject_id":"5b339152afe1d00001c6c509","study_id":"6197b3f67c2b5cd3b6d9596a","session_id":"619bfbdd57d790152c1911e8","condition":"contingent","relevant_dimensions":["antennae","wings"],"bee_group":{"antennae":"B","wings":"1","pattern":"X","legs":"X"},"bonus":0.840000000000001},{"rt":834,"stimulus":"bees-with-color/bee-A2DM.svg","response":1,"trial_type":"image-button-response","trial_index":157,"time_elapsed":1160223,"internal_node_id":"0.0-6.0-0.21","subject_id":"5b339152afe1d00001c6c509","study_id":"6197b3f67c2b5cd3b6d9596a","session_id":"619bfbdd57d790152c1911e8","condition":"contingent","relevant_dimensions":["antennae","wings"],"bee_group":{"antennae":"B","wings":"1","pattern":"X","legs":"X"},"bonus":0.840000000000001},{"rt":207,"stimulus":"bees-with-color/bee-A1DM.svg","response":1,"trial_type":"image-button-response","trial_index":158,"time_elapsed":1160431,"internal_node_id":"0.0-6.0-0.22","subject_id":"5b339152afe1d00001c6c509","study_id":"6197b3f67c2b5cd3b6d9596a","session_id":"619bfbdd57d790152c1911e8","condition":"contingent","relevant_dimensions":["antennae","wings"],"bee_group":{"antennae":"B","wings":"1","pattern":"X","legs":"X"},"bonus":0.840000000000001},{"rt":206,"stimulus":"bees-with-color/bee-B2SM.svg","response":1,"trial_type":"image-button-response","trial_index":159,"time_elapsed":1160638,"internal_node_id":"0.0-6.0-0.23","subject_id":"5b339152afe1d00001c6c509","study_id":"6197b3f67c2b5cd3b6d9596a","session_id":"619bfbdd57d790152c1911e8","condition":"contingent","relevant_dimensions":["antennae","wings"],"bee_group":{"antennae":"B","wings":"1","pattern":"X","legs":"X"},"bonus":0.840000000000001},{"rt":454,"stimulus":"bees-with-color/bee-B2SF.svg","response":0,"trial_type":"image-button-response","trial_index":160,"time_elapsed":1161094,"internal_node_id":"0.0-6.0-0.24","subject_id":"5b339152afe1d00001c6c509","study_id":"6197b3f67c2b5cd3b6d9596a","session_id":"619bfbdd57d790152c1911e8","condition":"contingent","relevant_dimensions":["antennae","wings"],"bee_group":{"antennae":"B","wings":"1","pattern":"X","legs":"X"},"bonus":0.840000000000001},{"rt":223,"stimulus":"bees-with-color/bee-B1DM.svg","response":0,"trial_type":"image-button-response","trial_index":161,"time_elapsed":1161318,"internal_node_id":"0.0-6.0-0.25","subject_id":"5b339152afe1d00001c6c509","study_id":"6197b3f67c2b5cd3b6d9596a","session_id":"619bfbdd57d790152c1911e8","condition":"contingent","relevant_dimensions":["antennae","wings"],"bee_group":{"antennae":"B","wings":"1","pattern":"X","legs":"X"},"bonus":0.840000000000001},{"rt":747,"stimulus":"bees-with-color/bee-A2SF.svg","response":1,"trial_type":"image-button-response","trial_index":162,"time_elapsed":1162066,"internal_node_id":"0.0-6.0-0.26","subject_id":"5b339152afe1d00001c6c509","study_id":"6197b3f67c2b5cd3b6d9596a","session_id":"619bfbdd57d790152c1911e8","condition":"contingent","relevant_dimensions":["antennae","wings"],"bee_group":{"antennae":"B","wings":"1","pattern":"X","legs":"X"},"bonus":0.840000000000001},{"rt":611,"stimulus":"bees-with-color/bee-A2DF.svg","response":1,"trial_type":"image-button-response","trial_index":163,"time_elapsed":1162678,"internal_node_id":"0.0-6.0-0.27","subject_id":"5b339152afe1d00001c6c509","study_id":"6197b3f67c2b5cd3b6d9596a","session_id":"619bfbdd57d790152c1911e8","condition":"contingent","relevant_dimensions":["antennae","wings"],"bee_group":{"antennae":"B","wings":"1","pattern":"X","legs":"X"},"bonus":0.840000000000001},{"rt":278,"stimulus":"bees-with-color/bee-A2SM.svg","response":1,"trial_type":"image-button-response","trial_index":164,"time_elapsed":1162958,"internal_node_id":"0.0-6.0-0.28","subject_id":"5b339152afe1d00001c6c509","study_id":"6197b3f67c2b5cd3b6d9596a","session_id":"619bfbdd57d790152c1911e8","condition":"contingent","relevant_dimensions":["antennae","wings"],"bee_group":{"antennae":"B","wings":"1","pattern":"X","legs":"X"},"bonus":0.840000000000001},{"rt":765,"stimulus":"bees-with-color/bee-