[{"success":true,"trial_type":"fullscreen","trial_index":0,"time_elapsed":4638,"internal_node_id":"0.0-0.0","subject_id":"5c636850bad3560001c2749e","study_id":"60edd13110225f80f9f3709b","session_id":"6196c1f329e77d78a9df5978","condition":"contingent","relevant_dimensions":["pattern","legs"],"bee_group":{"antennae":"X","wings":"X","pattern":"S","legs":"M"},"bonus":0.900000000000001},{"success":true,"timeout":false,"failed_images":[],"failed_audio":[],"failed_video":[],"trial_type":"preload","trial_index":1,"time_elapsed":6422,"internal_node_id":"0.0-1.0","subject_id":"5c636850bad3560001c2749e","study_id":"60edd13110225f80f9f3709b","session_id":"6196c1f329e77d78a9df5978","condition":"contingent","relevant_dimensions":["pattern","legs"],"bee_group":{"antennae":"X","wings":"X","pattern":"S","legs":"M"},"bonus":0.900000000000001},{"rt":3404.39999999851,"stimulus":"Welcome! Press any key to begin.","response":" ","trial_type":"html-keyboard-response","trial_index":2,"time_elapsed":9827,"internal_node_id":"0.0-2.0","subject_id":"5c636850bad3560001c2749e","study_id":"60edd13110225f80f9f3709b","session_id":"6196c1f329e77d78a9df5978","condition":"contingent","relevant_dimensions":["pattern","legs"],"bee_group":{"antennae":"X","wings":"X","pattern":"S","legs":"M"},"bonus":0.900000000000001},{"view_history":[{"page_index":0,"viewing_time":5402.19999999553},{"page_index":1,"viewing_time":15766.90000000596},{"page_index":2,"viewing_time":12993.89999999851},{"page_index":3,"viewing_time":17109},{"page_index":4,"viewing_time":6406.29999999702},{"page_index":5,"viewing_time":15317.80000000447},{"page_index":6,"viewing_time":11734.89999999851},{"page_index":7,"viewing_time":6767},{"page_index":8,"viewing_time":6102},{"page_index":9,"viewing_time":4749.10000000149},{"page_index":10,"viewing_time":3176},{"page_index":11,"viewing_time":11456.89999999851},{"page_index":12,"viewing_time":10108},{"page_index":13,"viewing_time":1770},{"page_index":14,"viewing_time":3830}],"rt":132690.29999999702,"trial_type":"instructions","trial_index":3,"time_elapsed":142518,"internal_node_id":"0.0-3.0-0.0","subject_id":"5c636850bad3560001c2749e","study_id":"60edd13110225f80f9f3709b","session_id":"6196c1f329e77d78a9df5978","condition":"contingent","relevant_dimensions":["pattern","legs"],"bee_group":{"antennae":"X","wings":"X","pattern":"S","legs":"M"},"bonus":0.900000000000001},{"rt":15465.30000000447,"response":{"Q0":["Two or six legs","Stripes or spots on body","Single or double wings","Antennae or no antennae"]},"question_order":[0],"trial_type":"survey-multi-select","trial_index":4,"time_elapsed":157987,"internal_node_id":"0.0-3.0-1.0","subject_id":"5c636850bad3560001c2749e","study_id":"60edd13110225f80f9f3709b","session_id":"6196c1f329e77d78a9df5978","condition":"contingent","relevant_dimensions":["pattern","legs"],"bee_group":{"antennae":"X","wings":"X","pattern":"S","legs":"M"},"correct":true,"bonus":0.900000000000001},{"rt":18887.60000000149,"response":{"Q1":"No.","Q2":"Based on the four features of the bee.","Q3":"You do not learn if it was friendly or dangerous, and do not alter your bonus."},"question_order":[0,1,2],"trial_type":"survey-multi-choice","trial_index":5,"time_elapsed":176877,"internal_node_id":"0.0-3.0-2.0","subject_id":"5c636850bad3560001c2749e","study_id":"60edd13110225f80f9f3709b","session_id":"6196c1f329e77d78a9df5978","condition":"contingent","relevant_dimensions":["pattern","legs"],"bee_group":{"antennae":"X","wings":"X","pattern":"S","legs":"M"},"correct":true,"bonus":0.900000000000001},{"rt":3482.3000000044703,"stimulus":"<p>Congrats, you got everything right<br>When you're ready, click the button below to continue to the experiment.</p>","response":0,"trial_type":"html-button-response","trial_index":6,"time_elapsed":180361,"internal_node_id":"0.0-3.0-3.0","subject_id":"5c636850bad3560001c2749e","study_id":"60edd13110225f80f9f3709b","session_id":"6196c1f329e77d78a9df5978","condition":"contingent","relevant_dimensions":["pattern","legs"],"bee_group":{"antennae":"X","wings":"X","pattern":"S","legs":"M"},"bonus":0.900000000000001},{"rt":8959.79999999702,"stimulus":"bees-with-color/bee-A2SM.svg","response":0,"trial_type":"image-button-response","trial_index":7,"time_elapsed":189323,"internal_node_id":"0.0-4.0-0.0","subject_id":"5c636850bad3560001c2749e","study_id":"60edd13110225f80f9f3709b","session_id":"6196c1f329e77d78a9df5978","condition":"contingent","relevant_dimensions":["pattern","legs"],"bee_group":{"antennae":"X","wings":"X","pattern":"S","legs":"M"},"action":"harvest","summary":"bad-harvest","bonus":0.900000000000001},{"rt":5159.70000000298,"stimulus":"\n                    <p><b>Action: <em>harvest</em></b></p>\n                    <p>This is the bee that you just saw.</p>\n                    <img src=\"bees-with-color/bee-A2SM.svg\" width=\"200\">\n                    <p><span class=\"redText\">Bad choice, the bee was angry.</span><br><b>You have been stung!</b><br>Your pay has been decreased by $0.10. Your bonus pay is now $0.44.</p>\n            ","response":0,"trial_type":"html-button-response","trial_index":8,"time_elapsed":194485,"internal_node_id":"0.0-4.0-1.0","subject_id":"5c636850bad3560001c2749e","study_id":"60edd13110225f80f9f3709b","session_id":"6196c1f329e77d78a9df5978","condition":"contingent","relevant_dimensions":["pattern","legs"],"bee_group":{"antennae":"X","wings":"X","pattern":"S","legs":"M"},"bonus":0.900000000000001},{"rt":1711.1000000014901,"stimulus":"bees-with-color/bee-A1SM.svg","response":0,"trial_type":"image-button-response","trial_index":9,"time_elapsed":196198,"internal_node_id":"0.0-4.0-0.1","subject_id":"5c636850bad3560001c2749e","study_id":"60edd13110225f80f9f3709b","session_id":"6196c1f329e77d78a9df5978","condition":"contingent","relevant_dimensions":["pattern","legs"],"bee_group":{"antennae":"X","wings":"X","pattern":"S","legs":"M"},"action":"harvest","summary":"bad-harvest","bonus":0.900000000000001},{"rt":3215.2000000029802,"stimulus":"\n                    <p><b>Action: <em>harvest</em></b></p>\n                    <p>This is the bee that you just saw.</p>\n                    <img src=\"bees-with-color/bee-A1SM.svg\" width=\"200\">\n                    <p><span class=\"redText\">Bad choice, the bee was angry.</span><br><b>You have been stung!</b><br>Your pay has been decreased by $0.10. Your bonus pay is now $0.34.</p>\n            ","response":0,"trial_type":"html-button-response","trial_index":10,"time_elapsed":199415,"internal_node_id":"0.0-4.0-1.1","subject_id":"5c636850bad3560001c2749e","study_id":"60edd13110225f80f9f3709b","session_id":"6196c1f329e77d78a9df5978","condition":"contingent","relevant_dimensions":["pattern","legs"],"bee_group":{"antennae":"X","wings":"X","pattern":"S","legs":"M"},"bonus":0.900000000000001},{"rt":1385.6000000014901,"stimulus":"bees-with-color/bee-B1DF.svg","response":0,"trial_type":"image-button-response","trial_index":11,"time_elapsed":200802,"internal_node_id":"0.0-4.0-0.2","subject_id":"5c636850bad3560001c2749e","study_id":"60edd13110225f80f9f3709b","session_id":"6196c1f329e77d78a9df5978","condition":"contingent","relevant_dimensions":["pattern","legs"],"bee_group":{"antennae":"X","wings":"X","pattern":"S","legs":"M"},"action":"harvest","summary":"good-harvest","bonus":0.900000000000001},{"rt":1750.3000000044703,"stimulus":"\n                    <p><b>Action: <em>harvest</em></b></p>\n                    <p>This is the bee that you just saw.</p>\n                    <img src=\"bees-with-color/bee-B1DF.svg\" width=\"200\">\n                    <p><span class=\"greenText\"><b>Successful harvest!</b></span><br>Your pay has increased by $0.02. Your bonus pay is now $0.36.</p>\n            ","response":0,"trial_type":"html-button-response","trial_index":12,"time_elapsed":202554,"internal_node_id":"0.0-4.0-1.2","subject_id":"5c636850bad3560001c2749e","study_id":"60edd13110225f80f9f3709b","session_id":"6196c1f329e77d78a9df5978","condition":"contingent","relevant_dimensions":["pattern","legs"],"bee_group":{"antennae":"X","wings":"X","pattern":"S","legs":"M"},"bonus":0.900000000000001},{"rt":1613.6000000014901,"stimulus":"bees-with-color/bee-A2SF.svg","response":0,"trial_type":"image-button-response","trial_index":13,"time_elapsed":204169,"internal_node_id":"0.0-4.0-0.3","subject_id":"5c636850bad3560001c2749e","study_id":"60edd13110225f80f9f3709b","session_id":"6196c1f329e77d78a9df5978","condition":"contingent","relevant_dimensions":["pattern","legs"],"bee_group":{"antennae":"X","wings":"X","pattern":"S","legs":"M"},"action":"harvest","summary":"good-harvest","bonus":0.900000000000001},{"rt":1132.5,"stimulus":"\n                    <p><b>Action: <em>harvest</em></b></p>\n                    <p>This is the bee that you just saw.</p>\n                    <img src=\"bees-with-color/bee-A2SF.svg\" width=\"200\">\n                    <p><span class=\"greenText\"><b>Successful harvest!</b></span><br>Your pay has increased by $0.02. Your bonus pay is now $0.38.</p>\n            ","response":0,"trial_type":"html-button-response","trial_index":14,"time_elapsed":205303,"internal_node_id":"0.0-4.0-1.3","subject_id":"5c636850bad3560001c2749e","study_id":"60edd13110225f80f9f3709b","session_id":"6196c1f329e77d78a9df5978","condition":"contingent","relevant_dimensions":["pattern","legs"],"bee_group":{"antennae":"X","wings":"X","pattern":"S","legs":"M"},"bonus":0.900000000000001},{"rt":1626.7000000029802,"stimulus":"bees-with-color/bee-A2DM.svg","response":1,"trial_type":"image-button-response","trial_index":15,"time_elapsed":206931,"internal_node_id":"0.0-4.0-0.4","subject_id":"5c636850bad3560001c2749e","study_id":"60edd13110225f80f9f3709b","session_id":"6196c1f329e77d78a9df5978","condition":"contingent","relevant_dimensions":["pattern","legs"],"bee_group":{"antennae":"X","wings":"X","pattern":"S","legs":"M"},"action":"avoid","summary":"bad-avoid","bonus":0.900000000000001},{"rt":2998.60000000149,"stimulus":"\n                    <p><b>Action: <em>avoid</em></b></p>\n                    <p>This is the bee that you just saw.</p>\n                    <img src=\"bees-with-color/bee-A2DM.svg\" width=\"200\">\n                    <p><br>Your bonus pay is unchanged, and remains at $0.38.</p>\n            ","response":0,"trial_type":"html-button-response","trial_index":16,"time_elapsed":209931,"internal_node_id":"0.0-4.0-1.4","subject_id":"5c636850bad3560001c2749e","study_id":"60edd13110225f80f9f3709b","session_id":"6196c1f329e77d78a9df5978","condition":"contingent","relevant_dimensions":["pattern","legs"],"bee_group":{"antennae":"X","wings":"X","pattern":"S","legs":"M"},"bonus":0.900000000000001},{"rt":1458.3999999985099,"stimulus":"bees-with-color/bee-A1DM.svg","response":0,"trial_type":"image-button-response","trial_index":17,"time_elapsed":211391,"internal_node_id":"0.0-4.0-0.5","subject_id":"5c636850bad3560001c2749e","study_id":"60edd13110225f80f9f3709b","session_id":"6196c1f329e77d78a9df5978","condition":"contingent","relevant_dimensions":["pattern","legs"],"bee_group":{"antennae":"X","wings":"X","pattern":"S","legs":"M"},"action":"harvest","summary":"good-harvest","bonus":0.900000000000001},{"rt":1381.8999999985099,"stimulus":"\n                    <p><b>Action: <em>harvest</em></b></p>\n                    <p>This is the bee that you just saw.</p>\n                    <img src=\"bees-with-color/bee-A1DM.svg\" width=\"200\">\n                    <p><span class=\"greenText\"><b>Successful harvest!</b></span><br>Your pay has increased by $0.02. Your bonus pay is now $0.40.</p>\n            ","response":0,"trial_type":"html-button-response","trial_index":18,"time_elapsed":212774,"internal_node_id":"0.0-4.0-1.5","subject_id":"5c636850bad3560001c2749e","study_id":"60edd13110225f80f9f3709b","session_id":"6196c1f329e77d78a9df5978","condition":"contingent","relevant_dimensions":["pattern","legs"],"bee_group":{"antennae":"X","wings":"X","pattern":"S","legs":"M"},"bonus":0.900000000000001},{"rt":1390.6000000014901,"stimulus":"bees-with-color/bee-B1DM.svg","response":0,"trial_type":"image-button-response","trial_index":19,"time_elapsed":214166,"internal_node_id":"0.0-4.0-0.6","subject_id":"5c636850bad3560001c2749e","study_id":"60edd13110225f80f9f3709b","session_id":"6196c1f329e77d78a9df5978","condition":"contingent","relevant_dimensions":["pattern","legs"],"bee_group":{"antennae":"X","wings":"X","pattern":"S","legs":"M"},"action":"harvest","summary":"good-harvest","bonus":0.900000000000001},{"rt":1114.7000000029802,"stimulus":"\n                    <p><b>Action: <em>harvest</em></b></p>\n                    <p>This is the bee that you just saw.</p>\n                    <img src=\"bees-with-color/bee-B1DM.svg\" width=\"200\">\n                    <p><span class=\"greenText\"><b>Successful harvest!</b></span><br>Your pay has increased by $0.02. Your bonus pay is now $0.42.</p>\n            ","response":0,"trial_type":"html-button-response","trial_index":20,"time_elapsed":215282,"internal_node_id":"0.0-4.0-1.6","subject_id":"5c636850bad3560001c2749e","study_id":"60edd13110225f80f9f3709b","session_id":"6196c1f329e77d78a9df5978","condition":"contingent","relevant_dimensions":["pattern","legs"],"bee_group":{"antennae":"X","wings":"X","pattern":"S","legs":"M"},"bonus":0.900000000000001},{"rt":1779,"stimulus":"bees-with-color/bee-A1DF.svg","response":0,"trial_type":"image-button-response","trial_index":21,"time_elapsed":217062,"internal_node_id":"0.0-4.0-0.7","subject_id":"5c636850bad3560001c2749e","study_id":"60edd13110225f80f9f3709b","session_id":"6196c1f329e77d78a9df5978","condition":"contingent","relevant_dimensions":["pattern","legs"],"bee_group":{"antennae":"X","wings":"X","pattern":"S","legs":"M"},"action":"harvest","summary":"good-harvest","bonus":0.900000000000001},{"rt":852.8999999985099,"stimulus":"\n                    <p><b>Action: <em>harvest</em></b></p>\n                    <p>This is the bee that you just saw.</p>\n                    <img src=\"bees-with-color/bee-A1DF.svg\" width=\"200\">\n                    <p><span class=\"greenText\"><b>Successful harvest!</b></span><br>Your pay has increased by $0.02. Your bonus pay is now $0.44.</p>\n            ","response":0,"trial_type":"html-button-response","trial_index":22,"time_elapsed":217916,"internal_node_id":"0.0-4.0-1.7","subject_id":"5c636850bad3560001c2749e","study_id":"60edd13110225f80f9f3709b","session_id":"6196c1f329e77d78a9df5978","condition":"contingent","relevant_dimensions":["pattern","legs"],"bee_group":{"antennae":"X","wings":"X","pattern":"S","legs":"M"},"bonus":0.900000000000001},{"rt":2302.60000000149,"stimulus":"bees-with-color/bee-A1SF.svg","response":0,"trial_type":"image-button-response","trial_index":23,"time_elapsed":220220,"internal_node_id":"0.0-4.0-0.8","subject_id":"5c636850bad3560001c2749e","study_id":"60edd13110225f80f9f3709b","session_id":"6196c1f329e77d78a9df5978","condition":"contingent","relevant_dimensions":["pattern","legs"],"bee_group":{"antennae":"X","wings":"X","pattern":"S","legs":"M"},"action":"harvest","summary":"good-harvest","bonus":0.900000000000001},{"rt":722.7999999970198,"stimulus":"\n                    <p><b>Action: <em>harvest</em></b></p>\n                    <p>This is the bee that you just saw.</p>\n                    <img src=\"bees-with-color/bee-A1SF.svg\" width=\"200\">\n                    <p><span class=\"greenText\"><b>Successful harvest!</b></span><br>Your pay has increased by $0.02. Your bonus pay is now $0.46.</p>\n            ","response":0,"trial_type":"html-button-response","trial_index":24,"time_elapsed":220944,"internal_node_id":"0.0-4.0-1.8","subject_id":"5c636850bad3560001c2749e","study_id":"60edd13110225f80f9f3709b","session_id":"6196c1f329e77d78a9df5978","condition":"contingent","relevant_dimensions":["pattern","legs"],"bee_group":{"antennae":"X","wings":"X","pattern":"S","legs":"M"},"bonus":0.900000000000001},{"rt":1081.6000000014901,"stimulus":"bees-with-color/bee-B1SF.svg","response":0,"trial_type":"image-button-response","trial_index":25,"time_elapsed":222027,"internal_node_id":"0.0-4.0-0.9","subject_id":"5c636850bad3560001c2749e","study_id":"60edd13110225f80f9f3709b","session_id":"6196c1f329e77d78a9df5978","condition":"contingent","relevant_dimensions":["pattern","legs"],"bee_group":{"antennae":"X","wings":"X","pattern":"S","legs":"M"},"action":"harvest","summary":"good-harvest","bonus":0.900000000000001},{"rt":843.7000000029802,"stimulus":"\n                    <p><b>Action: <em>harvest</em></b></p>\n                    <p>This is the bee that you just saw.</p>\n                    <img src=\"bees-with-color/bee-B1SF.svg\" width=\"200\">\n                    <p><span class=\"greenText\"><b>Successful harvest!</b></span><br>Your pay has increased by $0.02. Your bonus pay is now $0.48.</p>\n            ","response":0,"trial_type":"html-button-response","trial_index":26,"time_elapsed":222872,"internal_node_id":"0.0-4.0-1.9","subject_id":"5c636850bad3560001c2749e","study_id":"60edd13110225f80f9f3709b","session_id":"6196c1f329e77d78a9df5978","condition":"contingent","relevant_dimensions":["pattern","legs"],"bee_group":{"antennae":"X","wings":"X","pattern":"S","legs":"M"},"bonus":0.900000000000001},{"rt":1782.9000000059605,"stimulus":"bees-with-color/bee-B2DF.svg","response":0,"trial_type":"image-button-response","trial_index":27,"time_elapsed":224656,"internal_node_id":"0.0-4.0-0.10","subject_id":"5c636850bad3560001c2749e","study_id":"60edd13110225f80f9f3709b","session_id":"6196c1f329e77d78a9df5978","condition":"contingent","relevant_dimensions":["pattern","legs"],"bee_group":{"antennae":"X","wings":"X","pattern":"S","legs":"M"},"action":"harvest","summary":"good-harvest","bonus":0.900000000000001},{"rt":999.6000000014901,"stimulus":"\n                    <p><b>Action: <em>harvest</em></b></p>\n                    <p>This is the bee that you just saw.</p>\n                    <img src=\"bees-with-color/bee-B2DF.svg\" width=\"200\">\n                    <p><span class=\"greenText\"><b>Successful harvest!</b></span><br>Your pay has increased by $0.02. Your bonus pay is now $0.50.</p>\n            ","response":0,"trial_type":"html-button-response","trial_index":28,"time_elapsed":225657,"internal_node_id":"0.0-4.0-1.10","subject_id":"5c636850bad3560001c2749e","study_id":"60edd13110225f80f9f3709b","session_id":"6196c1f329e77d78a9df5978","condition":"contingent","relevant_dimensions":["pattern","legs"],"bee_group":{"antennae":"X","wings":"X","pattern":"S","legs":"M"},"bonus":0.900000000000001},{"rt":1656.8999999985099,"stimulus":"bees-with-color/bee-B1SM.svg","response":1,"trial_type":"image-button-response","trial_index":29,"time_elapsed":227315,"internal_node_id":"0.0-4.0-0.11","subject_id":"5c636850bad3560001c2749e","study_id":"60edd13110225f80f9f3709b","session_id":"6196c1f329e77d78a9df5978","condition":"contingent","relevant_dimensions":["pattern","legs"],"bee_group":{"antennae":"X","wings":"X","pattern":"S","legs":"M"},"action":"avoid","summary":"good-avoid","bonus":0.900000000000001},{"rt":720.8000000044703,"stimulus":"\n                    <p><b>Action: <em>avoid</em></b></p>\n                    <p>This is the bee that you just saw.</p>\n                    <img src=\"bees-with-color/bee-B1SM.svg\" width=\"200\">\n                    <p><br>Your bonus pay is unchanged, and remains at $0.50.</p>\n            ","response":0,"trial_type":"html-button-response","trial_index":30,"time_elapsed":228037,"internal_node_id":"0.0-4.0-1.11","subject_id":"5c636850bad3560001c2749e","study_id":"60edd13110225f80f9f3709b","session_id":"6196c1f329e77d78a9df5978","condition":"contingent","relevant_dimensions":["pattern","legs"],"bee_group":{"antennae":"X","wings":"X","pattern":"S","legs":"M"},"bonus":0.900000000000001},{"rt":1598.8999999985099,"stimulus":"bees-with-color/bee-B2SF.svg","response":1,"trial_type":"image-button-response","trial_index":31,"time_elapsed":229637,"internal_node_id":"0.0-4.0-0.12","subject_id":"5c636850bad3560001c2749e","study_id":"60edd13110225f80f9f3709b","session_id":"6196c1f329e77d78a9df5978","condition":"contingent","relevant_dimensions":["pattern","legs"],"bee_group":{"antennae":"X","wings":"X","pattern":"S","legs":"M"},"action":"avoid","summary":"bad-avoid","bonus":0.900000000000001},{"rt":610.8000000044703,"stimulus":"\n                    <p><b>Action: <em>avoid</em></b></p>\n                    <p>This is the bee that you just saw.</p>\n                    <img src=\"bees-with-color/bee-B2SF.svg\" width=\"200\">\n                    <p><br>Your bonus pay is unchanged, and remains at $0.50.</p>\n            ","response":0,"trial_type":"html-button-response","trial_index":32,"time_elapsed":230249,"internal_node_id":"0.0-4.0-1.12","subject_id":"5c636850bad3560001c2749e","study_id":"60edd13110225f80f9f3709b","session_id":"6196c1f329e77d78a9df5978","condition":"contingent","relevant_dimensions":["pattern","legs"],"bee_group":{"antennae":"X","wings":"X","pattern":"S","legs":"M"},"bonus":0.900000000000001},{"rt":1998.7000000029802,"stimulus":"bees-with-color/bee-A2DF.svg","response":0,"trial_type":"image-button-response","trial_index":33,"time_elapsed":232249,"internal_node_id":"0.0-4.0-0.13","subject_id":"5c636850bad3560001c2749e","study_id":"60edd13110225f80f9f3709b","session_id":"6196c1f329e77d78a9df5978","condition":"contingent","relevant_dimensions":["pattern","legs"],"bee_group":{"antennae":"X","wings":"X","pattern":"S","legs":"M"},"action":"harvest","summary":"good-harvest","bonus":0.900000000000001},{"rt":807.8000000044703,"stimulus":"\n                    <p><b>Action: <em>harvest</em></b></p>\n                    <p>This is the bee that you just saw.</p>\n                    <img src=\"bees-with-color/bee-A2DF.svg\" width=\"200\">\n                    <p><span class=\"greenText\"><b>Successful harvest!</b></span><br>Your pay has increased by $0.02. Your bonus pay is now $0.52.</p>\n            ","response":0,"trial_type":"html-button-response","trial_index":34,"time_elapsed":233058,"internal_node_id":"0.0-4.0-1.13","subject_id":"5c636850bad3560001c2749e","study_id":"60edd13110225f80f9f3709b","session_id":"6196c1f329e77d78a9df5978","condition":"contingent","relevant_dimensions":["pattern","legs"],"bee_group":{"antennae":"X","wings":"X","pattern":"S","legs":"M"},"bonus":0.900000000000001},{"rt":1236.6999999955297,"stimulus":"bees-with-color/bee-B2SM.svg","response":1,"trial_type":"image-button-response","trial_index":35,"time_elapsed":234296,"internal_node_id":"0.0-4.0-0.14","subject_id":"5c636850bad3560001c2749e","study_id":"60edd13110225f80f9f3709b","session_id":"6196c1f329e77d78a9df5978","condition":"contingent","relevant_dimensions":["pattern","legs"],"bee_group":{"antennae":"X","wings":"X","pattern":"S","legs":"M"},"action":"avoid","summary":"good-avoid","bonus":0.900000000000001},{"rt":691.7999999970198,"stimulus":"\n                    <p><b>Action: <em>avoid</em></b></p>\n                    <p>This is the bee that you just saw.</p>\n                    <img src=\"bees-with-color/bee-B2SM.svg\" width=\"200\">\n                    <p><br>Your bonus pay is unchanged, and remains at $0.52.</p>\n            ","response":0,"trial_type":"html-button-response","trial_index":36,"time_elapsed":234989,"internal_node_id":"0.0-4.0-1.14","subject_id":"5c636850bad3560001c2749e","study_id":"60edd13110225f80f9f3709b","session_id":"6196c1f329e77d78a9df5978","condition":"contingent","relevant_dimensions":["pattern","legs"],"bee_group":{"antennae":"X","wings":"X","pattern":"S","legs":"M"},"bonus":0.900000000000001},{"rt":1941.6000000014901,"stimulus":"bees-with-color/bee-B2DM.svg","response":0,"trial_type":"image-button-response","trial_index":37,"time_elapsed":236932,"internal_node_id":"0.0-4.0-0.15","subject_id":"5c636850bad3560001c2749e","study_id":"60edd13110225f80f9f3709b","session_id":"6196c1f329e77d78a9df5978","condition":"contingent","relevant_dimensions":["pattern","legs"],"bee_group":{"antennae":"X","wings":"X","pattern":"S","legs":"M"},"action":"harvest","summary":"good-harvest","bonus":0.900000000000001},{"rt":733.8999999985099,"stimulus":"\n                    <p><b>Action: <em>harvest</em></b></p>\n                    <p>This is the bee that you just saw.</p>\n                    <img src=\"bees-with-color/bee-B2DM.svg\" width=\"200\">\n                    <p><span class=\"greenText\"><b>Successful harvest!</b></span><br>Your pay has increased by $0.02. Your bonus pay is now $0.54.</p>\n            ","response":0,"trial_type":"html-button-response","trial_index":38,"time_elapsed":237667,"internal_node_id":"0.0-4.0-1.15","subject_id":"5c636850bad3560001c2749e","study_id":"60edd13110225f80f9f3709b","session_id":"6196c1f329e77d78a9df5978","condition":"contingent","relevant_dimensions":["pattern","legs"],"bee_group":{"antennae":"X","wings":"X","pattern":"S","legs":"M"},"bonus":0.900000000000001},{"rt":1378,"stimulus":"bees-with-color/bee-A1DF.svg","response":1,"trial_type":"image-button-response","trial_index":39,"time_elapsed":239045,"internal_node_id":"0.0-4.0-0.16","subject_id":"5c636850bad3560001c2749e","study_id":"60edd13110225f80f9f3709b","session_id":"6196c1f329e77d78a9df5978","condition":"contingent","relevant_dimensions":["pattern","legs"],"bee_group":{"antennae":"X","wings":"X","pattern":"S","legs":"M"},"action":"avoid","summary":"bad-avoid","bonus":0.900000000000001},{"rt":769.1000000014901,"stimulus":"\n                    <p><b>Action: <em>avoid</em></b></p>\n                    <p>This is the bee that you just saw.</p>\n                    <img src=\"bees-with-color/bee-A1DF.svg\" width=\"200\">\n                    <p><br>Your bonus pay is unchanged, and remains at $0.54.</p>\n            ","response":0,"trial_type":"html-button-response","trial_index":40,"time_elapsed":239815,"internal_node_id":"0.0-4.0-1.16","subject_id":"5c636850bad3560001c2749e","study_id":"60edd13110225f80f9f3709b","session_id":"6196c1f329e77d78a9df5978","condition":"contingent","relevant_dimensions":["pattern","legs"],"bee_group":{"antennae":"X","wings":"X","pattern":"S","legs":"M"},"bonus":0.900000000000001},{"rt":3111,"stimulus":"bees-with-color/bee-B2SF.svg","response":1,"trial_type":"image-button-response","trial_index":41,"time_elapsed":242927,"internal_node_id":"0.0-4.0-0.17","subject_id":"5c636850bad3560001c2749e","study_id":"60edd13110225f80f9f3709b","session_id":"6196c1f329e77d78a9df5978","condition":"contingent","relevant_dimensions":["pattern","legs"],"bee_group":{"antennae":"X","wings":"X","pattern":"S","legs":"M"},"action":"avoid","summary":"bad-avoid","bonus":0.900000000000001},{"rt":1557.7000000029802,"stimulus":"\n                    <p><b>Action: <em>avoid</em></b></p>\n                    <p>This is the bee that you just saw.</p>\n                    <img src=\"bees-with-color/bee-B2SF.svg\" width=\"200\">\n                    <p><br>Your bonus pay is unchanged, and remains at $0.54.</p>\n            ","response":0,"trial_type":"html-button-response","trial_index":42,"time_elapsed":244486,"internal_node_id":"0.0-4.0-1.17","subject_id":"5c636850bad3560001c2749e","study_id":"60edd13110225f80f9f3709b","session_id":"6196c1f329e77d78a9df5978","condition":"contingent","relevant_dimensions":["pattern","legs"],"bee_group":{"antennae":"X","wings":"X","pattern":"S","legs":"M"},"bonus":0.900000000000001},{"rt":1603.7000000029802,"stimulus":"bees-with-color/bee-B1SM.svg","response":0,"trial_type":"image-button-response","trial_index":43,"time_elapsed":246091,"internal_node_id":"0.0-4.0-0.18","subject_id":"5c636850bad3560001c2749e","study_id":"60edd13110225f80f9f3709b","session_id":"6196c1f329e77d78a9df5978","condition":"contingent","relevant_dimensions":["pattern","legs"],"bee_group":{"antennae":"X","wings":"X","pattern":"S","legs":"M"},"action":"harvest","summary":"bad-harvest","bonus":0.900000000000001},{"rt":985.8999999985099,"stimulus":"\n                    <p><b>Action: <em>harvest</em></b></p>\n                    <p>This is the bee that you just saw.</p>\n                    <img src=\"bees-with-color/bee-B1SM.svg\" width=\"200\">\n                    <p><span class=\"redText\">Bad choice, the bee was angry.</span><br><b>You have been stung!</b><br>Your pay has been decreased by $0.10. Your bonus pay is now $0.44.</p>\n            ","response":0,"trial_type":"html-button-response","trial_index":44,"time_elapsed":247078,"internal_node_id":"0.0-4.0-1.18","subject_id":"5c636850bad3560001c2749e","study_id":"60edd13110225f80f9f3709b","session_id":"6196c1f329e77d78a9df5978","condition":"contingent","relevant_dimensions":["pattern","legs"],"bee_group":{"antennae":"X","wings":"X","pattern":"S","legs":"M"},"bonus":0.900000000000001},{"rt":2621.8000000044703,"stimulus":"bees-with-color/bee-B1DM.svg","response":0,"trial_type":"image-button-response","trial_index":45,"time_elapsed":249701,"internal_node_id":"0.0-4.0-0.19","subject_id":"5c636850bad3560001c2749e","study_id":"60edd13110225f80f9f3709b","session_id":"6196c1f329e77d78a9df5978","condition":"contingent","relevant_dimensions":["pattern","legs"],"bee_group":{"antennae":"X","wings":"X","pattern":"S","legs":"M"},"action":"harvest","summary":"good-harvest","bonus":0.900000000000001},{"rt":758.8000000044703,"stimulus":"\n                    <p><b>Action: <em>harvest</em></b></p>\n                    <p>This is the bee that you just saw.</p>\n                    <img src=\"bees-with-color/bee-B1DM.svg\" width=\"200\">\n                    <p><span class=\"greenText\"><b>Successful harvest!</b></span><br>Your pay has increased by $0.02. Your bonus pay is now $0.46.</p>\n            ","response":0,"trial_type":"html-button-response","trial_index":46,"time_elapsed":250461,"internal_node_id":"0.0-4.0-1.19","subject_id":"5c636850bad3560001c2749e","study_id":"60edd13110225f80f9f3709b","session_id":"6196c1f329e77d78a9df5978","condition":"contingent","relevant_dimensions":["pattern","legs"],"bee_group":{"antennae":"X","wings":"X","pattern":"S","legs":"M"},"bonus":0.900000000000001},{"rt":2363.7000000029802,"stimulus":"bees-with-color/bee-A2DF.svg","response":0,"trial_type":"image-button-response","trial_index":47,"time_elapsed":252826,"internal_node_id":"0.0-4.0-0.20","subject_id":"5c636850bad3560001c2749e","study_id":"60edd13110225f80f9f3709b","session_id":"6196c1f329e77d78a9df5978","condition":"contingent","relevant_dimensions":["pattern","legs"],"bee_group":{"antennae":"X","wings":"X","pattern":"S","legs":"M"},"action":"harvest","summary":"good-harvest","bonus":0.900000000000001},{"rt":660.8000000044703,"stimulus":"\n                    <p><b>Action: <em>harvest</em></b></p>\n                    <p>This is the bee that you just saw.</p>\n                    <img src=\"bees-with-color/bee-A2DF.svg\" width=\"200\">\n                    <p><span class=\"greenText\"><b>Successful harvest!</b></span><br>Your pay has increased by $0.02. Your bonus pay is now $0.48.</p>\n            ","response":0,"trial_type":"html-button-response","trial_index":48,"time_elapsed":253489,"internal_node_id":"0.0-4.0-1.20","subject_id":"5c636850bad3560001c2749e","study_id":"60edd13110225f80f9f3709b","session_id":"6196c1f329e77d78a9df5978","condition":"contingent","relevant_dimensions":["pattern","legs"],"bee_group":{"antennae":"X","wings":"X","pattern":"S","legs":"M"},"bonus":0.900000000000001},{"rt":1285.3000000044703,"stimulus":"bees-with-color/bee-B1DF.svg","response":1,"trial_type":"image-button-response","trial_index":49,"time_elapsed":254775,"internal_node_id":"0.0-4.0-0.21","subject_id":"5c636850bad3560001c2749e","study_id":"60edd13110225f80f9f3709b","session_id":"6196c1f329e77d78a9df5978","condition":"contingent","relevant_dimensions":["pattern","legs"],"bee_group":{"antennae":"X","wings":"X","pattern":"S","legs":"M"},"action":"avoid","summary":"bad-avoid","bonus":0.900000000000001},{"rt":566.7000000029802,"stimulus":"\n                    <p><b>Action: <em>avoid</em></b></p>\n                    <p>This is the bee that you just saw.</p>\n                    <img src=\"bees-with-color/bee-B1DF.svg\" width=\"200\">\n                    <p><br>Your bonus pay is unchanged, and remains at $0.48.</p>\n            ","response":0,"trial_type":"html-button-response","trial_index":50,"time_elapsed":255343,"internal_node_id":"0.0-4.0-1.21","subject_id":"5c636850bad3560001c2749e","study_id":"60edd13110225f80f9f3709b","session_id":"6196c1f329e77d78a9df5978","condition":"contingent","relevant_dimensions":["pattern","legs"],"bee_group":{"antennae":"X","wings":"X","pattern":"S","legs":"M"},"bonus":0.900000000000001},{"rt":3289.89999999851,"stimulus":"bees-with-color/bee-A1SM.svg","response":1,"trial_type":"image-button-response","trial_index":51,"time_elapsed":258634,"internal_node_id":"0.0-4.0-0.22","subject_id":"5c636850bad3560001c2749e","study_id":"60edd13110225f80f9f3709b","session_id":"6196c1f329e77d78a9df5978","condition":"contingent","relevant_dimensions":["pattern","legs"],"bee_group":{"antennae":"X","wings":"X","pattern":"S","legs":"M"},"action":"avoid","summary":"good-avoid","bonus":0.900000000000001},{"rt":870.7000000029802,"stimulus":"\n                    <p><b>Action: <em>avoid</em></b></p>\n                    <p>This is the bee that you just saw.</p>\n                    <img src=\"bees-with-color/bee-A1SM.svg\" width=\"200\">\n                    <p><br>Your bonus pay is unchanged, and remains at $0.48.</p>\n            ","response":0,"trial_type":"html-button-response","trial_index":52,"time_elapsed":259506,"internal_node_id":"0.0-4.0-1.22","subject_id":"5c636850bad3560001c2749e","study_id":"60edd13110225f80f9f3709b","session_id":"6196c1f329e77d78a9df5978","condition":"contingent","relevant_dimensions":["pattern","legs"],"bee_group":{"antennae":"X","wings":"X","pattern":"S","legs":"M"},"bonus":0.900000000000001},{"rt":1321.7000000029802,"stimulus":"bees-with-color/bee-A2SF.svg","response":1,"trial_type":"image-button-response","trial_index":53,"time_elapsed":260829,"internal_node_id":"0.0-4.0-0.23","subject_id":"5c636850bad3560001c2749e","study_id":"60edd13110225f80f9f3709b","session_id":"6196c1f329e77d78a9df5978","condition":"contingent","relevant_dimensions":["pattern","legs"],"bee_group":{"antennae":"X","wings":"X","pattern":"S","legs":"M"},"action":"avoid","summary":"bad-avoid","bonus":0.900000000000001},{"rt":599.6000000014901,"stimulus":"\n                    <p><b>Action: <em>avoid</em></b></p>\n                    <p>This is the bee that you just saw.</p>\n                    <img src=\"bees-with-color/bee-A2SF.svg\" width=\"200\">\n                    <p><br>Your bonus pay is unchanged, and remains at $0.48.</p>\n            ","response":0,"trial_type":"html-button-response","trial_index":54,"time_elapsed":261430,"internal_node_id":"0.0-4.0-1.23","subject_id":"5c636850bad3560001c2749e","study_id":"60edd13110225f80f9f3709b","session_id":"6196c1f329e77d78a9df5978","condition":"contingent","relevant_dimensions":["pattern","legs"],"bee_group":{"antennae":"X","wings":"X","pattern":"S","legs":"M"},"bonus":0.900000000000001},{"rt":1156.7999999970198,"stimulus":"bees-with-color/bee-B2DF.svg","response":0,"trial_type":"image-button-response","trial_index":55,"time_elapsed":262588,"internal_node_id":"0.0-4.0-0.24","subject_id":"5c636850bad3560001c2749e","study_id":"60edd13110225f80f9f3709b","session_id":"6196c1f329e77d78a9df5978","condition":"contingent","relevant_dimensions":["pattern","legs"],"bee_group":{"antennae":"X","wings":"X","pattern":"S","legs":"M"},"action":"harvest","summary":"good-harvest","bonus":0.900000000000001},{"rt":801.6000000014901,"stimulus":"\n                    <p><b>Action: <em>harvest</em></b></p>\n                    <p>This is the bee that you just saw.</p>\n                    <img src=\"bees-with-color/bee-B2DF.svg\" width=\"200\">\n                    <p><span class=\"greenText\"><b>Successful harvest!</b></span><br>Your pay has increased by $0.02. Your bonus pay is now $0.50.</p>\n            ","response":0,"trial_type":"html-button-response","trial_index":56,"time_elapsed":263391,"internal_node_id":"0.0-4.0-1.24","subject_id":"5c636850bad3560001c2749e","study_id":"60edd13110225f80f9f3709b","session_id":"6196c1f329e77d78a9df5978","condition":"contingent","relevant_dimensions":["pattern","legs"],"bee_group":{"antennae":"X","wings":"X","pattern":"S","legs":"M"},"bonus":0.900000000000001},{"rt":1400.9000000059605,"stimulus":"bees-with-color/bee-A2SM.svg","response":1,"trial_type":"image-button-response","trial_index":57,"time_elapsed":264793,"internal_node_id":"0.0-4.0-0.25","subject_id":"5c636850bad3560001c2749e","study_id":"60edd13110225f80f9f3709b","session_id":"6196c1f329e77d78a9df5978","condition":"contingent","relevant_dimensions":["pattern","legs"],"bee_group":{"antennae":"X","wings":"X","pattern":"S","legs":"M"},"action":"avoid","summary":"good-avoid","bonus":0.900000000000001},{"rt":568.8000000044703,"stimulus":"\n                    <p><b>Action: <em>avoid</em></b></p>\n                    <p>This is the bee that you just saw.</p>\n                    <img src=\"bees-with-color/bee-A2SM.svg\" width=\"200\">\n                    <p><br>Your bonus pay is unchanged, and remains at $0.50.</p>\n            ","response":0,"trial_type":"html-button-response","trial_index":58,"time_elapsed":265363,"internal_node_id":"0.0-4.0-1.25","subject_id":"5c636850bad3560001c2749e","study_id":"60edd13110225f80f9f3709b","session_id":"6196c1f329e77d78a9df5978","condition":"contingent","relevant_dimensions":["pattern","legs"],"bee_group":{"antennae":"X","wings":"X","pattern":"S","legs":"M"},"bonus":0.900000000000001},{"rt":2088.89999999851,"stimulus":"bees-with-color/bee-A2DM.svg","response":0,"trial_type":"image-button-response","trial_index":59,"time_elapsed":267453,"internal_node_id":"0.0-4.0-0.26","subject_id":"5c636850bad3560001c2749e","study_id":"60edd13110225f80f9f3709b","session_id":"6196c1f329e77d78a9df5978","condition":"contingent","relevant_dimensions":["pattern","legs"],"bee_group":{"antennae":"X","wings":"X","pattern":"S","legs":"M"},"action":"harvest","summary":"good-harvest","bonus":0.900000000000001},{"rt":618.7999999970198,"stimulus":"\n                    <p><b>Action: <em>harvest</em></b></p>\n                    <p>This is the bee that you just saw.</p>\n                    <img src=\"bees-with-color/bee-A2DM.svg\" width=\"200\">\n                    <p><span class=\"greenText\"><b>Successful harvest!</b></span><br>Your pay has increased by $0.02. Your bonus pay is now $0.52.</p>\n            ","response":0,"trial_type":"html-button-response","trial_index":60,"time_elapsed":268073,"internal_node_id":"0.0-4.0-1.26","subject_id":"5c636850bad3560001c2749e","study_id":"60edd13110225f80f9f3709b","session_id":"6196c1f329e77d78a9df5978","condition":"contingent","relevant_dimensions":["pattern","legs"],"bee_group":{"antennae":"X","wings":"X","pattern":"S","legs":"M"},"bonus":0.900000000000001},{"rt":1713.1000000014901,"stimulus":"bees-with-color/bee-B1SF.svg","response":1,"trial_type":"image-button-response","trial_index":61,"time_elapsed":269787,"internal_node_id":"0.0-4.0-0.27","subject_id":"5c636850bad3560001c2749e","study_id":"60edd13110225f80f9f3709b","session_id":"6196c1f329e77d78a9df5978","condition":"contingent","relevant_dimensions":["pattern","legs"],"bee_group":{"antennae":"X","wings":"X","pattern":"S","legs":"M"},"action":"avoid","summary":"bad-avoid","bonus":0.900000000000001},{"rt":616.8000000044703,"stimulus":"\n                    <p><b>Action: <em>avoid</em></b></p>\n                    <p>This is the bee that you just saw.</p>\n                    <img src=\"bees-with-color/bee-B1SF.svg\" width=\"200\">\n                    <p><br>Your bonus pay is unchanged, and remains at $0.52.</p>\n            ","response":0,"trial_type":"html-button-response","trial_index":62,"time_elapsed":270405,"internal_node_id":"0.0-4.0-1.27","subject_id":"5c636850bad3560001c2749e","study_id":"60edd13110225f80f9f3709b","session_id":"6196c1f329e77d78a9df5978","condition":"contingent","relevant_dimensions":["pattern","legs"],"bee_group":{"antennae":"X","wings":"X","pattern":"S","legs":"M"},"bonus":0.900000000000001},{"rt":3636.89999999851,"stimulus":"bees-with-color/bee-B2SM.svg","response":1,"trial_type":"image-button-response","trial_index":63,"time_elapsed":274043,"internal_node_id":"0.0-4.0-0.28","subject_id":"5c636850bad3560001c2749e","study_id":"60edd13110225f80f9f3709b","session_id":"6196c1f329e77d78a9df5978","condition":"contingent","relevant_dimensions":["pattern","legs"],"bee_group":{"antennae":"X","wings":"X","pattern":"S","legs":"M"},"action":"avoid","summary":"good-avoid","bonus":0.900000000000001},{"rt":1295.7999999970198,"stimulus":"\n                    <p><b>Action: <em>avoid</em></b></p>\n                    <p>This is the bee that you just saw.</p>\n                    <img src=\"bees-with-color/bee-B2SM.svg\" width=\"200\">\n                    <p><br>Your bonus pay is unchanged, and remains at $0.52.</p>\n            ","response":0,"trial_type":"html-button-response","trial_index":64,"time_elapsed":275340,"internal_node_id":"0.0-4.0-1.28","subject_id":"5c636850bad3560001c2749e","study_id":"60edd13110225f80f9f3709b","session_id":"6196c1f329e77d78a9df5978","condition":"contingent","relevant_dimensions":["pattern","legs"],"bee_group":{"antennae":"X","wings":"X","pattern":"S","legs":"M"},"bonus":0.900000000000001},{"rt":3301.6999999955297,"stimulus":"bees-with-color/bee-A1SF.svg","response":1,"trial_type":"image-button-response","trial_index":65,"time_elapsed":278644,"internal_node_id":"0.0-4.0-0.29","subject_id":"5c636850bad3560001c2749e","study_id":"60edd13110225f80f9f3709b","session_id":"6196c1f329e77d78a9df5978","condition":"contingent","relevant_dimensions":["pattern","legs"],"bee_group":{"antennae":"X","wings":"X","pattern":"S","legs":"M"},"action":"avoid","summary":"bad-avoid","bonus":0.900000000000001},{"rt":579.3999999985099,"stimulus":"\n                    <p><b>Action: <em>avoid</em></b></p>\n                    <p>This is the bee that you just saw.</p>\n                    <img src=\"bees-with-color/bee-A1SF.svg\" width=\"200\">\n                    <p><br>Your bonus pay is unchanged, and remains at $0.52.</p>\n            ","response":0,"trial_type":"html-button-response","trial_index":66,"time_elapsed":279224,"internal_node_id":"0.0-4.0-1.29","subject_id":"5c636850bad3560001c2749e","study_id":"60edd13110225f80f9f3709b","session_id":"6196c1f329e77d78a9df5978","condition":"contingent","relevant_dimensions":["pattern","legs"],"bee_group":{"antennae":"X","wings":"X","pattern":"S","legs":"M"},"bonus":0.900000000000001},{"rt":1916.8000000044703,"stimulus":"bees-with-color/bee-A1DM.svg","response":0,"trial_type":"image-button-response","trial_index":67,"time_elapsed":281143,"internal_node_id":"0.0-4.0-0.30","subject_id":"5c636850bad3560001c2749e","study_id":"60edd13110225f80f9f3709b","session_id":"6196c1f329e77d78a9df5978","condition":"contingent","relevant_dimensions":["pattern","legs"],"bee_group":{"antennae":"X","wings":"X","pattern":"S","legs":"M"},"action":"harvest","summary":"good-harvest","bonus":0.900000000000001},{"rt":944.6000000014901,"stimulus":"\n                    <p><b>Action: <em>harvest</em></b></p>\n                    <p>This is the bee that you just saw.</p>\n                    <img src=\"bees-with-color/bee-A1DM.svg\" width=\"200\">\n                    <p><span class=\"greenText\"><b>Successful harvest!</b></span><br>Your pay has increased by $0.02. Your bonus pay is now $0.54.</p>\n            ","response":0,"trial_type":"html-button-response","trial_index":68,"time_elapsed":282088,"internal_node_id":"0.0-4.0-1.30","subject_id":"5c636850bad3560001c2749e","study_id":"60edd13110225f80f9f3709b","session_id":"6196c1f329e77d78a9df5978","condition":"contingent","relevant_dimensions":["pattern","legs"],"bee_group":{"antennae":"X","wings":"X","pattern":"S","legs":"M"},"bonus":0.900000000000001},{"rt":3658.9000000059605,"stimulus":"bees-with-color/bee-B2DM.svg","response":0,"trial_type":"image-button-response","trial_index":69,"time_elapsed":285748,"internal_node_id":"0.0-4.0-0.31","subject_id":"5c636850bad3560001c2749e","study_id":"60edd13110225f80f9f3709b","session_id":"6196c1f329e77d78a9df5978","condition":"contingent","relevant_dimensions":["pattern","legs"],"bee_group":{"antennae":"X","wings":"X","pattern":"S","legs":"M"},"action":"harvest","summary":"good-harvest","bonus":0.900000000000001},{"rt":651.7000000029802,"stimulus":"\n                    <p><b>Action: <em>harvest</em></b></p>\n                    <p>This is the bee that you just saw.</p>\n                    <img src=\"bees-with-color/bee-B2DM.svg\" width=\"200\">\n                    <p><span class=\"greenText\"><b>Successful harvest!</b></span><br>Your pay has increased by $0.02. Your bonus pay is now $0.56.</p>\n            ","response":0,"trial_type":"html-button-response","trial_index":70,"time_elapsed":286401,"internal_node_id":"0.0-4.0-1.31","subject_id":"5c636850bad3560001c2749e","study_id":"60edd13110225f80f9f3709b","session_id":"6196c1f329e77d78a9df5978","condition":"contingent","relevant_dimensions":["pattern","legs"],"bee_group":{"antennae":"X","wings":"X","pattern":"S","legs":"M"},"bonus":0.900000000000001},{"rt":2530.7000000029802,"stimulus":"bees-with-color/bee-B2SM.svg","response":1,"trial_type":"image-button-response","trial_index":71,"time_elapsed":288933,"internal_node_id":"0.0-4.0-0.32","subject_id":"5c636850bad3560001c2749e","study_id":"60edd13110225f80f9f3709b","session_id":"6196c1f329e77d78a9df5978","condition":"contingent","relevant_dimensions":["pattern","legs"],"bee_group":{"antennae":"X","wings":"X","pattern":"S","legs":"M"},"action":"avoid","summary":"good-avoid","bonus":0.900000000000001},{"rt":1102.8000000044703,"stimulus":"\n                    <p><b>Action: <em>avoid</em></b></p>\n                    <p>This is the bee that you just saw.</p>\n                    <img src=\"bees-with-color/bee-B2SM.svg\" width=\"200\">\n                    <p><br>Your bonus pay is unchanged, and remains at $0.56.</p>\n            ","response":0,"trial_type":"html-button-response","trial_index":72,"time_elapsed":290037,"internal_node_id":"0.0-4.0-1.32","subject_id":"5c636850bad3560001c2749e","study_id":"60edd13110225f80f9f3709b","session_id":"6196c1f329e77d78a9df5978","condition":"contingent","relevant_dimensions":["pattern","legs"],"bee_group":{"antennae":"X","wings":"X","pattern":"S","legs":"M"},"bonus":0.900000000000001},{"rt":2033.5,"stimulus":"bees-with-color/bee-B2DF.svg","response":0,"trial_type":"image-button-response","trial_index":73,"time_elapsed":292072,"internal_node_id":"0.0-4.0-0.33","subject_id":"5c636850bad3560001c2749e","study_id":"60edd13110225f80f9f3709b","session_id":"6196c1f329e77d78a9df5978","condition":"contingent","relevant_dimensions":["pattern","legs"],"bee_group":{"antennae":"X","wings":"X","pattern":"S","legs":"M"},"action":"harvest","summary":"good-harvest","bonus":0.900000000000001},{"rt":682.7000000029802,"stimulus":"\n                    <p><b>Action: <em>harvest</em></b></p>\n                    <p>This is the bee that you just saw.</p>\n                    <img src=\"bees-with-color/bee-B2DF.svg\" width=\"200\">\n                    <p><span class=\"greenText\"><b>Successful harvest!</b></span><br>Your pay has increased by $0.02. Your bonus pay is now $0.58.</p>\n            ","response":0,"trial_type":"html-button-response","trial_index":74,"time_elapsed":292756,"internal_node_id":"0.0-4.0-1.33","subject_id":"5c636850bad3560001c2749e","study_id":"60edd13110225f80f9f3709b","session_id":"6196c1f329e77d78a9df5978","condition":"contingent","relevant_dimensions":["pattern","legs"],"bee_group":{"antennae":"X","wings":"X","pattern":"S","legs":"M"},"bonus":0.900000000000001},{"rt":1319.5,"stimulus":"bees-with-color/bee-A1DF.svg","response":1,"trial_type":"image-button-response","trial_index":75,"time_elapsed":294077,"internal_node_id":"0.0-4.0-0.34","subject_id":"5c636850bad3560001c2749e","study_id":"60edd13110225f80f9f3709b","session_id":"6196c1f329e77d78a9df5978","condition":"contingent","relevant_dimensions":["pattern","legs"],"bee_group":{"antennae":"X","wings":"X","pattern":"S","legs":"M"},"action":"avoid","summary":"bad-avoid","bonus":0.900000000000001},{"rt":573.7000000029802,"stimulus":"\n                    <p><b>Action: <em>avoid</em></b></p>\n                    <p>This is the bee that you just saw.</p>\n                    <img src=\"bees-with-color/bee-A1DF.svg\" width=\"200\">\n                    <p><br>Your bonus pay is unchanged, and remains at $0.58.</p>\n            ","response":0,"trial_type":"html-button-response","trial_index":76,"time_elapsed":294652,"internal_node_id":"0.0-4.0-1.34","subject_id":"5c636850bad3560001c2749e","study_id":"60edd13110225f80f9f3709b","session_id":"6196c1f329e77d78a9df5978","condition":"contingent","relevant_dimensions":["pattern","legs"],"bee_group":{"antennae":"X","wings":"X","pattern":"S","legs":"M"},"bonus":0.900000000000001},{"rt":2220.9000000059605,"stimulus":"bees-with-color/bee-A2SM.svg","response":1,"trial_type":"image-button-response","trial_index":77,"time_elapsed":296875,"internal_node_id":"0.0-4.0-0.35","subject_id":"5c636850bad3560001c2749e","study_id":"60edd13110225f80f9f3709b","session_id":"6196c1f329e77d78a9df5978","condition":"contingent","relevant_dimensions":["pattern","legs"],"bee_group":{"antennae":"X","wings":"X","pattern":"S","legs":"M"},"action":"avoid","summary":"good-avoid","bonus":0.900000000000001},{"rt":622.3999999985099,"stimulus":"\n                    <p><b>Action: <em>avoid</em></b></p>\n                    <p>This is the bee that you just saw.</p>\n                    <img src=\"bees-with-color/bee-A2SM.svg\" width=\"200\">\n                    <p><br>Your bonus pay is unchanged, and remains at $0.58.</p>\n            ","response":0,"trial_type":"html-button-response","trial_index":78,"time_elapsed":297498,"internal_node_id":"0.0-4.0-1.35","subject_id":"5c636850bad3560001c2749e","study_id":"60edd13110225f80f9f3709b","session_id":"6196c1f329e77d78a9df5978","condition":"contingent","relevant_dimensions":["pattern","legs"],"bee_group":{"antennae":"X","wings":"X","pattern":"S","legs":"M"},"bonus":0.900000000000001},{"rt":3062.60000000149,"stimulus":"bees-with-color/bee-A2SF.svg","response":0,"trial_type":"image-button-response","trial_index":79,"time_elapsed":300563,"internal_node_id":"0.0-4.0-0.36","subject_id":"5c636850bad3560001c2749e","study_id":"60edd13110225f80f9f3709b","session_id":"6196c1f329e77d78a9df5978","condition":"contingent","relevant_dimensions":["pattern","legs"],"bee_group":{"antennae":"X","wings":"X","pattern":"S","legs":"M"},"action":"harvest","summary":"good-harvest","bonus":0.900000000000001},{"rt":536.7999999970198,"stimulus":"\n                    <p><b>Action: <em>harvest</em></b></p>\n                    <p>This is the bee that you just saw.</p>\n                    <img src=\"bees-with-color/bee-A2SF.svg\" width=\"200\">\n                    <p><span class=\"greenText\"><b>Successful harvest!</b></span><br>Your pay has increased by $0.02. Your bonus pay is now $0.60.</p>\n            ","response":0,"trial_type":"html-button-response","trial_index":80,"time_elapsed":301101,"internal_node_id":"0.0-4.0-1.36","subject_id":"5c636850bad3560001c2749e","study_id":"60edd13110225f80f9f3709b","session_id":"6196c1f329e77d78a9df5978","condition":"contingent","relevant_dimensions":["pattern","legs"],"bee_group":{"antennae":"X","wings":"X","pattern":"S","legs":"M"},"bonus":0.900000000000001},{"rt":3366.8000000044703,"stimulus":"bees-with-color/bee-B1DM.svg","response":0,"trial_type":"image-button-response","trial_index":81,"time_elapsed":304469,"internal_node_id":"0.0-4.0-0.37","subject_id":"5c636850bad3560001c2749e","study_id":"60edd13110225f80f9f3709b","session_id":"6196c1f329e77d78a9df5978","condition":"contingent","relevant_dimensions":["pattern","legs"],"bee_group":{"antennae":"X","wings":"X","pattern":"S","legs":"M"},"action":"harvest","summary":"good-harvest","bonus":0.900000000000001},{"rt":710.3999999985099,"stimulus":"\n                    <p><b>Action: <em>harvest</em></b></p>\n                    <p>This is the bee that you just saw.</p>\n                    <img src=\"bees-with-color/bee-B1DM.svg\" width=\"200\">\n                    <p><span class=\"greenText\"><b>Successful harvest!</b></span><br>Your pay has increased by $0.02. Your bonus pay is now $0.62.</p>\n            ","response":0,"trial_type":"html-button-response","trial_index":82,"time_elapsed":305181,"internal_node_id":"0.0-4.0-1.37","subject_id":"5c636850bad3560001c2749e","study_id":"60edd13110225f80f9f3709b","session_id":"6196c1f329e77d78a9df5978","condition":"contingent","relevant_dimensions":["pattern","legs"],"bee_group":{"antennae":"X","wings":"X","pattern":"S","legs":"M"},"bonus":0.900000000000001},{"rt":1784.7999999970198,"stimulus":"bees-with-color/bee-A2DF.svg","response":0,"trial_type":"image-button-response","trial_index":83,"time_elapsed":306967,"internal_node_id":"0.0-4.0-0.38","subject_id":"5c636850bad3560001c2749e","study_id":"60edd13110225f80f9f3709b","session_id":"6196c1f329e77d78a9df5978","condition":"contingent","relevant_dimensions":["pattern","legs"],"bee_group":{"antennae":"X","wings":"X","pattern":"S","legs":"M"},"action":"harvest","summary":"good-harvest","bonus":0.900000000000001},{"rt":585.7999999970198,"stimulus":"\n                    <p><b>Action: <em>harvest</em></b></p>\n                    <p>This is the bee that you just saw.</p>\n                    <img src=\"bees-with-color/bee-A2DF.svg\" width=\"200\">\n                    <p><span class=\"greenText\"><b>Successful harvest!</b></span><br>Your pay has increased by $0.02. Your bonus pay is now $0.64.</p>\n            ","response":0,"trial_type":"html-button-response","trial_index":84,"time_elapsed":307554,"internal_node_id":"0.0-4.0-1.38","subject_id":"5c636850bad3560001c2749e","study_id":"60edd13110225f80f9f3709b","session_id":"6196c1f329e77d78a9df5978","condition":"contingent","relevant_dimensions":["pattern","legs"],"bee_group":{"antennae":"X","wings":"X","pattern":"S","legs":"M"},"bonus":0.900000000000001},{"rt":1360,"stimulus":"bees-with-color/bee-B1DF.svg","response":1,"trial_type":"image-button-response","trial_index":85,"time_elapsed":308915,"internal_node_id":"0.0-4.0-0.39","subject_id":"5c636850bad3560001c2749e","study_id":"60edd13110225f80f9f3709b","session_id":"6196c1f329e77d78a9df5978","condition":"contingent","relevant_dimensions":["pattern","legs"],"bee_group":{"antennae":"X","wings":"X","pattern":"S","legs":"M"},"action":"avoid","summary":"bad-avoid","bonus":0.900000000000001},{"rt":518.8999999985099,"stimulus":"\n                    <p><b>Action: <em>avoid</em></b></p>\n                    <p>This is the bee that you just saw.</p>\n                    <img src=\"bees-with-color/bee-B1DF.svg\" width=\"200\">\n                    <p><br>Your bonus pay is unchanged, and remains at $0.64.</p>\n            ","response":0,"trial_type":"html-button-response","trial_index":86,"time_elapsed":309435,"internal_node_id":"0.0-4.0-1.39","subject_id":"5c636850bad3560001c2749e","study_id":"60edd13110225f80f9f3709b","session_id":"6196c1f329e77d78a9df5978","condition":"contingent","relevant_dimensions":["pattern","legs"],"bee_group":{"antennae":"X","wings":"X","pattern":"S","legs":"M"},"bonus":0.900000000000001},{"rt":2526.7000000029802,"stimulus":"bees-with-color/bee-B2DM.svg","response":0,"trial_type":"image-button-response","trial_index":87,"time_elapsed":311963,"internal_node_id":"0.0-4.0-0.40","subject_id":"5c636850bad3560001c2749e","study_id":"60edd13110225f80f9f3709b","session_id":"6196c1f329e77d78a9df5978","condition":"contingent","relevant_dimensions":["pattern","legs"],"bee_group":{"antennae":"X","wings":"X","pattern":"S","legs":"M"},"action":"harvest","summary":"good-harvest","bonus":0.900000000000001},{"rt":540.8000000044703,"stimulus":"\n                    <p><b>Action: <em>harvest</em></b></p>\n                    <p>This is the bee that you just saw.</p>\n                    <img src=\"bees-with-color/bee-B2DM.svg\" width=\"200\">\n                    <p><span class=\"greenText\"><b>Successful harvest!</b></span><br>Your pay has increased by $0.02. Your bonus pay is now $0.66.</p>\n            ","response":0,"trial_type":"html-button-response","trial_index":88,"time_elapsed":312505,"internal_node_id":"0.0-4.0-1.40","subject_id":"5c636850bad3560001c2749e","study_id":"60edd13110225f80f9f3709b","session_id":"6196c1f329e77d78a9df5978","condition":"contingent","relevant_dimensions":["pattern","legs"],"bee_group":{"antennae":"X","wings":"X","pattern":"S","legs":"M"},"bonus":0.900000000000001},{"rt":1518.8999999985099,"stimulus":"bees-with-color/bee-A2DM.svg","response":0,"trial_type":"image-button-response","trial_index":89,"time_elapsed":314025,"internal_node_id":"0.0-4.0-0.41","subject_id":"5c636850bad3560001c2749e","study_id":"60edd13110225f80f9f3709b","session_id":"6196c1f329e77d78a9df5978","condition":"contingent","relevant_dimensions":["pattern","legs"],"bee_group":{"antennae":"X","wings":"X","pattern":"S","legs":"M"},"action":"harvest","summary":"good-harvest","bonus":0.900000000000001},{"rt":586.7000000029802,"stimulus":"\n                    <p><b>Action: <em>harvest</em></b></p>\n                    <p>This is the bee that you just saw.</p>\n                    <img src=\"bees-with-color/bee-A2DM.svg\" width=\"200\">\n                    <p><span class=\"greenText\"><b>Successful harvest!</b></span><br>Your pay has increased by $0.02. Your bonus pay is now $0.68.</p>\n            ","response":0,"trial_type":"html-button-response","trial_index":90,"time_elapsed":314613,"internal_node_id":"0.0-4.0-1.41","subject_id":"5c636850bad3560001c2749e","study_id":"60edd13110225f80f9f3709b","session_id":"6196c1f329e77d78a9df5978","condition":"contingent","relevant_dimensions":["pattern","legs"],"bee_group":{"antennae":"X","wings":"X","pattern":"S","legs":"M"},"bonus":0.900000000000001},{"rt":2464.3000000044703,"stimulus":"bees-with-color/bee-B1SM.svg","response":1,"trial_type":"image-button-response","trial_index":91,"time_elapsed":317079,"internal_node_id":"0.0-4.0-0.42","subject_id":"5c636850bad3560001c2749e","study_id":"60edd13110225f80f9f3709b","session_id":"6196c1f329e77d78a9df5978","condition":"contingent","relevant_dimensions":["pattern","legs"],"bee_group":{"antennae":"X","wings":"X","pattern":"S","legs":"M"},"action":"avoid","summary":"good-avoid","bonus":0.900000000000001},{"rt":657.7000000029802,"stimulus":"\n                    <p><b>Action: <em>avoid</em></b></p>\n                    <p>This is the bee that you just saw.</p>\n                    <img src=\"bees-with-color/bee-B1SM.svg\" width=\"200\">\n                    <p><br>Your bonus pay is unchanged, and remains at $0.68.</p>\n            ","response":0,"trial_type":"html-button-response","trial_index":92,"time_elapsed":317738,"internal_node_id":"0.0-4.0-1.42","subject_id":"5c636850bad3560001c2749e","study_id":"60edd13110225f80f9f3709b","session_id":"6196c1f329e77d78a9df5978","condition":"contingent","relevant_dimensions":["pattern","legs"],"bee_group":{"antennae":"X","wings":"X","pattern":"S","legs":"M"},"bonus":0.900000000000001},{"rt":1062.3999999985099,"stimulus":"bees-with-color/bee-A1DM.svg","response":0,"trial_type":"image-button-response","trial_index":93,"time_elapsed":318802,"internal_node_id":"0.0-4.0-0.43","subject_id":"5c636850bad3560001c2749e","study_id":"60edd13110225f80f9f3709b","session_id":"6196c1f329e77d78a9df5978","condition":"contingent","relevant_dimensions":["pattern","legs"],"bee_group":{"antennae":"X","wings":"X","pattern":"S","legs":"M"},"action":"harvest","summary":"good-harvest","bonus":0.900000000000001},{"rt":564.8000000044703,"stimulus":"\n                    <p><b>Action: <em>harvest</em></b></p>\n                    <p>This is the bee that you just saw.</p>\n                    <img src=\"bees-with-color/bee-A1DM.svg\" width=\"200\">\n                    <p><span class=\"greenText\"><b>Successful harvest!</b></span><br>Your pay has increased by $0.02. Your bonus pay is now $0.70.</p>\n            ","response":0,"trial_type":"html-button-response","trial_index":94,"time_elapsed":319368,"internal_node_id":"0.0-4.0-1.43","subject_id":"5c636850bad3560001c2749e","study_id":"60edd13110225f80f9f3709b","session_id":"6196c1f329e77d78a9df5978","condition":"contingent","relevant_dimensions":["pattern","legs"],"bee_group":{"antennae":"X","wings":"X","pattern":"S","legs":"M"},"bonus":0.900000000000001},{"rt":1390,"stimulus":"bees-with-color/bee-B1SF.svg","response":0,"trial_type":"image-button-response","trial_index":95,"time_elapsed":320759,"internal_node_id":"0.0-4.0-0.44","subject_id":"5c636850bad3560001c2749e","study_id":"60edd13110225f80f9f3709b","session_id":"6196c1f329e77d78a9df5978","condition":"contingent","relevant_dimensions":["pattern","legs"],"bee_group":{"antennae":"X","wings":"X","pattern":"S","legs":"M"},"action":"harvest","summary":"good-harvest","bonus":0.900000000000001},{"rt":545.6000000014901,"stimulus":"\n                    <p><b>Action: <em>harvest</em></b></p>\n                    <p>This is the bee that you just saw.</p>\n                    <img src=\"bees-with-color/bee-B1SF.svg\" width=\"200\">\n                    <p><span class=\"greenText\"><b>Successful harvest!</b></span><br>Your pay has increased by $0.02. Your bonus pay is now $0.72.</p>\n            ","response":0,"trial_type":"html-button-response","trial_index":96,"time_elapsed":321306,"internal_node_id":"0.0-4.0-1.44","subject_id":"5c636850bad3560001c2749e","study_id":"60edd13110225f80f9f3709b","session_id":"6196c1f329e77d78a9df5978","condition":"contingent","relevant_dimensions":["pattern","legs"],"bee_group":{"antennae":"X","wings":"X","pattern":"S","legs":"M"},"bonus":0.900000000000001},{"rt":1348.8999999985099,"stimulus":"bees-with-color/bee-A1SF.svg","response":0,"trial_type":"image-button-response","trial_index":97,"time_elapsed":322656,"internal_node_id":"0.0-4.0-0.45","subject_id":"5c636850bad3560001c2749e","study_id":"60edd13110225f80f9f3709b","session_id":"6196c1f329e77d78a9df5978","condition":"contingent","relevant_dimensions":["pattern","legs"],"bee_group":{"antennae":"X","wings":"X","pattern":"S","legs":"M"},"action":"harvest","summary":"good-harvest","bonus":0.900000000000001},{"rt":580.6000000014901,"stimulus":"\n                    <p><b>Action: <em>harvest</em></b></p>\n                    <p>This is the bee that you just saw.</p>\n                    <img src=\"bees-with-color/bee-A1SF.svg\" width=\"200\">\n                    <p><span class=\"greenText\"><b>Successful harvest!</b></span><br>Your pay has increased by $0.02. Your bonus pay is now $0.74.</p>\n            ","response":0,"trial_type":"html-button-response","trial_index":98,"time_elapsed":323238,"internal_node_id":"0.0-4.0-1.45","subject_id":"5c636850bad3560001c2749e","study_id":"60edd13110225f80f9f3709b","session_id":"6196c1f329e77d78a9df5978","condition":"contingent","relevant_dimensions":["pattern","legs"],"bee_group":{"antennae":"X","wings":"X","pattern":"S","legs":"M"},"bonus":0.900000000000001},{"rt":1340.8000000044703,"stimulus":"bees-with-color/bee-A1SM.svg","response":1,"trial_type":"image-button-response","trial_index":99,"time_elapsed":324581,"internal_node_id":"0.0-4.0-0.46","subject_id":"5c636850bad3560001c2749e","study_id":"60edd13110225f80f9f3709b","session_id":"6196c1f329e77d78a9df5978","condition":"contingent","relevant_dimensions":["pattern","legs"],"bee_group":{"antennae":"X","wings":"X","pattern":"S","legs":"M"},"action":"avoid","summary":"good-avoid","bonus":0.900000000000001},{"rt":524.7000000029802,"stimulus":"\n                    <p><b>Action: <em>avoid</em></b></p>\n                    <p>This is the bee that you just saw.</p>\n                    <img src=\"bees-with-color/bee-A1SM.svg\" width=\"200\">\n                    <p><br>Your bonus pay is unchanged, and remains at $0.74.</p>\n            ","response":0,"trial_type":"html-button-response","trial_index":100,"time_elapsed":325107,"internal_node_id":"0.0-4.0-1.46","subject_id":"5c636850bad3560001c2749e","study_id":"60edd13110225f80f9f3709b","session_id":"6196c1f329e77d78a9df5978","condition":"contingent","relevant_dimensions":["pattern","legs"],"bee_group":{"antennae":"X","wings":"X","pattern":"S","legs":"M"},"bonus":0.900000000000001},{"rt":1484.2000000029802,"stimulus":"bees-with-color/bee-B2SF.svg","response":1,"trial_type":"image-button-response","trial_index":101,"time_elapsed":326593,"internal_node_id":"0.0-4.0-0.47","subject_id":"5c636850bad3560001c2749e","study_id":"60edd13110225f80f9f3709b","session_id":"6196c1f329e77d78a9df5978","condition":"contingent","relevant_dimensions":["pattern","legs"],"bee_group":{"antennae":"X","wings":"X","pattern":"S","legs":"M"},"action":"avoid","summary":"bad-avoid","bonus":0.900000000000001},{"rt":595.7000000029802,"stimulus":"\n                    <p><b>Action: <em>avoid</em></b></p>\n                    <p>This is the bee that you just saw.</p>\n                    <img src=\"bees-with-color/bee-B2SF.svg\" width=\"200\">\n                    <p><br>Your bonus pay is unchanged, and remains at $0.74.</p>\n            ","response":0,"trial_type":"html-button-response","trial_index":102,"time_elapsed":327190,"internal_node_id":"0.0-4.0-1.47","subject_id":"5c636850bad3560001c2749e","study_id":"60edd13110225f80f9f3709b","session_id":"6196c1f329e77d78a9df5978","condition":"contingent","relevant_dimensions":["pattern","legs"],"bee_group":{"antennae":"X","wings":"X","pattern":"S","legs":"M"},"bonus":0.900000000000001},{"rt":1340.8000000044703,"stimulus":"bees-with-color/bee-A2SM.svg","response":1,"trial_type":"image-button-response","trial_index":103,"time_elapsed":328532,"internal_node_id":"0.0-4.0-0.48","subject_id":"5c636850bad3560001c2749e","study_id":"60edd13110225f80f9f3709b","session_id":"6196c1f329e77d78a9df5978","condition":"contingent","relevant_dimensions":["pattern","legs"],"bee_group":{"antennae":"X","wings":"X","pattern":"S","legs":"M"},"action":"avoid","summary":"good-avoid","bonus":0.900000000000001},{"rt":525.6000000014901,"stimulus":"\n                    <p><b>Action: <em>avoid</em></b></p>\n                    <p>This is the bee that you just saw.</p>\n                    <img src=\"bees-with-color/bee-A2SM.svg\" width=\"200\">\n                    <p><br>Your bonus pay is unchanged, and remains at $0.74.</p>\n            ","response":0,"trial_type":"html-button-response","trial_index":104,"time_elapsed":329059,"internal_node_id":"0.0-4.0-1.48","subject_id":"5c636850bad3560001c2749e","study_id":"60edd13110225f80f9f3709b","session_id":"6196c1f329e77d78a9df5978","condition":"contingent","relevant_dimensions":["pattern","legs"],"bee_group":{"antennae":"X","wings":"X","pattern":"S","legs":"M"},"bonus":0.900000000000001},{"rt":1032,"stimulus":"bees-with-color/bee-A2DM.svg","response":0,"trial_type":"image-button-response","trial_index":105,"time_elapsed":330091,"internal_node_id":"0.0-4.0-0.49","subject_id":"5c636850bad3560001c2749e","study_id":"60edd13110225f80f9f3709b","session_id":"6196c1f329e77d78a9df5978","condition":"contingent","relevant_dimensions":["pattern","legs"],"bee_group":{"antennae":"X","wings":"X","pattern":"S","legs":"M"},"action":"harvest","summary":"good-harvest","bonus":0.900000000000001},{"rt":587,"stimulus":"\n                    <p><b>Action: <em>harvest</em></b></p>\n                    <p>This is the bee that you just saw.</p>\n                    <img src=\"bees-with-color/bee-A2DM.svg\" width=\"200\">\n                    <p><span class=\"greenText\"><b>Successful harvest!</b></span><br>Your pay has increased by $0.02. Your bonus pay is now $0.76.</p>\n            ","response":0,"trial_type":"html-button-response","trial_index":106,"time_elapsed":330680,"internal_node_id":"0.0-4.0-1.49","subject_id":"5c636850bad3560001c2749e","study_id":"60edd13110225f80f9f3709b","session_id":"6196c1f329e77d78a9df5978","condition":"contingent","relevant_dimensions":["pattern","legs"],"bee_group":{"antennae":"X","wings":"X","pattern":"S","legs":"M"},"bonus":0.900000000000001},{"rt":1286.8999999985099,"stimulus":"bees-with-color/bee-A2DF.svg","response":0,"trial_type":"image-button-response","trial_index":107,"time_elapsed":331968,"internal_node_id":"0.0-4.0-0.50","subject_id":"5c636850bad3560001c2749e","study_id":"60edd13110225f80f9f3709b","session_id":"6196c1f329e77d78a9df5978","condition":"contingent","relevant_dimensions":["pattern","legs"],"bee_group":{"antennae":"X","wings":"X","pattern":"S","legs":"M"},"action":"harvest","summary":"good-harvest","bonus":0.900000000000001},{"rt":598,"stimulus":"\n                    <p><b>Action: <em>harvest</em></b></p>\n                    <p>This is the bee that you just saw.</p>\n                    <img src=\"bees-with-color/bee-A2DF.svg\" width=\"200\">\n                    <p><span class=\"greenText\"><b>Successful harvest!</b></span><br>Your pay has increased by $0.02. Your bonus pay is now $0.78.</p>\n            ","response":0,"trial_type":"html-button-response","trial_index":108,"time_elapsed":332567,"internal_node_id":"0.0-4.0-1.50","subject_id":"5c636850bad3560001c2749e","study_id":"60edd13110225f80f9f3709b","session_id":"6196c1f329e77d78a9df5978","condition":"contingent","relevant_dimensions":["pattern","legs"],"bee_group":{"antennae":"X","wings":"X","pattern":"S","legs":"M"},"bonus":0.900000000000001},{"rt":1351.1000000014901,"stimulus":"bees-with-color/bee-B2SM.svg","response":1,"trial_type":"image-button-response","trial_index":109,"time_elapsed":333919,"internal_node_id":"0.0-4.0-0.51","subject_id":"5c636850bad3560001c2749e","study_id":"60edd13110225f80f9f3709b","session_id":"6196c1f329e77d78a9df5978","condition":"contingent","relevant_dimensions":["pattern","legs"],"bee_group":{"antennae":"X","wings":"X","pattern":"S","legs":"M"},"action":"avoid","summary":"good-avoid","bonus":0.900000000000001},{"rt":580.8999999985099,"stimulus":"\n                    <p><b>Action: <em>avoid</em></b></p>\n                    <p>This is the bee that you just saw.</p>\n                    <img src=\"bees-with-color/bee-B2SM.svg\" width=\"200\">\n                    <p><br>Your bonus pay is unchanged, and remains at $0.78.</p>\n            ","response":0,"trial_type":"html-button-response","trial_index":110,"time_elapsed":334501,"internal_node_id":"0.0-4.0-1.51","subject_id":"5c636850bad3560001c2749e","study_id":"60edd13110225f80f9f3709b","session_id":"6196c1f329e77d78a9df5978","condition":"contingent","relevant_dimensions":["pattern","legs"],"bee_group":{"antennae":"X","wings":"X","pattern":"S","legs":"M"},"bonus":0.900000000000001},{"rt":1399.1000000014901,"stimulus":"bees-with-color/bee-B1DM.svg","response":0,"trial_type":"image-button-response","trial_index":111,"time_elapsed":335901,"internal_node_id":"0.0-4.0-0.52","subject_id":"5c636850bad3560001c2749e","study_id":"60edd13110225f80f9f3709b","session_id":"6196c1f329e77d78a9df5978","condition":"contingent","relevant_dimensions":["pattern","legs"],"bee_group":{"antennae":"X","wings":"X","pattern":"S","legs":"M"},"action":"harvest","summary":"good-harvest","bonus":0.900000000000001},{"rt":595.7999999970198,"stimulus":"\n                    <p><b>Action: <em>harvest</em></b></p>\n                    <p>This is the bee that you just saw.</p>\n                    <img src=\"bees-with-color/bee-B1DM.svg\" width=\"200\">\n                    <p><span class=\"greenText\"><b>Successful harvest!</b></span><br>Your pay has increased by $0.02. Your bonus pay is now $0.80.</p>\n            ","response":0,"trial_type":"html-button-response","trial_index":112,"time_elapsed":336498,"internal_node_id":"0.0-4.0-1.52","subject_id":"5c636850bad3560001c2749e","study_id":"60edd13110225f80f9f3709b","session_id":"6196c1f329e77d78a9df5978","condition":"contingent","relevant_dimensions":["pattern","legs"],"bee_group":{"antennae":"X","wings":"X","pattern":"S","legs":"M"},"bonus":0.900000000000001},{"rt":3136.89999999851,"stimulus":"bees-with-color/bee-B2SF.svg","response":1,"trial_type":"image-button-response","trial_index":113,"time_elapsed":339636,"internal_node_id":"0.0-4.0-0.53","subject_id":"5c636850bad3560001c2749e","study_id":"60edd13110225f80f9f3709b","session_id":"6196c1f329e77d78a9df5978","condition":"contingent","relevant_dimensions":["pattern","legs"],"bee_group":{"antennae":"X","wings":"X","pattern":"S","legs":"M"},"action":"avoid","summary":"bad-avoid","bonus":0.900000000000001},{"rt":446.80000000447035,"stimulus":"\n                    <p><b>Action: <em>avoid</em></b></p>\n                    <p>This is the bee that you just saw.</p>\n                    <img src=\"bees-with-color/bee-B2SF.svg\" width=\"200\">\n                    <p><br>Your bonus pay is unchanged, and remains at $0.80.</p>\n            ","response":0,"trial_type":"html-button-response","trial_index":114,"time_elapsed":340084,"internal_node_id":"0.0-4.0-1.53","subject_id":"5c636850bad3560001c2749e","study_id":"60edd13110225f80f9f3709b","session_id":"6196c1f329e77d78a9df5978","condition":"contingent","relevant_dimensions":["pattern","legs"],"bee_group":{"antennae":"X","wings":"X","pattern":"S","legs":"M"},"bonus":0.900000000000001},{"rt":1769.7000000029802,"stimulus":"bees-with-color/bee-A1DM.svg","response":0,"trial_type":"image-button-response","trial_index":115,"time_elapsed":341855,"internal_node_id":"0.0-4.0-0.54","subject_id":"5c636850bad3560001c2749e","study_id":"60edd13110225f80f9f3709b","session_id":"6196c1f329e77d78a9df5978","condition":"contingent","relevant_dimensions":["pattern","legs"],"bee_group":{"antennae":"X","wings":"X","pattern":"S","legs":"M"},"action":"harvest","summary":"good-harvest","bonus":0.900000000000001},{"rt":859.8000000044703,"stimulus":"\n                    <p><b>Action: <em>harvest</em></b></p>\n                    <p>This is the bee that you just saw.</p>\n                    <img src=\"bees-with-color/bee-A1DM.svg\" width=\"200\">\n                    <p><span class=\"greenText\"><b>Successful harvest!</b></span><br>Your pay has increased by $0.02. Your bonus pay is now $0.82.</p>\n            ","response":0,"trial_type":"html-button-response","trial_index":116,"time_elapsed":342716,"internal_node_id":"0.0-4.0-1.54","subject_id":"5c636850bad3560001c2749e","study_id":"60edd13110225f80f9f3709b","session_id":"6196c1f329e77d78a9df5978","condition":"contingent","relevant_dimensions":["pattern","legs"],"bee_group":{"antennae":"X","wings":"X","pattern":"S","legs":"M"},"bonus":0.900000000000001},{"rt":2020.8999999985099,"stimulus":"bees-with-color/bee-B2DM.svg","response":0,"trial_type":"image-button-response","trial_index":117,"time_elapsed":344738,"internal_node_id":"0.0-4.0-0.55","subject_id":"5c636850bad3560001c2749e","study_id":"60edd13110225f80f9f3709b","session_id":"6196c1f329e77d78a9df5978","condition":"contingent","relevant_dimensions":["pattern","legs"],"bee_group":{"antennae":"X","wings":"X","pattern":"S","legs":"M"},"action":"harvest","summary":"good-harvest","bonus":0.900000000000001},{"rt":578.7000000029802,"stimulus":"\n                    <p><b>Action: <em>harvest</em></b></p>\n                    <p>This is the bee that you just saw.</p>\n                    <img src=\"bees-with-color/bee-B2DM.svg\" width=\"200\">\n                    <p><span class=\"greenText\"><b>Successful harvest!</b></span><br>Your pay has increased by $0.02. Your bonus pay is now $0.84.</p>\n            ","response":0,"trial_type":"html-button-response","trial_index":118,"time_elapsed":345318,"internal_node_id":"0.0-4.0-1.55","subject_id":"5c636850bad3560001c2749e","study_id":"60edd13110225f80f9f3709b","session_id":"6196c1f329e77d78a9df5978","condition":"contingent","relevant_dimensions":["pattern","legs"],"bee_group":{"antennae":"X","wings":"X","pattern":"S","legs":"M"},"bonus":0.900000000000001},{"rt":1487.7000000029802,"stimulus":"bees-with-color/bee-B1DF.svg","response":1,"trial_type":"image-button-response","trial_index":119,"time_elapsed":346807,"internal_node_id":"0.0-4.0-0.56","subject_id":"5c636850bad3560001c2749e","study_id":"60edd13110225f80f9f3709b","session_id":"6196c1f329e77d78a9df5978","condition":"contingent","relevant_dimensions":["pattern","legs"],"bee_group":{"antennae":"X","wings":"X","pattern":"S","legs":"M"},"action":"avoid","summary":"bad-avoid","bonus":0.900000000000001},{"rt":519.7000000029802,"stimulus":"\n                    <p><b>Action: <em>avoid</em></b></p>\n                    <p>This is the bee that you just saw.</p>\n                    <img src=\"bees-with-color/bee-B1DF.svg\" width=\"200\">\n                    <p><br>Your bonus pay is unchanged, and remains at $0.84.</p>\n            ","response":0,"trial_type":"html-button-response","trial_index":120,"time_elapsed":347328,"internal_node_id":"0.0-4.0-1.56","subject_id":"5c636850bad3560001c2749e","study_id":"60edd13110225f80f9f3709b","session_id":"6196c1f329e77d78a9df5978","condition":"contingent","relevant_dimensions":["pattern","legs"],"bee_group":{"antennae":"X","wings":"X","pattern":"S","legs":"M"},"bonus":0.900000000000001},{"rt":1652.8999999985099,"stimulus":"bees-with-color/bee-B2DF.svg","response":0,"trial_type":"image-button-response","trial_index":121,"time_elapsed":348982,"internal_node_id":"0.0-4.0-0.57","subject_id":"5c636850bad3560001c2749e","study_id":"60edd13110225f80f9f3709b","session_id":"6196c1f329e77d78a9df5978","condition":"contingent","relevant_dimensions":["pattern","legs"],"bee_group":{"antennae":"X","wings":"X","pattern":"S","legs":"M"},"action":"harvest","summary":"good-harvest","bonus":0.900000000000001},{"rt":617.7000000029802,"stimulus":"\n                    <p><b>Action: <em>harvest</em></b></p>\n                    <p>This is the bee that you just saw.</p>\n                    <img src=\"bees-with-color/bee-B2DF.svg\" width=\"200\">\n                    <p><span class=\"greenText\"><b>Successful harvest!</b></span><br>Your pay has increased by $0.02. Your bonus pay is now $0.86.</p>\n            ","response":0,"trial_type":"html-button-response","trial_index":122,"time_elapsed":349601,"internal_node_id":"0.0-4.0-1.57","subject_id":"5c636850bad3560001c2749e","study_id":"60edd13110225f80f9f3709b","session_id":"6196c1f329e77d78a9df5978","condition":"contingent","relevant_dimensions":["pattern","legs"],"bee_group":{"antennae":"X","wings":"X","pattern":"S","legs":"M"},"bonus":0.900000000000001},{"rt":2571.89999999851,"stimulus":"bees-with-color/bee-A1DF.svg","response":1,"trial_type":"image-button-response","trial_index":123,"time_elapsed":352174,"internal_node_id":"0.0-4.0-0.58","subject_id":"5c636850bad3560001c2749e","study_id":"60edd13110225f80f9f3709b","session_id":"6196c1f329e77d78a9df5978","condition":"contingent","relevant_dimensions":["pattern","legs"],"bee_group":{"antennae":"X","wings":"X","pattern":"S","legs":"M"},"action":"avoid","summary":"bad-avoid","bonus":0.900000000000001},{"rt":744.7000000029802,"stimulus":"\n                    <p><b>Action: <em>avoid</em></b></p>\n                    <p>This is the bee that you just saw.</p>\n                    <img src=\"bees-with-color/bee-A1DF.svg\" width=\"200\">\n                    <p><br>Your bonus pay is unchanged, and remains at $0.86.</p>\n            ","response":0,"trial_type":"html-button-response","trial_index":124,"time_elapsed":352920,"internal_node_id":"0.0-4.0-1.58","subject_id":"5c636850bad3560001c2749e","study_id":"60edd13110225f80f9f3709b","session_id":"6196c1f329e77d78a9df5978","condition":"contingent","relevant_dimensions":["pattern","legs"],"bee_group":{"antennae":"X","wings":"X","pattern":"S","legs":"M"},"bonus":0.900000000000001},{"rt":1650.7000000029802,"stimulus":"bees-with-color/bee-A2SF.svg","response":0,"trial_type":"image-button-response","trial_index":125,"time_elapsed":354572,"internal_node_id":"0.0-4.0-0.59","subject_id":"5c636850bad3560001c2749e","study_id":"60edd13110225f80f9f3709b","session_id":"6196c1f329e77d78a9df5978","condition":"contingent","relevant_dimensions":["pattern","legs"],"bee_group":{"antennae":"X","wings":"X","pattern":"S","legs":"M"},"action":"harvest","summary":"good-harvest","bonus":0.900000000000001},{"rt":620.3999999985099,"stimulus":"\n                    <p><b>Action: <em>harvest</em></b></p>\n                    <p>This is the bee that you just saw.</p>\n                    <img src=\"bees-with-color/bee-A2SF.svg\" width=\"200\">\n                    <p><span class=\"greenText\"><b>Successful harvest!</b></span><br>Your pay has increased by $0.02. Your bonus pay is now $0.88.</p>\n            ","response":0,"trial_type":"html-button-response","trial_index":126,"time_elapsed":355194,"internal_node_id":"0.0-4.0-1.59","subject_id":"5c636850bad3560001c2749e","study_id":"60edd13110225f80f9f3709b","session_id":"6196c1f329e77d78a9df5978","condition":"contingent","relevant_dimensions":["pattern","legs"],"bee_group":{"antennae":"X","wings":"X","pattern":"S","legs":"M"},"bonus":0.900000000000001},{"rt":1474.8000000044703,"stimulus":"bees-with-color/bee-A1SM.svg","response":1,"trial_type":"image-button-response","trial_index":127,"time_elapsed":356670,"internal_node_id":"0.0-4.0-0.60","subject_id":"5c636850bad3560001c2749e","study_id":"60edd13110225f80f9f3709b","session_id":"6196c1f329e77d78a9df5978","condition":"contingent","relevant_dimensions":["pattern","legs"],"bee_group":{"antennae":"X","wings":"X","pattern":"S","legs":"M"},"action":"avoid","summary":"good-avoid","bonus":0.900000000000001},{"rt":557.5,"stimulus":"\n                    <p><b>Action: <em>avoid</em></b></p>\n                    <p>This is the bee that you just saw.</p>\n                    <img src=\"bees-with-color/bee-A1SM.svg\" width=\"200\">\n                    <p><br>Your bonus pay is unchanged, and remains at $0.88.</p>\n            ","response":0,"trial_type":"html-button-response","trial_index":128,"time_elapsed":357229,"internal_node_id":"0.0-4.0-1.60","subject_id":"5c636850bad3560001c2749e","study_id":"60edd13110225f80f9f3709b","session_id":"6196c1f329e77d78a9df5978","condition":"contingent","relevant_dimensions":["pattern","legs"],"bee_group":{"antennae":"X","wings":"X","pattern":"S","legs":"M"},"bonus":0.900000000000001},{"rt":2338.89999999851,"stimulus":"bees-with-color/bee-A1SF.svg","response":0,"trial_type":"image-button-response","trial_index":129,"time_elapsed":359568,"internal_node_id":"0.0-4.0-0.61","subject_id":"5c636850bad3560001c2749e","study_id":"60edd13110225f80f9f3709b","session_id":"6196c1f329e77d78a9df5978","condition":"contingent","relevant_dimensions":["pattern","legs"],"bee_group":{"antennae":"X","wings":"X","pattern":"S","legs":"M"},"action":"harvest","summary":"good-harvest","bonus":0.900000000000001},{"rt":599.8999999985099,"stimulus":"\n                    <p><b>Action: <em>harvest</em></b></p>\n                    <p>This is the bee that you just saw.</p>\n                    <img src=\"bees-with-color/bee-A1SF.svg\" width=\"200\">\n                    <p><span class=\"greenText\"><b>Successful harvest!</b></span><br>Your pay has increased by $0.02. Your bonus pay is now $0.90.</p>\n            ","response":0,"trial_type":"html-button-response","trial_index":130,"time_elapsed":360169,"internal_node_id":"0.0-4.0-1.61","subject_id":"5c636850bad3560001c2749e","study_id":"60edd13110225f80f9f3709b","session_id":"6196c1f329e77d78a9df5978","condition":"contingent","relevant_dimensions":["pattern","legs"],"bee_group":{"antennae":"X","wings":"X","pattern":"S","legs":"M"},"bonus":0.900000000000001},{"rt":2414.10000000149,"stimulus":"bees-with-color/bee-B1SM.svg","response":1,"trial_type":"image-button-response","trial_index":131,"time_elapsed":362584,"internal_node_id":"0.0-4.0-0.62","subject_id":"5c636850bad3560001c2749e","study_id":"60edd13110225f80f9f3709b","session_id":"6196c1f329e77d78a9df5978","condition":"contingent","relevant_dimensions":["pattern","legs"],"bee_group":{"antennae":"X","wings":"X","pattern":"S","legs":"M"},"action":"avoid","summary":"good-avoid","bonus":0.900000000000001},{"rt":487.70000000298023,"stimulus":"\n                    <p><b>Action: <em>avoid</em></b></p>\n                    <p>This is the bee that you just saw.</p>\n                    <img src=\"bees-with-color/bee-B1SM.svg\" width=\"200\">\n                    <p><br>Your bonus pay is unchanged, and remains at $0.90.</p>\n            ","response":0,"trial_type":"html-button-response","trial_index":132,"time_elapsed":363073,"internal_node_id":"0.0-4.0-1.62","subject_id":"5c636850bad3560001c2749e","study_id":"60edd13110225f80f9f3709b","session_id":"6196c1f329e77d78a9df5978","condition":"contingent","relevant_dimensions":["pattern","legs"],"bee_group":{"antennae":"X","wings":"X","pattern":"S","legs":"M"},"bonus":0.900000000000001},{"rt":2697.7000000029802,"stimulus":"bees-with-color/bee-B1SF.svg","response":1,"trial_type":"image-button-response","trial_index":133,"time_elapsed":365772,"internal_node_id":"0.0-4.0-0.63","subject_id":"5c636850bad3560001c2749e","study_id":"60edd13110225f80f9f3709b","session_id":"6196c1f329e77d78a9df5978","condition":"contingent","relevant_dimensions":["pattern","legs"],"bee_group":{"antennae":"X","wings":"X","pattern":"S","legs":"M"},"action":"avoid","summary":"bad-avoid","bonus":0.900000000000001},{"rt":543.7999999970198,"stimulus":"\n                    <p><b>Action: <em>avoid</em></b></p>\n                    <p>This is the bee that you just saw.</p>\n                    <img src=\"bees-with-color/bee-B1SF.svg\" width=\"200\">\n                    <p><br>Your bonus pay is unchanged, and remains at $0.90.</p>\n            ","response":0,"trial_type":"html-button-response","trial_index":134,"time_elapsed":366317,"internal_node_id":"0.0-4.0-1.63","subject_id":"5c636850bad3560001c2749e","study_id":"60edd13110225f80f9f3709b","session_id":"6196c1f329e77d78a9df5978","condition":"contingent","relevant_dimensions":["pattern","legs"],"bee_group":{"antennae":"X","wings":"X","pattern":"S","legs":"M"},"bonus":0.900000000000001},{"rt":12368.69999999553,"stimulus":"You have completed the first part of this experiment.<br><br>You will now begin a shorter second part, in which you will receive no feedback.<br>The same rules regarding bonus pay apply.<br><br>Press any key to begin.","response":" ","trial_type":"html-keyboard-response","trial_index":135,"time_elapsed":378686,"internal_node_id":"0.0-5.0","subject_id":"5c636850bad3560001c2749e","study_id":"60edd13110225f80f9f3709b","session_id":"6196c1f329e77d78a9df5978","condition":"contingent","relevant_dimensions":["pattern","legs"],"bee_group":{"antennae":"X","wings":"X","pattern":"S","legs":"M"},"bonus":0.900000000000001},{"rt":8298.70000000298,"stimulus":"bees-with-color/bee-B2DM.svg","response":0,"trial_type":"image-button-response","trial_index":136,"time_elapsed":386993,"internal_node_id":"0.0-6.0-0.0","subject_id":"5c636850bad3560001c2749e","study_id":"60edd13110225f80f9f3709b","session_id":"6196c1f329e77d78a9df5978","condition":"contingent","relevant_dimensions":["pattern","legs"],"bee_group":{"antennae":"X","wings":"X","pattern":"S","legs":"M"},"bonus":0.900000000000001},{"rt":2385.10000000149,"stimulus":"bees-with-color/bee-A2SM.svg","response":1,"trial_type":"image-button-response","trial_index":137,"time_elapsed":389380,"internal_node_id":"0.0-6.0-0.1","subject_id":"5c636850bad3560001c2749e","study_id":"60edd13110225f80f9f3709b","session_id":"6196c1f329e77d78a9df5978","condition":"contingent","relevant_dimensions":["pattern","legs"],"bee_group":{"antennae":"X","wings":"X","pattern":"S","legs":"M"},"bonus":0.900000000000001},{"rt":1369.5,"stimulus":"bees-with-color/bee-B2SF.svg","response":0,"trial_type":"image-button-response","trial_index":138,"time_elapsed":390751,"internal_node_id":"0.0-6.0-0.2","subject_id":"5c636850bad3560001c2749e","study_id":"60edd13110225f80f9f3709b","session_id":"6196c1f329e77d78a9df5978","condition":"contingent","relevant_dimensions":["pattern","legs"],"bee_group":{"antennae":"X","wings":"X","pattern":"S","legs":"M"},"bonus":0.900000000000001},{"rt":1370.3000000044703,"stimulus":"bees-with-color/bee-B2SM.svg","response":1,"trial_type":"image-button-response","trial_index":139,"time_elapsed":392123,"internal_node_id":"0.0-6.0-0.3","subject_id":"5c636850bad3560001c2749e","study_id":"60edd13110225f80f9f3709b","session_id":"6196c1f329e77d78a9df5978","condition":"contingent","relevant_dimensions":["pattern","legs"],"bee_group":{"antennae":"X","wings":"X","pattern":"S","legs":"M"},"bonus":0.900000000000001},{"rt":2418.2999999970198,"stimulus":"bees-with-color/bee-B1DM.svg","response":1,"trial_type":"image-button-response","trial_index":140,"time_elapsed":394543,"internal_node_id":"0.0-6.0-0.4","subject_id":"5c636850bad3560001c2749e","study_id":"60edd13110225f80f9f3709b","session_id":"6196c1f329e77d78a9df5978","condition":"contingent","relevant_dimensions":["pattern","legs"],"bee_group":{"antennae":"X","wings":"X","pattern":"S","legs":"M"},"bonus":0.900000000000001},{"rt":1185.5,"stimulus":"bees-with-color/bee-B2DF.svg","response":0,"trial_type":"image-button-response","trial_index":141,"time_elapsed":395730,"internal_node_id":"0.0-6.0-0.5","subject_id":"5c636850bad3560001c2749e","study_id":"60edd13110225f80f9f3709b","session_id":"6196c1f329e77d78a9df5978","condition":"contingent","relevant_dimensions":["pattern","legs"],"bee_group":{"antennae":"X","wings":"X","pattern":"S","legs":"M"},"bonus":0.900000000000001},{"rt":1617.2000000029802,"stimulus":"bees-with-color/bee-A2DM.svg","response":0,"trial_type":"image-button-response","trial_index":142,"time_elapsed":397349,"internal_node_id":"0.0-6.0-0.6","subject_id":"5c636850bad3560001c2749e","study_id":"60edd13110225f80f9f3709b","session_id":"6196c1f329e77d78a9df5978","condition":"contingent","relevant_dimensions":["pattern","legs"],"bee_group":{"antennae":"X","wings":"X","pattern":"S","legs":"M"},"bonus":0.900000000000001},{"rt":1208.3999999985099,"stimulus":"bees-with-color/bee-A2SF.svg","response":1,"trial_type":"image-button-response","trial_index":143,"time_elapsed":398559,"internal_node_id":"0.0-6.0-0.7","subject_id":"5c636850bad3560001c2749e","study_id":"60edd13110225f80f9f3709b","session_id":"6196c1f329e77d78a9df5978","condition":"contingent","relevant_dimensions":["pattern","legs"],"bee_group":{"antennae":"X","wings":"X","pattern":"S","legs":"M"},"bonus":0.900000000000001},{"rt":2774.2000000029802,"stimulus":"bees-with-color/bee-A1SM.svg","response":0,"trial_type":"image-button-response","trial_index":144,"time_elapsed":401335,"internal_node_id":"0.0-6.0-0.8","subject_id":"5c636850bad3560001c2749e","study_id":"60edd13110225f80f9f3709b","session_id":"6196c1f329e77d78a9df5978","condition":"contingent","relevant_dimensions":["pattern","legs"],"bee_group":{"antennae":"X","wings":"X","pattern":"S","legs":"M"},"bonus":0.900000000000001},{"rt":2782,"stimulus":"bees-with-color/bee-A1DF.svg","response":0,"trial_type":"image-button-response","trial_index":145,"time_elapsed":404119,"internal_node_id":"0.0-6.0-0.9","subject_id":"5c636850bad3560001c2749e","study_id":"60edd13110225f80f9f3709b","session_id":"6196c1f329e77d78a9df5978","condition":"contingent","relevant_dimensions":["pattern","legs"],"bee_group":{"antennae":"X","wings":"X","pattern":"S","legs":"M"},"bonus":0.900000000000001},{"rt":1119.5,"stimulus":"bees-with-color/bee-A1DM.svg","response":0,"trial_type":"image-button-response","trial_index":146,"time_elapsed":405240,"internal_node_id":"0.0-6.0-0.10","subject_id":"5c636850bad3560001c2749e","study_id":"60edd13110225f80f9f3709b","session_id":"6196c1f329e77d78a9df5978","condition":"contingent","relevant_dimensions":["pattern","legs"],"bee_group":{"antennae":"X","wings":"X","pattern":"S","legs":"M"},"bonus":0.900000000000001},{"rt":1486.3999999985099,"stimulus":"bees-with-color/bee-A2DF.svg","response":0,"trial_type":"image-button-response","trial_index":147,"time_elapsed":406728,"internal_node_id":"0.0-6.0-0.11","subject_id":"5c636850bad3560001c2749e","study_id":"60edd13110225f80f9f3709b","session_id":"6196c1f329e77d78a9df5978","condition":"contingent","relevant_dimensions":["pattern","legs"],"bee_group":{"antennae":"X","wings":"X","pattern":"S","legs":"M"},"bonus":0.900000000000001},{"rt":992.5,"stimulus":"bees-with-color/bee-A1SF.svg","response":1,"trial_type":"image-button-response","trial_index":148,"time_elapsed":407722,"internal_node_id":"0.0-6.0-0.12","subject_id":"5c636850bad3560001c2749e","study_id":"60edd13110225f80f9f3709b","session_id":"6196c1f329e77d78a9df5978","condition":"contingent","relevant_dimensions":["pattern","legs"],"bee_group":{"antennae":"X","wings":"X","pattern":"S","legs":"M"},"bonus":0.900000000000001},{"rt":2399.5,"stimulus":"bees-with-color/bee-B1DF.svg","response":1,"trial_type":"image-button-response","trial_index":149,"time_elapsed":410123,"internal_node_id":"0.0-6.0-0.13","subject_id":"5c636850bad3560001c2749e","study_id":"60edd13110225f80f9f3709b","session_id":"6196c1f329e77d78a9df5978","condition":"contingent","relevant_dimensions":["pattern","legs"],"bee_group":{"antennae":"X","wings":"X","pattern":"S","legs":"M"},"bonus":0.900000000000001},{"rt":1094.3999999985099,"stimulus":"bees-with-color/bee-B1SF.svg","response":1,"trial_type":"image-button-response","trial_index":150,"time_elapsed":411219,"internal_node_id":"0.0-6.0-0.14","subject_id":"5c636850bad3560001c2749e","study_id":"60edd13110225f80f9f3709b","session_id":"6196c1f329e77d78a9df5978","condition":"contingent","relevant_dimensions":["pattern","legs"],"bee_group":{"antennae":"X","wings":"X","pattern":"S","legs":"M"},"bonus":0.900000000000001},{"rt":1532.2000000029802,"stimulus":"bees-with-color/bee-B1SM.svg","response":0,"trial_type":"image-button-response","trial_index":151,"time_elapsed":412753,"internal_node_id":"0.0-6.0-0.15","subject_id":"5c636850bad3560001c2749e","study_id":"60edd13110225f80f9f3709b","session_id":"6196c1f329e77d78a9df5978","condition":"contingent","relevant_dimensions":["pattern","legs"],"bee_group":{"antennae":"X","wings":"X","pattern":"S","legs":"M"},"bonus":0.900000000000001},{"rt":882.2999999970198,"stimulus":"bees-with-color/bee-B1SM.svg","response":0,"trial_type":"image-button-response","trial_index":152,"time_elapsed":413637,"internal_node_id":"0.0-6.0-0.16","subject_id":"5c636850bad3560001c2749e","study_id":"60edd13110225f80f9f3709b","session_id":"6196c1f329e77d78a9df5978","condition":"contingent","relevant_dimensions":["pattern","legs"],"bee_group":{"antennae":"X","wings":"X","pattern":"S","legs":"M"},"bonus":0.900000000000001},{"rt":3423.39999999851,"stimulus":"bees-with-color/bee-A1DM.svg","response":0,"trial_type":"image-button-response","trial_index":153,"time_elapsed":417062,"internal_node_id":"0.0-6.0-0.17","subject_id":"5c636850bad3560001c2749e","study_id":"60edd13110225f80f9f3709b","session_id":"6196c1f329e77d78a9df5978","condition":"contingent","relevant_dimensions":["pattern","legs"],"bee_group":{"antennae":"X","wings":"X","pattern":"S","legs":"M"},"bonus":0.900000000000001},{"rt":876.5,"stimulus":"bees-with-color/bee-A2DF.svg","response":0,"trial_type":"image-button-response","trial_index":154,"time_elapsed":417940,"internal_node_id":"0.0-6.0-0.18","subject_id":"5c636850bad3560001c2749e","study_id":"60edd13110225f80f9f3709b","session_id":"6196c1f329e77d78a9df5978","condition":"contingent","relevant_dimensions":["pattern","legs"],"bee_group":{"antennae":"X","wings":"X","pattern":"S","legs":"M"},"bonus":0.900000000000001},{"rt":1172.2000000029802,"stimulus":"bees-with-color/bee-B2SM.svg","response":1,"trial_type":"image-button-response","trial_index":155,"time_elapsed":419114,"internal_node_id":"0.0-6.0-0.19","subject_id":"5c636850bad3560001c2749e","study_id":"60edd13110225f80f9f3709b","session_id":"6196c1f329e77d78a9df5978","condition":"contingent","relevant_dimensions":["pattern","legs"],"bee_group":{"antennae":"X","wings":"X","pattern":"S","legs":"M"},"bonus":0.900000000000001},{"rt":2806.60000000149,"stimulus":"bees-with-color/bee-A2SF.svg","response":1,"trial_type":"image-button-response","trial_index":156,"time_elapsed":421923,"internal_node_id":"0.0-6.0-0.20","subject_id":"5c636850bad3560001c2749e","study_id":"60edd13110225f80f9f3709b","session_id":"6196c1f329e77d78a9df5978","condition":"contingent","relevant_dimensions":["pattern","legs"],"bee_group":{"antennae":"X","wings":"X","pattern":"S","legs":"M"},"bonus":0.900000000000001},{"rt":1482.6000000014901,"stimulus":"bees-with-color/bee-B2SF.svg","response":1,"trial_type":"image-button-response","trial_index":157,"time_elapsed":423407,"internal_node_id":"0.0-6.0-0.21","subject_id":"5c636850bad3560001c2749e","study_id":"60edd13110225f80f9f3709b","session_id":"6196c1f329e77d78a9df5978","condition":"contingent","relevant_dimensions":["pattern","legs"],"bee_group":{"antennae":"X","wings":"X","pattern":"S","legs":"M"},"bonus":0.900000000000001},{"rt":1505.6000000014901,"stimulus":"bees-with-color/bee-B1DF.svg","response":0,"trial_type":"image-button-response","trial_index":158,"time_elapsed":424914,"internal_node_id":"0.0-6.0-0.22","subject_id":"5c636850bad3560001c2749e","study_id":"60edd13110225f80f9f3709b","session_id":"6196c1f329e77d78a9df5978","condition":"contingent","relevant_dimensions":["pattern","legs"],"bee_group":{"antennae":"X","wings":"X","pattern":"S","legs":"M"},"bonus":0.900000000000001},{"rt":1202.7000000029802,"stimulus":"bees-with-color/bee-A1SF.svg","response":1,"trial_type":"image-button-response","trial_index":159,"time_elapsed":426118,"internal_node_id":"0.0-6.0-0.23","subject_id":"5c636850bad3560001c2749e","study_id":"60edd13110225f80f9f3709b","session_id":"6196c1f329e77d78a9df5978","condition":"contingent","relevant_dimensions":["pattern","legs"],"bee_group":{"antennae":"X","wings":"X","pattern":"S","legs":"M"},"bonus":0.900000000000001},{"rt":876.5,"stimulus":"bees-with-color/bee-B2DM.svg","response":0,"trial_type":"image-button-response","trial_index":160,"time_elapsed":426996,"internal_node_id":"0.0-6.0-0.24","subject_id":"5c636850bad3560001c2749e","study_id":"60edd13110225f80f9f3709b","session_id":"6196c1f329e77d78a9df5978","condition":"contingent","relevant_dimensions":["pattern","legs"],"bee_group":{"antennae":"X","wings":"X","pattern":"S","legs":"M"},"bonus":0.900000000000001},{"rt":1111.5,"stimulus":"bees-with-color/bee-B2DF.svg","response":0,"trial_type":"image-button-response","trial_index":161,"time_elapsed":428109,"internal_node_id":"0.0-6.0-0.25","subject_id":"5c636850bad3560001c2749e","study_id":"60edd13110225f80f9f3709b","session_id":"6196c1f329e77d78a9df5978","condition":"contingent","relevant_dimensions":["pattern","legs"],"bee_group":{"antennae":"X","wings":"X","pattern":"S","legs":"M"},"bonus":0.900000000000001},{"rt":827.5999999940395,"stimulus":"bees-with-color/bee-A2SM.svg","response":1,"trial_type":"image-button-response","trial_index":162,"time_elapsed":428938,"internal_node_id":"0.0-6.0-0.26","subject_id":"5c636850bad3560001c2749e","study_id":"60edd13110225f80f9f3709b","session_id":"6196c1f329e77d78a9df5978","condition":"contingent","relevant_dimensions":["pattern","legs"],"bee_group":{"antennae":"X","wings":"X","pattern":"S","legs":"M"},"bonus":0.900000000000001},{"rt":1355.7999999970198,"stimulus":"bees-with-color/bee-A1SM.svg","response":1,"trial_type":"image-button-response","trial_index":163,"time_elapsed":430296,"internal_node_id":"0.0-6.0-0.27","subject_id":"5c636850bad3560001c2749e","study_id":"60edd13110225f80f9f3709b","session_id":"6196c1f329e77d78a9df5978","condition":"contingent","relevant_dimensions":["pattern","legs"],"bee_group":{"antennae":"X","wings":"X","pattern":"S","legs":"M"},"bonus":0.900000000000001},{"rt":1233.6000000014901,"stimulus":"bees-with-color/bee-A2DM.svg","response":0,"trial_type":"image-button-response","trial_index":164,"time_elapsed":431531,"internal_node_id":"0.0-6.0-0.28","subject_id":"5c636850bad3560001c2749e","study_id":"60e