[{"success":true,"trial_type":"fullscreen","trial_index":0,"time_elapsed":3173,"internal_node_id":"0.0-0.0","subject_id":"6132742013c915ee8e6c2485","study_id":"6197b3f67c2b5cd3b6d9596a","session_id":"619be894a566da547932cef0","condition":"full-information","relevant_dimensions":["wings","legs"],"bee_group":{"antennae":"X","wings":"2","pattern":"X","legs":"M"},"bonus":1.4200000000000013},{"success":true,"timeout":false,"failed_images":[],"failed_audio":[],"failed_video":[],"trial_type":"preload","trial_index":1,"time_elapsed":4680,"internal_node_id":"0.0-1.0","subject_id":"6132742013c915ee8e6c2485","study_id":"6197b3f67c2b5cd3b6d9596a","session_id":"619be894a566da547932cef0","condition":"full-information","relevant_dimensions":["wings","legs"],"bee_group":{"antennae":"X","wings":"2","pattern":"X","legs":"M"},"bonus":1.4200000000000013},{"rt":1924.4000000953674,"stimulus":"Welcome! Press any key to begin.","response":" ","trial_type":"html-keyboard-response","trial_index":2,"time_elapsed":6607,"internal_node_id":"0.0-2.0","subject_id":"6132742013c915ee8e6c2485","study_id":"6197b3f67c2b5cd3b6d9596a","session_id":"619be894a566da547932cef0","condition":"full-information","relevant_dimensions":["wings","legs"],"bee_group":{"antennae":"X","wings":"2","pattern":"X","legs":"M"},"bonus":1.4200000000000013},{"view_history":[{"page_index":0,"viewing_time":4353.5},{"page_index":1,"viewing_time":55345.799999952316},{"page_index":2,"viewing_time":7232.800000071526},{"page_index":3,"viewing_time":10667.100000023842},{"page_index":4,"viewing_time":3032.399999976158},{"page_index":3,"viewing_time":2362.5},{"page_index":2,"viewing_time":9701.799999952316},{"page_index":3,"viewing_time":20092.700000047684},{"page_index":4,"viewing_time":7282.699999928474},{"page_index":5,"viewing_time":8919.400000095367},{"page_index":6,"viewing_time":5588.799999952316},{"page_index":7,"viewing_time":8507.299999952316},{"page_index":8,"viewing_time":4764.5},{"page_index":9,"viewing_time":5904.5},{"page_index":10,"viewing_time":5734.800000071526},{"page_index":11,"viewing_time":85450.89999997616},{"page_index":12,"viewing_time":25395.600000023842},{"page_index":13,"viewing_time":2265.399999976158},{"page_index":14,"viewing_time":1678.6000000238419}],"rt":274282.7000000477,"trial_type":"instructions","trial_index":3,"time_elapsed":280892,"internal_node_id":"0.0-3.0-0.0","subject_id":"6132742013c915ee8e6c2485","study_id":"6197b3f67c2b5cd3b6d9596a","session_id":"619be894a566da547932cef0","condition":"full-information","relevant_dimensions":["wings","legs"],"bee_group":{"antennae":"X","wings":"2","pattern":"X","legs":"M"},"bonus":1.4200000000000013},{"rt":37090.60000002384,"response":{"Q0":["Two or six legs","Stripes or spots on body","Single or double wings","Antennae or no antennae"]},"question_order":[0],"trial_type":"survey-multi-select","trial_index":4,"time_elapsed":317998,"internal_node_id":"0.0-3.0-1.0","subject_id":"6132742013c915ee8e6c2485","study_id":"6197b3f67c2b5cd3b6d9596a","session_id":"619be894a566da547932cef0","condition":"full-information","relevant_dimensions":["wings","legs"],"bee_group":{"antennae":"X","wings":"2","pattern":"X","legs":"M"},"correct":true,"bonus":1.4200000000000013},{"rt":17411.700000047684,"response":{"Q1":"No.","Q2":"Based on the four features of the bee.","Q3":"You learn if it was friendly or dangerous, but do not alter your bonus."},"question_order":[0,1,2],"trial_type":"survey-multi-choice","trial_index":5,"time_elapsed":335428,"internal_node_id":"0.0-3.0-2.0","subject_id":"6132742013c915ee8e6c2485","study_id":"6197b3f67c2b5cd3b6d9596a","session_id":"619be894a566da547932cef0","condition":"full-information","relevant_dimensions":["wings","legs"],"bee_group":{"antennae":"X","wings":"2","pattern":"X","legs":"M"},"correct":true,"bonus":1.4200000000000013},{"rt":2030.5,"stimulus":"<p>Congrats, you got everything right<br>When you're ready, click the button below to continue to the experiment.</p>","response":0,"trial_type":"html-button-response","trial_index":6,"time_elapsed":337474,"internal_node_id":"0.0-3.0-3.0","subject_id":"6132742013c915ee8e6c2485","study_id":"6197b3f67c2b5cd3b6d9596a","session_id":"619be894a566da547932cef0","condition":"full-information","relevant_dimensions":["wings","legs"],"bee_group":{"antennae":"X","wings":"2","pattern":"X","legs":"M"},"bonus":1.4200000000000013},{"rt":43040.300000071526,"stimulus":"bees-with-color/bee-A1SF.svg","response":0,"trial_type":"image-button-response","trial_index":7,"time_elapsed":380522,"internal_node_id":"0.0-4.0-0.0","subject_id":"6132742013c915ee8e6c2485","study_id":"6197b3f67c2b5cd3b6d9596a","session_id":"619be894a566da547932cef0","condition":"full-information","relevant_dimensions":["wings","legs"],"bee_group":{"antennae":"X","wings":"2","pattern":"X","legs":"M"},"action":"harvest","summary":"good-harvest","bonus":1.4200000000000013},{"rt":6588.899999976158,"stimulus":"\n                    <p><b>Action: <em>harvest</em></b></p>\n                    <p>This is the bee that you just saw.</p>\n                    <img src=\"bees-with-color/bee-A1SF.svg\" width=\"200\">\n                    <p><span class=\"greenText\"><b>Successful harvest!</b></span><br>Your pay has increased by $0.02. Your bonus pay is now $0.56.</p>\n            ","response":0,"trial_type":"html-button-response","trial_index":8,"time_elapsed":387121,"internal_node_id":"0.0-4.0-1.0","subject_id":"6132742013c915ee8e6c2485","study_id":"6197b3f67c2b5cd3b6d9596a","session_id":"619be894a566da547932cef0","condition":"full-information","relevant_dimensions":["wings","legs"],"bee_group":{"antennae":"X","wings":"2","pattern":"X","legs":"M"},"bonus":1.4200000000000013},{"rt":21418.200000047684,"stimulus":"bees-with-color/bee-B2SM.svg","response":1,"trial_type":"image-button-response","trial_index":9,"time_elapsed":408545,"internal_node_id":"0.0-4.0-0.1","subject_id":"6132742013c915ee8e6c2485","study_id":"6197b3f67c2b5cd3b6d9596a","session_id":"619be894a566da547932cef0","condition":"full-information","relevant_dimensions":["wings","legs"],"bee_group":{"antennae":"X","wings":"2","pattern":"X","legs":"M"},"action":"avoid","summary":"good-avoid","bonus":1.4200000000000013},{"rt":11454.699999928474,"stimulus":"\n                    <p><b>Action: <em>avoid</em></b></p>\n                    <p>This is the bee that you just saw.</p>\n                    <img src=\"bees-with-color/bee-B2SM.svg\" width=\"200\">\n                    <p><span class=\"greenText\">Good choice!</span>  This bee would have stung you.<br>Your bonus pay is unchanged, and remains at $0.56.</p>\n            ","response":0,"trial_type":"html-button-response","trial_index":10,"time_elapsed":420006,"internal_node_id":"0.0-4.0-1.1","subject_id":"6132742013c915ee8e6c2485","study_id":"6197b3f67c2b5cd3b6d9596a","session_id":"619be894a566da547932cef0","condition":"full-information","relevant_dimensions":["wings","legs"],"bee_group":{"antennae":"X","wings":"2","pattern":"X","legs":"M"},"bonus":1.4200000000000013},{"rt":22063.099999904633,"stimulus":"bees-with-color/bee-B2SF.svg","response":0,"trial_type":"image-button-response","trial_index":11,"time_elapsed":442077,"internal_node_id":"0.0-4.0-0.2","subject_id":"6132742013c915ee8e6c2485","study_id":"6197b3f67c2b5cd3b6d9596a","session_id":"619be894a566da547932cef0","condition":"full-information","relevant_dimensions":["wings","legs"],"bee_group":{"antennae":"X","wings":"2","pattern":"X","legs":"M"},"action":"harvest","summary":"good-harvest","bonus":1.4200000000000013},{"rt":9209.699999928474,"stimulus":"\n                    <p><b>Action: <em>harvest</em></b></p>\n                    <p>This is the bee that you just saw.</p>\n                    <img src=\"bees-with-color/bee-B2SF.svg\" width=\"200\">\n                    <p><span class=\"greenText\"><b>Successful harvest!</b></span><br>Your pay has increased by $0.02. Your bonus pay is now $0.58.</p>\n            ","response":0,"trial_type":"html-button-response","trial_index":12,"time_elapsed":451294,"internal_node_id":"0.0-4.0-1.2","subject_id":"6132742013c915ee8e6c2485","study_id":"6197b3f67c2b5cd3b6d9596a","session_id":"619be894a566da547932cef0","condition":"full-information","relevant_dimensions":["wings","legs"],"bee_group":{"antennae":"X","wings":"2","pattern":"X","legs":"M"},"bonus":1.4200000000000013},{"rt":23341.600000023842,"stimulus":"bees-with-color/bee-B2DM.svg","response":0,"trial_type":"image-button-response","trial_index":13,"time_elapsed":474645,"internal_node_id":"0.0-4.0-0.3","subject_id":"6132742013c915ee8e6c2485","study_id":"6197b3f67c2b5cd3b6d9596a","session_id":"619be894a566da547932cef0","condition":"full-information","relevant_dimensions":["wings","legs"],"bee_group":{"antennae":"X","wings":"2","pattern":"X","legs":"M"},"action":"harvest","summary":"bad-harvest","bonus":1.4200000000000013},{"rt":10014.600000023842,"stimulus":"\n                    <p><b>Action: <em>harvest</em></b></p>\n                    <p>This is the bee that you just saw.</p>\n                    <img src=\"bees-with-color/bee-B2DM.svg\" width=\"200\">\n                    <p><span class=\"redText\">Bad choice, the bee was angry.</span><br><b>You have been stung!</b><br>Your pay has been decreased by $0.10. Your bonus pay is now $0.48.</p>\n            ","response":0,"trial_type":"html-button-response","trial_index":14,"time_elapsed":484665,"internal_node_id":"0.0-4.0-1.3","subject_id":"6132742013c915ee8e6c2485","study_id":"6197b3f67c2b5cd3b6d9596a","session_id":"619be894a566da547932cef0","condition":"full-information","relevant_dimensions":["wings","legs"],"bee_group":{"antennae":"X","wings":"2","pattern":"X","legs":"M"},"bonus":1.4200000000000013},{"rt":30534,"stimulus":"bees-with-color/bee-A1SM.svg","response":0,"trial_type":"image-button-response","trial_index":15,"time_elapsed":515205,"internal_node_id":"0.0-4.0-0.4","subject_id":"6132742013c915ee8e6c2485","study_id":"6197b3f67c2b5cd3b6d9596a","session_id":"619be894a566da547932cef0","condition":"full-information","relevant_dimensions":["wings","legs"],"bee_group":{"antennae":"X","wings":"2","pattern":"X","legs":"M"},"action":"harvest","summary":"good-harvest","bonus":1.4200000000000013},{"rt":5854.5,"stimulus":"\n                    <p><b>Action: <em>harvest</em></b></p>\n                    <p>This is the bee that you just saw.</p>\n                    <img src=\"bees-with-color/bee-A1SM.svg\" width=\"200\">\n                    <p><span class=\"greenText\"><b>Successful harvest!</b></span><br>Your pay has increased by $0.02. Your bonus pay is now $0.50.</p>\n            ","response":0,"trial_type":"html-button-response","trial_index":16,"time_elapsed":521065,"internal_node_id":"0.0-4.0-1.4","subject_id":"6132742013c915ee8e6c2485","study_id":"6197b3f67c2b5cd3b6d9596a","session_id":"619be894a566da547932cef0","condition":"full-information","relevant_dimensions":["wings","legs"],"bee_group":{"antennae":"X","wings":"2","pattern":"X","legs":"M"},"bonus":1.4200000000000013},{"rt":25622.899999976158,"stimulus":"bees-with-color/bee-A2DF.svg","response":1,"trial_type":"image-button-response","trial_index":17,"time_elapsed":546694,"internal_node_id":"0.0-4.0-0.5","subject_id":"6132742013c915ee8e6c2485","study_id":"6197b3f67c2b5cd3b6d9596a","session_id":"619be894a566da547932cef0","condition":"full-information","relevant_dimensions":["wings","legs"],"bee_group":{"antennae":"X","wings":"2","pattern":"X","legs":"M"},"action":"avoid","summary":"bad-avoid","bonus":1.4200000000000013},{"rt":12100.299999952316,"stimulus":"\n                    <p><b>Action: <em>avoid</em></b></p>\n                    <p>This is the bee that you just saw.</p>\n                    <img src=\"bees-with-color/bee-A2DF.svg\" width=\"200\">\n                    <p><span class=\"redText\">Bad choice,</span> the bee was friendly.<br>Your bonus pay is unchanged, and remains at $0.50.</p>\n            ","response":0,"trial_type":"html-button-response","trial_index":18,"time_elapsed":558800,"internal_node_id":"0.0-4.0-1.5","subject_id":"6132742013c915ee8e6c2485","study_id":"6197b3f67c2b5cd3b6d9596a","session_id":"619be894a566da547932cef0","condition":"full-information","relevant_dimensions":["wings","legs"],"bee_group":{"antennae":"X","wings":"2","pattern":"X","legs":"M"},"bonus":1.4200000000000013},{"rt":19303.100000023842,"stimulus":"bees-with-color/bee-B1DM.svg","response":1,"trial_type":"image-button-response","trial_index":19,"time_elapsed":578110,"internal_node_id":"0.0-4.0-0.6","subject_id":"6132742013c915ee8e6c2485","study_id":"6197b3f67c2b5cd3b6d9596a","session_id":"619be894a566da547932cef0","condition":"full-information","relevant_dimensions":["wings","legs"],"bee_group":{"antennae":"X","wings":"2","pattern":"X","legs":"M"},"action":"avoid","summary":"bad-avoid","bonus":1.4200000000000013},{"rt":15730.700000047684,"stimulus":"\n                    <p><b>Action: <em>avoid</em></b></p>\n                    <p>This is the bee that you just saw.</p>\n                    <img src=\"bees-with-color/bee-B1DM.svg\" width=\"200\">\n                    <p><span class=\"redText\">Bad choice,</span> the bee was friendly.<br>Your bonus pay is unchanged, and remains at $0.50.</p>\n            ","response":0,"trial_type":"html-button-response","trial_index":20,"time_elapsed":593845,"internal_node_id":"0.0-4.0-1.6","subject_id":"6132742013c915ee8e6c2485","study_id":"6197b3f67c2b5cd3b6d9596a","session_id":"619be894a566da547932cef0","condition":"full-information","relevant_dimensions":["wings","legs"],"bee_group":{"antennae":"X","wings":"2","pattern":"X","legs":"M"},"bonus":1.4200000000000013},{"rt":28892.100000023842,"stimulus":"bees-with-color/bee-B2DF.svg","response":0,"trial_type":"image-button-response","trial_index":21,"time_elapsed":622743,"internal_node_id":"0.0-4.0-0.7","subject_id":"6132742013c915ee8e6c2485","study_id":"6197b3f67c2b5cd3b6d9596a","session_id":"619be894a566da547932cef0","condition":"full-information","relevant_dimensions":["wings","legs"],"bee_group":{"antennae":"X","wings":"2","pattern":"X","legs":"M"},"action":"harvest","summary":"good-harvest","bonus":1.4200000000000013},{"rt":28013.299999952316,"stimulus":"\n                    <p><b>Action: <em>harvest</em></b></p>\n                    <p>This is the bee that you just saw.</p>\n                    <img src=\"bees-with-color/bee-B2DF.svg\" width=\"200\">\n                    <p><span class=\"greenText\"><b>Successful harvest!</b></span><br>Your pay has increased by $0.02. Your bonus pay is now $0.52.</p>\n            ","response":0,"trial_type":"html-button-response","trial_index":22,"time_elapsed":650760,"internal_node_id":"0.0-4.0-1.7","subject_id":"6132742013c915ee8e6c2485","study_id":"6197b3f67c2b5cd3b6d9596a","session_id":"619be894a566da547932cef0","condition":"full-information","relevant_dimensions":["wings","legs"],"bee_group":{"antennae":"X","wings":"2","pattern":"X","legs":"M"},"bonus":1.4200000000000013},{"rt":44206.59999990463,"stimulus":"bees-with-color/bee-A2SM.svg","response":0,"trial_type":"image-button-response","trial_index":23,"time_elapsed":694973,"internal_node_id":"0.0-4.0-0.8","subject_id":"6132742013c915ee8e6c2485","study_id":"6197b3f67c2b5cd3b6d9596a","session_id":"619be894a566da547932cef0","condition":"full-information","relevant_dimensions":["wings","legs"],"bee_group":{"antennae":"X","wings":"2","pattern":"X","legs":"M"},"action":"harvest","summary":"bad-harvest","bonus":1.4200000000000013},{"rt":28178.100000023842,"stimulus":"\n                    <p><b>Action: <em>harvest</em></b></p>\n                    <p>This is the bee that you just saw.</p>\n                    <img src=\"bees-with-color/bee-A2SM.svg\" width=\"200\">\n                    <p><span class=\"redText\">Bad choice, the bee was angry.</span><br><b>You have been stung!</b><br>Your pay has been decreased by $0.10. Your bonus pay is now $0.42.</p>\n            ","response":0,"trial_type":"html-button-response","trial_index":24,"time_elapsed":723155,"internal_node_id":"0.0-4.0-1.8","subject_id":"6132742013c915ee8e6c2485","study_id":"6197b3f67c2b5cd3b6d9596a","session_id":"619be894a566da547932cef0","condition":"full-information","relevant_dimensions":["wings","legs"],"bee_group":{"antennae":"X","wings":"2","pattern":"X","legs":"M"},"bonus":1.4200000000000013},{"rt":27491.299999952316,"stimulus":"bees-with-color/bee-A1DF.svg","response":0,"trial_type":"image-button-response","trial_index":25,"time_elapsed":750651,"internal_node_id":"0.0-4.0-0.9","subject_id":"6132742013c915ee8e6c2485","study_id":"6197b3f67c2b5cd3b6d9596a","session_id":"619be894a566da547932cef0","condition":"full-information","relevant_dimensions":["wings","legs"],"bee_group":{"antennae":"X","wings":"2","pattern":"X","legs":"M"},"action":"harvest","summary":"good-harvest","bonus":1.4200000000000013},{"rt":2697.8000000715256,"stimulus":"\n                    <p><b>Action: <em>harvest</em></b></p>\n                    <p>This is the bee that you just saw.</p>\n                    <img src=\"bees-with-color/bee-A1DF.svg\" width=\"200\">\n                    <p><span class=\"greenText\"><b>Successful harvest!</b></span><br>Your pay has increased by $0.02. Your bonus pay is now $0.44.</p>\n            ","response":0,"trial_type":"html-button-response","trial_index":26,"time_elapsed":753354,"internal_node_id":"0.0-4.0-1.9","subject_id":"6132742013c915ee8e6c2485","study_id":"6197b3f67c2b5cd3b6d9596a","session_id":"619be894a566da547932cef0","condition":"full-information","relevant_dimensions":["wings","legs"],"bee_group":{"antennae":"X","wings":"2","pattern":"X","legs":"M"},"bonus":1.4200000000000013},{"rt":34776,"stimulus":"bees-with-color/bee-A1DM.svg","response":1,"trial_type":"image-button-response","trial_index":27,"time_elapsed":788136,"internal_node_id":"0.0-4.0-0.10","subject_id":"6132742013c915ee8e6c2485","study_id":"6197b3f67c2b5cd3b6d9596a","session_id":"619be894a566da547932cef0","condition":"full-information","relevant_dimensions":["wings","legs"],"bee_group":{"antennae":"X","wings":"2","pattern":"X","legs":"M"},"action":"avoid","summary":"bad-avoid","bonus":1.4200000000000013},{"rt":5505.799999952316,"stimulus":"\n                    <p><b>Action: <em>avoid</em></b></p>\n                    <p>This is the bee that you just saw.</p>\n                    <img src=\"bees-with-color/bee-A1DM.svg\" width=\"200\">\n                    <p><span class=\"redText\">Bad choice,</span> the bee was friendly.<br>Your bonus pay is unchanged, and remains at $0.44.</p>\n            ","response":0,"trial_type":"html-button-response","trial_index":28,"time_elapsed":793646,"internal_node_id":"0.0-4.0-1.10","subject_id":"6132742013c915ee8e6c2485","study_id":"6197b3f67c2b5cd3b6d9596a","session_id":"619be894a566da547932cef0","condition":"full-information","relevant_dimensions":["wings","legs"],"bee_group":{"antennae":"X","wings":"2","pattern":"X","legs":"M"},"bonus":1.4200000000000013},{"rt":32129.800000071526,"stimulus":"bees-with-color/bee-A2SF.svg","response":1,"trial_type":"image-button-response","trial_index":29,"time_elapsed":825784,"internal_node_id":"0.0-4.0-0.11","subject_id":"6132742013c915ee8e6c2485","study_id":"6197b3f67c2b5cd3b6d9596a","session_id":"619be894a566da547932cef0","condition":"full-information","relevant_dimensions":["wings","legs"],"bee_group":{"antennae":"X","wings":"2","pattern":"X","legs":"M"},"action":"avoid","summary":"bad-avoid","bonus":1.4200000000000013},{"rt":14858.700000047684,"stimulus":"\n                    <p><b>Action: <em>avoid</em></b></p>\n                    <p>This is the bee that you just saw.</p>\n                    <img src=\"bees-with-color/bee-A2SF.svg\" width=\"200\">\n                    <p><span class=\"redText\">Bad choice,</span> the bee was friendly.<br>Your bonus pay is unchanged, and remains at $0.44.</p>\n            ","response":0,"trial_type":"html-button-response","trial_index":30,"time_elapsed":840648,"internal_node_id":"0.0-4.0-1.11","subject_id":"6132742013c915ee8e6c2485","study_id":"6197b3f67c2b5cd3b6d9596a","session_id":"619be894a566da547932cef0","condition":"full-information","relevant_dimensions":["wings","legs"],"bee_group":{"antennae":"X","wings":"2","pattern":"X","legs":"M"},"bonus":1.4200000000000013},{"rt":12618.200000047684,"stimulus":"bees-with-color/bee-B1SF.svg","response":0,"trial_type":"image-button-response","trial_index":31,"time_elapsed":853272,"internal_node_id":"0.0-4.0-0.12","subject_id":"6132742013c915ee8e6c2485","study_id":"6197b3f67c2b5cd3b6d9596a","session_id":"619be894a566da547932cef0","condition":"full-information","relevant_dimensions":["wings","legs"],"bee_group":{"antennae":"X","wings":"2","pattern":"X","legs":"M"},"action":"harvest","summary":"good-harvest","bonus":1.4200000000000013},{"rt":3080.7000000476837,"stimulus":"\n                    <p><b>Action: <em>harvest</em></b></p>\n                    <p>This is the bee that you just saw.</p>\n                    <img src=\"bees-with-color/bee-B1SF.svg\" width=\"200\">\n                    <p><span class=\"greenText\"><b>Successful harvest!</b></span><br>Your pay has increased by $0.02. Your bonus pay is now $0.46.</p>\n            ","response":0,"trial_type":"html-button-response","trial_index":32,"time_elapsed":856359,"internal_node_id":"0.0-4.0-1.12","subject_id":"6132742013c915ee8e6c2485","study_id":"6197b3f67c2b5cd3b6d9596a","session_id":"619be894a566da547932cef0","condition":"full-information","relevant_dimensions":["wings","legs"],"bee_group":{"antennae":"X","wings":"2","pattern":"X","legs":"M"},"bonus":1.4200000000000013},{"rt":89393.79999995232,"stimulus":"bees-with-color/bee-B1DF.svg","response":1,"trial_type":"image-button-response","trial_index":33,"time_elapsed":945760,"internal_node_id":"0.0-4.0-0.13","subject_id":"6132742013c915ee8e6c2485","study_id":"6197b3f67c2b5cd3b6d9596a","session_id":"619be894a566da547932cef0","condition":"full-information","relevant_dimensions":["wings","legs"],"bee_group":{"antennae":"X","wings":"2","pattern":"X","legs":"M"},"action":"avoid","summary":"bad-avoid","bonus":1.4200000000000013},{"rt":9381.200000047684,"stimulus":"\n                    <p><b>Action: <em>avoid</em></b></p>\n                    <p>This is the bee that you just saw.</p>\n                    <img src=\"bees-with-color/bee-B1DF.svg\" width=\"200\">\n                    <p><span class=\"redText\">Bad choice,</span> the bee was friendly.<br>Your bonus pay is unchanged, and remains at $0.46.</p>\n            ","response":0,"trial_type":"html-button-response","trial_index":34,"time_elapsed":955146,"internal_node_id":"0.0-4.0-1.13","subject_id":"6132742013c915ee8e6c2485","study_id":"6197b3f67c2b5cd3b6d9596a","session_id":"619be894a566da547932cef0","condition":"full-information","relevant_dimensions":["wings","legs"],"bee_group":{"antennae":"X","wings":"2","pattern":"X","legs":"M"},"bonus":1.4200000000000013},{"rt":53795.39999997616,"stimulus":"bees-with-color/bee-B1SM.svg","response":1,"trial_type":"image-button-response","trial_index":35,"time_elapsed":1008946,"internal_node_id":"0.0-4.0-0.14","subject_id":"6132742013c915ee8e6c2485","study_id":"6197b3f67c2b5cd3b6d9596a","session_id":"619be894a566da547932cef0","condition":"full-information","relevant_dimensions":["wings","legs"],"bee_group":{"antennae":"X","wings":"2","pattern":"X","legs":"M"},"action":"avoid","summary":"bad-avoid","bonus":1.4200000000000013},{"rt":5444.399999976158,"stimulus":"\n                    <p><b>Action: <em>avoid</em></b></p>\n                    <p>This is the bee that you just saw.</p>\n                    <img src=\"bees-with-color/bee-B1SM.svg\" width=\"200\">\n                    <p><span class=\"redText\">Bad choice,</span> the bee was friendly.<br>Your bonus pay is unchanged, and remains at $0.46.</p>\n            ","response":0,"trial_type":"html-button-response","trial_index":36,"time_elapsed":1014395,"internal_node_id":"0.0-4.0-1.14","subject_id":"6132742013c915ee8e6c2485","study_id":"6197b3f67c2b5cd3b6d9596a","session_id":"619be894a566da547932cef0","condition":"full-information","relevant_dimensions":["wings","legs"],"bee_group":{"antennae":"X","wings":"2","pattern":"X","legs":"M"},"bonus":1.4200000000000013},{"rt":13768,"stimulus":"bees-with-color/bee-A2DM.svg","response":0,"trial_type":"image-button-response","trial_index":37,"time_elapsed":1028169,"internal_node_id":"0.0-4.0-0.15","subject_id":"6132742013c915ee8e6c2485","study_id":"6197b3f67c2b5cd3b6d9596a","session_id":"619be894a566da547932cef0","condition":"full-information","relevant_dimensions":["wings","legs"],"bee_group":{"antennae":"X","wings":"2","pattern":"X","legs":"M"},"action":"harvest","summary":"bad-harvest","bonus":1.4200000000000013},{"rt":32986.800000071526,"stimulus":"\n                    <p><b>Action: <em>harvest</em></b></p>\n                    <p>This is the bee that you just saw.</p>\n                    <img src=\"bees-with-color/bee-A2DM.svg\" width=\"200\">\n                    <p><span class=\"redText\">Bad choice, the bee was angry.</span><br><b>You have been stung!</b><br>Your pay has been decreased by $0.10. Your bonus pay is now $0.36.</p>\n            ","response":0,"trial_type":"html-button-response","trial_index":38,"time_elapsed":1061162,"internal_node_id":"0.0-4.0-1.15","subject_id":"6132742013c915ee8e6c2485","study_id":"6197b3f67c2b5cd3b6d9596a","session_id":"619be894a566da547932cef0","condition":"full-information","relevant_dimensions":["wings","legs"],"bee_group":{"antennae":"X","wings":"2","pattern":"X","legs":"M"},"bonus":1.4200000000000013},{"rt":18554.200000047684,"stimulus":"bees-with-color/bee-A2SF.svg","response":0,"trial_type":"image-button-response","trial_index":39,"time_elapsed":1079722,"internal_node_id":"0.0-4.0-0.16","subject_id":"6132742013c915ee8e6c2485","study_id":"6197b3f67c2b5cd3b6d9596a","session_id":"619be894a566da547932cef0","condition":"full-information","relevant_dimensions":["wings","legs"],"bee_group":{"antennae":"X","wings":"2","pattern":"X","legs":"M"},"action":"harvest","summary":"good-harvest","bonus":1.4200000000000013},{"rt":1944.1000000238419,"stimulus":"\n                    <p><b>Action: <em>harvest</em></b></p>\n                    <p>This is the bee that you just saw.</p>\n                    <img src=\"bees-with-color/bee-A2SF.svg\" width=\"200\">\n                    <p><span class=\"greenText\"><b>Successful harvest!</b></span><br>Your pay has increased by $0.02. Your bonus pay is now $0.38.</p>\n            ","response":0,"trial_type":"html-button-response","trial_index":40,"time_elapsed":1081672,"internal_node_id":"0.0-4.0-1.16","subject_id":"6132742013c915ee8e6c2485","study_id":"6197b3f67c2b5cd3b6d9596a","session_id":"619be894a566da547932cef0","condition":"full-information","relevant_dimensions":["wings","legs"],"bee_group":{"antennae":"X","wings":"2","pattern":"X","legs":"M"},"bonus":1.4200000000000013},{"rt":37307.5,"stimulus":"bees-with-color/bee-A1DM.svg","response":0,"trial_type":"image-button-response","trial_index":41,"time_elapsed":1118986,"internal_node_id":"0.0-4.0-0.17","subject_id":"6132742013c915ee8e6c2485","study_id":"6197b3f67c2b5cd3b6d9596a","session_id":"619be894a566da547932cef0","condition":"full-information","relevant_dimensions":["wings","legs"],"bee_group":{"antennae":"X","wings":"2","pattern":"X","legs":"M"},"action":"harvest","summary":"good-harvest","bonus":1.4200000000000013},{"rt":3847.899999976158,"stimulus":"\n                    <p><b>Action: <em>harvest</em></b></p>\n                    <p>This is the bee that you just saw.</p>\n                    <img src=\"bees-with-color/bee-A1DM.svg\" width=\"200\">\n                    <p><span class=\"greenText\"><b>Successful harvest!</b></span><br>Your pay has increased by $0.02. Your bonus pay is now $0.40.</p>\n            ","response":0,"trial_type":"html-button-response","trial_index":42,"time_elapsed":1122838,"internal_node_id":"0.0-4.0-1.17","subject_id":"6132742013c915ee8e6c2485","study_id":"6197b3f67c2b5cd3b6d9596a","session_id":"619be894a566da547932cef0","condition":"full-information","relevant_dimensions":["wings","legs"],"bee_group":{"antennae":"X","wings":"2","pattern":"X","legs":"M"},"bonus":1.4200000000000013},{"rt":27643.399999976158,"stimulus":"bees-with-color/bee-B2DF.svg","response":0,"trial_type":"image-button-response","trial_index":43,"time_elapsed":1150487,"internal_node_id":"0.0-4.0-0.18","subject_id":"6132742013c915ee8e6c2485","study_id":"6197b3f67c2b5cd3b6d9596a","session_id":"619be894a566da547932cef0","condition":"full-information","relevant_dimensions":["wings","legs"],"bee_group":{"antennae":"X","wings":"2","pattern":"X","legs":"M"},"action":"harvest","summary":"good-harvest","bonus":1.4200000000000013},{"rt":19256.799999952316,"stimulus":"\n                    <p><b>Action: <em>harvest</em></b></p>\n                    <p>This is the bee that you just saw.</p>\n                    <img src=\"bees-with-color/bee-B2DF.svg\" width=\"200\">\n                    <p><span class=\"greenText\"><b>Successful harvest!</b></span><br>Your pay has increased by $0.02. Your bonus pay is now $0.42.</p>\n            ","response":0,"trial_type":"html-button-response","trial_index":44,"time_elapsed":1169749,"internal_node_id":"0.0-4.0-1.18","subject_id":"6132742013c915ee8e6c2485","study_id":"6197b3f67c2b5cd3b6d9596a","session_id":"619be894a566da547932cef0","condition":"full-information","relevant_dimensions":["wings","legs"],"bee_group":{"antennae":"X","wings":"2","pattern":"X","legs":"M"},"bonus":1.4200000000000013},{"rt":18106.399999976158,"stimulus":"bees-with-color/bee-B2DM.svg","response":1,"trial_type":"image-button-response","trial_index":45,"time_elapsed":1187862,"internal_node_id":"0.0-4.0-0.19","subject_id":"6132742013c915ee8e6c2485","study_id":"6197b3f67c2b5cd3b6d9596a","session_id":"619be894a566da547932cef0","condition":"full-information","relevant_dimensions":["wings","legs"],"bee_group":{"antennae":"X","wings":"2","pattern":"X","legs":"M"},"action":"avoid","summary":"good-avoid","bonus":1.4200000000000013},{"rt":27153,"stimulus":"\n                    <p><b>Action: <em>avoid</em></b></p>\n                    <p>This is the bee that you just saw.</p>\n                    <img src=\"bees-with-color/bee-B2DM.svg\" width=\"200\">\n                    <p><span class=\"greenText\">Good choice!</span>  This bee would have stung you.<br>Your bonus pay is unchanged, and remains at $0.42.</p>\n            ","response":0,"trial_type":"html-button-response","trial_index":46,"time_elapsed":1215020,"internal_node_id":"0.0-4.0-1.19","subject_id":"6132742013c915ee8e6c2485","study_id":"6197b3f67c2b5cd3b6d9596a","session_id":"619be894a566da547932cef0","condition":"full-information","relevant_dimensions":["wings","legs"],"bee_group":{"antennae":"X","wings":"2","pattern":"X","legs":"M"},"bonus":1.4200000000000013},{"rt":16672.799999952316,"stimulus":"bees-with-color/bee-A2SM.svg","response":1,"trial_type":"image-button-response","trial_index":47,"time_elapsed":1231698,"internal_node_id":"0.0-4.0-0.20","subject_id":"6132742013c915ee8e6c2485","study_id":"6197b3f67c2b5cd3b6d9596a","session_id":"619be894a566da547932cef0","condition":"full-information","relevant_dimensions":["wings","legs"],"bee_group":{"antennae":"X","wings":"2","pattern":"X","legs":"M"},"action":"avoid","summary":"good-avoid","bonus":1.4200000000000013},{"rt":2570.2999999523163,"stimulus":"\n                    <p><b>Action: <em>avoid</em></b></p>\n                    <p>This is the bee that you just saw.</p>\n                    <img src=\"bees-with-color/bee-A2SM.svg\" width=\"200\">\n                    <p><span class=\"greenText\">Good choice!</span>  This bee would have stung you.<br>Your bonus pay is unchanged, and remains at $0.42.</p>\n            ","response":0,"trial_type":"html-button-response","trial_index":48,"time_elapsed":1234273,"internal_node_id":"0.0-4.0-1.20","subject_id":"6132742013c915ee8e6c2485","study_id":"6197b3f67c2b5cd3b6d9596a","session_id":"619be894a566da547932cef0","condition":"full-information","relevant_dimensions":["wings","legs"],"bee_group":{"antennae":"X","wings":"2","pattern":"X","legs":"M"},"bonus":1.4200000000000013},{"rt":9334.900000095367,"stimulus":"bees-with-color/bee-A1SM.svg","response":0,"trial_type":"image-button-response","trial_index":49,"time_elapsed":1243615,"internal_node_id":"0.0-4.0-0.21","subject_id":"6132742013c915ee8e6c2485","study_id":"6197b3f67c2b5cd3b6d9596a","session_id":"619be894a566da547932cef0","condition":"full-information","relevant_dimensions":["wings","legs"],"bee_group":{"antennae":"X","wings":"2","pattern":"X","legs":"M"},"action":"harvest","summary":"good-harvest","bonus":1.4200000000000013},{"rt":1939,"stimulus":"\n                    <p><b>Action: <em>harvest</em></b></p>\n                    <p>This is the bee that you just saw.</p>\n                    <img src=\"bees-with-color/bee-A1SM.svg\" width=\"200\">\n                    <p><span class=\"greenText\"><b>Successful harvest!</b></span><br>Your pay has increased by $0.02. Your bonus pay is now $0.44.</p>\n            ","response":0,"trial_type":"html-button-response","trial_index":50,"time_elapsed":1245558,"internal_node_id":"0.0-4.0-1.21","subject_id":"6132742013c915ee8e6c2485","study_id":"6197b3f67c2b5cd3b6d9596a","session_id":"619be894a566da547932cef0","condition":"full-information","relevant_dimensions":["wings","legs"],"bee_group":{"antennae":"X","wings":"2","pattern":"X","legs":"M"},"bonus":1.4200000000000013},{"rt":25371.599999904633,"stimulus":"bees-with-color/bee-A1DF.svg","response":1,"trial_type":"image-button-response","trial_index":51,"time_elapsed":1270937,"internal_node_id":"0.0-4.0-0.22","subject_id":"6132742013c915ee8e6c2485","study_id":"6197b3f67c2b5cd3b6d9596a","session_id":"619be894a566da547932cef0","condition":"full-information","relevant_dimensions":["wings","legs"],"bee_group":{"antennae":"X","wings":"2","pattern":"X","legs":"M"},"action":"avoid","summary":"bad-avoid","bonus":1.4200000000000013},{"rt":21061.199999928474,"stimulus":"\n                    <p><b>Action: <em>avoid</em></b></p>\n                    <p>This is the bee that you just saw.</p>\n                    <img src=\"bees-with-color/bee-A1DF.svg\" width=\"200\">\n                    <p><span class=\"redText\">Bad choice,</span> the bee was friendly.<br>Your bonus pay is unchanged, and remains at $0.44.</p>\n            ","response":0,"trial_type":"html-button-response","trial_index":52,"time_elapsed":1292003,"internal_node_id":"0.0-4.0-1.22","subject_id":"6132742013c915ee8e6c2485","study_id":"6197b3f67c2b5cd3b6d9596a","session_id":"619be894a566da547932cef0","condition":"full-information","relevant_dimensions":["wings","legs"],"bee_group":{"antennae":"X","wings":"2","pattern":"X","legs":"M"},"bonus":1.4200000000000013},{"rt":24434,"stimulus":"bees-with-color/bee-B1SF.svg","response":1,"trial_type":"image-button-response","trial_index":53,"time_elapsed":1316444,"internal_node_id":"0.0-4.0-0.23","subject_id":"6132742013c915ee8e6c2485","study_id":"6197b3f67c2b5cd3b6d9596a","session_id":"619be894a566da547932cef0","condition":"full-information","relevant_dimensions":["wings","legs"],"bee_group":{"antennae":"X","wings":"2","pattern":"X","legs":"M"},"action":"avoid","summary":"bad-avoid","bonus":1.4200000000000013},{"rt":17094.699999928474,"stimulus":"\n                    <p><b>Action: <em>avoid</em></b></p>\n                    <p>This is the bee that you just saw.</p>\n                    <img src=\"bees-with-color/bee-B1SF.svg\" width=\"200\">\n                    <p><span class=\"redText\">Bad choice,</span> the bee was friendly.<br>Your bonus pay is unchanged, and remains at $0.44.</p>\n            ","response":0,"trial_type":"html-button-response","trial_index":54,"time_elapsed":1333543,"internal_node_id":"0.0-4.0-1.23","subject_id":"6132742013c915ee8e6c2485","study_id":"6197b3f67c2b5cd3b6d9596a","session_id":"619be894a566da547932cef0","condition":"full-information","relevant_dimensions":["wings","legs"],"bee_group":{"antennae":"X","wings":"2","pattern":"X","legs":"M"},"bonus":1.4200000000000013},{"rt":23216.699999928474,"stimulus":"bees-with-color/bee-A2DM.svg","response":1,"trial_type":"image-button-response","trial_index":55,"time_elapsed":1356765,"internal_node_id":"0.0-4.0-0.24","subject_id":"6132742013c915ee8e6c2485","study_id":"6197b3f67c2b5cd3b6d9596a","session_id":"619be894a566da547932cef0","condition":"full-information","relevant_dimensions":["wings","legs"],"bee_group":{"antennae":"X","wings":"2","pattern":"X","legs":"M"},"action":"avoid","summary":"good-avoid","bonus":1.4200000000000013},{"rt":1999.6000000238419,"stimulus":"\n                    <p><b>Action: <em>avoid</em></b></p>\n                    <p>This is the bee that you just saw.</p>\n                    <img src=\"bees-with-color/bee-A2DM.svg\" width=\"200\">\n                    <p><span class=\"greenText\">Good choice!</span>  This bee would have stung you.<br>Your bonus pay is unchanged, and remains at $0.44.</p>\n            ","response":0,"trial_type":"html-button-response","trial_index":56,"time_elapsed":1358770,"internal_node_id":"0.0-4.0-1.24","subject_id":"6132742013c915ee8e6c2485","study_id":"6197b3f67c2b5cd3b6d9596a","session_id":"619be894a566da547932cef0","condition":"full-information","relevant_dimensions":["wings","legs"],"bee_group":{"antennae":"X","wings":"2","pattern":"X","legs":"M"},"bonus":1.4200000000000013},{"rt":17897.800000071526,"stimulus":"bees-with-color/bee-B1DM.svg","response":0,"trial_type":"image-button-response","trial_index":57,"time_elapsed":1376675,"internal_node_id":"0.0-4.0-0.25","subject_id":"6132742013c915ee8e6c2485","study_id":"6197b3f67c2b5cd3b6d9596a","session_id":"619be894a566da547932cef0","condition":"full-information","relevant_dimensions":["wings","legs"],"bee_group":{"antennae":"X","wings":"2","pattern":"X","legs":"M"},"action":"harvest","summary":"good-harvest","bonus":1.4200000000000013},{"rt":3759.5,"stimulus":"\n                    <p><b>Action: <em>harvest</em></b></p>\n                    <p>This is the bee that you just saw.</p>\n                    <img src=\"bees-with-color/bee-B1DM.svg\" width=\"200\">\n                    <p><span class=\"greenText\"><b>Successful harvest!</b></span><br>Your pay has increased by $0.02. Your bonus pay is now $0.46.</p>\n            ","response":0,"trial_type":"html-button-response","trial_index":58,"time_elapsed":1380440,"internal_node_id":"0.0-4.0-1.25","subject_id":"6132742013c915ee8e6c2485","study_id":"6197b3f67c2b5cd3b6d9596a","session_id":"619be894a566da547932cef0","condition":"full-information","relevant_dimensions":["wings","legs"],"bee_group":{"antennae":"X","wings":"2","pattern":"X","legs":"M"},"bonus":1.4200000000000013},{"rt":8709.299999952316,"stimulus":"bees-with-color/bee-B1DF.svg","response":0,"trial_type":"image-button-response","trial_index":59,"time_elapsed":1389155,"internal_node_id":"0.0-4.0-0.26","subject_id":"6132742013c915ee8e6c2485","study_id":"6197b3f67c2b5cd3b6d9596a","session_id":"619be894a566da547932cef0","condition":"full-information","relevant_dimensions":["wings","legs"],"bee_group":{"antennae":"X","wings":"2","pattern":"X","legs":"M"},"action":"harvest","summary":"good-harvest","bonus":1.4200000000000013},{"rt":1737.8999999761581,"stimulus":"\n                    <p><b>Action: <em>harvest</em></b></p>\n                    <p>This is the bee that you just saw.</p>\n                    <img src=\"bees-with-color/bee-B1DF.svg\" width=\"200\">\n                    <p><span class=\"greenText\"><b>Successful harvest!</b></span><br>Your pay has increased by $0.02. Your bonus pay is now $0.48.</p>\n            ","response":0,"trial_type":"html-button-response","trial_index":60,"time_elapsed":1390900,"internal_node_id":"0.0-4.0-1.26","subject_id":"6132742013c915ee8e6c2485","study_id":"6197b3f67c2b5cd3b6d9596a","session_id":"619be894a566da547932cef0","condition":"full-information","relevant_dimensions":["wings","legs"],"bee_group":{"antennae":"X","wings":"2","pattern":"X","legs":"M"},"bonus":1.4200000000000013},{"rt":17212.799999952316,"stimulus":"bees-with-color/bee-A2DF.svg","response":0,"trial_type":"image-button-response","trial_index":61,"time_elapsed":1408121,"internal_node_id":"0.0-4.0-0.27","subject_id":"6132742013c915ee8e6c2485","study_id":"6197b3f67c2b5cd3b6d9596a","session_id":"619be894a566da547932cef0","condition":"full-information","relevant_dimensions":["wings","legs"],"bee_group":{"antennae":"X","wings":"2","pattern":"X","legs":"M"},"action":"harvest","summary":"good-harvest","bonus":1.4200000000000013},{"rt":2180,"stimulus":"\n                    <p><b>Action: <em>harvest</em></b></p>\n                    <p>This is the bee that you just saw.</p>\n                    <img src=\"bees-with-color/bee-A2DF.svg\" width=\"200\">\n                    <p><span class=\"greenText\"><b>Successful harvest!</b></span><br>Your pay has increased by $0.02. Your bonus pay is now $0.50.</p>\n            ","response":0,"trial_type":"html-button-response","trial_index":62,"time_elapsed":1410307,"internal_node_id":"0.0-4.0-1.27","subject_id":"6132742013c915ee8e6c2485","study_id":"6197b3f67c2b5cd3b6d9596a","session_id":"619be894a566da547932cef0","condition":"full-information","relevant_dimensions":["wings","legs"],"bee_group":{"antennae":"X","wings":"2","pattern":"X","legs":"M"},"bonus":1.4200000000000013},{"rt":10666.600000023842,"stimulus":"bees-with-color/bee-B1SM.svg","response":0,"trial_type":"image-button-response","trial_index":63,"time_elapsed":1420979,"internal_node_id":"0.0-4.0-0.28","subject_id":"6132742013c915ee8e6c2485","study_id":"6197b3f67c2b5cd3b6d9596a","session_id":"619be894a566da547932cef0","condition":"full-information","relevant_dimensions":["wings","legs"],"bee_group":{"antennae":"X","wings":"2","pattern":"X","legs":"M"},"action":"harvest","summary":"good-harvest","bonus":1.4200000000000013},{"rt":1794.5,"stimulus":"\n                    <p><b>Action: <em>harvest</em></b></p>\n                    <p>This is the bee that you just saw.</p>\n                    <img src=\"bees-with-color/bee-B1SM.svg\" width=\"200\">\n                    <p><span class=\"greenText\"><b>Successful harvest!</b></span><br>Your pay has increased by $0.02. Your bonus pay is now $0.52.</p>\n            ","response":0,"trial_type":"html-button-response","trial_index":64,"time_elapsed":1422779,"internal_node_id":"0.0-4.0-1.28","subject_id":"6132742013c915ee8e6c2485","study_id":"6197b3f67c2b5cd3b6d9596a","session_id":"619be894a566da547932cef0","condition":"full-information","relevant_dimensions":["wings","legs"],"bee_group":{"antennae":"X","wings":"2","pattern":"X","legs":"M"},"bonus":1.4200000000000013},{"rt":13686,"stimulus":"bees-with-color/bee-A1SF.svg","response":0,"trial_type":"image-button-response","trial_index":65,"time_elapsed":1436472,"internal_node_id":"0.0-4.0-0.29","subject_id":"6132742013c915ee8e6c2485","study_id":"6197b3f67c2b5cd3b6d9596a","session_id":"619be894a566da547932cef0","condition":"full-information","relevant_dimensions":["wings","legs"],"bee_group":{"antennae":"X","wings":"2","pattern":"X","legs":"M"},"action":"harvest","summary":"good-harvest","bonus":1.4200000000000013},{"rt":1553.7999999523163,"stimulus":"\n                    <p><b>Action: <em>harvest</em></b></p>\n                    <p>This is the bee that you just saw.</p>\n                    <img src=\"bees-with-color/bee-A1SF.svg\" width=\"200\">\n                    <p><span class=\"greenText\"><b>Successful harvest!</b></span><br>Your pay has increased by $0.02. Your bonus pay is now $0.54.</p>\n            ","response":0,"trial_type":"html-button-response","trial_index":66,"time_elapsed":1438030,"internal_node_id":"0.0-4.0-1.29","subject_id":"6132742013c915ee8e6c2485","study_id":"6197b3f67c2b5cd3b6d9596a","session_id":"619be894a566da547932cef0","condition":"full-information","relevant_dimensions":["wings","legs"],"bee_group":{"antennae":"X","wings":"2","pattern":"X","legs":"M"},"bonus":1.4200000000000013},{"rt":27505.5,"stimulus":"bees-with-color/bee-B2SM.svg","response":1,"trial_type":"image-button-response","trial_index":67,"time_elapsed":1465544,"internal_node_id":"0.0-4.0-0.30","subject_id":"6132742013c915ee8e6c2485","study_id":"6197b3f67c2b5cd3b6d9596a","session_id":"619be894a566da547932cef0","condition":"full-information","relevant_dimensions":["wings","legs"],"bee_group":{"antennae":"X","wings":"2","pattern":"X","legs":"M"},"action":"avoid","summary":"good-avoid","bonus":1.4200000000000013},{"rt":2090.3000000715256,"stimulus":"\n                    <p><b>Action: <em>avoid</em></b></p>\n                    <p>This is the bee that you just saw.</p>\n                    <img src=\"bees-with-color/bee-B2SM.svg\" width=\"200\">\n                    <p><span class=\"greenText\">Good choice!</span>  This bee would have stung you.<br>Your bonus pay is unchanged, and remains at $0.54.</p>\n            ","response":0,"trial_type":"html-button-response","trial_index":68,"time_elapsed":1467641,"internal_node_id":"0.0-4.0-1.30","subject_id":"6132742013c915ee8e6c2485","study_id":"6197b3f67c2b5cd3b6d9596a","session_id":"619be894a566da547932cef0","condition":"full-information","relevant_dimensions":["wings","legs"],"bee_group":{"antennae":"X","wings":"2","pattern":"X","legs":"M"},"bonus":1.4200000000000013},{"rt":7801.699999928474,"stimulus":"bees-with-color/bee-B2SF.svg","response":0,"trial_type":"image-button-response","trial_index":69,"time_elapsed":1475450,"internal_node_id":"0.0-4.0-0.31","subject_id":"6132742013c915ee8e6c2485","study_id":"6197b3f67c2b5cd3b6d9596a","session_id":"619be894a566da547932cef0","condition":"full-information","relevant_dimensions":["wings","legs"],"bee_group":{"antennae":"X","wings":"2","pattern":"X","legs":"M"},"action":"harvest","summary":"good-harvest","bonus":1.4200000000000013},{"rt":1470.7000000476837,"stimulus":"\n                    <p><b>Action: <em>harvest</em></b></p>\n                    <p>This is the bee that you just saw.</p>\n                    <img src=\"bees-with-color/bee-B2SF.svg\" width=\"200\">\n                    <p><span class=\"greenText\"><b>Successful harvest!</b></span><br>Your pay has increased by $0.02. Your bonus pay is now $0.56.</p>\n            ","response":0,"trial_type":"html-button-response","trial_index":70,"time_elapsed":1476926,"internal_node_id":"0.0-4.0-1.31","subject_id":"6132742013c915ee8e6c2485","study_id":"6197b3f67c2b5cd3b6d9596a","session_id":"619be894a566da547932cef0","condition":"full-information","relevant_dimensions":["wings","legs"],"bee_group":{"antennae":"X","wings":"2","pattern":"X","legs":"M"},"bonus":1.4200000000000013},{"rt":23586.399999976158,"stimulus":"bees-with-color/bee-A1DF.svg","response":0,"trial_type":"image-button-response","trial_index":71,"time_elapsed":1500518,"internal_node_id":"0.0-4.0-0.32","subject_id":"6132742013c915ee8e6c2485","study_id":"6197b3f67c2b5cd3b6d9596a","session_id":"619be894a566da547932cef0","condition":"full-information","relevant_dimensions":["wings","legs"],"bee_group":{"antennae":"X","wings":"2","pattern":"X","legs":"M"},"action":"harvest","summary":"good-harvest","bonus":1.4200000000000013},{"rt":1603.9000000953674,"stimulus":"\n                    <p><b>Action: <em>harvest</em></b></p>\n                    <p>This is the bee that you just saw.</p>\n                    <img src=\"bees-with-color/bee-A1DF.svg\" width=\"200\">\n                    <p><span class=\"greenText\"><b>Successful harvest!</b></span><br>Your pay has increased by $0.02. Your bonus pay is now $0.58.</p>\n            ","response":0,"trial_type":"html-button-response","trial_index":72,"time_elapsed":1502128,"internal_node_id":"0.0-4.0-1.32","subject_id":"6132742013c915ee8e6c2485","study_id":"6197b3f67c2b5cd3b6d9596a","session_id":"619be894a566da547932cef0","condition":"full-information","relevant_dimensions":["wings","legs"],"bee_group":{"antennae":"X","wings":"2","pattern":"X","legs":"M"},"bonus":1.4200000000000013},{"rt":10805.600000023842,"stimulus":"bees-with-color/bee-B2SM.svg","response":1,"trial_type":"image-button-response","trial_index":73,"time_elapsed":1512941,"internal_node_id":"0.0-4.0-0.33","subject_id":"6132742013c915ee8e6c2485","study_id":"6197b3f67c2b5cd3b6d9596a","session_id":"619be894a566da547932cef0","condition":"full-information","relevant_dimensions":["wings","legs"],"bee_group":{"antennae":"X","wings":"2","pattern":"X","legs":"M"},"action":"avoid","summary":"good-avoid","bonus":1.4200000000000013},{"rt":1848.6999999284744,"stimulus":"\n                    <p><b>Action: <em>avoid</em></b></p>\n                    <p>This is the bee that you just saw.</p>\n                    <img src=\"bees-with-color/bee-B2SM.svg\" width=\"200\">\n                    <p><span class=\"greenText\">Good choice!</span>  This bee would have stung you.<br>Your bonus pay is unchanged, and remains at $0.58.</p>\n            ","response":0,"trial_type":"html-button-response","trial_index":74,"time_elapsed":1514794,"internal_node_id":"0.0-4.0-1.33","subject_id":"6132742013c915ee8e6c2485","study_id":"6197b3f67c2b5cd3b6d9596a","session_id":"619be894a566da547932cef0","condition":"full-information","relevant_dimensions":["wings","legs"],"bee_group":{"antennae":"X","wings":"2","pattern":"X","legs":"M"},"bonus":1.4200000000000013},{"rt":6459.899999976158,"stimulus":"bees-with-color/bee-B2SF.svg","response":0,"trial_type":"image-button-response","trial_index":75,"time_elapsed":1521264,"internal_node_id":"0.0-4.0-0.34","subject_id":"6132742013c915ee8e6c2485","study_id":"6197b3f67c2b5cd3b6d9596a","session_id":"619be894a566da547932cef0","condition":"full-information","relevant_dimensions":["wings","legs"],"bee_group":{"antennae":"X","wings":"2","pattern":"X","legs":"M"},"action":"harvest","summary":"good-harvest","bonus":1.4200000000000013},{"rt":2733.5,"stimulus":"\n                    <p><b>Action: <em>harvest</em></b></p>\n                    <p>This is the bee that you just saw.</p>\n                    <img src=\"bees-with-color/bee-B2SF.svg\" width=\"200\">\n                    <p><span class=\"greenText\"><b>Successful harvest!</b></span><br>Your pay has increased by $0.02. Your bonus pay is now $0.60.</p>\n            ","response":0,"trial_type":"html-button-response","trial_index":76,"time_elapsed":1524003,"internal_node_id":"0.0-4.0-1.34","subject_id":"6132742013c915ee8e6c2485","study_id":"6197b3f67c2b5cd3b6d9596a","session_id":"619be894a566da547932cef0","condition":"full-information","relevant_dimensions":["wings","legs"],"bee_group":{"antennae":"X","wings":"2","pattern":"X","legs":"M"},"bonus":1.4200000000000013},{"rt":8464.100000023842,"stimulus":"bees-with-color/bee-A1SF.svg","response":0,"trial_type":"image-button-response","trial_index":77,"time_elapsed":1532474,"internal_node_id":"0.0-4.0-0.35","subject_id":"6132742013c915ee8e6c2485","study_id":"6197b3f67c2b5cd3b6d9596a","session_id":"619be894a566da547932cef0","condition":"full-information","relevant_dimensions":["wings","legs"],"bee_group":{"antennae":"X","wings":"2","pattern":"X","legs":"M"},"action":"harvest","summary":"good-harvest","bonus":1.4200000000000013},{"rt":1763.6000000238419,"stimulus":"\n                    <p><b>Action: <em>harvest</em></b></p>\n                    <p>This is the bee that you just saw.</p>\n                    <img src=\"bees-with-color/bee-A1SF.svg\" width=\"200\">\n                    <p><span class=\"greenText\"><b>Successful harvest!</b></span><br>Your pay has increased by $0.02. Your bonus pay is now $0.62.</p>\n            ","response":0,"trial_type":"html-button-response","trial_index":78,"time_elapsed":1534243,"internal_node_id":"0.0-4.0-1.35","subject_id":"6132742013c915ee8e6c2485","study_id":"6197b3f67c2b5cd3b6d9596a","session_id":"619be894a566da547932cef0","condition":"full-information","relevant_dimensions":["wings","legs"],"bee_group":{"antennae":"X","wings":"2","pattern":"X","legs":"M"},"bonus":1.4200000000000013},{"rt":18002.399999976158,"stimulus":"bees-with-color/bee-B1SM.svg","response":0,"trial_type":"image-button-response","trial_index":79,"time_elapsed":1552253,"internal_node_id":"0.0-4.0-0.36","subject_id":"6132742013c915ee8e6c2485","study_id":"6197b3f67c2b5cd3b6d9596a","session_id":"619be894a566da547932cef0","condition":"full-information","relevant_dimensions":["wings","legs"],"bee_group":{"antennae":"X","wings":"2","pattern":"X","legs":"M"},"action":"harvest","summary":"good-harvest","bonus":1.4200000000000013},{"rt":1768.3999999761581,"stimulus":"\n                    <p><b>Action: <em>harvest</em></b></p>\n                    <p>This is the bee that you just saw.</p>\n                    <img src=\"bees-with-color/bee-B1SM.svg\" width=\"200\">\n                    <p><span class=\"greenText\"><b>Successful harvest!</b></span><br>Your pay has increased by $0.02. Your bonus pay is now $0.64.</p>\n            ","response":0,"trial_type":"html-button-response","trial_index":80,"time_elapsed":1554026,"internal_node_id":"0.0-4.0-1.36","subject_id":"6132742013c915ee8e6c2485","study_id":"6197b3f67c2b5cd3b6d9596a","session_id":"619be894a566da547932cef0","condition":"full-information","relevant_dimensions":["wings","legs"],"bee_group":{"antennae":"X","wings":"2","pattern":"X","legs":"M"},"bonus":1.4200000000000013},{"rt":11201.899999976158,"stimulus":"bees-with-color/bee-B1DF.svg","response":0,"trial_type":"image-button-response","trial_index":81,"time_elapsed":1565236,"internal_node_id":"0.0-4.0-0.37","subject_id":"6132742013c915ee8e6c2485","study_id":"6197b3f67c2b5cd3b6d9596a","session_id":"619be894a566da547932cef0","condition":"full-information","relevant_dimensions":["wings","legs"],"bee_group":{"antennae":"X","wings":"2","pattern":"X","legs":"M"},"action":"harvest","summary":"good-harvest","bonus":1.4200000000000013},{"rt":2082.5,"stimulus":"\n                    <p><b>Action: <em>harvest</em></b></p>\n                    <p>This is the bee that you just saw.</p>\n                    <img src=\"bees-with-color/bee-B1DF.svg\" width=\"200\">\n                    <p><span class=\"greenText\"><b>Successful harvest!</b></span><br>Your pay has increased by $0.02. Your bonus pay is now $0.66.</p>\n            ","response":0,"trial_type":"html-button-response","trial_index":82,"time_elapsed":1567323,"internal_node_id":"0.0-4.0-1.37","subject_id":"6132742013c915ee8e6c2485","study_id":"6197b3f67c2b5cd3b6d9596a","session_id":"619be894a566da547932cef0","condition":"full-information","relevant_dimensions":["wings","legs"],"bee_group":{"antennae":"X","wings":"2","pattern":"X","legs":"M"},"bonus":1.4200000000000013},{"rt":8236.799999952316,"stimulus":"bees-with-color/bee-B2DM.svg","response":1,"trial_type":"image-button-response","trial_index":83,"time_elapsed":1575567,"internal_node_id":"0.0-4.0-0.38","subject_id":"6132742013c915ee8e6c2485","study_id":"6197b3f67c2b5cd3b6d9596a","session_id":"619be894a566da547932cef0","condition":"full-information","relevant_dimensions":["wings","legs"],"bee_group":{"antennae":"X","wings":"2","pattern":"X","legs":"M"},"action":"avoid","summary":"good-avoid","bonus":1.4200000000000013},{"rt":1680.5,"stimulus":"\n                    <p><b>Action: <em>avoid</em></b></p>\n                    <p>This is the bee that you just saw.</p>\n                    <img src=\"bees-with-color/bee-B2DM.svg\" width=\"200\">\n                    <p><span class=\"greenText\">Good choice!</span>  This bee would have stung you.<br>Your bonus pay is unchanged, and remains at $0.66.</p>\n            ","response":0,"trial_type":"html-button-response","trial_index":84,"time_elapsed":1577252,"internal_node_id":"0.0-4.0-1.38","subject_id":"6132742013c915ee8e6c2485","study_id":"6197b3f67c2b5cd3b6d9596a","session_id":"619be894a566da547932cef0","condition":"full-information","relevant_dimensions":["wings","legs"],"bee_group":{"antennae":"X","wings":"2","pattern":"X","legs":"M"},"bonus":1.4200000000000013},{"rt":14073.199999928474,"stimulus":"bees-with-color/bee-A1DM.svg","response":0,"trial_type":"image-button-response","trial_index":85,"time_elapsed":1591332,"internal_node_id":"0.0-4.0-0.39","subject_id":"6132742013c915ee8e6c2485","study_id":"6197b3f67c2b5cd3b6d9596a","session_id":"619be894a566da547932cef0","condition":"full-information","relevant_dimensions":["wings","legs"],"bee_group":{"antennae":"X","wings":"2","pattern":"X","legs":"M"},"action":"harvest","summary":"good-harvest","bonus":1.4200000000000013},{"rt":1662.6999999284744,"stimulus":"\n                    <p><b>Action: <em>harvest</em></b></p>\n                    <p>This is the bee that you just saw.</p>\n                    <img src=\"bees-with-color/bee-A1DM.svg\" width=\"200\">\n                    <p><span class=\"greenText\"><b>Successful harvest!</b></span><br>Your pay has increased by $0.02. Your bonus pay is now $0.68.</p>\n            ","response":0,"trial_type":"html-button-response","trial_index":86,"time_elapsed":1592999,"internal_node_id":"0.0-4.0-1.39","subject_id":"6132742013c915ee8e6c2485","study_id":"6197b3f67c2b5cd3b6d9596a","session_id":"619be894a566da547932cef0","condition":"full-information","relevant_dimensions":["wings","legs"],"bee_group":{"antennae":"X","wings":"2","pattern":"X","legs":"M"},"bonus":1.4200000000000013},{"rt":11007.399999976158,"stimulus":"bees-with-color/bee-B1DM.svg","response":0,"trial_type":"image-button-response","trial_index":87,"time_elapsed":1604012,"internal_node_id":"0.0-4.0-0.40","subject_id":"6132742013c915ee8e6c2485","study_id":"6197b3f67c2b5cd3b6d9596a","session_id":"619be894a566da547932cef0","condition":"full-information","relevant_dimensions":["wings","legs"],"bee_group":{"antennae":"X","wings":"2","pattern":"X","legs":"M"},"action":"harvest","summary":"good-harvest","bonus":1.4200000000000013},{"rt":1611.5999999046326,"stimulus":"\n                    <p><b>Action: <em>harvest</em></b></p>\n                    <p>This is the bee that you just saw.</p>\n                    <img src=\"bees-with-color/bee-B1DM.svg\" width=\"200\">\n                    <p><span class=\"greenText\"><b>Successful harvest!</b></span><br>Your pay has increased by $0.02. Your bonus pay is now $0.70.</p>\n            ","response":0,"trial_type":"html-button-response","trial_index":88,"time_elapsed":1605628,"internal_node_id":"0.0-4.0-1.40","subject_id":"6132742013c915ee8e6c2485","study_id":"6197b3f67c2b5cd3b6d9596a","session_id":"619be894a566da547932cef0","condition":"full-information","relevant_dimensions":["wings","legs"],"bee_group":{"antennae":"X","wings":"2","pattern":"X","legs":"M"},"bonus":1.4200000000000013},{"rt":8244.800000071526,"stimulus":"bees-with-color/bee-A2DF.svg","response":0,"trial_type":"image-button-response","trial_index":89,"time_elapsed":1613879,"internal_node_id":"0.0-4.0-0.41","subject_id":"6132742013c915ee8e6c2485","study_id":"6197b3f67c2b5cd3b6d9596a","session_id":"619be894a566da547932cef0","condition":"full-information","relevant_dimensions":["wings","legs"],"bee_group":{"antennae":"X","wings":"2","pattern":"X","legs":"M"},"action":"harvest","summary":"good-harvest","bonus":1.4200000000000013},{"rt":1532.3999999761581,"stimulus":"\n                    <p><b>Action: <em>harvest</em></b></p>\n                    <p>This is the bee that you just saw.</p>\n                    <img src=\"bees-with-color/bee-A2DF.svg\" width=\"200\">\n                    <p><span class=\"greenText\"><b>Successful harvest!</b></span><br>Your pay has increased by $0.02. Your bonus pay is now $0.72.</p>\n            ","response":0,"trial_type":"html-button-response","trial_index":90,"time_elapsed":1615417,"internal_node_id":"0.0-4.0-1.41","subject_id":"6132742013c915ee8e6c2485","study_id":"6197b3f67c2b5cd3b6d9596a","session_id":"619be894a566da547932cef0","condition":"full-information","relevant_dimensions":["wings","legs"],"bee_group":{"antennae":"X","wings":"2","pattern":"X","legs":"M"},"bonus":1.4200000000000013},{"rt":21712.899999976158,"stimulus":"bees-with-color/bee-B1SF.svg","response":0,"trial_type":"image-button-response","trial_index":91,"time_elapsed":1637136,"internal_node_id":"0.0-4.0-0.42","subject_id":"6132742013c915ee8e6c2485","study_id":"6197b3f67c2b5cd3b6d9596a","session_id":"619be894a566da547932cef0","condition":"full-information","relevant_dimensions":["wings","legs"],"bee_group":{"antennae":"X","wings":"2","pattern":"X","legs":"M"},"action":"harvest","summary":"good-harvest","bonus":1.4200000000000013},{"rt":5878.5,"stimulus":"\n                    <p><b>Action: <em>harvest</em></b></p>\n                    <p>This is the bee that you just saw.</p>\n                    <img src=\"bees-with-color/bee-B1SF.svg\" width=\"200\">\n                    <p><span class=\"greenText\"><b>Successful harvest!</b></span><br>Your pay has increased by $0.02. Your bonus pay is now $0.74.</p>\n            ","response":0,"trial_type":"html-button-response","trial_index":92,"time_elapsed":1643020,"internal_node_id":"0.0-4.0-1.42","subject_id":"6132742013c915ee8e6c2485","study_id":"6197b3f67c2b5cd3b6d9596a","session_id":"619be894a566da547932cef0","condition":"full-information","relevant_dimensions":["wings","legs"],"bee_group":{"antennae":"X","wings":"2","pattern":"X","legs":"M"},"bonus":1.4200000000000013},{"rt":9243.399999976158,"stimulus":"bees-with-color/bee-A1SM.svg","response":0,"trial_type":"image-button-response","trial_index":93,"time_elapsed":1652271,"internal_node_id":"0.0-4.0-0.43","subject_id":"6132742013c915ee8e6c2485","study_id":"6197b3f67c2b5cd3b6d9596a","session_id":"619be894a566da547932cef0","condition":"full-information","relevant_dimensions":["wings","legs"],"bee_group":{"antennae":"X","wings":"2","pattern":"X","legs":"M"},"action":"harvest","summary":"good-harvest","bonus":1.4200000000000013},{"rt":2213.2000000476837,"stimulus":"\n                    <p><b>Action: <em>harvest</em></b></p>\n                    <p>This is the bee that you just saw.</p>\n                    <img src=\"bees-with-color/bee-A1SM.svg\" width=\"200\">\n                    <p><span class=\"greenText\"><b>Successful harvest!</b></span><br>Your pay has increased by $0.02. Your bonus pay is now $0.76.</p>\n            ","response":0,"trial_type":"html-button-response","trial_index":94,"time_elapsed":1654492,"internal_node_id":"0.0-4.0-1.43","subject_id":"6132742013c915ee8e6c2485","study_id":"6197b3f67c2b5cd3b6d9596a","session_id":"619be894a566da547932cef0","condition":"full-information","relevant_dimensions":["wings","legs"],"bee_group":{"antennae":"X","wings":"2","pattern":"X","legs":"M"},"bonus":1.4200000000000013},{"rt":28358.700000047684,"stimulus":"bees-with-color/bee-A2SF.svg","response":0,"trial_type":"image-button-response","trial_index":95,"time_elapsed":1682857,"internal_node_id":"0.0-4.0-0.44","subject_id":"6132742013c915ee8e6c2485","study_id":"6197b3f67c2b5cd3b6d9596a","session_id":"619be894a566da547932cef0","condition":"full-information","relevant_dimensions":["wings","legs"],"bee_group":{"antennae":"X","wings":"2","pattern":"X","legs":"M"},"action":"harvest","summary":"good-harvest","bonus":1.4200000000000013},{"rt":2262.600000023842,"stimulus":"\n                    <p><b>Action: <em>harvest</em></b></p>\n                    <p>This is the bee that you just saw.</p>\n                    <img src=\"bees-with-color/bee-A2SF.svg\" width=\"200\">\n                    <p><span class=\"greenText\"><b>Successful harvest!</b></span><br>Your pay has increased by $0.02. Your bonus pay is now $0.78.</p>\n            ","response":0,"trial_type":"html-button-response","trial_index":96,"time_elapsed":1685126,"internal_node_id":"0.0-4.0-1.44","subject_id":"6132742013c915ee8e6c2485","study_id":"6197b3f67c2b5cd3b6d9596a","session_id":"619be894a566da547932cef0","condition":"full-information","relevant_dimensions":["wings","legs"],"bee_group":{"antennae":"X","wings":"2","pattern":"X","legs":"M"},"bonus":1.4200000000000013},{"rt":10572.100000023842,"stimulus":"bees-with-color/bee-A2DM.svg","response":1,"trial_type":"image-button-response","trial_index":97,"time_elapsed":1695706,"internal_node_id":"0.0-4.0-0.45","subject_id":"6132742013c915ee8e6c2485","study_id":"6197b3f67c2b5cd3b6d9596a","session_id":"619be894a566da547932cef0","condition":"full-information","relevant_dimensions":["wings","legs"],"bee_group":{"antennae":"X","wings":"2","pattern":"X","legs":"M"},"action":"avoid","summary":"good-avoid","bonus":1.4200000000000013},{"rt":1810.6000000238419,"stimulus":"\n                    <p><b>Action: <em>avoid</em></b></p>\n                    <p>This is the bee that you just saw.</p>\n                    <img src=\"bees-with-color/bee-A2DM.svg\" width=\"200\">\n                    <p><span class=\"greenText\">Good choice!</span>  This bee would have stung you.<br>Your bonus pay is unchanged, and remains at $0.78.</p>\n            ","response":0,"trial_type":"html-button-response","trial_index":98,"time_elapsed":1697524,"internal_node_id":"0.0-4.0-1.45","subject_id":"6132742013c915ee8e6c2485","study_id":"6197b3f67c2b5cd3b6d9596a","session_id":"619be894a566da547932cef0","condition":"full-information","relevant_dimensions":["wings","legs"],"bee_group":{"antennae":"X","wings":"2","pattern":"X","legs":"M"},"bonus":1.4200000000000013},{"rt":6928.399999976158,"stimulus":"bees-with-color/bee-B2DF.svg","response":0,"trial_type":"image-button-response","trial_index":99,"time_elapsed":1704466,"internal_node_id":"0.0-4.0-0.46","subject_id":"6132742013c915ee8e6c2485","study_id":"6197b3f67c2b5cd3b6d9596a","session_id":"619be894a566da547932cef0","condition":"full-information","relevant_dimensions":["wings","legs"],"bee_group":{"antennae":"X","wings":"2","pattern":"X","legs":"M"},"action":"harvest","summary":"good-harvest","bonus":1.4200000000000013},{"rt":1638,"stimulus":"\n                    <p><b>Action: <em>harvest</em></b></p>\n                    <p>This is the bee that you just saw.</p>\n                    <img src=\"bees-with-color/bee-B2DF.svg\" width=\"200\">\n                    <p><span class=\"greenText\"><b>Successful harvest!</b></span><br>Your pay has increased by $0.02. Your bonus pay is now $0.80.</p>\n            ","response":0,"trial_type":"html-button-response","trial_index":100,"time_elapsed":1706109,"internal_node_id":"0.0-4.0-1.46","subject_id":"6132742013c915ee8e6c2485","study_id":"6197b3f67c2b5cd3b6d9596a","session_id":"619be894a566da547932cef0","condition":"full-information","relevant_dimensions":["wings","legs"],"bee_group":{"antennae":"X","wings":"2","pattern":"X","legs":"M"},"bonus":1.4200000000000013},{"rt":5937.800000071526,"stimulus":"bees-with-color/bee-A2SM.svg","response":0,"trial_type":"image-button-response","trial_index":101,"time_elapsed":1712054,"internal_node_id":"0.0-4.0-0.47","subject_id":"6132742013c915ee8e6c2485","study_id":"6197b3f67c2b5cd3b6d9596a","session_id":"619be894a566da547932cef0","condition":"full-information","relevant_dimensions":["wings","legs"],"bee_group":{"antennae":"X","wings":"2","pattern":"X","legs":"M"},"action":"harvest","summary":"bad-harvest","bonus":1.4200000000000013},{"rt":9387.200000047684,"stimulus":"\n                    <p><b>Action: <em>harvest</em></b></p>\n                    <p>This is the bee that you just saw.</p>\n                    <img src=\"bees-with-color/bee-A2SM.svg\" width=\"200\">\n                    <p><span class=\"redText\">Bad choice, the bee was angry.</span><br><b>You have been stung!</b><br>Your pay has been decreased by $0.10. Your bonus pay is now $0.70.</p>\n            ","response":0,"trial_type":"html-button-response","trial_index":102,"time_elapsed":1721449,"internal_node_id":"0.0-4.0-1.47","subject_id":"6132742013c915ee8e6c2485","study_id":"6197b3f67c2b5cd3b6d9596a","session_id":"619be894a566da547932cef0","condition":"full-information","relevant_dimensions":["wings","legs"],"bee_group":{"antennae":"X","wings":"2","pattern":"X","legs":"M"},"bonus":1.4200000000000013},{"rt":13525.799999952316,"stimulus":"bees-with-color/bee-B1DM.svg","response":0,"trial_type":"image-button-response","trial_index":103,"time_elapsed":1734983,"internal_node_id":"0.0-4.0-0.48","subject_id":"6132742013c915ee8e6c2485","study_id":"6197b3f67c2b5cd3b6d9596a","session_id":"619be894a566da547932cef0","condition":"full-information","relevant_dimensions":["wings","legs"],"bee_group":{"antennae":"X","wings":"2","pattern":"X","legs":"M"},"action":"harvest","summary":"good-harvest","bonus":1.4200000000000013},{"rt":1499.7999999523163,"stimulus":"\n                    <p><b>Action: <em>harvest</em></b></p>\n                    <p>This is the bee that you just saw.</p>\n                    <img src=\"bees-with-color/bee-B1DM.svg\" width=\"200\">\n                    <p><span class=\"greenText\"><b>Successful harvest!</b></span><br>Your pay has increased by $0.02. Your bonus pay is now $0.72.</p>\n            ","response":0,"trial_type":"html-button-response","trial_index":104,"time_elapsed":1736490,"internal_node_id":"0.0-4.0-1.48","subject_id":"6132742013c915ee8e6c2485","study_id":"6197b3f67c2b5cd3b6d9596a","session_id":"619be894a566da547932cef0","condition":"full-information","relevant_dimensions":["wings","legs"],"bee_group":{"antennae":"X","wings":"2","pattern":"X","legs":"M"},"bonus":1.4200000000000013},{"rt":5633.599999904633,"stimulus":"bees-with-color/bee-A1SM.svg","response":0,"trial_type":"image-button-response","trial_index":105,"time_elapsed":1742131,"internal_node_id":"0.0-4.0-0.49","subject_id":"6132742013c915ee8e6c2485","study_id":"6197b3f67c2b5cd3b6d9596a","session_id":"619be894a566da547932cef0","condition":"full-information","relevant_dimensions":["wings","legs"],"bee_group":{"antennae":"X","wings":"2","pattern":"X","legs":"M"},"action":"harvest","summary":"good-harvest","bonus":1.4200000000000013},{"rt":1274,"stimulus":"\n                    <p><b>Action: <em>harvest</em></b></p>\n                    <p>This is the bee that you just saw.</p>\n                    <img src=\"bees-with-color/bee-A1SM.svg\" width=\"200\">\n                    <p><span class=\"greenText\"><b>Successful harvest!</b></span><br>Your pay has increased by $0.02. Your bonus pay is now $0.74.</p>\n            ","response":0,"trial_type":"html-button-response","trial_index":106,"time_elapsed":1743410,"internal_node_id":"0.0-4.0-1.49","subject_id":"6132742013c915ee8e6c2485","study_id":"6197b3f67c2b5cd3b6d9596a","session_id":"619be894a566da547932cef0","condition":"full-information","relevant_dimensions":["wings","legs"],"bee_group":{"antennae":"X","wings":"2","pattern":"X","legs":"M"},"bonus":1.4200000000000013},{"rt":11385.600000023842,"stimulus":"bees-with-color/bee-A2SM.svg","response":1,"trial_type":"image-button-response","trial_index":107,"time_elapsed":1754804,"internal_node_id":"0.0-4.0-0.50","subject_id":"6132742013c915ee8e6c2485","study_id":"6197b3f67c2b5cd3b6d9596a","session_id":"619be894a566da547932cef0","condition":"full-information","relevant_dimensions":["wings","legs"],"bee_group":{"antennae":"X","wings":"2","pattern":"X","legs":"M"},"action":"avoid","summary":"good-avoid","bonus":1.4200000000000013},{"rt":1558.0999999046326,"stimulus":"\n                    <p><b>Action: <em>avoid</em></b></p>\n                    <p>This is the bee that you just saw.</p>\n                    <img src=\"bees-with-color/bee-A2SM.svg\" width=\"200\">\n                    <p><span class=\"greenText\">Good choice!</span>  This bee would have stung you.<br>Your bonus pay is unchanged, and remains at $0.74.</p>\n            ","response":0,"trial_type":"html-button-response","trial_index":108,"time_elapsed":1756370,"internal_node_id":"0.0-4.0-1.50","subject_id":"6132742013c915ee8e6c2485","study_id":"6197b3f67c2b5cd3b6d9596a","session_id":"619be894a566da547932cef0","condition":"full-information","relevant_dimensions":["wings","legs"],"bee_group":{"antennae":"X","wings":"2","pattern":"X","legs":"M"},"bonus":1.4200000000000013},{"rt":9315.5,"stimulus":"bees-with-color/bee-B2DF.svg","response":0,"trial_type":"image-button-response","trial_index":109,"time_elapsed":1765692,"internal_node_id":"0.0-4.0-0.51","subject_id":"6132742013c915ee8e6c2485","study_id":"6197b3f67c2b5cd3b6d9596a","session_id":"619be894a566da547932cef0","condition":"full-information","relevant_dimensions":["wings","legs"],"bee_group":{"antennae":"X","wings":"2","pattern":"X","legs":"M"},"action":"harvest","summary":"good-harvest","bonus":1.4200000000000013},{"rt":1302.8000000715256,"stimulus":"\n                    <p><b>Action: <em>harvest</em></b></p>\n                    <p>This is the bee that you just saw.</p>\n                    <img src=\"bees-with-color/bee-B2DF.svg\" width=\"200\">\n                    <p><span class=\"greenText\"><b>Successful harvest!</b></span><br>Your pay has increased by $0.02. Your bonus pay is now $0.76.</p>\n            ","response":0,"trial_type":"html-button-response","trial_index":110,"time_elapsed":1767002,"internal_node_id":"0.0-4.0-1.51","subject_id":"6132742013c915ee8e6c2485","study_id":"6197b3f67c2b5cd3b6d9596a","session_id":"619be894a566da547932cef0","condition":"full-information","relevant_dimensions":["wings","legs"],"bee_group":{"antennae":"X","wings":"2","pattern":"X","legs":"M"},"bonus":1.4200000000000013},{"rt":7317.200000047684,"stimulus":"bees-with-color/bee-A1DF.svg","response":0,"trial_type":"image-button-response","trial_index":111,"time_elapsed":1774325,"internal_node_id":"0.0-4.0-0.52","subject_id":"6132742013c915ee8e6c2485","study_id":"6197b3f67c2b5cd3b6d9596a","session_id":"619be894a566da547932cef0","condition":"full-information","relevant_dimensions":["wings","legs"],"bee_group":{"antennae":"X","wings":"2","pattern":"X","legs":"M"},"action":"harvest","summary":"good-harvest","bonus":1.4200000000000013},{"rt":1525.6000000238419,"stimulus":"\n                    <p><b>Action: <em>harvest</em></b></p>\n                    <p>This is the bee that you just saw.</p>\n                    <img src=\"bees-with-color/bee-A1DF.svg\" width=\"200\">\n                    <p><span class=\"greenText\"><b>Successful harvest!</b></span><br>Your pay has increased by $0.02. Your bonus pay is now $0.78.</p>\n            ","response":0,"trial_type":"html-button-response","trial_index":112,"time_elapsed":1775855,"internal_node_id":"0.0-4.0-1.52","subject_id":"6132742013c915ee8e6c2485","study_id":"6197b3f67c2b5cd3b6d9596a","session_id":"619be894a566da547932cef0","condition":"full-information","relevant_dimensions":["wings","legs"],"bee_group":{"antennae":"X","wings":"2","pattern":"X","legs":"M"},"bonus":1.4200000000000013},{"rt":20623.100000023842,"stimulus":"bees-with-color/bee-B1DF.svg","response":0,"trial_type":"image-button-response","trial_index":113,"time_elapsed":1796484,"internal_node_id":"0.0-4.0-0.53","subject_id":"6132742013c915ee8e6c2485","study_id":"6197b3f67c2b5cd3b6d9596a","session_id":"619be894a566da547932cef0","condition":"full-information","relevant_dimensions":["wings","legs"],"bee_group":{"antennae":"X","wings":"2","pattern":"X","legs":"M"},"action":"harvest","summary":"good-harvest","bonus":1.4200000000000013},{"rt":1615.2999999523163,"stimulus":"\n                    <p><b>Action: <em>harvest</em></b></p>\n                    <p>This is the bee that you just saw.</p>\n                    <img src=\"bees-with-color/bee-B1DF.svg\" width=\"200\">\n                    <p><span class=\"greenText\"><b>Successful harvest!</b></span><br>Your pay has increased by $0.02. Your bonus pay is now $0.80.</p>\n            ","response":0,"trial_type":"html-button-response","trial_index":114,"time_elapsed":1798105,"internal_node_id":"0.0-4.0-1.53","subject_id":"6132742013c915ee8e6c2485","study_id":"6197b3f67c2b5cd3b6d9596a","session_id":"619be894a566da547932cef0","condition":"full-information","relevant_dimensions":["wings","legs"],"bee_group":{"antennae":"X","wings":"2","pattern":"X","legs":"M"},"bonus":1.4200000000000013},{"rt":9812.299999952316,"stimulus":"bees-with-color/bee-A2DM.svg","response":1,"trial_type":"image-button-response","trial_index":115,"time_elapsed":1807923,"internal_node_id":"0.0-4.0-0.54","subject_id":"6132742013c915ee8e6c2485","study_id":"6197b3f67c2b5cd3b6d9596a","session_id":"619be894a566da547932cef0","condition":"full-information","relevant_dimensions":["wings","legs"],"bee_group":{"antennae":"X","wings":"2","pattern":"X","legs":"M"},"action":"avoid","summary":"good-avoid","bonus":1.4200000000000013},{"rt":1511.6000000238419,"stimulus":"\n                    <p><b>Action: <em>avoid</em></b></p>\n                    <p>This is the bee that you just saw.</p>\n                    <img src=\"bees-with-color/bee-A2DM.svg\" width=\"200\">\n                    <p><span class=\"greenText\">Good choice!</span>  This bee would have stung you.<br>Your bonus pay is unchanged, and remains at $0.80.</p>\n            ","response":0,"trial_type":"html-button-response","trial_index":116,"time_elapsed":1809439,"internal_node_id":"0.0-4.0-1.54","subject_id":"6132742013c915ee8e6c2485","study_id":"6197b3f67c2b5cd3b6d9596a","session_id":"619be894a566da547932cef0","condition":"full-information","relevant_dimensions":["wings","legs"],"bee_group":{"antennae":"X","wings":"2","pattern":"X","legs":"M"},"bonus":1.4200000000000013},{"rt":11415.800000071526,"stimulus":"bees-with-color/bee-B1SF.svg","response":0,"trial_type":"image-button-response","trial_index":117,"time_elapsed":1820860,"internal_node_id":"0.0-4.0-0.55","subject_id":"6132742013c915ee8e6c2485","study_id":"6197b3f67c2b5cd3b6d9596a","session_id":"619be894a566da547932cef0","condition":"full-information","relevant_dimensions":["wings","legs"],"bee_group":{"antennae":"X","wings":"2","pattern":"X","legs":"M"},"action":"harvest","summary":"good-harvest","bonus":1.4200000000000013},{"rt":1257.8999999761581,"stimulus":"\n                    <p><b>Action: <em>harvest</em></b></p>\n                    <p>This is the bee that you just saw.</p>\n                    <img src=\"bees-with-color/bee-B1SF.svg\" width=\"200\">\n                    <p><span class=\"greenText\"><b>Successful harvest!</b></span><br>Your pay has increased by $0.02. Your bonus pay is now $0.82.</p>\n            ","response":0,"trial_type":"html-button-response","trial_index":118,"time_elapsed":1822123,"internal_node_id":"0.0-4.0-1.55","subject_id":"6132742013c915ee8e6c2485","study_id":"6197b3f67c2b5cd3b6d9596a","session_id":"619be894a566da547932cef0","condition":"full-information","relevant_dimensions":["wings","legs"],"bee_group":{"antennae":"X","wings":"2","pattern":"X","legs":"M"},"bonus":1.4200000000000013},{"rt":11160.100000023842,"stimulus":"bees-with-color/bee-A1SF.svg","response":0,"trial_type":"image-button-response","trial_index":119,"time_elapsed":1833289,"internal_node_id":"0.0-4.0-0.56","subject_id":"6132742013c915ee8e6c2485","study_id":"6197b3f67c2b5cd3b6d9596a","session_id":"619be894a566da547932cef0","condition":"full-information","relevant_dimensions":["wings","legs"],"bee_group":{"antennae":"X","wings":"2","pattern":"X","legs":"M"},"action":"harvest","summary":"good-harvest","bonus":1.4200000000000013},{"rt":1260.3999999761581,"stimulus":"\n                    <p><b>Action: <em>harvest</em></b></p>\n                    <p>This is the bee that you just saw.</p>\n                    <img src=\"bees-with-color/bee-A1SF.svg\" width=\"200\">\n                    <p><span class=\"greenText\"><b>Successful harvest!</b></span><br>Your pay has increased by $0.02. Your bonus pay is now $0.84.</p>\n            ","response":0,"trial_type":"html-button-response","trial_index":120,"time_elapsed":1834554,"internal_node_id":"0.0-4.0-1.56","subject_id":"6132742013c915ee8e6c2485","study_id":"6197b3f67c2b5cd3b6d9596a","session_id":"619be894a566da547932cef0","condition":"full-information","relevant_dimensions":["wings","legs"],"bee_group":{"antennae":"X","wings":"2","pattern":"X","legs":"M"},"bonus":1.4200000000000013},{"rt":10513.600000023842,"stimulus":"bees-with-color/bee-A2DF.svg","response":0,"trial_type":"image-button-response","trial_index":121,"time_elapsed":1845074,"internal_node_id":"0.0-4.0-0.57","subject_id":"6132742013c915ee8e6c2485","study_id":"6197b3f67c2b5cd3b6d9596a","session_id":"619be894a566da547932cef0","condition":"full-information","relevant_dimensions":["wings","legs"],"bee_group":{"antennae":"X","wings":"2","pattern":"X","legs":"M"},"action":"harvest","summary":"good-harvest","bonus":1.4200000000000013},{"rt":1427.6000000238419,"stimulus":"\n                    <p><b>Action: <em>harvest</em></b></p>\n                    <p>This is the bee that you just saw.</p>\n                    <img src=\"bees-with-color/bee-A2DF.svg\" width=\"200\">\n                    <p><span class=\"greenText\"><b>Successful harvest!</b></span><br>Your pay has increased by $0.02. Your bonus pay is now $0.86.</p>\n            ","response":0,"trial_type":"html-button-response","trial_index":122,"time_elapsed":1846507,"internal_node_id":"0.0-4.0-1.57","subject_id":"6132742013c915ee8e6c2485","study_id":"6197b3f67c2b5cd3b6d9596a","session_id":"619be894a566da547932cef0","condition":"full-information","relevant_dimensions":["wings","legs"],"bee_group":{"antennae":"X","wings":"2","pattern":"X","legs":"M"},"bonus":1.4200000000000013},{"rt":10920.100000023842,"stimulus":"bees-with-color/bee-B2SF.svg","response":0,"trial_type":"image-button-response","trial_index":123,"time_elapsed":1857433,"internal_node_id":"0.0-4.0-0.58","subject_id":"6132742013c915ee8e6c2485","study_id":"6197b3f67c2b5cd3b6d9596a","session_id":"619be894a566da547932cef0","condition":"full-information","relevant_dimensions":["wings","legs"],"bee_group":{"antennae":"X","wings":"2","pattern":"X","legs":"M"},"action":"harvest","summary":"good-harvest","bonus":1.4200000000000013},{"rt":1411.9000000953674,"stimulus":"\n                    <p><b>Action: <em>harvest</em></b></p>\n                    <p>This is the bee that you just saw.</p>\n                    <img src=\"bees-with-color/bee-B2SF.svg\" width=\"200\">\n                    <p><span class=\"greenText\"><b>Successful harvest!</b></span><br>Your pay has increased by $0.02. Your bonus pay is now $0.88.</p>\n            ","response":0,"trial_type":"html-button-response","trial_index":124,"time_elapsed":1858849,"internal_node_id":"0.0-4.0-1.58","subject_id":"6132742013c915ee8e6c2485","study_id":"6197b3f67c2b5cd3b6d9596a","session_id":"619be894a566da547932cef0","condition":"full-information","relevant_dimensions":["wings","legs"],"bee_group":{"antennae":"X","wings":"2","pattern":"X","legs":"M"},"bonus":1.4200000000000013},{"rt":8812.199999928474,"stimulus":"bees-with-color/bee-B2DM.svg","response":1,"trial_type":"image-button-response","trial_index":125,"time_elapsed":1867667,"internal_node_id":"0.0-4.0-0.59","subject_id":"6132742013c915ee8e6c2485","study_id":"6197b3f67c2b5cd3b6d9596a","session_id":"619be894a566da547932cef0","condition":"full-information","relevant_dimensions":["wings","legs"],"bee_group":{"antennae":"X","wings":"2","pattern":"X","legs":"M"},"action":"avoid","summary":"good-avoid","bonus":1.4200000000000013},{"rt":1978.0999999046326,"stimulus":"\n                    <p><b>Action: <em>avoid</em></b></p>\n                    <p>This is the bee that you just saw.</p>\n                    <img src=\"bees-with-color/bee-B2DM.svg\" width=\"200\">\n                    <p><span class=\"greenText\">Good choice!</span>  This bee would have stung you.<br>Your bonus pay is unchanged, and remains at $0.88.</p>\n            ","response":0,"trial_type":"html-button-response","trial_index":126,"time_elapsed":1869650,"internal_node_id":"0.0-4.0-1.59","subject_id":"6132742013c915ee8e6c2485","study_id":"6197b3f67c2b5cd3b6d9596a","session_id":"619be894a566da547932cef0","condition":"full-information","relevant_dimensions":["wings","legs"],"bee_group":{"antennae":"X","wings":"2","pattern":"X","legs":"M"},"bonus":1.4200000000000013},{"rt":13997.399999976158,"stimulus":"bees-with-color/bee-B1SM.svg","response":0,"trial_type":"image-button-response","trial_index":127,"time_elapsed":1883654,"internal_node_id":"0.0-4.0-0.60","subject_id":"6132742013c915ee8e6c2485","study_id":"6197b3f67c2b5cd3b6d9596a","session_id":"619be894a566da547932cef0","condition":"full-information","relevant_dimensions":["wings","legs"],"bee_group":{"antennae":"X","wings":"2","pattern":"X","legs":"M"},"action":"harvest","summary":"good-harvest","bonus":1.4200000000000013},{"rt":1172.6999999284744,"stimulus":"\n                    <p><b>Action: <em>harvest</em></b></p>\n                    <p>This is the bee that you just saw.</p>\n                    <img src=\"bees-with-color/bee-B1SM.svg\" width=\"200\">\n                    <p><span class=\"greenText\"><b>Successful harvest!</b></span><br>Your pay has increased by $0.02. Your bonus pay is now $0.90.</p>\n            ","response":0,"trial_type":"html-button-response","trial_index":128,"time_elapsed":1884832,"internal_node_id":"0.0-4.0-1.60","subject_id":"6132742013c915ee8e6c2485","study_id":"6197b3f67c2b5cd3b6d9596a","session_id":"619be894a566da547932cef0","condition":"full-information","relevant_dimensions":["wings","legs"],"bee_group":{"antennae":"X","wings":"2","pattern":"X","legs":"M"},"bonus":1.4200000000000013},{"rt":12058.100000023842,"stimulus":"bees-with-color/bee-A2SF.svg","response":0,"trial_type":"image-button-response","trial_index":129,"time_elapsed":1896897,"internal_node_id":"0.0-4.0-0.61","subject_id":"6132742013c915ee8e6c2485","study_id":"6197b3f67c2b5cd3b6d9596a","session_id":"619be894a566da547932cef0","condition":"full-information","relevant_dimensions":["wings","legs"],"bee_group":{"antennae":"X","wings":"2","pattern":"X","legs":"M"},"action":"harvest","summary":"good-harvest","bonus":1.4200000000000013},{"rt":2234.8000000715256,"stimulus":"\n                    <p><b>Action: <em>harvest</em></b></p>\n                    <p>This is the bee that you just saw.</p>\n                    <img src=\"bees-with-color/bee-A2SF.svg\" width=\"200\">\n                    <p><span class=\"greenText\"><b>Successful harvest!</b></span><br>Your pay has increased by $0.02. Your bonus pay is now $0.92.</p>\n            ","response":0,"trial_type":"html-button-response","trial_index":130,"time_elapsed":1899137,"internal_node_id":"0.0-4.0-1.61","subject_id":"6132742013c915ee8e6c2485","study_id":"6197b3f67c2b5cd3b6d9596a","session_id":"619be894a566da547932cef0","condition":"full-information","relevant_dimensions":["wings","legs"],"bee_group":{"antennae":"X","wings":"2","pattern":"X","legs":"M"},"bonus":1.4200000000000013},{"rt":12987.799999952316,"stimulus":"bees-with-color/bee-B2SM.svg","response":1,"trial_type":"image-button-response","trial_index":131,"time_elapsed":1912132,"internal_node_id":"0.0-4.0-0.62","subject_id":"6132742013c915ee8e6c2485","study_id":"6197b3f67c2b5cd3b6d9596a","session_id":"619be894a566da547932cef0","condition":"full-information","relevant_dimensions":["wings","legs"],"bee_group":{"antennae":"X","wings":"2","pattern":"X","legs":"M"},"action":"avoid","summary":"good-avoid","bonus":1.4200000000000013},{"rt":1425.2999999523163,"stimulus":"\n                    <p><b>Action: <em>avoid</em></b></p>\n                    <p>This is the bee that you just saw.</p>\n                    <img src=\"bees-with-color/bee-B2SM.svg\" width=\"200\">\n                    <p><span class=\"greenText\">Good choice!</span>  This bee would have stung you.<br>Your bonus pay is unchanged, and remains at $0.92.</p>\n            ","response":0,"trial_type":"html-button-response","trial_index":132,"time_elapsed":1913563,"internal_node_id":"0.0-4.0-1.62","subject_id":"6132742013c915ee8e6c2485","study_id":"6197b3f67c2b5cd3b6d9596a","session_id":"619be894a566da547932cef0","condition":"full-information","relevant_dimensions":["wings","legs"],"bee_group":{"antennae":"X","wings":"2","pattern":"X","legs":"M"},"bonus":1.4200000000000013},{"rt":16046.899999976158,"stimulus":"bees-with-color/bee-A1DM.svg","response":0,"trial_type":"image-button-response","trial_index":133,"time_elapsed":1929616,"internal_node_id":"0.0-4.0-0.63","subject_id":"6132742013c915ee8e6c2485","study_id":"6197b3f67c2b5cd3b6d9596a","session_id":"619be894a566da547932cef0","condition":"full-information","relevant_dimensions":["wings","legs"],"bee_group":{"antennae":"X","wings":"2","pattern":"X","legs":"M"},"action":"harvest","summary":"good-harvest","bonus":1.4200000000000013},{"rt":1449.7999999523163,"stimulus":"\n                    <p><b>Action: <em>harvest</em></b></p>\n                    <p>This is the bee that you just saw.</p>\n                    <img src=\"bees-with-color/bee-A1DM.svg\" width=\"200\">\n                    <p><span class=\"greenText\"><b>Successful harvest!</b></span><br>Your pay has increased by $0.02. Your bonus pay is now $0.94.</p>\n            ","response":0,"trial_type":"html-button-response","trial_index":134,"time_elapsed":1931071,"internal_node_id":"0.0-4.0-1.63","subject_id":"6132742013c915ee8e6c2485","study_id":"6197b3f67c2b5cd3b6d9596a","session_id":"619be894a566da547932cef0","condition":"full-information","relevant_dimensions":["wings","legs"],"bee_group":{"antennae":"X","wings":"2","pattern":"X","legs":"M"},"bonus":1.4200000000000013},{"rt":5408.899999976158,"stimulus":"You have completed the first part of this experiment.<br><br>You will now begin a shorter second part, in which you will receive no feedback.<br>The same rules regarding bonus pay apply.<br><br>Press any key to begin.","response":" ","trial_type":"html-keyboard-response","trial_index":135,"time_elapsed":1936486,"internal_node_id":"0.0-5.0","subject_id":"6132742013c915ee8e6c2485","study_id":"6197b3f67c2b5cd3b6d9596a","session_id":"619be894a566da547932cef0","condition":"full-information","relevant_dimensions":["wings","legs"],"bee_group":{"antennae":"X","wings":"2","pattern":"X","legs":"M"},"bonus":1.4200000000000013},{"rt":13277,"stimulus":"bees-with-color/bee-B1SM.svg","response":0,"trial_type":"image-button-response","trial_index":136,"time_elapsed":1949783,"internal_node_id":"0.0-6.0-0.0","subject_id":"6132742013c915ee8e6c2485","study_id":"6197b3f67c2b5cd3b6d9596a","session_id":"619be894a566da547932cef0","condition":"full-information","relevant_dimensions":["wings","legs"],"bee_group":{"antennae":"X","wings":"2","pattern":"X","legs":"M"},"bonus":1.4200000000000013},{"rt":12637.600000023842,"stimulus":"bees-with-color/bee-B2SM.svg","response":1,"trial_type":"image-button-response","trial_index":137,"time_elapsed":1962430,"internal_node_id":"0.0-6.0-0.1","subject_id":"6132742013c915ee8e6c2485","study_id":"6197b3f67c2b5cd3b6d9596a","session_id":"619be894a566da547932cef0","condition":"full-information","relevant_dimensions":["wings","legs"],"bee_group":{"antennae":"X","wings":"2","pattern":"X","legs":"M"},"bonus":1.4200000000000013},{"rt":6360.399999976158,"stimulus":"bees-with-color/bee-A1SF.svg","response":0,"trial_type":"image-button-response","trial_index":138,"time_elapsed":1968799,"internal_node_id":"0.0-6.0-0.2","subject_id":"6132742013c915ee8e6c2485","study_id":"6197b3f67c2b5cd3b6d9596a","session_id":"619be894a566da547932cef0","condition":"full-information","relevant_dimensions":["wings","legs"],"bee_group":{"antennae":"X","wings":"2","pattern":"X","legs":"M"},"bonus":1.4200000000000013},{"rt":11015,"stimulus":"bees-with-color/bee-B1DF.svg","response":0,"trial_type":"image-button-response","trial_index":139,"time_elapsed":1979823,"internal_node_id":"0.0-6.0-0.3","subject_id":"6132742013c915ee8e6c2485","study_id":"6197b3f67c2b5cd3b6d9596a","session_id":"619be894a566da547932cef0","condition":"full-information","relevant_dimensions":["wings","legs"],"bee_group":{"antennae":"X","wings":"2","pattern":"X","legs":"M"},"bonus":1.4200000000000013},{"rt":12546,"stimulus":"bees-with-color/bee-B1DM.svg","response":0,"trial_type":"image-button-response","trial_index":140,"time_elapsed":1992379,"internal_node_id":"0.0-6.0-0.4","subject_id":"6132742013c915ee8e6c2485","study_id":"6197b3f67c2b5cd3b6d9596a","session_id":"619be894a566da547932cef0","condition":"full-information","relevant_dimensions":["wings","legs"],"bee_group":{"antennae":"X","wings":"2","pattern":"X","legs":"M"},"bonus":1.4200000000000013},{"rt":12621.5,"stimulus":"bees-with-color/bee-A2SF.svg","response":0,"trial_type":"image-button-response","trial_index":141,"time_elapsed":2005009,"internal_node_id":"0.0-6.0-0.5","subject_id":"6132742013c915ee8e6c2485","study_id":"6197b3f67c2b5cd3b6d9596a","session_id":"619be894a566da547932cef0","condition":"full-information","relevant_dimensions":["wings","legs"],"bee_group":{"antennae":"X","wings":"2","pattern":"X","legs":"M"},"bonus":1.4200000000000013},{"rt":11853.800000071526,"stimulus":"bees-with-color/bee-A2DM.svg","response":1,"trial_type":"image-button-response","trial_index":142,"time_elapsed":2016871,"internal_node_id":"0.0-6.0-0.6","subject_id":"6132742013c915ee8e6c2485","study_id":"6197b3f67c2b5cd3b6d9596a","session_id":"619be894a566da547932cef0","condition":"full-information","relevant_dimensions":["wings","legs"],"bee_group":{"antennae":"X","wings":"2","pattern":"X","legs":"M"},"bonus":1.4200000000000013},{"rt":14379.800000071526,"stimulus":"bees-with-color/bee-B2SF.svg","response":0,"trial_type":"image-button-response","trial_index":143,"time_elapsed":2031262,"internal_node_id":"0.0-6.0-0.7","subject_id":"6132742013c915ee8e6c2485","study_id":"6197b3f67c2b5cd3b6d9596a","session_id":"619be894a566da547932cef0","condition":"full-information","relevant_dimensions":["wings","legs"],"bee_group":{"antennae":"X","wings":"2","pattern":"X","legs":"M"},"bonus":1.4200000000000013},{"rt":10744.399999976158,"stimulus":"bees-with-color/bee-B2DM.svg","response":1,"trial_type":"image-button-response","trial_index":144,"time_elapsed":2042015,"internal_node_id":"0.0-6.0-0.8","subject_id":"6132742013c915ee8e6c2485","study_id":"6197b3f67c2b5cd3b6d9596a","session_id":"619be894a566da547932cef0","condition":"full-information","relevant_dimensions":["wings","legs"],"bee_group":{"antennae":"X","wings":"2","pattern":"X","legs":"M"},"bonus":1.4200000000000013},{"rt":9620.100000023842,"stimulus":"bees-with-color/bee-B2DF.svg","response":0,"trial_type":"image-button-response","trial_index":145,"time_elapsed":2051643,"internal_node_id":"0.0-6.0-0.9","subject_id":"6132742013c915ee8e6c2485","study_id":"6197b3f67c2b5cd3b6d9596a","session_id":"619be894a566da547932cef0","condition":"full-information","relevant_dimensions":["wings","legs"],"bee_group":{"antennae":"X","wings":"2","pattern":"X","legs":"M"},"bonus":1.4200000000000013},{"rt":11078,"stimulus":"bees-with-color/bee-A2SM.svg","response":1,"trial_type":"image-button-response","trial_index":146,"time_elapsed":2062729,"internal_node_id":"0.0-6.0-0.10","subject_id":"6132742013c915ee8e6c2485","study_id":"6197b3f67c2b5cd3b6d9596a","session_id":"619be894a566da547932cef0","condition":"full-information","relevant_dimensions":["wings","legs"],"bee_group":{"antennae":"X","wings":"2","pattern":"X","legs":"M"},"bonus":1.4200000000000013},{"rt":9636.299999952316,"stimulus":"bees-with-color/bee-A1SM.svg","response":0,"trial_type":"image-button-response","trial_index":147,"time_elapsed":2072374,"internal_node_id":"0.0-6.0-0.11","subject_id":"6132742013c915ee8e6c2485","study_id":"6197b3f67c2b5cd3b6d9596a","session_id":"619be894a566da547932cef0","condition":"full-information","relevant_dimensions":["wings","legs"],"bee_group":{"antennae":"X","wings":"2","pattern":"X","legs":"M"},"bonus":1.4200000000000013},{"rt":15309.600000023842,"stimulus":"bees-with-color/bee-A2DF.svg","response":0,"trial_type":"image-button-response","trial_index":148,"time_elapsed":2087691,"internal_node_id":"0.0-6.0-0.12","subject_id":"6132742013c915ee8e6c2485","study_id":"6197b3f67c2b5cd3b6d9596a","session_id":"619be894a566da547932cef0","condition":"full-information","relevant_dimensions":["wings","legs"],"bee_group":{"antennae":"X","wings":"2","pattern":"X","legs":"M"},"bonus":1.4200000000000013},{"rt":8358.700000047684,"stimulus":"bees-with-color/bee-A1DM.svg","response":0,"trial_type":"image-button-response","trial_index":149,"time_elapsed":2096058,"internal_node_id":"0.0-6.0-0.13","subject_id":"6132742013c915ee8e6c2485","study_id":"6197b3f67c2b5cd3b6d9596a","session_id":"619be894a566da547932cef0","condition":"full-information","relevant_dimensions":["wings","legs"],"bee_group":{"antennae":"X","wings":"2","pattern":"X","legs":"M"},"bonus":1.4200000000000013},{"rt":15793.899999976158,"stimulus":"bees-with-color/bee-B1SF.svg","response":0,"trial_type":"image-button-response","trial_index":150,"time_elapsed":2111861,"internal_node_id":"0.0-6.0-0.14","subject_id":"6132742013c915ee8e6c2485","study_id":"6197b3f67c2b5cd3b6d9596a","session_id":"619be894a566da547932cef0","condition":"full-information","relevant_dimensions":["wings","legs"],"bee_group":{"antennae":"X","wings":"2","pattern":"X","legs":"M"},"bonus":1.4200000000000013},{"rt":9916.699999928474,"stimulus":"bees-with-color/bee-A1DF.svg","response":0,"trial_type":"image-button-response","trial_index":151,"time_elapsed":2121786,"internal_node_id":"0.0-6.0-0.15","subject_id":"6132742013c915ee8e6c2485","study_id":"6197b3f67c2b5cd3b6d9596a","session_id":"619be894a566da547932cef0","condition":"full-information","relevant_dimensions":["wings","legs"],"bee_group":{"antennae":"X","wings":"2","pattern":"X","legs":"M"},"bonus":1.4200000000000013},{"rt":19549.199999928474,"stimulus":"bees-with-color/bee-A2DM.svg","response":1,"trial_type":"image-button-response","trial_index":152,"time_elapsed":2141343,"internal_node_id":"0.0-6.0-0.16","subject_id":"6132742013c915ee8e6c2485","study_id":"6197b3f67c2b5cd3b6d9596a","session_id":"619be894a566da547932cef0","condition":"full-information","relevant_dimensions":["wings","legs"],"bee_group":{"antennae":"X","wings":"2","pattern":"X","legs":"M"},"bonus":1.4200000000000013},{"rt":16049.899999976158,"stimulus":"bees-with-color/bee-B1SF.svg","response":0,"trial_type":"image-button-response","trial_index":153,"time_elapsed":2157401,"internal_node_id":"0.0-6.0-0.17","subject_id":"6132742013c915ee8e6c2485","study_id":"6197b3f67c2b5cd3b6d9596a","session_id":"619be894a566da547932cef0","condition":"full-information","relevant_dimensions":["wings","legs"],"bee_group":{"antennae":"X","wings":"2","pattern":"X","legs":"M"},"bonus":1.4200000000000013},{"rt":13395.700000047684,"stimulus":"bees-with-color/bee-A2SF.svg","response":0,"trial_type":"image-button-response","trial_index":154,"time_elapsed":2170804,"internal_node_id":"0.0-6.0-0.18","subject_id":"6132742013c915ee8e6c2485","study_id":"6197b3f67c2b5cd3b6d9596a","session_id":"619be894a566da547932cef0","condition":"full-information","relevant_dimensions":["wings","legs"],"bee_group":{"antennae":"X","wings":"2","pattern":"X","legs":"M"},"bonus":1.4200000000000013},{"rt":7339.899999976158,"stimulus":"bees-with-color/bee-B2DF.svg","response":0,"trial_type":"image-button-response","trial_index":155,"time_elapsed":2178150,"internal_node_id":"0.0-6.0-0.19","subject_id":"6132742013c915ee8e6c2485","study_id":"6197b3f67c2b5cd3b6d9596a","session_id":"619be894a566da547932cef0","condition":"full-information","relevant_dimensions":["wings","legs"],"bee_group":{"antennae":"X","wings":"2","pattern":"X","legs":"M"},"bonus":1.4200000000000013},{"rt":19594.899999976158,"stimulus":"bees-with-color/bee-B2SM.svg","response":1,"trial_type":"image-button-response","trial_index":156,"time_elapsed":2197753,"internal_node_id":"0.0-6.0-0.20","subject_id":"6132742013c915ee8e6c2485","study_id":"6197b3f67c2b5cd3b6d9596a","session_id":"619be894a566da547932cef0","condition":"full-information","relevant_dimensions":["wings","legs"],"bee_group":{"antennae":"X","wings":"2","pattern":"X","legs":"M"},"bonus":1.4200000000000013},{"rt":15039.299999952316,"stimulus":"bees-with-color/bee-B1DM.svg","response":0,"trial_type":"image-button-response","trial_index":157,"time_elapsed":2212799,"internal_node_id":"0.0-6.0-0.21","subject_id":"6132742013c915ee8e6c2485","study_id":"6197b3f67c2b5cd3b6d9596a","session