[{"success":true,"trial_type":"fullscreen","trial_index":0,"time_elapsed":38319,"internal_node_id":"0.0-0.0","subject_id":"616f1c7ceb94379910609252","study_id":"60edd13110225f80f9f3709b","session_id":"6196c708858ed99ed2255828","condition":"contingent","relevant_dimensions":["wings","legs"],"bee_group":{"antennae":"X","wings":"1","pattern":"X","legs":"M"},"bonus":0.08},{"success":true,"timeout":false,"failed_images":[],"failed_audio":[],"failed_video":[],"trial_type":"preload","trial_index":1,"time_elapsed":41484,"internal_node_id":"0.0-1.0","subject_id":"616f1c7ceb94379910609252","study_id":"60edd13110225f80f9f3709b","session_id":"6196c708858ed99ed2255828","condition":"contingent","relevant_dimensions":["wings","legs"],"bee_group":{"antennae":"X","wings":"1","pattern":"X","legs":"M"},"bonus":0.08},{"rt":38991,"stimulus":"Welcome! Press any key to begin.","response":" ","trial_type":"html-keyboard-response","trial_index":2,"time_elapsed":80486,"internal_node_id":"0.0-2.0","subject_id":"616f1c7ceb94379910609252","study_id":"60edd13110225f80f9f3709b","session_id":"6196c708858ed99ed2255828","condition":"contingent","relevant_dimensions":["wings","legs"],"bee_group":{"antennae":"X","wings":"1","pattern":"X","legs":"M"},"bonus":0.08},{"view_history":[{"page_index":0,"viewing_time":17557},{"page_index":1,"viewing_time":18534},{"page_index":2,"viewing_time":15120},{"page_index":3,"viewing_time":24663},{"page_index":4,"viewing_time":12604},{"page_index":5,"viewing_time":10168},{"page_index":6,"viewing_time":16738},{"page_index":7,"viewing_time":12797},{"page_index":8,"viewing_time":12153},{"page_index":9,"viewing_time":10023},{"page_index":10,"viewing_time":5116},{"page_index":11,"viewing_time":19909},{"page_index":12,"viewing_time":14704},{"page_index":13,"viewing_time":1829},{"page_index":14,"viewing_time":4961}],"rt":196877,"trial_type":"instructions","trial_index":3,"time_elapsed":277373,"internal_node_id":"0.0-3.0-0.0","subject_id":"616f1c7ceb94379910609252","study_id":"60edd13110225f80f9f3709b","session_id":"6196c708858ed99ed2255828","condition":"contingent","relevant_dimensions":["wings","legs"],"bee_group":{"antennae":"X","wings":"1","pattern":"X","legs":"M"},"bonus":0.08},{"rt":19333,"response":{"Q0":["Two or six legs","Stripes or spots on body","Single or double wings","Antennae or no antennae"]},"question_order":[0],"trial_type":"survey-multi-select","trial_index":4,"time_elapsed":296722,"internal_node_id":"0.0-3.0-1.0","subject_id":"616f1c7ceb94379910609252","study_id":"60edd13110225f80f9f3709b","session_id":"6196c708858ed99ed2255828","condition":"contingent","relevant_dimensions":["wings","legs"],"bee_group":{"antennae":"X","wings":"1","pattern":"X","legs":"M"},"correct":true,"bonus":0.08},{"rt":68467,"response":{"Q1":"No.","Q2":"Based on the four features of the bee.","Q3":"You learn if it was friendly or dangerous, but do not alter your bonus."},"question_order":[0,1,2],"trial_type":"survey-multi-choice","trial_index":5,"time_elapsed":365196,"internal_node_id":"0.0-3.0-2.0","subject_id":"616f1c7ceb94379910609252","study_id":"60edd13110225f80f9f3709b","session_id":"6196c708858ed99ed2255828","condition":"contingent","relevant_dimensions":["wings","legs"],"bee_group":{"antennae":"X","wings":"1","pattern":"X","legs":"M"},"correct":false,"bonus":0.08},{"rt":4486,"stimulus":"<p>You did not answer all comprehension questions correctly.<br>Press <b>continue</b> to review the instructions again.</p>","response":0,"trial_type":"html-button-response","trial_index":6,"time_elapsed":369686,"internal_node_id":"0.0-3.0-3.0","subject_id":"616f1c7ceb94379910609252","study_id":"60edd13110225f80f9f3709b","session_id":"6196c708858ed99ed2255828","condition":"contingent","relevant_dimensions":["wings","legs"],"bee_group":{"antennae":"X","wings":"1","pattern":"X","legs":"M"},"bonus":0.08},{"view_history":[{"page_index":0,"viewing_time":2784},{"page_index":1,"viewing_time":45354},{"page_index":2,"viewing_time":27368},{"page_index":3,"viewing_time":22534},{"page_index":4,"viewing_time":8140},{"page_index":5,"viewing_time":18943},{"page_index":6,"viewing_time":11720},{"page_index":7,"viewing_time":4381},{"page_index":8,"viewing_time":2165},{"page_index":9,"viewing_time":3166},{"page_index":10,"viewing_time":1903},{"page_index":11,"viewing_time":35350},{"page_index":12,"viewing_time":6019},{"page_index":13,"viewing_time":1248},{"page_index":14,"viewing_time":1499}],"rt":192574,"trial_type":"instructions","trial_index":7,"time_elapsed":562263,"internal_node_id":"0.0-3.0-4.0-0.0","subject_id":"616f1c7ceb94379910609252","study_id":"60edd13110225f80f9f3709b","session_id":"6196c708858ed99ed2255828","condition":"contingent","relevant_dimensions":["wings","legs"],"bee_group":{"antennae":"X","wings":"1","pattern":"X","legs":"M"},"bonus":0.08},{"rt":13197,"response":{"Q0":["Two or six legs","Stripes or spots on body","Single or double wings","Antennae or no antennae"]},"question_order":[0],"trial_type":"survey-multi-select","trial_index":8,"time_elapsed":575472,"internal_node_id":"0.0-3.0-4.0-1.0","subject_id":"616f1c7ceb94379910609252","study_id":"60edd13110225f80f9f3709b","session_id":"6196c708858ed99ed2255828","condition":"contingent","relevant_dimensions":["wings","legs"],"bee_group":{"antennae":"X","wings":"1","pattern":"X","legs":"M"},"correct":true,"bonus":0.08},{"rt":32114,"response":{"Q1":"No.","Q2":"Based on the four features of the bee.","Q3":"You do not learn if it was friendly or dangerous, and do not alter your bonus."},"question_order":[0,1,2],"trial_type":"survey-multi-choice","trial_index":9,"time_elapsed":607591,"internal_node_id":"0.0-3.0-4.0-2.0","subject_id":"616f1c7ceb94379910609252","study_id":"60edd13110225f80f9f3709b","session_id":"6196c708858ed99ed2255828","condition":"contingent","relevant_dimensions":["wings","legs"],"bee_group":{"antennae":"X","wings":"1","pattern":"X","legs":"M"},"correct":true,"bonus":0.08},{"rt":15857,"stimulus":"<p>Congrats, you got everything right<br>When you're ready, click the button below to continue to the experiment.</p>","response":0,"trial_type":"html-button-response","trial_index":10,"time_elapsed":623450,"internal_node_id":"0.0-3.0-4.0-3.0","subject_id":"616f1c7ceb94379910609252","study_id":"60edd13110225f80f9f3709b","session_id":"6196c708858ed99ed2255828","condition":"contingent","relevant_dimensions":["wings","legs"],"bee_group":{"antennae":"X","wings":"1","pattern":"X","legs":"M"},"bonus":0.08},{"rt":15425,"stimulus":"bees-with-color/bee-A2SM.svg","response":0,"trial_type":"image-button-response","trial_index":11,"time_elapsed":638886,"internal_node_id":"0.0-4.0-0.0","subject_id":"616f1c7ceb94379910609252","study_id":"60edd13110225f80f9f3709b","session_id":"6196c708858ed99ed2255828","condition":"contingent","relevant_dimensions":["wings","legs"],"bee_group":{"antennae":"X","wings":"1","pattern":"X","legs":"M"},"action":"harvest","summary":"good-harvest","bonus":0.08},{"rt":13769,"stimulus":"\n                    <p><b>Action: <em>harvest</em></b></p>\n                    <p>This is the bee that you just saw.</p>\n                    <img src=\"bees-with-color/bee-A2SM.svg\" width=\"200\">\n                    <p><span class=\"greenText\"><b>Successful harvest!</b></span><br>Your pay has increased by $0.02. Your bonus pay is now $0.56.</p>\n            ","response":0,"trial_type":"html-button-response","trial_index":12,"time_elapsed":652707,"internal_node_id":"0.0-4.0-1.0","subject_id":"616f1c7ceb94379910609252","study_id":"60edd13110225f80f9f3709b","session_id":"6196c708858ed99ed2255828","condition":"contingent","relevant_dimensions":["wings","legs"],"bee_group":{"antennae":"X","wings":"1","pattern":"X","legs":"M"},"bonus":0.08},{"rt":15077,"stimulus":"bees-with-color/bee-A2DM.svg","response":1,"trial_type":"image-button-response","trial_index":13,"time_elapsed":667789,"internal_node_id":"0.0-4.0-0.1","subject_id":"616f1c7ceb94379910609252","study_id":"60edd13110225f80f9f3709b","session_id":"6196c708858ed99ed2255828","condition":"contingent","relevant_dimensions":["wings","legs"],"bee_group":{"antennae":"X","wings":"1","pattern":"X","legs":"M"},"action":"avoid","summary":"bad-avoid","bonus":0.08},{"rt":5106,"stimulus":"\n                    <p><b>Action: <em>avoid</em></b></p>\n                    <p>This is the bee that you just saw.</p>\n                    <img src=\"bees-with-color/bee-A2DM.svg\" width=\"200\">\n                    <p><br>Your bonus pay is unchanged, and remains at $0.56.</p>\n            ","response":0,"trial_type":"html-button-response","trial_index":14,"time_elapsed":672898,"internal_node_id":"0.0-4.0-1.1","subject_id":"616f1c7ceb94379910609252","study_id":"60edd13110225f80f9f3709b","session_id":"6196c708858ed99ed2255828","condition":"contingent","relevant_dimensions":["wings","legs"],"bee_group":{"antennae":"X","wings":"1","pattern":"X","legs":"M"},"bonus":0.08},{"rt":3344,"stimulus":"bees-with-color/bee-A1SF.svg","response":0,"trial_type":"image-button-response","trial_index":15,"time_elapsed":676245,"internal_node_id":"0.0-4.0-0.2","subject_id":"616f1c7ceb94379910609252","study_id":"60edd13110225f80f9f3709b","session_id":"6196c708858ed99ed2255828","condition":"contingent","relevant_dimensions":["wings","legs"],"bee_group":{"antennae":"X","wings":"1","pattern":"X","legs":"M"},"action":"harvest","summary":"good-harvest","bonus":0.08},{"rt":5599,"stimulus":"\n                    <p><b>Action: <em>harvest</em></b></p>\n                    <p>This is the bee that you just saw.</p>\n                    <img src=\"bees-with-color/bee-A1SF.svg\" width=\"200\">\n                    <p><span class=\"greenText\"><b>Successful harvest!</b></span><br>Your pay has increased by $0.02. Your bonus pay is now $0.58.</p>\n            ","response":0,"trial_type":"html-button-response","trial_index":16,"time_elapsed":681848,"internal_node_id":"0.0-4.0-1.2","subject_id":"616f1c7ceb94379910609252","study_id":"60edd13110225f80f9f3709b","session_id":"6196c708858ed99ed2255828","condition":"contingent","relevant_dimensions":["wings","legs"],"bee_group":{"antennae":"X","wings":"1","pattern":"X","legs":"M"},"bonus":0.08},{"rt":5070,"stimulus":"bees-with-color/bee-B2DM.svg","response":1,"trial_type":"image-button-response","trial_index":17,"time_elapsed":686922,"internal_node_id":"0.0-4.0-0.3","subject_id":"616f1c7ceb94379910609252","study_id":"60edd13110225f80f9f3709b","session_id":"6196c708858ed99ed2255828","condition":"contingent","relevant_dimensions":["wings","legs"],"bee_group":{"antennae":"X","wings":"1","pattern":"X","legs":"M"},"action":"avoid","summary":"bad-avoid","bonus":0.08},{"rt":2189,"stimulus":"\n                    <p><b>Action: <em>avoid</em></b></p>\n                    <p>This is the bee that you just saw.</p>\n                    <img src=\"bees-with-color/bee-B2DM.svg\" width=\"200\">\n                    <p><br>Your bonus pay is unchanged, and remains at $0.58.</p>\n            ","response":0,"trial_type":"html-button-response","trial_index":18,"time_elapsed":689115,"internal_node_id":"0.0-4.0-1.3","subject_id":"616f1c7ceb94379910609252","study_id":"60edd13110225f80f9f3709b","session_id":"6196c708858ed99ed2255828","condition":"contingent","relevant_dimensions":["wings","legs"],"bee_group":{"antennae":"X","wings":"1","pattern":"X","legs":"M"},"bonus":0.08},{"rt":2191,"stimulus":"bees-with-color/bee-A1DM.svg","response":0,"trial_type":"image-button-response","trial_index":19,"time_elapsed":691310,"internal_node_id":"0.0-4.0-0.4","subject_id":"616f1c7ceb94379910609252","study_id":"60edd13110225f80f9f3709b","session_id":"6196c708858ed99ed2255828","condition":"contingent","relevant_dimensions":["wings","legs"],"bee_group":{"antennae":"X","wings":"1","pattern":"X","legs":"M"},"action":"harvest","summary":"bad-harvest","bonus":0.08},{"rt":3317,"stimulus":"\n                    <p><b>Action: <em>harvest</em></b></p>\n                    <p>This is the bee that you just saw.</p>\n                    <img src=\"bees-with-color/bee-A1DM.svg\" width=\"200\">\n                    <p><span class=\"redText\">Bad choice, the bee was angry.</span><br><b>You have been stung!</b><br>Your pay has been decreased by $0.10. Your bonus pay is now $0.48.</p>\n            ","response":0,"trial_type":"html-button-response","trial_index":20,"time_elapsed":694632,"internal_node_id":"0.0-4.0-1.4","subject_id":"616f1c7ceb94379910609252","study_id":"60edd13110225f80f9f3709b","session_id":"6196c708858ed99ed2255828","condition":"contingent","relevant_dimensions":["wings","legs"],"bee_group":{"antennae":"X","wings":"1","pattern":"X","legs":"M"},"bonus":0.08},{"rt":1823,"stimulus":"bees-with-color/bee-B1SF.svg","response":0,"trial_type":"image-button-response","trial_index":21,"time_elapsed":696458,"internal_node_id":"0.0-4.0-0.5","subject_id":"616f1c7ceb94379910609252","study_id":"60edd13110225f80f9f3709b","session_id":"6196c708858ed99ed2255828","condition":"contingent","relevant_dimensions":["wings","legs"],"bee_group":{"antennae":"X","wings":"1","pattern":"X","legs":"M"},"action":"harvest","summary":"good-harvest","bonus":0.08},{"rt":1223,"stimulus":"\n                    <p><b>Action: <em>harvest</em></b></p>\n                    <p>This is the bee that you just saw.</p>\n                    <img src=\"bees-with-color/bee-B1SF.svg\" width=\"200\">\n                    <p><span class=\"greenText\"><b>Successful harvest!</b></span><br>Your pay has increased by $0.02. Your bonus pay is now $0.50.</p>\n            ","response":0,"trial_type":"html-button-response","trial_index":22,"time_elapsed":697685,"internal_node_id":"0.0-4.0-1.5","subject_id":"616f1c7ceb94379910609252","study_id":"60edd13110225f80f9f3709b","session_id":"6196c708858ed99ed2255828","condition":"contingent","relevant_dimensions":["wings","legs"],"bee_group":{"antennae":"X","wings":"1","pattern":"X","legs":"M"},"bonus":0.08},{"rt":1175,"stimulus":"bees-with-color/bee-A2SF.svg","response":0,"trial_type":"image-button-response","trial_index":23,"time_elapsed":698865,"internal_node_id":"0.0-4.0-0.6","subject_id":"616f1c7ceb94379910609252","study_id":"60edd13110225f80f9f3709b","session_id":"6196c708858ed99ed2255828","condition":"contingent","relevant_dimensions":["wings","legs"],"bee_group":{"antennae":"X","wings":"1","pattern":"X","legs":"M"},"action":"harvest","summary":"good-harvest","bonus":0.08},{"rt":1105,"stimulus":"\n                    <p><b>Action: <em>harvest</em></b></p>\n                    <p>This is the bee that you just saw.</p>\n                    <img src=\"bees-with-color/bee-A2SF.svg\" width=\"200\">\n                    <p><span class=\"greenText\"><b>Successful harvest!</b></span><br>Your pay has increased by $0.02. Your bonus pay is now $0.52.</p>\n            ","response":0,"trial_type":"html-button-response","trial_index":24,"time_elapsed":699975,"internal_node_id":"0.0-4.0-1.6","subject_id":"616f1c7ceb94379910609252","study_id":"60edd13110225f80f9f3709b","session_id":"6196c708858ed99ed2255828","condition":"contingent","relevant_dimensions":["wings","legs"],"bee_group":{"antennae":"X","wings":"1","pattern":"X","legs":"M"},"bonus":0.08},{"rt":1022,"stimulus":"bees-with-color/bee-B1SM.svg","response":0,"trial_type":"image-button-response","trial_index":25,"time_elapsed":701000,"internal_node_id":"0.0-4.0-0.7","subject_id":"616f1c7ceb94379910609252","study_id":"60edd13110225f80f9f3709b","session_id":"6196c708858ed99ed2255828","condition":"contingent","relevant_dimensions":["wings","legs"],"bee_group":{"antennae":"X","wings":"1","pattern":"X","legs":"M"},"action":"harvest","summary":"bad-harvest","bonus":0.08},{"rt":4617,"stimulus":"\n                    <p><b>Action: <em>harvest</em></b></p>\n                    <p>This is the bee that you just saw.</p>\n                    <img src=\"bees-with-color/bee-B1SM.svg\" width=\"200\">\n                    <p><span class=\"redText\">Bad choice, the bee was angry.</span><br><b>You have been stung!</b><br>Your pay has been decreased by $0.10. Your bonus pay is now $0.42.</p>\n            ","response":0,"trial_type":"html-button-response","trial_index":26,"time_elapsed":705622,"internal_node_id":"0.0-4.0-1.7","subject_id":"616f1c7ceb94379910609252","study_id":"60edd13110225f80f9f3709b","session_id":"6196c708858ed99ed2255828","condition":"contingent","relevant_dimensions":["wings","legs"],"bee_group":{"antennae":"X","wings":"1","pattern":"X","legs":"M"},"bonus":0.08},{"rt":1732,"stimulus":"bees-with-color/bee-B1DF.svg","response":1,"trial_type":"image-button-response","trial_index":27,"time_elapsed":707358,"internal_node_id":"0.0-4.0-0.8","subject_id":"616f1c7ceb94379910609252","study_id":"60edd13110225f80f9f3709b","session_id":"6196c708858ed99ed2255828","condition":"contingent","relevant_dimensions":["wings","legs"],"bee_group":{"antennae":"X","wings":"1","pattern":"X","legs":"M"},"action":"avoid","summary":"bad-avoid","bonus":0.08},{"rt":1759,"stimulus":"\n                    <p><b>Action: <em>avoid</em></b></p>\n                    <p>This is the bee that you just saw.</p>\n                    <img src=\"bees-with-color/bee-B1DF.svg\" width=\"200\">\n                    <p><br>Your bonus pay is unchanged, and remains at $0.42.</p>\n            ","response":0,"trial_type":"html-button-response","trial_index":28,"time_elapsed":709120,"internal_node_id":"0.0-4.0-1.8","subject_id":"616f1c7ceb94379910609252","study_id":"60edd13110225f80f9f3709b","session_id":"6196c708858ed99ed2255828","condition":"contingent","relevant_dimensions":["wings","legs"],"bee_group":{"antennae":"X","wings":"1","pattern":"X","legs":"M"},"bonus":0.08},{"rt":3122,"stimulus":"bees-with-color/bee-A2DF.svg","response":0,"trial_type":"image-button-response","trial_index":29,"time_elapsed":712245,"internal_node_id":"0.0-4.0-0.9","subject_id":"616f1c7ceb94379910609252","study_id":"60edd13110225f80f9f3709b","session_id":"6196c708858ed99ed2255828","condition":"contingent","relevant_dimensions":["wings","legs"],"bee_group":{"antennae":"X","wings":"1","pattern":"X","legs":"M"},"action":"harvest","summary":"good-harvest","bonus":0.08},{"rt":1485,"stimulus":"\n                    <p><b>Action: <em>harvest</em></b></p>\n                    <p>This is the bee that you just saw.</p>\n                    <img src=\"bees-with-color/bee-A2DF.svg\" width=\"200\">\n                    <p><span class=\"greenText\"><b>Successful harvest!</b></span><br>Your pay has increased by $0.02. Your bonus pay is now $0.44.</p>\n            ","response":0,"trial_type":"html-button-response","trial_index":30,"time_elapsed":713735,"internal_node_id":"0.0-4.0-1.9","subject_id":"616f1c7ceb94379910609252","study_id":"60edd13110225f80f9f3709b","session_id":"6196c708858ed99ed2255828","condition":"contingent","relevant_dimensions":["wings","legs"],"bee_group":{"antennae":"X","wings":"1","pattern":"X","legs":"M"},"bonus":0.08},{"rt":1571,"stimulus":"bees-with-color/bee-B2SF.svg","response":1,"trial_type":"image-button-response","trial_index":31,"time_elapsed":715308,"internal_node_id":"0.0-4.0-0.10","subject_id":"616f1c7ceb94379910609252","study_id":"60edd13110225f80f9f3709b","session_id":"6196c708858ed99ed2255828","condition":"contingent","relevant_dimensions":["wings","legs"],"bee_group":{"antennae":"X","wings":"1","pattern":"X","legs":"M"},"action":"avoid","summary":"bad-avoid","bonus":0.08},{"rt":1562,"stimulus":"\n                    <p><b>Action: <em>avoid</em></b></p>\n                    <p>This is the bee that you just saw.</p>\n                    <img src=\"bees-with-color/bee-B2SF.svg\" width=\"200\">\n                    <p><br>Your bonus pay is unchanged, and remains at $0.44.</p>\n            ","response":0,"trial_type":"html-button-response","trial_index":32,"time_elapsed":716874,"internal_node_id":"0.0-4.0-1.10","subject_id":"616f1c7ceb94379910609252","study_id":"60edd13110225f80f9f3709b","session_id":"6196c708858ed99ed2255828","condition":"contingent","relevant_dimensions":["wings","legs"],"bee_group":{"antennae":"X","wings":"1","pattern":"X","legs":"M"},"bonus":0.08},{"rt":1821,"stimulus":"bees-with-color/bee-B2DF.svg","response":1,"trial_type":"image-button-response","trial_index":33,"time_elapsed":718700,"internal_node_id":"0.0-4.0-0.11","subject_id":"616f1c7ceb94379910609252","study_id":"60edd13110225f80f9f3709b","session_id":"6196c708858ed99ed2255828","condition":"contingent","relevant_dimensions":["wings","legs"],"bee_group":{"antennae":"X","wings":"1","pattern":"X","legs":"M"},"action":"avoid","summary":"bad-avoid","bonus":0.08},{"rt":962,"stimulus":"\n                    <p><b>Action: <em>avoid</em></b></p>\n                    <p>This is the bee that you just saw.</p>\n                    <img src=\"bees-with-color/bee-B2DF.svg\" width=\"200\">\n                    <p><br>Your bonus pay is unchanged, and remains at $0.44.</p>\n            ","response":0,"trial_type":"html-button-response","trial_index":34,"time_elapsed":719667,"internal_node_id":"0.0-4.0-1.11","subject_id":"616f1c7ceb94379910609252","study_id":"60edd13110225f80f9f3709b","session_id":"6196c708858ed99ed2255828","condition":"contingent","relevant_dimensions":["wings","legs"],"bee_group":{"antennae":"X","wings":"1","pattern":"X","legs":"M"},"bonus":0.08},{"rt":907,"stimulus":"bees-with-color/bee-A1DF.svg","response":0,"trial_type":"image-button-response","trial_index":35,"time_elapsed":720577,"internal_node_id":"0.0-4.0-0.12","subject_id":"616f1c7ceb94379910609252","study_id":"60edd13110225f80f9f3709b","session_id":"6196c708858ed99ed2255828","condition":"contingent","relevant_dimensions":["wings","legs"],"bee_group":{"antennae":"X","wings":"1","pattern":"X","legs":"M"},"action":"harvest","summary":"good-harvest","bonus":0.08},{"rt":1439,"stimulus":"\n                    <p><b>Action: <em>harvest</em></b></p>\n                    <p>This is the bee that you just saw.</p>\n                    <img src=\"bees-with-color/bee-A1DF.svg\" width=\"200\">\n                    <p><span class=\"greenText\"><b>Successful harvest!</b></span><br>Your pay has increased by $0.02. Your bonus pay is now $0.46.</p>\n            ","response":0,"trial_type":"html-button-response","trial_index":36,"time_elapsed":722019,"internal_node_id":"0.0-4.0-1.12","subject_id":"616f1c7ceb94379910609252","study_id":"60edd13110225f80f9f3709b","session_id":"6196c708858ed99ed2255828","condition":"contingent","relevant_dimensions":["wings","legs"],"bee_group":{"antennae":"X","wings":"1","pattern":"X","legs":"M"},"bonus":0.08},{"rt":1663,"stimulus":"bees-with-color/bee-B2SM.svg","response":1,"trial_type":"image-button-response","trial_index":37,"time_elapsed":723685,"internal_node_id":"0.0-4.0-0.13","subject_id":"616f1c7ceb94379910609252","study_id":"60edd13110225f80f9f3709b","session_id":"6196c708858ed99ed2255828","condition":"contingent","relevant_dimensions":["wings","legs"],"bee_group":{"antennae":"X","wings":"1","pattern":"X","legs":"M"},"action":"avoid","summary":"bad-avoid","bonus":0.08},{"rt":1180,"stimulus":"\n                    <p><b>Action: <em>avoid</em></b></p>\n                    <p>This is the bee that you just saw.</p>\n                    <img src=\"bees-with-color/bee-B2SM.svg\" width=\"200\">\n                    <p><br>Your bonus pay is unchanged, and remains at $0.46.</p>\n            ","response":0,"trial_type":"html-button-response","trial_index":38,"time_elapsed":724868,"internal_node_id":"0.0-4.0-1.13","subject_id":"616f1c7ceb94379910609252","study_id":"60edd13110225f80f9f3709b","session_id":"6196c708858ed99ed2255828","condition":"contingent","relevant_dimensions":["wings","legs"],"bee_group":{"antennae":"X","wings":"1","pattern":"X","legs":"M"},"bonus":0.08},{"rt":1559,"stimulus":"bees-with-color/bee-B1DM.svg","response":1,"trial_type":"image-button-response","trial_index":39,"time_elapsed":726430,"internal_node_id":"0.0-4.0-0.14","subject_id":"616f1c7ceb94379910609252","study_id":"60edd13110225f80f9f3709b","session_id":"6196c708858ed99ed2255828","condition":"contingent","relevant_dimensions":["wings","legs"],"bee_group":{"antennae":"X","wings":"1","pattern":"X","legs":"M"},"action":"avoid","summary":"good-avoid","bonus":0.08},{"rt":995,"stimulus":"\n                    <p><b>Action: <em>avoid</em></b></p>\n                    <p>This is the bee that you just saw.</p>\n                    <img src=\"bees-with-color/bee-B1DM.svg\" width=\"200\">\n                    <p><br>Your bonus pay is unchanged, and remains at $0.46.</p>\n            ","response":0,"trial_type":"html-button-response","trial_index":40,"time_elapsed":727429,"internal_node_id":"0.0-4.0-1.14","subject_id":"616f1c7ceb94379910609252","study_id":"60edd13110225f80f9f3709b","session_id":"6196c708858ed99ed2255828","condition":"contingent","relevant_dimensions":["wings","legs"],"bee_group":{"antennae":"X","wings":"1","pattern":"X","legs":"M"},"bonus":0.08},{"rt":958,"stimulus":"bees-with-color/bee-A1SM.svg","response":0,"trial_type":"image-button-response","trial_index":41,"time_elapsed":728390,"internal_node_id":"0.0-4.0-0.15","subject_id":"616f1c7ceb94379910609252","study_id":"60edd13110225f80f9f3709b","session_id":"6196c708858ed99ed2255828","condition":"contingent","relevant_dimensions":["wings","legs"],"bee_group":{"antennae":"X","wings":"1","pattern":"X","legs":"M"},"action":"harvest","summary":"bad-harvest","bonus":0.08},{"rt":1963,"stimulus":"\n                    <p><b>Action: <em>harvest</em></b></p>\n                    <p>This is the bee that you just saw.</p>\n                    <img src=\"bees-with-color/bee-A1SM.svg\" width=\"200\">\n                    <p><span class=\"redText\">Bad choice, the bee was angry.</span><br><b>You have been stung!</b><br>Your pay has been decreased by $0.10. Your bonus pay is now $0.36.</p>\n            ","response":0,"trial_type":"html-button-response","trial_index":42,"time_elapsed":730357,"internal_node_id":"0.0-4.0-1.15","subject_id":"616f1c7ceb94379910609252","study_id":"60edd13110225f80f9f3709b","session_id":"6196c708858ed99ed2255828","condition":"contingent","relevant_dimensions":["wings","legs"],"bee_group":{"antennae":"X","wings":"1","pattern":"X","legs":"M"},"bonus":0.08},{"rt":3009,"stimulus":"bees-with-color/bee-B1DM.svg","response":0,"trial_type":"image-button-response","trial_index":43,"time_elapsed":733370,"internal_node_id":"0.0-4.0-0.16","subject_id":"616f1c7ceb94379910609252","study_id":"60edd13110225f80f9f3709b","session_id":"6196c708858ed99ed2255828","condition":"contingent","relevant_dimensions":["wings","legs"],"bee_group":{"antennae":"X","wings":"1","pattern":"X","legs":"M"},"action":"harvest","summary":"bad-harvest","bonus":0.08},{"rt":1388,"stimulus":"\n                    <p><b>Action: <em>harvest</em></b></p>\n                    <p>This is the bee that you just saw.</p>\n                    <img src=\"bees-with-color/bee-B1DM.svg\" width=\"200\">\n                    <p><span class=\"redText\">Bad choice, the bee was angry.</span><br><b>You have been stung!</b><br>Your pay has been decreased by $0.10. Your bonus pay is now $0.26.</p>\n            ","response":0,"trial_type":"html-button-response","trial_index":44,"time_elapsed":734763,"internal_node_id":"0.0-4.0-1.16","subject_id":"616f1c7ceb94379910609252","study_id":"60edd13110225f80f9f3709b","session_id":"6196c708858ed99ed2255828","condition":"contingent","relevant_dimensions":["wings","legs"],"bee_group":{"antennae":"X","wings":"1","pattern":"X","legs":"M"},"bonus":0.08},{"rt":524,"stimulus":"bees-with-color/bee-A1SF.svg","response":1,"trial_type":"image-button-response","trial_index":45,"time_elapsed":735290,"internal_node_id":"0.0-4.0-0.17","subject_id":"616f1c7ceb94379910609252","study_id":"60edd13110225f80f9f3709b","session_id":"6196c708858ed99ed2255828","condition":"contingent","relevant_dimensions":["wings","legs"],"bee_group":{"antennae":"X","wings":"1","pattern":"X","legs":"M"},"action":"avoid","summary":"bad-avoid","bonus":0.08},{"rt":1202,"stimulus":"\n                    <p><b>Action: <em>avoid</em></b></p>\n                    <p>This is the bee that you just saw.</p>\n                    <img src=\"bees-with-color/bee-A1SF.svg\" width=\"200\">\n                    <p><br>Your bonus pay is unchanged, and remains at $0.26.</p>\n            ","response":0,"trial_type":"html-button-response","trial_index":46,"time_elapsed":736496,"internal_node_id":"0.0-4.0-1.17","subject_id":"616f1c7ceb94379910609252","study_id":"60edd13110225f80f9f3709b","session_id":"6196c708858ed99ed2255828","condition":"contingent","relevant_dimensions":["wings","legs"],"bee_group":{"antennae":"X","wings":"1","pattern":"X","legs":"M"},"bonus":0.08},{"rt":1123,"stimulus":"bees-with-color/bee-A2SM.svg","response":0,"trial_type":"image-button-response","trial_index":47,"time_elapsed":737622,"internal_node_id":"0.0-4.0-0.18","subject_id":"616f1c7ceb94379910609252","study_id":"60edd13110225f80f9f3709b","session_id":"6196c708858ed99ed2255828","condition":"contingent","relevant_dimensions":["wings","legs"],"bee_group":{"antennae":"X","wings":"1","pattern":"X","legs":"M"},"action":"harvest","summary":"good-harvest","bonus":0.08},{"rt":925,"stimulus":"\n                    <p><b>Action: <em>harvest</em></b></p>\n                    <p>This is the bee that you just saw.</p>\n                    <img src=\"bees-with-color/bee-A2SM.svg\" width=\"200\">\n                    <p><span class=\"greenText\"><b>Successful harvest!</b></span><br>Your pay has increased by $0.02. Your bonus pay is now $0.28.</p>\n            ","response":0,"trial_type":"html-button-response","trial_index":48,"time_elapsed":738554,"internal_node_id":"0.0-4.0-1.18","subject_id":"616f1c7ceb94379910609252","study_id":"60edd13110225f80f9f3709b","session_id":"6196c708858ed99ed2255828","condition":"contingent","relevant_dimensions":["wings","legs"],"bee_group":{"antennae":"X","wings":"1","pattern":"X","legs":"M"},"bonus":0.08},{"rt":1086,"stimulus":"bees-with-color/bee-A1DF.svg","response":0,"trial_type":"image-button-response","trial_index":49,"time_elapsed":739642,"internal_node_id":"0.0-4.0-0.19","subject_id":"616f1c7ceb94379910609252","study_id":"60edd13110225f80f9f3709b","session_id":"6196c708858ed99ed2255828","condition":"contingent","relevant_dimensions":["wings","legs"],"bee_group":{"antennae":"X","wings":"1","pattern":"X","legs":"M"},"action":"harvest","summary":"good-harvest","bonus":0.08},{"rt":832,"stimulus":"\n                    <p><b>Action: <em>harvest</em></b></p>\n                    <p>This is the bee that you just saw.</p>\n                    <img src=\"bees-with-color/bee-A1DF.svg\" width=\"200\">\n                    <p><span class=\"greenText\"><b>Successful harvest!</b></span><br>Your pay has increased by $0.02. Your bonus pay is now $0.30.</p>\n            ","response":0,"trial_type":"html-button-response","trial_index":50,"time_elapsed":740478,"internal_node_id":"0.0-4.0-1.19","subject_id":"616f1c7ceb94379910609252","study_id":"60edd13110225f80f9f3709b","session_id":"6196c708858ed99ed2255828","condition":"contingent","relevant_dimensions":["wings","legs"],"bee_group":{"antennae":"X","wings":"1","pattern":"X","legs":"M"},"bonus":0.08},{"rt":1111,"stimulus":"bees-with-color/bee-B1SF.svg","response":1,"trial_type":"image-button-response","trial_index":51,"time_elapsed":741592,"internal_node_id":"0.0-4.0-0.20","subject_id":"616f1c7ceb94379910609252","study_id":"60edd13110225f80f9f3709b","session_id":"6196c708858ed99ed2255828","condition":"contingent","relevant_dimensions":["wings","legs"],"bee_group":{"antennae":"X","wings":"1","pattern":"X","legs":"M"},"action":"avoid","summary":"bad-avoid","bonus":0.08},{"rt":793,"stimulus":"\n                    <p><b>Action: <em>avoid</em></b></p>\n                    <p>This is the bee that you just saw.</p>\n                    <img src=\"bees-with-color/bee-B1SF.svg\" width=\"200\">\n                    <p><br>Your bonus pay is unchanged, and remains at $0.30.</p>\n            ","response":0,"trial_type":"html-button-response","trial_index":52,"time_elapsed":742390,"internal_node_id":"0.0-4.0-1.20","subject_id":"616f1c7ceb94379910609252","study_id":"60edd13110225f80f9f3709b","session_id":"6196c708858ed99ed2255828","condition":"contingent","relevant_dimensions":["wings","legs"],"bee_group":{"antennae":"X","wings":"1","pattern":"X","legs":"M"},"bonus":0.08},{"rt":844,"stimulus":"bees-with-color/bee-A1SM.svg","response":0,"trial_type":"image-button-response","trial_index":53,"time_elapsed":743238,"internal_node_id":"0.0-4.0-0.21","subject_id":"616f1c7ceb94379910609252","study_id":"60edd13110225f80f9f3709b","session_id":"6196c708858ed99ed2255828","condition":"contingent","relevant_dimensions":["wings","legs"],"bee_group":{"antennae":"X","wings":"1","pattern":"X","legs":"M"},"action":"harvest","summary":"bad-harvest","bonus":0.08},{"rt":2520,"stimulus":"\n                    <p><b>Action: <em>harvest</em></b></p>\n                    <p>This is the bee that you just saw.</p>\n                    <img src=\"bees-with-color/bee-A1SM.svg\" width=\"200\">\n                    <p><span class=\"redText\">Bad choice, the bee was angry.</span><br><b>You have been stung!</b><br>Your pay has been decreased by $0.10. Your bonus pay is now $0.20.</p>\n            ","response":0,"trial_type":"html-button-response","trial_index":54,"time_elapsed":745762,"internal_node_id":"0.0-4.0-1.21","subject_id":"616f1c7ceb94379910609252","study_id":"60edd13110225f80f9f3709b","session_id":"6196c708858ed99ed2255828","condition":"contingent","relevant_dimensions":["wings","legs"],"bee_group":{"antennae":"X","wings":"1","pattern":"X","legs":"M"},"bonus":0.08},{"rt":6003,"stimulus":"bees-with-color/bee-B1DF.svg","response":0,"trial_type":"image-button-response","trial_index":55,"time_elapsed":751769,"internal_node_id":"0.0-4.0-0.22","subject_id":"616f1c7ceb94379910609252","study_id":"60edd13110225f80f9f3709b","session_id":"6196c708858ed99ed2255828","condition":"contingent","relevant_dimensions":["wings","legs"],"bee_group":{"antennae":"X","wings":"1","pattern":"X","legs":"M"},"action":"harvest","summary":"good-harvest","bonus":0.08},{"rt":910,"stimulus":"\n                    <p><b>Action: <em>harvest</em></b></p>\n                    <p>This is the bee that you just saw.</p>\n                    <img src=\"bees-with-color/bee-B1DF.svg\" width=\"200\">\n                    <p><span class=\"greenText\"><b>Successful harvest!</b></span><br>Your pay has increased by $0.02. Your bonus pay is now $0.22.</p>\n            ","response":0,"trial_type":"html-button-response","trial_index":56,"time_elapsed":752683,"internal_node_id":"0.0-4.0-1.22","subject_id":"616f1c7ceb94379910609252","study_id":"60edd13110225f80f9f3709b","session_id":"6196c708858ed99ed2255828","condition":"contingent","relevant_dimensions":["wings","legs"],"bee_group":{"antennae":"X","wings":"1","pattern":"X","legs":"M"},"bonus":0.08},{"rt":1135,"stimulus":"bees-with-color/bee-B2SM.svg","response":0,"trial_type":"image-button-response","trial_index":57,"time_elapsed":753822,"internal_node_id":"0.0-4.0-0.23","subject_id":"616f1c7ceb94379910609252","study_id":"60edd13110225f80f9f3709b","session_id":"6196c708858ed99ed2255828","condition":"contingent","relevant_dimensions":["wings","legs"],"bee_group":{"antennae":"X","wings":"1","pattern":"X","legs":"M"},"action":"harvest","summary":"good-harvest","bonus":0.08},{"rt":812,"stimulus":"\n                    <p><b>Action: <em>harvest</em></b></p>\n                    <p>This is the bee that you just saw.</p>\n                    <img src=\"bees-with-color/bee-B2SM.svg\" width=\"200\">\n                    <p><span class=\"greenText\"><b>Successful harvest!</b></span><br>Your pay has increased by $0.02. Your bonus pay is now $0.24.</p>\n            ","response":0,"trial_type":"html-button-response","trial_index":58,"time_elapsed":754638,"internal_node_id":"0.0-4.0-1.23","subject_id":"616f1c7ceb94379910609252","study_id":"60edd13110225f80f9f3709b","session_id":"6196c708858ed99ed2255828","condition":"contingent","relevant_dimensions":["wings","legs"],"bee_group":{"antennae":"X","wings":"1","pattern":"X","legs":"M"},"bonus":0.08},{"rt":1551,"stimulus":"bees-with-color/bee-A1DM.svg","response":1,"trial_type":"image-button-response","trial_index":59,"time_elapsed":756192,"internal_node_id":"0.0-4.0-0.24","subject_id":"616f1c7ceb94379910609252","study_id":"60edd13110225f80f9f3709b","session_id":"6196c708858ed99ed2255828","condition":"contingent","relevant_dimensions":["wings","legs"],"bee_group":{"antennae":"X","wings":"1","pattern":"X","legs":"M"},"action":"avoid","summary":"good-avoid","bonus":0.08},{"rt":1077,"stimulus":"\n                    <p><b>Action: <em>avoid</em></b></p>\n                    <p>This is the bee that you just saw.</p>\n                    <img src=\"bees-with-color/bee-A1DM.svg\" width=\"200\">\n                    <p><br>Your bonus pay is unchanged, and remains at $0.24.</p>\n            ","response":0,"trial_type":"html-button-response","trial_index":60,"time_elapsed":757271,"internal_node_id":"0.0-4.0-1.24","subject_id":"616f1c7ceb94379910609252","study_id":"60edd13110225f80f9f3709b","session_id":"6196c708858ed99ed2255828","condition":"contingent","relevant_dimensions":["wings","legs"],"bee_group":{"antennae":"X","wings":"1","pattern":"X","legs":"M"},"bonus":0.08},{"rt":1023,"stimulus":"bees-with-color/bee-B2SF.svg","response":0,"trial_type":"image-button-response","trial_index":61,"time_elapsed":758298,"internal_node_id":"0.0-4.0-0.25","subject_id":"616f1c7ceb94379910609252","study_id":"60edd13110225f80f9f3709b","session_id":"6196c708858ed99ed2255828","condition":"contingent","relevant_dimensions":["wings","legs"],"bee_group":{"antennae":"X","wings":"1","pattern":"X","legs":"M"},"action":"harvest","summary":"good-harvest","bonus":0.08},{"rt":1311,"stimulus":"\n                    <p><b>Action: <em>harvest</em></b></p>\n                    <p>This is the bee that you just saw.</p>\n                    <img src=\"bees-with-color/bee-B2SF.svg\" width=\"200\">\n                    <p><span class=\"greenText\"><b>Successful harvest!</b></span><br>Your pay has increased by $0.02. Your bonus pay is now $0.26.</p>\n            ","response":0,"trial_type":"html-button-response","trial_index":62,"time_elapsed":759613,"internal_node_id":"0.0-4.0-1.25","subject_id":"616f1c7ceb94379910609252","study_id":"60edd13110225f80f9f3709b","session_id":"6196c708858ed99ed2255828","condition":"contingent","relevant_dimensions":["wings","legs"],"bee_group":{"antennae":"X","wings":"1","pattern":"X","legs":"M"},"bonus":0.08},{"rt":2046,"stimulus":"bees-with-color/bee-A2DF.svg","response":0,"trial_type":"image-button-response","trial_index":63,"time_elapsed":761663,"internal_node_id":"0.0-4.0-0.26","subject_id":"616f1c7ceb94379910609252","study_id":"60edd13110225f80f9f3709b","session_id":"6196c708858ed99ed2255828","condition":"contingent","relevant_dimensions":["wings","legs"],"bee_group":{"antennae":"X","wings":"1","pattern":"X","legs":"M"},"action":"harvest","summary":"good-harvest","bonus":0.08},{"rt":701,"stimulus":"\n                    <p><b>Action: <em>harvest</em></b></p>\n                    <p>This is the bee that you just saw.</p>\n                    <img src=\"bees-with-color/bee-A2DF.svg\" width=\"200\">\n                    <p><span class=\"greenText\"><b>Successful harvest!</b></span><br>Your pay has increased by $0.02. Your bonus pay is now $0.28.</p>\n            ","response":0,"trial_type":"html-button-response","trial_index":64,"time_elapsed":762368,"internal_node_id":"0.0-4.0-1.26","subject_id":"616f1c7ceb94379910609252","study_id":"60edd13110225f80f9f3709b","session_id":"6196c708858ed99ed2255828","condition":"contingent","relevant_dimensions":["wings","legs"],"bee_group":{"antennae":"X","wings":"1","pattern":"X","legs":"M"},"bonus":0.08},{"rt":768,"stimulus":"bees-with-color/bee-A2SF.svg","response":1,"trial_type":"image-button-response","trial_index":65,"time_elapsed":763138,"internal_node_id":"0.0-4.0-0.27","subject_id":"616f1c7ceb94379910609252","study_id":"60edd13110225f80f9f3709b","session_id":"6196c708858ed99ed2255828","condition":"contingent","relevant_dimensions":["wings","legs"],"bee_group":{"antennae":"X","wings":"1","pattern":"X","legs":"M"},"action":"avoid","summary":"bad-avoid","bonus":0.08},{"rt":764,"stimulus":"\n                    <p><b>Action: <em>avoid</em></b></p>\n                    <p>This is the bee that you just saw.</p>\n                    <img src=\"bees-with-color/bee-A2SF.svg\" width=\"200\">\n                    <p><br>Your bonus pay is unchanged, and remains at $0.28.</p>\n            ","response":0,"trial_type":"html-button-response","trial_index":66,"time_elapsed":763906,"internal_node_id":"0.0-4.0-1.27","subject_id":"616f1c7ceb94379910609252","study_id":"60edd13110225f80f9f3709b","session_id":"6196c708858ed99ed2255828","condition":"contingent","relevant_dimensions":["wings","legs"],"bee_group":{"antennae":"X","wings":"1","pattern":"X","legs":"M"},"bonus":0.08},{"rt":688,"stimulus":"bees-with-color/bee-A2DM.svg","response":0,"trial_type":"image-button-response","trial_index":67,"time_elapsed":764597,"internal_node_id":"0.0-4.0-0.28","subject_id":"616f1c7ceb94379910609252","study_id":"60edd13110225f80f9f3709b","session_id":"6196c708858ed99ed2255828","condition":"contingent","relevant_dimensions":["wings","legs"],"bee_group":{"antennae":"X","wings":"1","pattern":"X","legs":"M"},"action":"harvest","summary":"good-harvest","bonus":0.08},{"rt":1775,"stimulus":"\n                    <p><b>Action: <em>harvest</em></b></p>\n                    <p>This is the bee that you just saw.</p>\n                    <img src=\"bees-with-color/bee-A2DM.svg\" width=\"200\">\n                    <p><span class=\"greenText\"><b>Successful harvest!</b></span><br>Your pay has increased by $0.02. Your bonus pay is now $0.30.</p>\n            ","response":0,"trial_type":"html-button-response","trial_index":68,"time_elapsed":766374,"internal_node_id":"0.0-4.0-1.28","subject_id":"616f1c7ceb94379910609252","study_id":"60edd13110225f80f9f3709b","session_id":"6196c708858ed99ed2255828","condition":"contingent","relevant_dimensions":["wings","legs"],"bee_group":{"antennae":"X","wings":"1","pattern":"X","legs":"M"},"bonus":0.08},{"rt":555,"stimulus":"bees-with-color/bee-B1SM.svg","response":0,"trial_type":"image-button-response","trial_index":69,"time_elapsed":766934,"internal_node_id":"0.0-4.0-0.29","subject_id":"616f1c7ceb94379910609252","study_id":"60edd13110225f80f9f3709b","session_id":"6196c708858ed99ed2255828","condition":"contingent","relevant_dimensions":["wings","legs"],"bee_group":{"antennae":"X","wings":"1","pattern":"X","legs":"M"},"action":"harvest","summary":"bad-harvest","bonus":0.08},{"rt":1087,"stimulus":"\n                    <p><b>Action: <em>harvest</em></b></p>\n                    <p>This is the bee that you just saw.</p>\n                    <img src=\"bees-with-color/bee-B1SM.svg\" width=\"200\">\n                    <p><span class=\"redText\">Bad choice, the bee was angry.</span><br><b>You have been stung!</b><br>Your pay has been decreased by $0.10. Your bonus pay is now $0.20.</p>\n            ","response":0,"trial_type":"html-button-response","trial_index":70,"time_elapsed":768025,"internal_node_id":"0.0-4.0-1.29","subject_id":"616f1c7ceb94379910609252","study_id":"60edd13110225f80f9f3709b","session_id":"6196c708858ed99ed2255828","condition":"contingent","relevant_dimensions":["wings","legs"],"bee_group":{"antennae":"X","wings":"1","pattern":"X","legs":"M"},"bonus":0.08},{"rt":523,"stimulus":"bees-with-color/bee-B2DM.svg","response":1,"trial_type":"image-button-response","trial_index":71,"time_elapsed":768552,"internal_node_id":"0.0-4.0-0.30","subject_id":"616f1c7ceb94379910609252","study_id":"60edd13110225f80f9f3709b","session_id":"6196c708858ed99ed2255828","condition":"contingent","relevant_dimensions":["wings","legs"],"bee_group":{"antennae":"X","wings":"1","pattern":"X","legs":"M"},"action":"avoid","summary":"bad-avoid","bonus":0.08},{"rt":734,"stimulus":"\n                    <p><b>Action: <em>avoid</em></b></p>\n                    <p>This is the bee that you just saw.</p>\n                    <img src=\"bees-with-color/bee-B2DM.svg\" width=\"200\">\n                    <p><br>Your bonus pay is unchanged, and remains at $0.20.</p>\n            ","response":0,"trial_type":"html-button-response","trial_index":72,"time_elapsed":769289,"internal_node_id":"0.0-4.0-1.30","subject_id":"616f1c7ceb94379910609252","study_id":"60edd13110225f80f9f3709b","session_id":"6196c708858ed99ed2255828","condition":"contingent","relevant_dimensions":["wings","legs"],"bee_group":{"antennae":"X","wings":"1","pattern":"X","legs":"M"},"bonus":0.08},{"rt":522,"stimulus":"bees-with-color/bee-B2DF.svg","response":0,"trial_type":"image-button-response","trial_index":73,"time_elapsed":769818,"internal_node_id":"0.0-4.0-0.31","subject_id":"616f1c7ceb94379910609252","study_id":"60edd13110225f80f9f3709b","session_id":"6196c708858ed99ed2255828","condition":"contingent","relevant_dimensions":["wings","legs"],"bee_group":{"antennae":"X","wings":"1","pattern":"X","legs":"M"},"action":"harvest","summary":"good-harvest","bonus":0.08},{"rt":894,"stimulus":"\n                    <p><b>Action: <em>harvest</em></b></p>\n                    <p>This is the bee that you just saw.</p>\n                    <img src=\"bees-with-color/bee-B2DF.svg\" width=\"200\">\n                    <p><span class=\"greenText\"><b>Successful harvest!</b></span><br>Your pay has increased by $0.02. Your bonus pay is now $0.22.</p>\n            ","response":0,"trial_type":"html-button-response","trial_index":74,"time_elapsed":770716,"internal_node_id":"0.0-4.0-1.31","subject_id":"616f1c7ceb94379910609252","study_id":"60edd13110225f80f9f3709b","session_id":"6196c708858ed99ed2255828","condition":"contingent","relevant_dimensions":["wings","legs"],"bee_group":{"antennae":"X","wings":"1","pattern":"X","legs":"M"},"bonus":0.08},{"rt":436,"stimulus":"bees-with-color/bee-B2SM.svg","response":0,"trial_type":"image-button-response","trial_index":75,"time_elapsed":771156,"internal_node_id":"0.0-4.0-0.32","subject_id":"616f1c7ceb94379910609252","study_id":"60edd13110225f80f9f3709b","session_id":"6196c708858ed99ed2255828","condition":"contingent","relevant_dimensions":["wings","legs"],"bee_group":{"antennae":"X","wings":"1","pattern":"X","legs":"M"},"action":"harvest","summary":"good-harvest","bonus":0.08},{"rt":733,"stimulus":"\n                    <p><b>Action: <em>harvest</em></b></p>\n                    <p>This is the bee that you just saw.</p>\n                    <img src=\"bees-with-color/bee-B2SM.svg\" width=\"200\">\n                    <p><span class=\"greenText\"><b>Successful harvest!</b></span><br>Your pay has increased by $0.02. Your bonus pay is now $0.24.</p>\n            ","response":0,"trial_type":"html-button-response","trial_index":76,"time_elapsed":771893,"internal_node_id":"0.0-4.0-1.32","subject_id":"616f1c7ceb94379910609252","study_id":"60edd13110225f80f9f3709b","session_id":"6196c708858ed99ed2255828","condition":"contingent","relevant_dimensions":["wings","legs"],"bee_group":{"antennae":"X","wings":"1","pattern":"X","legs":"M"},"bonus":0.08},{"rt":913,"stimulus":"bees-with-color/bee-B1DM.svg","response":0,"trial_type":"image-button-response","trial_index":77,"time_elapsed":772809,"internal_node_id":"0.0-4.0-0.33","subject_id":"616f1c7ceb94379910609252","study_id":"60edd13110225f80f9f3709b","session_id":"6196c708858ed99ed2255828","condition":"contingent","relevant_dimensions":["wings","legs"],"bee_group":{"antennae":"X","wings":"1","pattern":"X","legs":"M"},"action":"harvest","summary":"bad-harvest","bonus":0.08},{"rt":763,"stimulus":"\n                    <p><b>Action: <em>harvest</em></b></p>\n                    <p>This is the bee that you just saw.</p>\n                    <img src=\"bees-with-color/bee-B1DM.svg\" width=\"200\">\n                    <p><span class=\"redText\">Bad choice, the bee was angry.</span><br><b>You have been stung!</b><br>Your pay has been decreased by $0.10. Your bonus pay is now $0.14.</p>\n            ","response":0,"trial_type":"html-button-response","trial_index":78,"time_elapsed":773576,"internal_node_id":"0.0-4.0-1.33","subject_id":"616f1c7ceb94379910609252","study_id":"60edd13110225f80f9f3709b","session_id":"6196c708858ed99ed2255828","condition":"contingent","relevant_dimensions":["wings","legs"],"bee_group":{"antennae":"X","wings":"1","pattern":"X","legs":"M"},"bonus":0.08},{"rt":797,"stimulus":"bees-with-color/bee-B1SM.svg","response":1,"trial_type":"image-button-response","trial_index":79,"time_elapsed":774376,"internal_node_id":"0.0-4.0-0.34","subject_id":"616f1c7ceb94379910609252","study_id":"60edd13110225f80f9f3709b","session_id":"6196c708858ed99ed2255828","condition":"contingent","relevant_dimensions":["wings","legs"],"bee_group":{"antennae":"X","wings":"1","pattern":"X","legs":"M"},"action":"avoid","summary":"good-avoid","bonus":0.08},{"rt":1197,"stimulus":"\n                    <p><b>Action: <em>avoid</em></b></p>\n                    <p>This is the bee that you just saw.</p>\n                    <img src=\"bees-with-color/bee-B1SM.svg\" width=\"200\">\n                    <p><br>Your bonus pay is unchanged, and remains at $0.14.</p>\n            ","response":0,"trial_type":"html-button-response","trial_index":80,"time_elapsed":775578,"internal_node_id":"0.0-4.0-1.34","subject_id":"616f1c7ceb94379910609252","study_id":"60edd13110225f80f9f3709b","session_id":"6196c708858ed99ed2255828","condition":"contingent","relevant_dimensions":["wings","legs"],"bee_group":{"antennae":"X","wings":"1","pattern":"X","legs":"M"},"bonus":0.08},{"rt":974,"stimulus":"bees-with-color/bee-A2DM.svg","response":0,"trial_type":"image-button-response","trial_index":81,"time_elapsed":776557,"internal_node_id":"0.0-4.0-0.35","subject_id":"616f1c7ceb94379910609252","study_id":"60edd13110225f80f9f3709b","session_id":"6196c708858ed99ed2255828","condition":"contingent","relevant_dimensions":["wings","legs"],"bee_group":{"antennae":"X","wings":"1","pattern":"X","legs":"M"},"action":"harvest","summary":"good-harvest","bonus":0.08},{"rt":627,"stimulus":"\n                    <p><b>Action: <em>harvest</em></b></p>\n                    <p>This is the bee that you just saw.</p>\n                    <img src=\"bees-with-color/bee-A2DM.svg\" width=\"200\">\n                    <p><span class=\"greenText\"><b>Successful harvest!</b></span><br>Your pay has increased by $0.02. Your bonus pay is now $0.16.</p>\n            ","response":0,"trial_type":"html-button-response","trial_index":82,"time_elapsed":777188,"internal_node_id":"0.0-4.0-1.35","subject_id":"616f1c7ceb94379910609252","study_id":"60edd13110225f80f9f3709b","session_id":"6196c708858ed99ed2255828","condition":"contingent","relevant_dimensions":["wings","legs"],"bee_group":{"antennae":"X","wings":"1","pattern":"X","legs":"M"},"bonus":0.08},{"rt":717,"stimulus":"bees-with-color/bee-A2SF.svg","response":0,"trial_type":"image-button-response","trial_index":83,"time_elapsed":777908,"internal_node_id":"0.0-4.0-0.36","subject_id":"616f1c7ceb94379910609252","study_id":"60edd13110225f80f9f3709b","session_id":"6196c708858ed99ed2255828","condition":"contingent","relevant_dimensions":["wings","legs"],"bee_group":{"antennae":"X","wings":"1","pattern":"X","legs":"M"},"action":"harvest","summary":"good-harvest","bonus":0.08},{"rt":1118,"stimulus":"\n                    <p><b>Action: <em>harvest</em></b></p>\n                    <p>This is the bee that you just saw.</p>\n                    <img src=\"bees-with-color/bee-A2SF.svg\" width=\"200\">\n                    <p><span class=\"greenText\"><b>Successful harvest!</b></span><br>Your pay has increased by $0.02. Your bonus pay is now $0.18.</p>\n            ","response":0,"trial_type":"html-button-response","trial_index":84,"time_elapsed":779029,"internal_node_id":"0.0-4.0-1.36","subject_id":"616f1c7ceb94379910609252","study_id":"60edd13110225f80f9f3709b","session_id":"6196c708858ed99ed2255828","condition":"contingent","relevant_dimensions":["wings","legs"],"bee_group":{"antennae":"X","wings":"1","pattern":"X","legs":"M"},"bonus":0.08},{"rt":527,"stimulus":"bees-with-color/bee-B2DF.svg","response":0,"trial_type":"image-button-response","trial_index":85,"time_elapsed":779562,"internal_node_id":"0.0-4.0-0.37","subject_id":"616f1c7ceb94379910609252","study_id":"60edd13110225f80f9f3709b","session_id":"6196c708858ed99ed2255828","condition":"contingent","relevant_dimensions":["wings","legs"],"bee_group":{"antennae":"X","wings":"1","pattern":"X","legs":"M"},"action":"harvest","summary":"good-harvest","bonus":0.08},{"rt":892,"stimulus":"\n                    <p><b>Action: <em>harvest</em></b></p>\n                    <p>This is the bee that you just saw.</p>\n                    <img src=\"bees-with-color/bee-B2DF.svg\" width=\"200\">\n                    <p><span class=\"greenText\"><b>Successful harvest!</b></span><br>Your pay has increased by $0.02. Your bonus pay is now $0.20.</p>\n            ","response":0,"trial_type":"html-button-response","trial_index":86,"time_elapsed":780456,"internal_node_id":"0.0-4.0-1.37","subject_id":"616f1c7ceb94379910609252","study_id":"60edd13110225f80f9f3709b","session_id":"6196c708858ed99ed2255828","condition":"contingent","relevant_dimensions":["wings","legs"],"bee_group":{"antennae":"X","wings":"1","pattern":"X","legs":"M"},"bonus":0.08},{"rt":2048,"stimulus":"bees-with-color/bee-B1DF.svg","response":1,"trial_type":"image-button-response","trial_index":87,"time_elapsed":782508,"internal_node_id":"0.0-4.0-0.38","subject_id":"616f1c7ceb94379910609252","study_id":"60edd13110225f80f9f3709b","session_id":"6196c708858ed99ed2255828","condition":"contingent","relevant_dimensions":["wings","legs"],"bee_group":{"antennae":"X","wings":"1","pattern":"X","legs":"M"},"action":"avoid","summary":"bad-avoid","bonus":0.08},{"rt":816,"stimulus":"\n                    <p><b>Action: <em>avoid</em></b></p>\n                    <p>This is the bee that you just saw.</p>\n                    <img src=\"bees-with-color/bee-B1DF.svg\" width=\"200\">\n                    <p><br>Your bonus pay is unchanged, and remains at $0.20.</p>\n            ","response":0,"trial_type":"html-button-response","trial_index":88,"time_elapsed":783326,"internal_node_id":"0.0-4.0-1.38","subject_id":"616f1c7ceb94379910609252","study_id":"60edd13110225f80f9f3709b","session_id":"6196c708858ed99ed2255828","condition":"contingent","relevant_dimensions":["wings","legs"],"bee_group":{"antennae":"X","wings":"1","pattern":"X","legs":"M"},"bonus":0.08},{"rt":829,"stimulus":"bees-with-color/bee-A2DF.svg","response":0,"trial_type":"image-button-response","trial_index":89,"time_elapsed":784158,"internal_node_id":"0.0-4.0-0.39","subject_id":"616f1c7ceb94379910609252","study_id":"60edd13110225f80f9f3709b","session_id":"6196c708858ed99ed2255828","condition":"contingent","relevant_dimensions":["wings","legs"],"bee_group":{"antennae":"X","wings":"1","pattern":"X","legs":"M"},"action":"harvest","summary":"good-harvest","bonus":0.08},{"rt":702,"stimulus":"\n                    <p><b>Action: <em>harvest</em></b></p>\n                    <p>This is the bee that you just saw.</p>\n                    <img src=\"bees-with-color/bee-A2DF.svg\" width=\"200\">\n                    <p><span class=\"greenText\"><b>Successful harvest!</b></span><br>Your pay has increased by $0.02. Your bonus pay is now $0.22.</p>\n            ","response":0,"trial_type":"html-button-response","trial_index":90,"time_elapsed":784865,"internal_node_id":"0.0-4.0-1.39","subject_id":"616f1c7ceb94379910609252","study_id":"60edd13110225f80f9f3709b","session_id":"6196c708858ed99ed2255828","condition":"contingent","relevant_dimensions":["wings","legs"],"bee_group":{"antennae":"X","wings":"1","pattern":"X","legs":"M"},"bonus":0.08},{"rt":604,"stimulus":"bees-with-color/bee-A1SM.svg","response":0,"trial_type":"image-button-response","trial_index":91,"time_elapsed":785472,"internal_node_id":"0.0-4.0-0.40","subject_id":"616f1c7ceb94379910609252","study_id":"60edd13110225f80f9f3709b","session_id":"6196c708858ed99ed2255828","condition":"contingent","relevant_dimensions":["wings","legs"],"bee_group":{"antennae":"X","wings":"1","pattern":"X","legs":"M"},"action":"harvest","summary":"bad-harvest","bonus":0.08},{"rt":748,"stimulus":"\n                    <p><b>Action: <em>harvest</em></b></p>\n                    <p>This is the bee that you just saw.</p>\n                    <img src=\"bees-with-color/bee-A1SM.svg\" width=\"200\">\n                    <p><span class=\"redText\">Bad choice, the bee was angry.</span><br><b>You have been stung!</b><br>Your pay has been decreased by $0.10. Your bonus pay is now $0.12.</p>\n            ","response":0,"trial_type":"html-button-response","trial_index":92,"time_elapsed":786225,"internal_node_id":"0.0-4.0-1.40","subject_id":"616f1c7ceb94379910609252","study_id":"60edd13110225f80f9f3709b","session_id":"6196c708858ed99ed2255828","condition":"contingent","relevant_dimensions":["wings","legs"],"bee_group":{"antennae":"X","wings":"1","pattern":"X","legs":"M"},"bonus":0.08},{"rt":1422,"stimulus":"bees-with-color/bee-A1DF.svg","response":1,"trial_type":"image-button-response","trial_index":93,"time_elapsed":787650,"internal_node_id":"0.0-4.0-0.41","subject_id":"616f1c7ceb94379910609252","study_id":"60edd13110225f80f9f3709b","session_id":"6196c708858ed99ed2255828","condition":"contingent","relevant_dimensions":["wings","legs"],"bee_group":{"antennae":"X","wings":"1","pattern":"X","legs":"M"},"action":"avoid","summary":"bad-avoid","bonus":0.08},{"rt":1341,"stimulus":"\n                    <p><b>Action: <em>avoid</em></b></p>\n                    <p>This is the bee that you just saw.</p>\n                    <img src=\"bees-with-color/bee-A1DF.svg\" width=\"200\">\n                    <p><br>Your bonus pay is unchanged, and remains at $0.12.</p>\n            ","response":0,"trial_type":"html-button-response","trial_index":94,"time_elapsed":788996,"internal_node_id":"0.0-4.0-1.41","subject_id":"616f1c7ceb94379910609252","study_id":"60edd13110225f80f9f3709b","session_id":"6196c708858ed99ed2255828","condition":"contingent","relevant_dimensions":["wings","legs"],"bee_group":{"antennae":"X","wings":"1","pattern":"X","legs":"M"},"bonus":0.08},{"rt":577,"stimulus":"bees-with-color/bee-B2SF.svg","response":0,"trial_type":"image-button-response","trial_index":95,"time_elapsed":789576,"internal_node_id":"0.0-4.0-0.42","subject_id":"616f1c7ceb94379910609252","study_id":"60edd13110225f80f9f3709b","session_id":"6196c708858ed99ed2255828","condition":"contingent","relevant_dimensions":["wings","legs"],"bee_group":{"antennae":"X","wings":"1","pattern":"X","legs":"M"},"action":"harvest","summary":"good-harvest","bonus":0.08},{"rt":795,"stimulus":"\n                    <p><b>Action: <em>harvest</em></b></p>\n                    <p>This is the bee that you just saw.</p>\n                    <img src=\"bees-with-color/bee-B2SF.svg\" width=\"200\">\n                    <p><span class=\"greenText\"><b>Successful harvest!</b></span><br>Your pay has increased by $0.02. Your bonus pay is now $0.14.</p>\n            ","response":0,"trial_type":"html-button-response","trial_index":96,"time_elapsed":790374,"internal_node_id":"0.0-4.0-1.42","subject_id":"616f1c7ceb94379910609252","study_id":"60edd13110225f80f9f3709b","session_id":"6196c708858ed99ed2255828","condition":"contingent","relevant_dimensions":["wings","legs"],"bee_group":{"antennae":"X","wings":"1","pattern":"X","legs":"M"},"bonus":0.08},{"rt":994,"stimulus":"bees-with-color/bee-B1SF.svg","response":0,"trial_type":"image-button-response","trial_index":97,"time_elapsed":791372,"internal_node_id":"0.0-4.0-0.43","subject_id":"616f1c7ceb94379910609252","study_id":"60edd13110225f80f9f3709b","session_id":"6196c708858ed99ed2255828","condition":"contingent","relevant_dimensions":["wings","legs"],"bee_group":{"antennae":"X","wings":"1","pattern":"X","legs":"M"},"action":"harvest","summary":"good-harvest","bonus":0.08},{"rt":3052,"stimulus":"\n                    <p><b>Action: <em>harvest</em></b></p>\n                    <p>This is the bee that you just saw.</p>\n                    <img src=\"bees-with-color/bee-B1SF.svg\" width=\"200\">\n                    <p><span class=\"greenText\"><b>Successful harvest!</b></span><br>Your pay has increased by $0.02. Your bonus pay is now $0.16.</p>\n            ","response":0,"trial_type":"html-button-response","trial_index":98,"time_elapsed":794429,"internal_node_id":"0.0-4.0-1.43","subject_id":"616f1c7ceb94379910609252","study_id":"60edd13110225f80f9f3709b","session_id":"6196c708858ed99ed2255828","condition":"contingent","relevant_dimensions":["wings","legs"],"bee_group":{"antennae":"X","wings":"1","pattern":"X","legs":"M"},"bonus":0.08},{"rt":475,"stimulus":"bees-with-color/bee-B2DM.svg","response":0,"trial_type":"image-button-response","trial_index":99,"time_elapsed":794908,"internal_node_id":"0.0-4.0-0.44","subject_id":"616f1c7ceb94379910609252","study_id":"60edd13110225f80f9f3709b","session_id":"6196c708858ed99ed2255828","condition":"contingent","relevant_dimensions":["wings","legs"],"bee_group":{"antennae":"X","wings":"1","pattern":"X","legs":"M"},"action":"harvest","summary":"good-harvest","bonus":0.08},{"rt":2113,"stimulus":"\n                    <p><b>Action: <em>harvest</em></b></p>\n                    <p>This is the bee that you just saw.</p>\n                    <img src=\"bees-with-color/bee-B2DM.svg\" width=\"200\">\n                    <p><span class=\"greenText\"><b>Successful harvest!</b></span><br>Your pay has increased by $0.02. Your bonus pay is now $0.18.</p>\n            ","response":0,"trial_type":"html-button-response","trial_index":100,"time_elapsed":797025,"internal_node_id":"0.0-4.0-1.44","subject_id":"616f1c7ceb94379910609252","study_id":"60edd13110225f80f9f3709b","session_id":"6196c708858ed99ed2255828","condition":"contingent","relevant_dimensions":["wings","legs"],"bee_group":{"antennae":"X","wings":"1","pattern":"X","legs":"M"},"bonus":0.08},{"rt":1847,"stimulus":"bees-with-color/bee-A1SF.svg","response":1,"trial_type":"image-button-response","trial_index":101,"time_elapsed":798874,"internal_node_id":"0.0-4.0-0.45","subject_id":"616f1c7ceb94379910609252","study_id":"60edd13110225f80f9f3709b","session_id":"6196c708858ed99ed2255828","condition":"contingent","relevant_dimensions":["wings","legs"],"bee_group":{"antennae":"X","wings":"1","pattern":"X","legs":"M"},"action":"avoid","summary":"bad-avoid","bonus":0.08},{"rt":1439,"stimulus":"\n                    <p><b>Action: <em>avoid</em></b></p>\n                    <p>This is the bee that you just saw.</p>\n                    <img src=\"bees-with-color/bee-A1SF.svg\" width=\"200\">\n                    <p><br>Your bonus pay is unchanged, and remains at $0.18.</p>\n            ","response":0,"trial_type":"html-button-response","trial_index":102,"time_elapsed":800316,"internal_node_id":"0.0-4.0-1.45","subject_id":"616f1c7ceb94379910609252","study_id":"60edd13110225f80f9f3709b","session_id":"6196c708858ed99ed2255828","condition":"contingent","relevant_dimensions":["wings","legs"],"bee_group":{"antennae":"X","wings":"1","pattern":"X","legs":"M"},"bonus":0.08},{"rt":1774,"stimulus":"bees-with-color/bee-A2SM.svg","response":0,"trial_type":"image-button-response","trial_index":103,"time_elapsed":802095,"internal_node_id":"0.0-4.0-0.46","subject_id":"616f1c7ceb94379910609252","study_id":"60edd13110225f80f9f3709b","session_id":"6196c708858ed99ed2255828","condition":"contingent","relevant_dimensions":["wings","legs"],"bee_group":{"antennae":"X","wings":"1","pattern":"X","legs":"M"},"action":"harvest","summary":"good-harvest","bonus":0.08},{"rt":924,"stimulus":"\n                    <p><b>Action: <em>harvest</em></b></p>\n                    <p>This is the bee that you just saw.</p>\n                    <img src=\"bees-with-color/bee-A2SM.svg\" width=\"200\">\n                    <p><span class=\"greenText\"><b>Successful harvest!</b></span><br>Your pay has increased by $0.02. Your bonus pay is now $0.20.</p>\n            ","response":0,"trial_type":"html-button-response","trial_index":104,"time_elapsed":803024,"internal_node_id":"0.0-4.0-1.46","subject_id":"616f1c7ceb94379910609252","study_id":"60edd13110225f80f9f3709b","session_id":"6196c708858ed99ed2255828","condition":"contingent","relevant_dimensions":["wings","legs"],"bee_group":{"antennae":"X","wings":"1","pattern":"X","legs":"M"},"bonus":0.08},{"rt":1094,"stimulus":"bees-with-color/bee-A1DM.svg","response":0,"trial_type":"image-button-response","trial_index":105,"time_elapsed":804122,"internal_node_id":"0.0-4.0-0.47","subject_id":"616f1c7ceb94379910609252","study_id":"60edd13110225f80f9f3709b","session_id":"6196c708858ed99ed2255828","condition":"contingent","relevant_dimensions":["wings","legs"],"bee_group":{"antennae":"X","wings":"1","pattern":"X","legs":"M"},"action":"harvest","summary":"bad-harvest","bonus":0.08},{"rt":1390,"stimulus":"\n                    <p><b>Action: <em>harvest</em></b></p>\n                    <p>This is the bee that you just saw.</p>\n                    <img src=\"bees-with-color/bee-A1DM.svg\" width=\"200\">\n                    <p><span class=\"redText\">Bad choice, the bee was angry.</span><br><b>You have been stung!</b><br>Your pay has been decreased by $0.10. Your bonus pay is now $0.10.</p>\n            ","response":0,"trial_type":"html-button-response","trial_index":106,"time_elapsed":805516,"internal_node_id":"0.0-4.0-1.47","subject_id":"616f1c7ceb94379910609252","study_id":"60edd13110225f80f9f3709b","session_id":"6196c708858ed99ed2255828","condition":"contingent","relevant_dimensions":["wings","legs"],"bee_group":{"antennae":"X","wings":"1","pattern":"X","legs":"M"},"bonus":0.08},{"rt":1213,"stimulus":"bees-with-color/bee-B1SF.svg","response":1,"trial_type":"image-button-response","trial_index":107,"time_elapsed":806732,"internal_node_id":"0.0-4.0-0.48","subject_id":"616f1c7ceb94379910609252","study_id":"60edd13110225f80f9f3709b","session_id":"6196c708858ed99ed2255828","condition":"contingent","relevant_dimensions":["wings","legs"],"bee_group":{"antennae":"X","wings":"1","pattern":"X","legs":"M"},"action":"avoid","summary":"bad-avoid","bonus":0.08},{"rt":1054,"stimulus":"\n                    <p><b>Action: <em>avoid</em></b></p>\n                    <p>This is the bee that you just saw.</p>\n                    <img src=\"bees-with-color/bee-B1SF.svg\" width=\"200\">\n                    <p><br>Your bonus pay is unchanged, and remains at $0.10.</p>\n            ","response":0,"trial_type":"html-button-response","trial_index":108,"time_elapsed":807789,"internal_node_id":"0.0-4.0-1.48","subject_id":"616f1c7ceb94379910609252","study_id":"60edd13110225f80f9f3709b","session_id":"6196c708858ed99ed2255828","condition":"contingent","relevant_dimensions":["wings","legs"],"bee_group":{"antennae":"X","wings":"1","pattern":"X","legs":"M"},"bonus":0.08},{"rt":1503,"stimulus":"bees-with-color/bee-A2SF.svg","response":0,"trial_type":"image-button-response","trial_index":109,"time_elapsed":809297,"internal_node_id":"0.0-4.0-0.49","subject_id":"616f1c7ceb94379910609252","study_id":"60edd13110225f80f9f3709b","session_id":"6196c708858ed99ed2255828","condition":"contingent","relevant_dimensions":["wings","legs"],"bee_group":{"antennae":"X","wings":"1","pattern":"X","legs":"M"},"action":"harvest","summary":"good-harvest","bonus":0.08},{"rt":699,"stimulus":"\n                    <p><b>Action: <em>harvest</em></b></p>\n                    <p>This is the bee that you just saw.</p>\n                    <img src=\"bees-with-color/bee-A2SF.svg\" width=\"200\">\n                    <p><span class=\"greenText\"><b>Successful harvest!</b></span><br>Your pay has increased by $0.02. Your bonus pay is now $0.12.</p>\n            ","response":0,"trial_type":"html-button-response","trial_index":110,"time_elapsed":810000,"internal_node_id":"0.0-4.0-1.49","subject_id":"616f1c7ceb94379910609252","study_id":"60edd13110225f80f9f3709b","session_id":"6196c708858ed99ed2255828","condition":"contingent","relevant_dimensions":["wings","legs"],"bee_group":{"antennae":"X","wings":"1","pattern":"X","legs":"M"},"bonus":0.08},{"rt":765,"stimulus":"bees-with-color/bee-B2DF.svg","response":0,"trial_type":"image-button-response","trial_index":111,"time_elapsed":810772,"internal_node_id":"0.0-4.0-0.50","subject_id":"616f1c7ceb94379910609252","study_id":"60edd13110225f80f9f3709b","session_id":"6196c708858ed99ed2255828","condition":"contingent","relevant_dimensions":["wings","legs"],"bee_group":{"antennae":"X","wings":"1","pattern":"X","legs":"M"},"action":"harvest","summary":"good-harvest","bonus":0.08},{"rt":572,"stimulus":"\n                    <p><b>Action: <em>harvest</em></b></p>\n                    <p>This is the bee that you just saw.</p>\n                    <img src=\"bees-with-color/bee-B2DF.svg\" width=\"200\">\n                    <p><span class=\"greenText\"><b>Successful harvest!</b></span><br>Your pay has increased by $0.02. Your bonus pay is now $0.14.</p>\n            ","response":0,"trial_type":"html-button-response","trial_index":112,"time_elapsed":811348,"internal_node_id":"0.0-4.0-1.50","subject_id":"616f1c7ceb94379910609252","study_id":"60edd13110225f80f9f3709b","session_id":"6196c708858ed99ed2255828","condition":"contingent","relevant_dimensions":["wings","legs"],"bee_group":{"antennae":"X","wings":"1","pattern":"X","legs":"M"},"bonus":0.08},{"rt":464,"stimulus":"bees-with-color/bee-A2DF.svg","response":0,"trial_type":"image-button-response","trial_index":113,"time_elapsed":811816,"internal_node_id":"0.0-4.0-0.51","subject_id":"616f1c7ceb94379910609252","study_id":"60edd13110225f80f9f3709b","session_id":"6196c708858ed99ed2255828","condition":"contingent","relevant_dimensions":["wings","legs"],"bee_group":{"antennae":"X","wings":"1","pattern":"X","legs":"M"},"action":"harvest","summary":"good-harvest","bonus":0.08},{"rt":1232,"stimulus":"\n                    <p><b>Action: <em>harvest</em></b></p>\n                    <p>This is the bee that you just saw.</p>\n                    <img src=\"bees-with-color/bee-A2DF.svg\" width=\"200\">\n                    <p><span class=\"greenText\"><b>Successful harvest!</b></span><br>Your pay has increased by $0.02. Your bonus pay is now $0.16.</p>\n            ","response":0,"trial_type":"html-button-response","trial_index":114,"time_elapsed":813052,"internal_node_id":"0.0-4.0-1.51","subject_id":"616f1c7ceb94379910609252","study_id":"60edd13110225f80f9f3709b","session_id":"6196c708858ed99ed2255828","condition":"contingent","relevant_dimensions":["wings","legs"],"bee_group":{"antennae":"X","wings":"1","pattern":"X","legs":"M"},"bonus":0.08},{"rt":1199,"stimulus":"bees-with-color/bee-A2DM.svg","response":1,"trial_type":"image-button-response","trial_index":115,"time_elapsed":814254,"internal_node_id":"0.0-4.0-0.52","subject_id":"616f1c7ceb94379910609252","study_id":"60edd13110225f80f9f3709b","session_id":"6196c708858ed99ed2255828","condition":"contingent","relevant_dimensions":["wings","legs"],"bee_group":{"antennae":"X","wings":"1","pattern":"X","legs":"M"},"action":"avoid","summary":"bad-avoid","bonus":0.08},{"rt":701,"stimulus":"\n                    <p><b>Action: <em>avoid</em></b></p>\n                    <p>This is the bee that you just saw.</p>\n                    <img src=\"bees-with-color/bee-A2DM.svg\" width=\"200\">\n                    <p><br>Your bonus pay is unchanged, and remains at $0.16.</p>\n            ","response":0,"trial_type":"html-button-response","trial_index":116,"time_elapsed":814959,"internal_node_id":"0.0-4.0-1.52","subject_id":"616f1c7ceb94379910609252","study_id":"60edd13110225f80f9f3709b","session_id":"6196c708858ed99ed2255828","condition":"contingent","relevant_dimensions":["wings","legs"],"bee_group":{"antennae":"X","wings":"1","pattern":"X","legs":"M"},"bonus":0.08},{"rt":1375,"stimulus":"bees-with-color/bee-A1DM.svg","response":0,"trial_type":"image-button-response","trial_index":117,"time_elapsed":816337,"internal_node_id":"0.0-4.0-0.53","subject_id":"616f1c7ceb94379910609252","study_id":"60edd13110225f80f9f3709b","session_id":"6196c708858ed99ed2255828","condition":"contingent","relevant_dimensions":["wings","legs"],"bee_group":{"antennae":"X","wings":"1","pattern":"X","legs":"M"},"action":"harvest","summary":"bad-harvest","bonus":0.08},{"rt":1216,"stimulus":"\n                    <p><b>Action: <em>harvest</em></b></p>\n                    <p>This is the bee that you just saw.</p>\n                    <img src=\"bees-with-color/bee-A1DM.svg\" width=\"200\">\n                    <p><span class=\"redText\">Bad choice, the bee was angry.</span><br><b>You have been stung!</b><br>Your pay has been decreased by $0.10. Your bonus pay is now $0.06.</p>\n            ","response":0,"trial_type":"html-button-response","trial_index":118,"time_elapsed":817557,"internal_node_id":"0.0-4.0-1.53","subject_id":"616f1c7ceb94379910609252","study_id":"60edd13110225f80f9f3709b","session_id":"6196c708858ed99ed2255828","condition":"contingent","relevant_dimensions":["wings","legs"],"bee_group":{"antennae":"X","wings":"1","pattern":"X","legs":"M"},"bonus":0.08},{"rt":490,"stimulus":"bees-with-color/bee-B2DM.svg","response":1,"trial_type":"image-button-response","trial_index":119,"time_elapsed":818052,"internal_node_id":"0.0-4.0-0.54","subject_id":"616f1c7ceb94379910609252","study_id":"60edd13110225f80f9f3709b","session_id":"6196c708858ed99ed2255828","condition":"contingent","relevant_dimensions":["wings","legs"],"bee_group":{"antennae":"X","wings":"1","pattern":"X","legs":"M"},"action":"avoid","summary":"bad-avoid","bonus":0.08},{"rt":828,"stimulus":"\n                    <p><b>Action: <em>avoid</em></b></p>\n                    <p>This is the bee that you just saw.</p>\n                    <img src=\"bees-with-color/bee-B2DM.svg\" width=\"200\">\n                    <p><br>Your bonus pay is unchanged, and remains at $0.06.</p>\n            ","response":0,"trial_type":"html-button-response","trial_index":120,"time_elapsed":818884,"internal_node_id":"0.0-4.0-1.54","subject_id":"616f1c7ceb94379910609252","study_id":"60edd13110225f80f9f3709b","session_id":"6196c708858ed99ed2255828","condition":"contingent","relevant_dimensions":["wings","legs"],"bee_group":{"antennae":"X","wings":"1","pattern":"X","legs":"M"},"bonus":0.08},{"rt":422,"stimulus":"bees-with-color/bee-B1SM.svg","response":0,"trial_type":"image-button-response","trial_index":121,"time_elapsed":819311,"internal_node_id":"0.0-4.0-0.55","subject_id":"616f1c7ceb94379910609252","study_id":"60edd13110225f80f9f3709b","session_id":"6196c708858ed99ed2255828","condition":"contingent","relevant_dimensions":["wings","legs"],"bee_group":{"antennae":"X","wings":"1","pattern":"X","legs":"M"},"action":"harvest","summary":"bad-harvest","bonus":0.08},{"rt":1086,"stimulus":"\n                    <p><b>Action: <em>harvest</em></b></p>\n                    <p>This is the bee that you just saw.</p>\n                    <img src=\"bees-with-color/bee-B1SM.svg\" width=\"200\">\n                    <p><span class=\"redText\">Bad choice, the bee was angry.</span><br><b>You have been stung!</b><br>Your pay has been decreased by $0.10. Your bonus pay is now $0.00.</p>\n            ","response":0,"trial_type":"html-button-response","trial_index":122,"time_elapsed":820400,"internal_node_id":"0.0-4.0-1.55","subject_id":"616f1c7ceb94379910609252","study_id":"60edd13110225f80f9f3709b","session_id":"6196c708858ed99ed2255828","condition":"contingent","relevant_dimensions":["wings","legs"],"bee_group":{"antennae":"X","wings":"1","pattern":"X","legs":"M"},"bonus":0.08},{"rt":1758,"stimulus":"bees-with-color/bee-B1DM.svg","response":0,"trial_type":"image-button-response","trial_index":123,"time_elapsed":822162,"internal_node_id":"0.0-4.0-0.56","subject_id":"616f1c7ceb94379910609252","study_id":"60edd13110225f80f9f3709b","session_id":"6196c708858ed99ed2255828","condition":"contingent","relevant_dimensions":["wings","legs"],"bee_group":{"antennae":"X","wings":"1","pattern":"X","legs":"M"},"action":"harvest","summary":"bad-harvest","bonus":0.08},{"rt":865,"stimulus":"\n                    <p><b>Action: <em>harvest</em></b></p>\n                    <p>This is the bee that you just saw.</p>\n                    <img src=\"bees-with-color/bee-B1DM.svg\" width=\"200\">\n                    <p><span class=\"redText\">Bad choice, the bee was angry.</span><br><b>You have been stung!</b><br>Your pay has been decreased by $0.10. Your bonus pay is now $0.00.</p>\n            ","response":0,"trial_type":"html-button-response","trial_index":124,"time_elapsed":823030,"internal_node_id":"0.0-4.0-1.56","subject_id":"616f1c7ceb94379910609252","study_id":"60edd13110225f80f9f3709b","session_id":"6196c708858ed99ed2255828","condition":"contingent","relevant_dimensions":["wings","legs"],"bee_group":{"antennae":"X","wings":"1","pattern":"X","legs":"M"},"bonus":0.08},{"rt":601,"stimulus":"bees-with-color/bee-A2SM.svg","response":0,"trial_type":"image-button-response","trial_index":125,"time_elapsed":823636,"internal_node_id":"0.0-4.0-0.57","subject_id":"616f1c7ceb94379910609252","study_id":"60edd13110225f80f9f3709b","session_id":"6196c708858ed99ed2255828","condition":"contingent","relevant_dimensions":["wings","legs"],"bee_group":{"antennae":"X","wings":"1","pattern":"X","legs":"M"},"action":"harvest","summary":"good-harvest","bonus":0.08},{"rt":747,"stimulus":"\n                    <p><b>Action: <em>harvest</em></b></p>\n                    <p>This is the bee that you just saw.</p>\n                    <img src=\"bees-with-color/bee-A2SM.svg\" width=\"200\">\n                    <p><span class=\"greenText\"><b>Successful harvest!</b></span><br>Your pay has increased by $0.02. Your bonus pay is now $0.02.</p>\n            ","response":0,"trial_type":"html-button-response","trial_index":126,"time_elapsed":824388,"internal_node_id":"0.0-4.0-1.57","subject_id":"616f1c7ceb94379910609252","study_id":"60edd13110225f80f9f3709b","session_id":"6196c708858ed99ed2255828","condition":"contingent","relevant_dimensions":["wings","legs"],"bee_group":{"antennae":"X","wings":"1","pattern":"X","legs":"M"},"bonus":0.08},{"rt":573,"stimulus":"bees-with-color/bee-A1DF.svg","response":0,"trial_type":"image-button-response","trial_index":127,"time_elapsed":824966,"internal_node_id":"0.0-4.0-0.58","subject_id":"616f1c7ceb94379910609252","study_id":"60edd13110225f80f9f3709b","session_id":"6196c708858ed99ed2255828","condition":"contingent","relevant_dimensions":["wings","legs"],"bee_group":{"antennae":"X","wings":"1","pattern":"X","legs":"M"},"action":"harvest","summary":"good-harvest","bonus":0.08},{"rt":605,"stimulus":"\n                    <p><b>Action: <em>harvest</em></b></p>\n                    <p>This is the bee that you just saw.</p>\n                    <img src=\"bees-with-color/bee-A1DF.svg\" width=\"200\">\n                    <p><span class=\"greenText\"><b>Successful harvest!</b></span><br>Your pay has increased by $0.02. Your bonus pay is now $0.04.</p>\n            ","response":0,"trial_type":"html-button-response","trial_index":128,"time_elapsed":825575,"internal_node_id":"0.0-4.0-1.58","subject_id":"616f1c7ceb94379910609252","study_id":"60edd13110225f80f9f3709b","session_id":"6196c708858ed99ed2255828","condition":"contingent","relevant_dimensions":["wings","legs"],"bee_group":{"antennae":"X","wings":"1","pattern":"X","legs":"M"},"bonus":0.08},{"rt":1039,"stimulus":"bees-with-color/bee-A1SM.svg","response":0,"trial_type":"image-button-response","trial_index":129,"time_elapsed":826618,"internal_node_id":"0.0-4.0-0.59","subject_id":"616f1c7ceb94379910609252","study_id":"60edd13110225f80f9f3709b","session_id":"6196c708858ed99ed2255828","condition":"contingent","relevant_dimensions":["wings","legs"],"bee_group":{"antennae":"X","wings":"1","pattern":"X","legs":"M"},"action":"harvest","summary":"bad-harvest","bonus":0.08},{"rt":1163,"stimulus":"\n                    <p><b>Action: <em>harvest</em></b></p>\n                    <p>This is the bee that you just saw.</p>\n                    <img src=\"bees-with-color/bee-A1SM.svg\" width=\"200\">\n                    <p><span class=\"redText\">Bad choice, the bee was angry.</span><br><b>You have been stung!</b><br>Your pay has been decreased by $0.10. Your bonus pay is now $0.00.</p>\n            ","response":0,"trial_type":"html-button-response","trial_index":130,"time_elapsed":827785,"internal_node_id":"0.0-4.0-1.59","subject_id":"616f1c7ceb94379910609252","study_id":"60edd13110225f80f9f3709b","session_id":"6196c708858ed99ed2255828","condition":"contingent","relevant_dimensions":["wings","legs"],"bee_group":{"antennae":"X","wings":"1","pattern":"X","legs":"M"},"bonus":0.08},{"rt":1849,"stimulus":"bees-with-color/bee-B1DF.svg","response":0,"trial_type":"image-button-response","trial_index":131,"time_elapsed":829637,"internal_node_id":"0.0-4.0-0.60","subject_id":"616f1c7ceb94379910609252","study_id":"60edd13110225f80f9f3709b","session_id":"6196c708858ed99ed2255828","condition":"contingent","relevant_dimensions":["wings","legs"],"bee_group":{"antennae":"X","wings":"1","pattern":"X","legs":"M"},"action":"harvest","summary":"good-harvest","bonus":0.08},{"rt":587,"stimulus":"\n                    <p><b>Action: <em>harvest</em></b></p>\n                    <p>This is the bee that you just saw.</p>\n                    <img src=\"bees-with-color/bee-B1DF.svg\" width=\"200\">\n                    <p><span class=\"greenText\"><b>Successful harvest!</b></span><br>Your pay has increased by $0.02. Your bonus pay is now $0.02.</p>\n            ","response":0,"trial_type":"html-button-response","trial_index":132,"time_elapsed":830228,"internal_node_id":"0.0-4.0-1.60","subject_id":"616f1c7ceb94379910609252","study_id":"60edd13110225f80f9f3709b","session_id":"6196c708858ed99ed2255828","condition":"contingent","relevant_dimensions":["wings","legs"],"bee_group":{"antennae":"X","wings":"1","pattern":"X","legs":"M"},"bonus":0.08},{"rt":492,"stimulus":"bees-with-color/bee-B2SM.svg","response":0,"trial_type":"image-button-response","trial_index":133,"time_elapsed":830724,"internal_node_id":"0.0-4.0-0.61","subject_id":"616f1c7ceb94379910609252","study_id":"60edd13110225f80f9f3709b","session_id":"6196c708858ed99ed2255828","condition":"contingent","relevant_dimensions":["wings","legs"],"bee_group":{"antennae":"X","wings":"1","pattern":"X","legs":"M"},"action":"harvest","summary":"good-harvest","bonus":0.08},{"rt":750,"stimulus":"\n                    <p><b>Action: <em>harvest</em></b></p>\n                    <p>This is the bee that you just saw.</p>\n                    <img src=\"bees-with-color/bee-B2SM.svg\" width=\"200\">\n                    <p><span class=\"greenText\"><b>Successful harvest!</b></span><br>Your pay has increased by $0.02. Your bonus pay is now $0.04.</p>\n            ","response":0,"trial_type":"html-button-response","trial_index":134,"time_elapsed":831478,"internal_node_id":"0.0-4.0-1.61","subject_id":"616f1c7ceb94379910609252","study_id":"60edd13110225f80f9f3709b","session_id":"6196c708858ed99ed2255828","condition":"contingent","relevant_dimensions":["wings","legs"],"bee_group":{"antennae":"X","wings":"1","pattern":"X","legs":"M"},"bonus":0.08},{"rt":524,"stimulus":"bees-with-color/bee-A1SF.svg","response":1,"trial_type":"image-button-response","trial_index":135,"time_elapsed":832007,"internal_node_id":"0.0-4.0-0.62","subject_id":"616f1c7ceb94379910609252","study_id":"60edd13110225f80f9f3709b","session_id":"6196c708858ed99ed2255828","condition":"contingent","relevant_dimensions":["wings","legs"],"bee_group":{"antennae":"X","wings":"1","pattern":"X","legs":"M"},"action":"avoid","summary":"bad-avoid","bonus":0.08},{"rt":1042,"stimulus":"\n                    <p><b>Action: <em>avoid</em></b></p>\n                    <p>This is the bee that you just saw.</p>\n                    <img src=\"bees-with-color/bee-A1SF.svg\" width=\"200\">\n                    <p><br>Your bonus pay is unchanged, and remains at $0.04.</p>\n            ","response":0,"trial_type":"html-button-response","trial_index":136,"time_elapsed":833051,"internal_node_id":"0.0-4.0-1.62","subject_id":"616f1c7ceb94379910609252","study_id":"60edd13110225f80f9f3709b","session_id":"6196c708858ed99ed2255828","condition":"contingent","relevant_dimensions":["wings","legs"],"bee_group":{"antennae":"X","wings":"1","pattern":"X","legs":"M"},"bonus":0.08},{"rt":905,"stimulus":"bees-with-color/bee-B2SF.svg","response":1,"trial_type":"image-button-response","trial_index":137,"time_elapsed":833961,"internal_node_id":"0.0-4.0-0.63","subject_id":"616f1c7ceb94379910609252","study_id":"60edd13110225f80f9f3709b","session_id":"6196c708858ed99ed2255828","condition":"contingent","relevant_dimensions":["wings","legs"],"bee_group":{"antennae":"X","wings":"1","pattern":"X","legs":"M"},"action":"avoid","summary":"bad-avoid","bonus":0.08},{"rt":621,"stimulus":"\n                    <p><b>Action: <em>avoid</em></b></p>\n                    <p>This is the bee that you just saw.</p>\n                    <img src=\"bees-with-color/bee-B2SF.svg\" width=\"200\">\n                    <p><br>Your bonus pay is unchanged, and remains at $0.04.</p>\n            ","response":0,"trial_type":"html-button-response","trial_index":138,"time_elapsed":834586,"internal_node_id":"0.0-4.0-1.63","subject_id":"616f1c7ceb94379910609252","study_id":"60edd13110225f80f9f3709b","session_id":"6196c708858ed99ed2255828","condition":"contingent","relevant_dimensions":["wings","legs"],"bee_group":{"antennae":"X","wings":"1","pattern":"X","legs":"M"},"bonus":0.08},{"rt":12204,"stimulus":"You have completed the first part of this experiment.<br><br>You will now begin a shorter second part, in which you will receive no feedback.<br>The same rules regarding bonus pay apply.<br><br>Press any key to begin.","response":" ","trial_type":"html-keyboard-response","trial_index":139,"time_elapsed":846796,"internal_node_id":"0.0-5.0","subject_id":"616f1c7ceb94379910609252","study_id":"60edd13110225f80f9f3709b","session_id":"6196c708858ed99ed2255828","condition":"contingent","relevant_dimensions":["wings","legs"],"bee_group":{"antennae":"X","wings":"1","pattern":"X","legs":"M"},"bonus":0.08},{"rt":2806,"stimulus":"bees-with-color/bee-B2DF.svg","response":0,"trial_type":"image-button-response","trial_index":140,"time_elapsed":849615,"internal_node_id":"0.0-6.0-0.0","subject_id":"616f1c7ceb94379910609252","study_id":"60edd13110225f80f9f3709b","session_id":"6196c708858ed99ed2255828","condition":"contingent","relevant_dimensions":["wings","legs"],"bee_group":{"antennae":"X","wings":"1","pattern":"X","legs":"M"},"bonus":0.08},{"rt":2151,"stimulus":"bees-with-color/bee-A1SM.svg","response":0,"trial_type":"image-button-response","trial_index":141,"time_elapsed":851770,"internal_node_id":"0.0-6.0-0.1","subject_id":"616f1c7ceb94379910609252","study_id":"60edd13110225f80f9f3709b","session_id":"6196c708858ed99ed2255828","condition":"contingent","relevant_dimensions":["wings","legs"],"bee_group":{"antennae":"X","wings":"1","pattern":"X","legs":"M"},"bonus":0.08},{"rt":1478,"stimulus":"bees-with-color/bee-B1SF.svg","response":1,"trial_type":"image-button-response","trial_index":142,"time_elapsed":853251,"internal_node_id":"0.0-6.0-0.2","subject_id":"616f1c7ceb94379910609252","study_id":"60edd13110225f80f9f3709b","session_id":"6196c708858ed99ed2255828","condition":"contingent","relevant_dimensions":["wings","legs"],"bee_group":{"antennae":"X","wings":"1","pattern":"X","legs":"M"},"bonus":0.08},{"rt":752,"stimulus":"bees-with-color/bee-B1SM.svg","response":0,"trial_type":"image-button-response","trial_index":143,"time_elapsed":854010,"internal_node_id":"0.0-6.0-0.3","subject_id":"616f1c7ceb94379910609252","study_id":"60edd13110225f80f9f3709b","session_id":"6196c708858ed99ed2255828","condition":"contingent","relevant_dimensions":["wings","legs"],"bee_group":{"antennae":"X","wings":"1","pattern":"X","legs":"M"},"bonus":0.08},{"rt":247,"stimulus":"bees-with-color/bee-B2SF.svg","response":0,"trial_type":"image-button-response","trial_index":144,"time_elapsed":854261,"internal_node_id":"0.0-6.0-0.4","subject_id":"616f1c7ceb94379910609252","study_id":"60edd13110225f80f9f3709b","session_id":"6196c708858ed99ed2255828","condition":"contingent","relevant_dimensions":["wings","legs"],"bee_group":{"antennae":"X","wings":"1","pattern":"X","legs":"M"},"bonus":0.08},{"rt":186,"stimulus":"bees-with-color/bee-A1SF.svg","response":0,"trial_type":"image-button-response","trial_index":145,"time_elapsed":854454,"internal_node_id":"0.0-6.0-0.5","subject_id":"616f1c7ceb94379910609252","study_id":"60edd13110225f80f9f3709b","session_id":"6196c708858ed99ed2255828","condition":"contingent","relevant_dimensions":["wings","legs"],"bee_group":{"antennae":"X","wings":"1","pattern":"X","legs":"M"},"bonus":0.08},{"rt":396,"stimulus":"bees-with-color/bee-B2DM.svg","response":0,"trial_type":"image-button-response","trial_index":146,"time_elapsed":854854,"internal_node_id":"0.0-6.0-0.6","subject_id":"616f1c7ceb94379910609252","study_id":"60edd13110225f80f9f3709b","session_id":"6196c708858ed99ed2255828","condition":"contingent","relevant_dimensions":["wings","legs"],"bee_group":{"antennae":"X","wings":"1","pattern":"X","legs":"M"},"bonus":0.08},{"rt":830,"stimulus":"bees-with-color/bee-B1DF.svg","response":0,"trial_type":"image-button-response","trial_index":147,"time_elapsed":855687,"internal_node_id":"0.0-6.0-0.7","subject_id":"616f1c7ceb94379910609252","study_id":"60edd13110225f80f9f3709b","session_id":"6196c708858ed99ed2255828","condition":"contingent","relevant_dimensions":["wings","legs"],"bee_group":{"antennae":"X","wings":"1","pattern":"X","legs":"M"},"bonus":0.08},{"rt":384,"stimulus":"bees-with-color/bee-A2DF.svg","response":0,"trial_type":"image-button-response","trial_index":148,"time_elapsed":856075,"internal_node_id":"0.0-6.0-0.8","subject_id":"616f1c7ceb94379910609252","study_id":"60edd13110225f80f9f3709b","session_id":"6196c708858ed99ed2255828","condition":"contingent","relevant_dimensions":["wings","legs"],"bee_group":{"antennae":"X","wings":"1","pattern":"X","legs":"M"},"bonus":0.08},{"rt":1955,"stimulus":"bees-with-color/bee-A2SF.svg","response":0,"trial_type":"image-button-response","trial_index":149,"time_elapsed":858034,"internal_node_id":"0.0-6.0-0.9","subject_id":"616f1c7ceb94379910609252","study_id":"60edd13110225f80f9f3709b","session_id":"6196c708858ed99ed2255828","condition":"contingent","relevant_dimensions":["wings","legs"],"bee_group":{"antennae":"X","wings":"1","pattern":"X","legs":"M"},"bonus":0.08},{"rt":862,"stimulus":"bees-with-color/bee-A1DM.svg","response":1,"trial_type":"image-button-response","trial_index":150,"time_elapsed":858900,"internal_node_id":"0.0-6.0-0.10","subject_id":"616f1c7ceb94379910609252","study_id":"60edd13110225f80f9f3709b","session_id":"6196c708858ed99ed2255828","condition":"contingent","relevant_dimensions":["wings","legs"],"bee_group":{"antennae":"X","wings":"1","pattern":"X","legs":"M"},"bonus":0.08},{"rt":220,"stimulus":"bees-with-color/bee-B1DM.svg","response":1,"trial_type":"image-button-response","trial_index":151,"time_elapsed":859128,"internal_node_id":"0.0-6.0-0.11","subject_id":"616f1c7ceb94379910609252","study_id":"60edd13110225f80f9f3709b","session_id":"6196c708858ed99ed2255828","condition":"contingent","relevant_dimensions":["wings","legs"],"bee_group":{"antennae":"X","wings":"1","pattern":"X","legs":"M"},"bonus":0.08},{"rt":633,"stimulus":"bees-with-color/bee-A1DF.svg","response":0,"trial_type":"image-button-response","trial_index":152,"time_elapsed":859765,"internal_node_id":"0.0-6.0-0.12","subject_id":"616f1c7ceb94379910609252","study_id":"60edd13110225f80f9f3709b","session_id":"6196c708858ed99ed2255828","condition":"contingent","relevant_dimensions":["wings","legs"],"bee_group":{"antennae":"X","wings":"1","pattern":"X","legs":"M"},"bonus":0.08},{"rt":243,"stimulus":"bees-with-color/bee-A2SM.svg","response":0,"trial_type":"image-button-response","trial_index":153,"time_elapsed":860010,"internal_node_id":"0.0-6.0-0.13","subject_id":"616f1c7ceb94379910609252","study_id":"60edd13110225f80f9f3709b","session_id":"6196c708858ed99ed2255828","condition":"contingent","relevant_dimensions":["wings","legs"],"bee_group":{"antennae":"X","wings":"1","pattern":"X","legs":"M"},"bonus":0.08},{"rt":247,"stimulus":"bees-with-color/bee-A2DM.svg","response":0,"trial_type":"image-button-response","trial_index":154,"time_elapsed":860262,"internal_node_id":"0.0-6.0-0.14","subject_id":"616f1c7ceb94379910609252","study_id":"60edd13110225f80f9f3709b","session_id":"6196c708858ed99ed2255828","condition":"contingent","relevant_dimensions":["wings","legs"],"bee_group":{"antennae":"X","wings":"1","pattern":"X","legs":"M"},"bonus":0.08},{"rt":5113,"stimulus":"bees-with-color/bee-B2SM.svg","response":0,"trial_type":"image-button-response","trial_index":155,"time_elapsed":865380,"internal_node_id":"0.0-6.0-0.15","subject_id":"616f1c7ceb94379910609252","study_id":"60edd13110225f80f9f3709b","session_id":"6196c708858ed99ed2255828","condition":"contingent","relevant_dimensions":["wings","legs"],"bee_group":{"antennae":"X","wings":"1","pattern":"X","legs":"M"},"bonus":0.08},{"rt":782,"stimulus":"bees-with-color/bee-B2DF.svg","response":1,"trial_type":"image-button-response","trial_index":156,"time_elapsed":866166,"internal_node_id":"0.0-6.0-0.16","subject_id":"616f1c7ceb94379910609252","study_id":"60edd13110225f80f9f3709b","session_id":"6196c708858ed99ed2255828","condition":"contingent","relevant_dimensions":["wings","legs"],"bee_group":{"antennae":"X","wings":"1","pattern":"X","legs":"M"},"bonus":0.08},{"rt":412,"stimulus":"bees-with-color/bee-B1DM.svg","response":0,"trial_type":"image-button-response","trial_index":157,"time_elapsed":866584,"internal_node_id":"0.0-6.0-0.17","subject_id":"616f1c7ceb94379910609252","study_id":"60edd13110225f80f9f3709b","session_id":"6196c708858ed99ed2255828","condition":"contingent","relevant_dimensions":["wings","legs"],"bee_group":{"antennae":"X","wings":"1","pattern":"X","legs":"M"},"bonus":0.08},{"rt":461,"stimulus":"bees-with-color/bee-B1DF.svg","response":1,"trial_type":"image-button-response","trial_index":158,"time_elapsed":867049,"internal_node_id":"0.0-6.0-0.18","subject_id":"616f1c7ceb94379910609252","study_id":"60edd13110225f80f9f3709b","session_id":"6196c708858ed99ed2255828","condition":"contingent","relevant_dimensions":["wings","legs"],"bee_group":{"antennae":"X","wings":"1","pattern":"X","legs":"M"},"bonus":0.08},{"rt":347,"stimulus":"bees-with-color/bee-A2SF.svg","response":0,"trial_type":"image-button-response","trial_index":159,"time_elapsed":867400,"internal_node_id":"0.0-6.0-0.19","subject_id":"616f1c7ceb94379910609252","study_id":"60edd13110225f80f9f3709b","session_id":"6196c708858ed99ed2255828","condition":"contingent","relevant_dimensions":["wings","legs"],"bee_group":{"antennae":"X","wings":"1","pattern":"X","legs":"M"},"bonus":0.08},{"rt":524,"stimulus":"bees-with-color/bee-A1DF.svg","response":1,"trial_type":"image-button-response","trial_index":160,"time_elapsed":867928,"internal_node_id":"0.0-6.0-0.20","subject_id":"616f1c7ceb94379910609252","study_id":"60edd13110225f80f9f3709b","session_id":"6196c708858ed99ed2255828","condition":"contingent","relevant_dimensions":["wings","legs"],"bee_group":{"antennae":"X","wings":"1","pattern":"X","legs":"M"},"bonus":0.08},{"rt":378,"stimulus":"bees-with-color/bee-A1SM.svg","response":0,"trial_type":"image-button-response","trial_index":161,"time_elapsed":868314,"internal_node_id":"0.0-6.0-0.21","subject_id":"616f1c7ceb94379910609252","study_id":"60edd13110225f80f9f3709b","session_id":"6196c708858ed99ed2255828","condition":"contingent","relevant_dimensions":["wings","legs"],"bee_group":{"antennae":"X","wings":"1","pattern":"X","legs":"M"},"bonus":0.08},{"rt":217,"stimulus":"bees-with-color/bee-B2DM.svg","response":0,"trial_type":"image-button-response","trial_index":162,"time_elapsed":868536,"internal_node_id":"0.0-6.0-0.22","subject_id":"616f1c7ceb94379910609252","study_id":"60edd13110225f80f9f3709b","session_id":"6196c708858ed99ed2255828","condition":"contingent","relevant_dimensions":["wings","legs"],"bee_group":{"antennae":"X","wings":"1","pattern":"X","legs":"M"},"bonus":0.08},{"rt":175,"stimulus":"bees-with-color/bee-B2SM.svg","response":0,"trial_type":"image-button-response","trial_index":163,"time_elapsed":868713,"internal_node_id":"0.0-6.0-0.23","subject_id":"616f1c7ceb94379910609252","study_id":"60edd13110225f80f9f3709b","session_id":"6196c708858ed99ed2255828","condition":"contingent","relevant_dimensions":["wings","legs"],"bee_group":{"antennae":"X","wings":"1","pattern":"X","legs":"M"},"bonus":0.08},{"rt":189,"stimulus":"bees-with-color/bee-B1SM.svg","response":0,"trial_type":"image-button-response","trial_index":164,"time_elapsed":868906,"internal_node_id":"0.0-6.0-0.24","subject_id":"616f1c7ceb94379910609252","study_id":"60edd13110225f80f9f3709b","session_id":"6196c708858ed99ed2255828","condition":"contingent","relevant_dimensions":["wings","legs"],"bee_group":{"antennae":"X","wings":"1","pattern":"X","legs":"M"},"bonus":0.08},{"rt":188,"stimulus":"bees-with-color/bee-A2DF.svg","response":0,"trial_type":"image-button-response","trial_index":165,"time_elapsed":869097,"internal_node_id":"0.0-6.0-0.25","subject_id":"616f1c7ceb94379910609252","study_id":"60edd13110225f80f9f3709b","session_id":"6196c708858ed99ed2255828","condition":"contingent","relevant_dimensions":["wings","legs"],"bee_group":{"antennae":"X","wings":"1","pattern":"X","legs":"M"},"bonus":0.08},{"rt":189,"stimulus":"bees-with-color/bee-A1SF.svg","response":0,"trial_type":"image-button-response","trial_index":166,"time_elapsed":869290,"internal_node_id":"0.0-6.0-0.26","subject_id":"616f1c7ceb94379910609252","study_id":"60edd13110225f80f9f3709b","session_id":"6196c708858ed99ed2255828","condition":"contingent","relevant_dimensions":["wings","legs"],"bee_group":{"antennae":"X","wings":"1","pattern":"X","legs":"M"},"bonus":0.08},{"rt":170,"stimulus":"bees-with-color/bee-A2SM.svg","response":0,"trial_type":"image-button-response","trial_index":167,"time_elapsed":869465,"internal_node_id":"0.0-6.0-0.27","subject_id":"616f1c7ceb94379910609252","study_id":"60edd13110225f80f9f3709b","session_id":"6196c708858ed99ed2255828","condition":"contingent","relevant_dimensions":["wings","legs"],"bee_group":{"antennae":"X","wings":"1","pattern":"X","legs":"M"},"bonus":0.08},{"rt":445,"stimulus":"bees-with-color/bee-A1DM.svg","response":1,"trial_type":"image-button-response","trial_index":168,"time_elapsed":869914,"internal_node_id":"0.0-6.0-0.28","subject_id":"616f1c7ceb94379910609252","study_id":"60edd13110225f80f9f3709b","session_id":"6196c708858ed99ed2255828","condition":"contingent","relevant_dimensions":["wings","legs"],"bee_group":{"antennae":"X","wings":"1","pattern":"X","legs":"M"},"bonus":0.08},{"rt":271,"stimulus":"bees-with-color/bee-A2DM.svg","response":1,"trial_type":"image-button-response","trial_index":169,"time_elapsed":870188,"internal_node_id":"0.0-6.0-0.29","subject_id":"616f1c7ceb94379910609252","study_id":"60edd13110225f80f9f3709b","session_id":"6196c708858ed99ed2255828","condition":"contingent","relevant_dimensions":["wings","legs"],"bee_group":{"antennae":"X","wings":"1","pattern":"X","legs":"M"},"bonus":0.08},{"rt":221,"stimulus":"bees-with-color/bee-B2SF.svg","response":1,"trial_type":"image-button-response","trial_index":170,"time_elapsed":870413,"internal_node_id":"0.0-6.0-0.30","subject_id":"616f1c7ceb94379910609252","study_id":"60edd13110225f80f9f3709b","session_id":"6196c708858ed99ed2255828","condition":"contingent","relevant_dimensions":["wings","legs"],"bee_group":{"antennae":