[{"success":true,"trial_type":"fullscreen","trial_index":0,"time_elapsed":5090,"internal_node_id":"0.0-0.0","subject_id":"613ab4192b5d4923c17d8b16","study_id":"60edd13110225f80f9f3709b","session_id":"6196c1ee0c2be2dcaa45ca2e","condition":"contingent","relevant_dimensions":["pattern","legs"],"bee_group":{"antennae":"X","wings":"X","pattern":"D","legs":"M"},"bonus":1.1800000000000013},{"success":true,"timeout":false,"failed_images":[],"failed_audio":[],"failed_video":[],"trial_type":"preload","trial_index":1,"time_elapsed":6347,"internal_node_id":"0.0-1.0","subject_id":"613ab4192b5d4923c17d8b16","study_id":"60edd13110225f80f9f3709b","session_id":"6196c1ee0c2be2dcaa45ca2e","condition":"contingent","relevant_dimensions":["pattern","legs"],"bee_group":{"antennae":"X","wings":"X","pattern":"D","legs":"M"},"bonus":1.1800000000000013},{"rt":1317.4000000059605,"stimulus":"Welcome! Press any key to begin.","response":" ","trial_type":"html-keyboard-response","trial_index":2,"time_elapsed":7667,"internal_node_id":"0.0-2.0","subject_id":"613ab4192b5d4923c17d8b16","study_id":"60edd13110225f80f9f3709b","session_id":"6196c1ee0c2be2dcaa45ca2e","condition":"contingent","relevant_dimensions":["pattern","legs"],"bee_group":{"antennae":"X","wings":"X","pattern":"D","legs":"M"},"bonus":1.1800000000000013},{"view_history":[{"page_index":0,"viewing_time":4717.9000000059605},{"page_index":1,"viewing_time":48608.59999999404},{"page_index":2,"viewing_time":34808.70000001788},{"page_index":3,"viewing_time":17856.09999999404},{"page_index":4,"viewing_time":5318.199999988079},{"page_index":5,"viewing_time":14300.5},{"page_index":6,"viewing_time":11501.100000023842},{"page_index":7,"viewing_time":13899.399999976158},{"page_index":8,"viewing_time":3728.4000000059605},{"page_index":9,"viewing_time":8728.59999999404},{"page_index":10,"viewing_time":3616.100000023842},{"page_index":11,"viewing_time":39738.89999997616},{"page_index":12,"viewing_time":16699.5},{"page_index":13,"viewing_time":1640.1000000238419},{"page_index":14,"viewing_time":2243.5}],"rt":227406.90000000596,"trial_type":"instructions","trial_index":3,"time_elapsed":235077,"internal_node_id":"0.0-3.0-0.0","subject_id":"613ab4192b5d4923c17d8b16","study_id":"60edd13110225f80f9f3709b","session_id":"6196c1ee0c2be2dcaa45ca2e","condition":"contingent","relevant_dimensions":["pattern","legs"],"bee_group":{"antennae":"X","wings":"X","pattern":"D","legs":"M"},"bonus":1.1800000000000013},{"rt":36644.5,"response":{"Q0":["Two or six legs","Stripes or spots on body","Single or double wings"]},"question_order":[0],"trial_type":"survey-multi-select","trial_index":4,"time_elapsed":271735,"internal_node_id":"0.0-3.0-1.0","subject_id":"613ab4192b5d4923c17d8b16","study_id":"60edd13110225f80f9f3709b","session_id":"6196c1ee0c2be2dcaa45ca2e","condition":"contingent","relevant_dimensions":["pattern","legs"],"bee_group":{"antennae":"X","wings":"X","pattern":"D","legs":"M"},"correct":false,"bonus":1.1800000000000013},{"rt":30230.59999999404,"response":{"Q1":"No.","Q2":"Based on the four features of the bee.","Q3":"You do not learn if it was friendly or dangerous, and do not alter your bonus."},"question_order":[0,1,2],"trial_type":"survey-multi-choice","trial_index":5,"time_elapsed":301972,"internal_node_id":"0.0-3.0-2.0","subject_id":"613ab4192b5d4923c17d8b16","study_id":"60edd13110225f80f9f3709b","session_id":"6196c1ee0c2be2dcaa45ca2e","condition":"contingent","relevant_dimensions":["pattern","legs"],"bee_group":{"antennae":"X","wings":"X","pattern":"D","legs":"M"},"correct":true,"bonus":1.1800000000000013},{"rt":2628.9000000059605,"stimulus":"<p>You did not answer all comprehension questions correctly.<br>Press <b>continue</b> to review the instructions again.</p>","response":0,"trial_type":"html-button-response","trial_index":6,"time_elapsed":304605,"internal_node_id":"0.0-3.0-3.0","subject_id":"613ab4192b5d4923c17d8b16","study_id":"60edd13110225f80f9f3709b","session_id":"6196c1ee0c2be2dcaa45ca2e","condition":"contingent","relevant_dimensions":["pattern","legs"],"bee_group":{"antennae":"X","wings":"X","pattern":"D","legs":"M"},"bonus":1.1800000000000013},{"view_history":[{"page_index":0,"viewing_time":4217.300000011921},{"page_index":1,"viewing_time":15586.09999999404},{"page_index":2,"viewing_time":10071.40000000596},{"page_index":3,"viewing_time":4388.5999999940395},{"page_index":4,"viewing_time":2836.199999988079},{"page_index":5,"viewing_time":2312.4000000059605},{"page_index":6,"viewing_time":2162.9000000059605},{"page_index":7,"viewing_time":2724.7999999821186},{"page_index":8,"viewing_time":726.5},{"page_index":9,"viewing_time":552.5},{"page_index":10,"viewing_time":738.5},{"page_index":11,"viewing_time":1696.1000000238419},{"page_index":12,"viewing_time":2062.2999999821186},{"page_index":13,"viewing_time":1257},{"page_index":14,"viewing_time":854.0999999940395}],"rt":52187.5,"trial_type":"instructions","trial_index":7,"time_elapsed":356796,"internal_node_id":"0.0-3.0-4.0-0.0","subject_id":"613ab4192b5d4923c17d8b16","study_id":"60edd13110225f80f9f3709b","session_id":"6196c1ee0c2be2dcaa45ca2e","condition":"contingent","relevant_dimensions":["pattern","legs"],"bee_group":{"antennae":"X","wings":"X","pattern":"D","legs":"M"},"bonus":1.1800000000000013},{"rt":16531.600000023842,"response":{"Q0":["Two or six legs","Stripes or spots on body","Single or double wings","Antennae or no antennae"]},"question_order":[0],"trial_type":"survey-multi-select","trial_index":8,"time_elapsed":373346,"internal_node_id":"0.0-3.0-4.0-1.0","subject_id":"613ab4192b5d4923c17d8b16","study_id":"60edd13110225f80f9f3709b","session_id":"6196c1ee0c2be2dcaa45ca2e","condition":"contingent","relevant_dimensions":["pattern","legs"],"bee_group":{"antennae":"X","wings":"X","pattern":"D","legs":"M"},"correct":true,"bonus":1.1800000000000013},{"rt":85259,"response":{"Q1":"No.","Q2":"Based on the four features of the bee.","Q3":"You do not learn if it was friendly or dangerous, and do not alter your bonus."},"question_order":[0,1,2],"trial_type":"survey-multi-choice","trial_index":9,"time_elapsed":458610,"internal_node_id":"0.0-3.0-4.0-2.0","subject_id":"613ab4192b5d4923c17d8b16","study_id":"60edd13110225f80f9f3709b","session_id":"6196c1ee0c2be2dcaa45ca2e","condition":"contingent","relevant_dimensions":["pattern","legs"],"bee_group":{"antennae":"X","wings":"X","pattern":"D","legs":"M"},"correct":true,"bonus":1.1800000000000013},{"rt":3781.5,"stimulus":"<p>Congrats, you got everything right<br>When you're ready, click the button below to continue to the experiment.</p>","response":0,"trial_type":"html-button-response","trial_index":10,"time_elapsed":462395,"internal_node_id":"0.0-3.0-4.0-3.0","subject_id":"613ab4192b5d4923c17d8b16","study_id":"60edd13110225f80f9f3709b","session_id":"6196c1ee0c2be2dcaa45ca2e","condition":"contingent","relevant_dimensions":["pattern","legs"],"bee_group":{"antennae":"X","wings":"X","pattern":"D","legs":"M"},"bonus":1.1800000000000013},{"rt":5595.0999999940395,"stimulus":"bees-with-color/bee-A1SM.svg","response":0,"trial_type":"image-button-response","trial_index":11,"time_elapsed":467997,"internal_node_id":"0.0-4.0-0.0","subject_id":"613ab4192b5d4923c17d8b16","study_id":"60edd13110225f80f9f3709b","session_id":"6196c1ee0c2be2dcaa45ca2e","condition":"contingent","relevant_dimensions":["pattern","legs"],"bee_group":{"antennae":"X","wings":"X","pattern":"D","legs":"M"},"action":"harvest","summary":"good-harvest","bonus":1.1800000000000013},{"rt":12126.899999976158,"stimulus":"\n                    <p><b>Action: <em>harvest</em></b></p>\n                    <p>This is the bee that you just saw.</p>\n                    <img src=\"bees-with-color/bee-A1SM.svg\" width=\"200\">\n                    <p><span class=\"greenText\"><b>Successful harvest!</b></span><br>Your pay has increased by $0.02. Your bonus pay is now $0.56.</p>\n            ","response":0,"trial_type":"html-button-response","trial_index":12,"time_elapsed":480131,"internal_node_id":"0.0-4.0-1.0","subject_id":"613ab4192b5d4923c17d8b16","study_id":"60edd13110225f80f9f3709b","session_id":"6196c1ee0c2be2dcaa45ca2e","condition":"contingent","relevant_dimensions":["pattern","legs"],"bee_group":{"antennae":"X","wings":"X","pattern":"D","legs":"M"},"bonus":1.1800000000000013},{"rt":6932.699999988079,"stimulus":"bees-with-color/bee-A1SF.svg","response":0,"trial_type":"image-button-response","trial_index":13,"time_elapsed":487070,"internal_node_id":"0.0-4.0-0.1","subject_id":"613ab4192b5d4923c17d8b16","study_id":"60edd13110225f80f9f3709b","session_id":"6196c1ee0c2be2dcaa45ca2e","condition":"contingent","relevant_dimensions":["pattern","legs"],"bee_group":{"antennae":"X","wings":"X","pattern":"D","legs":"M"},"action":"harvest","summary":"good-harvest","bonus":1.1800000000000013},{"rt":7434,"stimulus":"\n                    <p><b>Action: <em>harvest</em></b></p>\n                    <p>This is the bee that you just saw.</p>\n                    <img src=\"bees-with-color/bee-A1SF.svg\" width=\"200\">\n                    <p><span class=\"greenText\"><b>Successful harvest!</b></span><br>Your pay has increased by $0.02. Your bonus pay is now $0.58.</p>\n            ","response":0,"trial_type":"html-button-response","trial_index":14,"time_elapsed":494509,"internal_node_id":"0.0-4.0-1.1","subject_id":"613ab4192b5d4923c17d8b16","study_id":"60edd13110225f80f9f3709b","session_id":"6196c1ee0c2be2dcaa45ca2e","condition":"contingent","relevant_dimensions":["pattern","legs"],"bee_group":{"antennae":"X","wings":"X","pattern":"D","legs":"M"},"bonus":1.1800000000000013},{"rt":3373.199999988079,"stimulus":"bees-with-color/bee-B1DF.svg","response":1,"trial_type":"image-button-response","trial_index":15,"time_elapsed":497888,"internal_node_id":"0.0-4.0-0.2","subject_id":"613ab4192b5d4923c17d8b16","study_id":"60edd13110225f80f9f3709b","session_id":"6196c1ee0c2be2dcaa45ca2e","condition":"contingent","relevant_dimensions":["pattern","legs"],"bee_group":{"antennae":"X","wings":"X","pattern":"D","legs":"M"},"action":"avoid","summary":"bad-avoid","bonus":1.1800000000000013},{"rt":5019.200000017881,"stimulus":"\n                    <p><b>Action: <em>avoid</em></b></p>\n                    <p>This is the bee that you just saw.</p>\n                    <img src=\"bees-with-color/bee-B1DF.svg\" width=\"200\">\n                    <p><br>Your bonus pay is unchanged, and remains at $0.58.</p>\n            ","response":0,"trial_type":"html-button-response","trial_index":16,"time_elapsed":502911,"internal_node_id":"0.0-4.0-1.2","subject_id":"613ab4192b5d4923c17d8b16","study_id":"60edd13110225f80f9f3709b","session_id":"6196c1ee0c2be2dcaa45ca2e","condition":"contingent","relevant_dimensions":["pattern","legs"],"bee_group":{"antennae":"X","wings":"X","pattern":"D","legs":"M"},"bonus":1.1800000000000013},{"rt":4187,"stimulus":"bees-with-color/bee-B2DF.svg","response":0,"trial_type":"image-button-response","trial_index":17,"time_elapsed":507105,"internal_node_id":"0.0-4.0-0.3","subject_id":"613ab4192b5d4923c17d8b16","study_id":"60edd13110225f80f9f3709b","session_id":"6196c1ee0c2be2dcaa45ca2e","condition":"contingent","relevant_dimensions":["pattern","legs"],"bee_group":{"antennae":"X","wings":"X","pattern":"D","legs":"M"},"action":"harvest","summary":"good-harvest","bonus":1.1800000000000013},{"rt":11450.199999988079,"stimulus":"\n                    <p><b>Action: <em>harvest</em></b></p>\n                    <p>This is the bee that you just saw.</p>\n                    <img src=\"bees-with-color/bee-B2DF.svg\" width=\"200\">\n                    <p><span class=\"greenText\"><b>Successful harvest!</b></span><br>Your pay has increased by $0.02. Your bonus pay is now $0.60.</p>\n            ","response":0,"trial_type":"html-button-response","trial_index":18,"time_elapsed":518559,"internal_node_id":"0.0-4.0-1.3","subject_id":"613ab4192b5d4923c17d8b16","study_id":"60edd13110225f80f9f3709b","session_id":"6196c1ee0c2be2dcaa45ca2e","condition":"contingent","relevant_dimensions":["pattern","legs"],"bee_group":{"antennae":"X","wings":"X","pattern":"D","legs":"M"},"bonus":1.1800000000000013},{"rt":1370.9000000059605,"stimulus":"bees-with-color/bee-B1DM.svg","response":0,"trial_type":"image-button-response","trial_index":19,"time_elapsed":519936,"internal_node_id":"0.0-4.0-0.4","subject_id":"613ab4192b5d4923c17d8b16","study_id":"60edd13110225f80f9f3709b","session_id":"6196c1ee0c2be2dcaa45ca2e","condition":"contingent","relevant_dimensions":["pattern","legs"],"bee_group":{"antennae":"X","wings":"X","pattern":"D","legs":"M"},"action":"harvest","summary":"bad-harvest","bonus":1.1800000000000013},{"rt":5951.4000000059605,"stimulus":"\n                    <p><b>Action: <em>harvest</em></b></p>\n                    <p>This is the bee that you just saw.</p>\n                    <img src=\"bees-with-color/bee-B1DM.svg\" width=\"200\">\n                    <p><span class=\"redText\">Bad choice, the bee was angry.</span><br><b>You have been stung!</b><br>Your pay has been decreased by $0.10. Your bonus pay is now $0.50.</p>\n            ","response":0,"trial_type":"html-button-response","trial_index":20,"time_elapsed":525892,"internal_node_id":"0.0-4.0-1.4","subject_id":"613ab4192b5d4923c17d8b16","study_id":"60edd13110225f80f9f3709b","session_id":"6196c1ee0c2be2dcaa45ca2e","condition":"contingent","relevant_dimensions":["pattern","legs"],"bee_group":{"antennae":"X","wings":"X","pattern":"D","legs":"M"},"bonus":1.1800000000000013},{"rt":19359.600000023842,"stimulus":"bees-with-color/bee-A2SF.svg","response":1,"trial_type":"image-button-response","trial_index":21,"time_elapsed":545258,"internal_node_id":"0.0-4.0-0.5","subject_id":"613ab4192b5d4923c17d8b16","study_id":"60edd13110225f80f9f3709b","session_id":"6196c1ee0c2be2dcaa45ca2e","condition":"contingent","relevant_dimensions":["pattern","legs"],"bee_group":{"antennae":"X","wings":"X","pattern":"D","legs":"M"},"action":"avoid","summary":"bad-avoid","bonus":1.1800000000000013},{"rt":2764.5999999940395,"stimulus":"\n                    <p><b>Action: <em>avoid</em></b></p>\n                    <p>This is the bee that you just saw.</p>\n                    <img src=\"bees-with-color/bee-A2SF.svg\" width=\"200\">\n                    <p><br>Your bonus pay is unchanged, and remains at $0.50.</p>\n            ","response":0,"trial_type":"html-button-response","trial_index":22,"time_elapsed":548027,"internal_node_id":"0.0-4.0-1.5","subject_id":"613ab4192b5d4923c17d8b16","study_id":"60edd13110225f80f9f3709b","session_id":"6196c1ee0c2be2dcaa45ca2e","condition":"contingent","relevant_dimensions":["pattern","legs"],"bee_group":{"antennae":"X","wings":"X","pattern":"D","legs":"M"},"bonus":1.1800000000000013},{"rt":3697.5999999940395,"stimulus":"bees-with-color/bee-A2DM.svg","response":0,"trial_type":"image-button-response","trial_index":23,"time_elapsed":551730,"internal_node_id":"0.0-4.0-0.6","subject_id":"613ab4192b5d4923c17d8b16","study_id":"60edd13110225f80f9f3709b","session_id":"6196c1ee0c2be2dcaa45ca2e","condition":"contingent","relevant_dimensions":["pattern","legs"],"bee_group":{"antennae":"X","wings":"X","pattern":"D","legs":"M"},"action":"harvest","summary":"bad-harvest","bonus":1.1800000000000013},{"rt":6821.399999976158,"stimulus":"\n                    <p><b>Action: <em>harvest</em></b></p>\n                    <p>This is the bee that you just saw.</p>\n                    <img src=\"bees-with-color/bee-A2DM.svg\" width=\"200\">\n                    <p><span class=\"redText\">Bad choice, the bee was angry.</span><br><b>You have been stung!</b><br>Your pay has been decreased by $0.10. Your bonus pay is now $0.40.</p>\n            ","response":0,"trial_type":"html-button-response","trial_index":24,"time_elapsed":558556,"internal_node_id":"0.0-4.0-1.6","subject_id":"613ab4192b5d4923c17d8b16","study_id":"60edd13110225f80f9f3709b","session_id":"6196c1ee0c2be2dcaa45ca2e","condition":"contingent","relevant_dimensions":["pattern","legs"],"bee_group":{"antennae":"X","wings":"X","pattern":"D","legs":"M"},"bonus":1.1800000000000013},{"rt":4883.700000017881,"stimulus":"bees-with-color/bee-B2SM.svg","response":0,"trial_type":"image-button-response","trial_index":25,"time_elapsed":563445,"internal_node_id":"0.0-4.0-0.7","subject_id":"613ab4192b5d4923c17d8b16","study_id":"60edd13110225f80f9f3709b","session_id":"6196c1ee0c2be2dcaa45ca2e","condition":"contingent","relevant_dimensions":["pattern","legs"],"bee_group":{"antennae":"X","wings":"X","pattern":"D","legs":"M"},"action":"harvest","summary":"good-harvest","bonus":1.1800000000000013},{"rt":4116.4000000059605,"stimulus":"\n                    <p><b>Action: <em>harvest</em></b></p>\n                    <p>This is the bee that you just saw.</p>\n                    <img src=\"bees-with-color/bee-B2SM.svg\" width=\"200\">\n                    <p><span class=\"greenText\"><b>Successful harvest!</b></span><br>Your pay has increased by $0.02. Your bonus pay is now $0.42.</p>\n            ","response":0,"trial_type":"html-button-response","trial_index":26,"time_elapsed":567566,"internal_node_id":"0.0-4.0-1.7","subject_id":"613ab4192b5d4923c17d8b16","study_id":"60edd13110225f80f9f3709b","session_id":"6196c1ee0c2be2dcaa45ca2e","condition":"contingent","relevant_dimensions":["pattern","legs"],"bee_group":{"antennae":"X","wings":"X","pattern":"D","legs":"M"},"bonus":1.1800000000000013},{"rt":9042.600000023842,"stimulus":"bees-with-color/bee-B1SF.svg","response":0,"trial_type":"image-button-response","trial_index":27,"time_elapsed":576618,"internal_node_id":"0.0-4.0-0.8","subject_id":"613ab4192b5d4923c17d8b16","study_id":"60edd13110225f80f9f3709b","session_id":"6196c1ee0c2be2dcaa45ca2e","condition":"contingent","relevant_dimensions":["pattern","legs"],"bee_group":{"antennae":"X","wings":"X","pattern":"D","legs":"M"},"action":"harvest","summary":"good-harvest","bonus":1.1800000000000013},{"rt":5287.0999999940395,"stimulus":"\n                    <p><b>Action: <em>harvest</em></b></p>\n                    <p>This is the bee that you just saw.</p>\n                    <img src=\"bees-with-color/bee-B1SF.svg\" width=\"200\">\n                    <p><span class=\"greenText\"><b>Successful harvest!</b></span><br>Your pay has increased by $0.02. Your bonus pay is now $0.44.</p>\n            ","response":0,"trial_type":"html-button-response","trial_index":28,"time_elapsed":581910,"internal_node_id":"0.0-4.0-1.8","subject_id":"613ab4192b5d4923c17d8b16","study_id":"60edd13110225f80f9f3709b","session_id":"6196c1ee0c2be2dcaa45ca2e","condition":"contingent","relevant_dimensions":["pattern","legs"],"bee_group":{"antennae":"X","wings":"X","pattern":"D","legs":"M"},"bonus":1.1800000000000013},{"rt":11881.299999982119,"stimulus":"bees-with-color/bee-A2SM.svg","response":0,"trial_type":"image-button-response","trial_index":29,"time_elapsed":593798,"internal_node_id":"0.0-4.0-0.9","subject_id":"613ab4192b5d4923c17d8b16","study_id":"60edd13110225f80f9f3709b","session_id":"6196c1ee0c2be2dcaa45ca2e","condition":"contingent","relevant_dimensions":["pattern","legs"],"bee_group":{"antennae":"X","wings":"X","pattern":"D","legs":"M"},"action":"harvest","summary":"good-harvest","bonus":1.1800000000000013},{"rt":6896.9000000059605,"stimulus":"\n                    <p><b>Action: <em>harvest</em></b></p>\n                    <p>This is the bee that you just saw.</p>\n                    <img src=\"bees-with-color/bee-A2SM.svg\" width=\"200\">\n                    <p><span class=\"greenText\"><b>Successful harvest!</b></span><br>Your pay has increased by $0.02. Your bonus pay is now $0.46.</p>\n            ","response":0,"trial_type":"html-button-response","trial_index":30,"time_elapsed":600699,"internal_node_id":"0.0-4.0-1.9","subject_id":"613ab4192b5d4923c17d8b16","study_id":"60edd13110225f80f9f3709b","session_id":"6196c1ee0c2be2dcaa45ca2e","condition":"contingent","relevant_dimensions":["pattern","legs"],"bee_group":{"antennae":"X","wings":"X","pattern":"D","legs":"M"},"bonus":1.1800000000000013},{"rt":13413.90000000596,"stimulus":"bees-with-color/bee-A1DM.svg","response":0,"trial_type":"image-button-response","trial_index":31,"time_elapsed":614118,"internal_node_id":"0.0-4.0-0.10","subject_id":"613ab4192b5d4923c17d8b16","study_id":"60edd13110225f80f9f3709b","session_id":"6196c1ee0c2be2dcaa45ca2e","condition":"contingent","relevant_dimensions":["pattern","legs"],"bee_group":{"antennae":"X","wings":"X","pattern":"D","legs":"M"},"action":"harvest","summary":"bad-harvest","bonus":1.1800000000000013},{"rt":7425.699999988079,"stimulus":"\n                    <p><b>Action: <em>harvest</em></b></p>\n                    <p>This is the bee that you just saw.</p>\n                    <img src=\"bees-with-color/bee-A1DM.svg\" width=\"200\">\n                    <p><span class=\"redText\">Bad choice, the bee was angry.</span><br><b>You have been stung!</b><br>Your pay has been decreased by $0.10. Your bonus pay is now $0.36.</p>\n            ","response":0,"trial_type":"html-button-response","trial_index":32,"time_elapsed":621547,"internal_node_id":"0.0-4.0-1.10","subject_id":"613ab4192b5d4923c17d8b16","study_id":"60edd13110225f80f9f3709b","session_id":"6196c1ee0c2be2dcaa45ca2e","condition":"contingent","relevant_dimensions":["pattern","legs"],"bee_group":{"antennae":"X","wings":"X","pattern":"D","legs":"M"},"bonus":1.1800000000000013},{"rt":18788.69999998808,"stimulus":"bees-with-color/bee-B2DM.svg","response":0,"trial_type":"image-button-response","trial_index":33,"time_elapsed":640341,"internal_node_id":"0.0-4.0-0.11","subject_id":"613ab4192b5d4923c17d8b16","study_id":"60edd13110225f80f9f3709b","session_id":"6196c1ee0c2be2dcaa45ca2e","condition":"contingent","relevant_dimensions":["pattern","legs"],"bee_group":{"antennae":"X","wings":"X","pattern":"D","legs":"M"},"action":"harvest","summary":"bad-harvest","bonus":1.1800000000000013},{"rt":6674.100000023842,"stimulus":"\n                    <p><b>Action: <em>harvest</em></b></p>\n                    <p>This is the bee that you just saw.</p>\n                    <img src=\"bees-with-color/bee-B2DM.svg\" width=\"200\">\n                    <p><span class=\"redText\">Bad choice, the bee was angry.</span><br><b>You have been stung!</b><br>Your pay has been decreased by $0.10. Your bonus pay is now $0.26.</p>\n            ","response":0,"trial_type":"html-button-response","trial_index":34,"time_elapsed":647019,"internal_node_id":"0.0-4.0-1.11","subject_id":"613ab4192b5d4923c17d8b16","study_id":"60edd13110225f80f9f3709b","session_id":"6196c1ee0c2be2dcaa45ca2e","condition":"contingent","relevant_dimensions":["pattern","legs"],"bee_group":{"antennae":"X","wings":"X","pattern":"D","legs":"M"},"bonus":1.1800000000000013},{"rt":14013,"stimulus":"bees-with-color/bee-B1SM.svg","response":0,"trial_type":"image-button-response","trial_index":35,"time_elapsed":661038,"internal_node_id":"0.0-4.0-0.12","subject_id":"613ab4192b5d4923c17d8b16","study_id":"60edd13110225f80f9f3709b","session_id":"6196c1ee0c2be2dcaa45ca2e","condition":"contingent","relevant_dimensions":["pattern","legs"],"bee_group":{"antennae":"X","wings":"X","pattern":"D","legs":"M"},"action":"harvest","summary":"good-harvest","bonus":1.1800000000000013},{"rt":3054.2000000178814,"stimulus":"\n                    <p><b>Action: <em>harvest</em></b></p>\n                    <p>This is the bee that you just saw.</p>\n                    <img src=\"bees-with-color/bee-B1SM.svg\" width=\"200\">\n                    <p><span class=\"greenText\"><b>Successful harvest!</b></span><br>Your pay has increased by $0.02. Your bonus pay is now $0.28.</p>\n            ","response":0,"trial_type":"html-button-response","trial_index":36,"time_elapsed":664095,"internal_node_id":"0.0-4.0-1.12","subject_id":"613ab4192b5d4923c17d8b16","study_id":"60edd13110225f80f9f3709b","session_id":"6196c1ee0c2be2dcaa45ca2e","condition":"contingent","relevant_dimensions":["pattern","legs"],"bee_group":{"antennae":"X","wings":"X","pattern":"D","legs":"M"},"bonus":1.1800000000000013},{"rt":26224,"stimulus":"bees-with-color/bee-A1DF.svg","response":0,"trial_type":"image-button-response","trial_index":37,"time_elapsed":690323,"internal_node_id":"0.0-4.0-0.13","subject_id":"613ab4192b5d4923c17d8b16","study_id":"60edd13110225f80f9f3709b","session_id":"6196c1ee0c2be2dcaa45ca2e","condition":"contingent","relevant_dimensions":["pattern","legs"],"bee_group":{"antennae":"X","wings":"X","pattern":"D","legs":"M"},"action":"harvest","summary":"good-harvest","bonus":1.1800000000000013},{"rt":7351.699999988079,"stimulus":"\n                    <p><b>Action: <em>harvest</em></b></p>\n                    <p>This is the bee that you just saw.</p>\n                    <img src=\"bees-with-color/bee-A1DF.svg\" width=\"200\">\n                    <p><span class=\"greenText\"><b>Successful harvest!</b></span><br>Your pay has increased by $0.02. Your bonus pay is now $0.30.</p>\n            ","response":0,"trial_type":"html-button-response","trial_index":38,"time_elapsed":697679,"internal_node_id":"0.0-4.0-1.13","subject_id":"613ab4192b5d4923c17d8b16","study_id":"60edd13110225f80f9f3709b","session_id":"6196c1ee0c2be2dcaa45ca2e","condition":"contingent","relevant_dimensions":["pattern","legs"],"bee_group":{"antennae":"X","wings":"X","pattern":"D","legs":"M"},"bonus":1.1800000000000013},{"rt":28945.59999999404,"stimulus":"bees-with-color/bee-B2SF.svg","response":0,"trial_type":"image-button-response","trial_index":39,"time_elapsed":726629,"internal_node_id":"0.0-4.0-0.14","subject_id":"613ab4192b5d4923c17d8b16","study_id":"60edd13110225f80f9f3709b","session_id":"6196c1ee0c2be2dcaa45ca2e","condition":"contingent","relevant_dimensions":["pattern","legs"],"bee_group":{"antennae":"X","wings":"X","pattern":"D","legs":"M"},"action":"harvest","summary":"good-harvest","bonus":1.1800000000000013},{"rt":5932.699999988079,"stimulus":"\n                    <p><b>Action: <em>harvest</em></b></p>\n                    <p>This is the bee that you just saw.</p>\n                    <img src=\"bees-with-color/bee-B2SF.svg\" width=\"200\">\n                    <p><span class=\"greenText\"><b>Successful harvest!</b></span><br>Your pay has increased by $0.02. Your bonus pay is now $0.32.</p>\n            ","response":0,"trial_type":"html-button-response","trial_index":40,"time_elapsed":732565,"internal_node_id":"0.0-4.0-1.14","subject_id":"613ab4192b5d4923c17d8b16","study_id":"60edd13110225f80f9f3709b","session_id":"6196c1ee0c2be2dcaa45ca2e","condition":"contingent","relevant_dimensions":["pattern","legs"],"bee_group":{"antennae":"X","wings":"X","pattern":"D","legs":"M"},"bonus":1.1800000000000013},{"rt":13601,"stimulus":"bees-with-color/bee-A2DF.svg","response":0,"trial_type":"image-button-response","trial_index":41,"time_elapsed":746170,"internal_node_id":"0.0-4.0-0.15","subject_id":"613ab4192b5d4923c17d8b16","study_id":"60edd13110225f80f9f3709b","session_id":"6196c1ee0c2be2dcaa45ca2e","condition":"contingent","relevant_dimensions":["pattern","legs"],"bee_group":{"antennae":"X","wings":"X","pattern":"D","legs":"M"},"action":"harvest","summary":"good-harvest","bonus":1.1800000000000013},{"rt":5457.5999999940395,"stimulus":"\n                    <p><b>Action: <em>harvest</em></b></p>\n                    <p>This is the bee that you just saw.</p>\n                    <img src=\"bees-with-color/bee-A2DF.svg\" width=\"200\">\n                    <p><span class=\"greenText\"><b>Successful harvest!</b></span><br>Your pay has increased by $0.02. Your bonus pay is now $0.34.</p>\n            ","response":0,"trial_type":"html-button-response","trial_index":42,"time_elapsed":751632,"internal_node_id":"0.0-4.0-1.15","subject_id":"613ab4192b5d4923c17d8b16","study_id":"60edd13110225f80f9f3709b","session_id":"6196c1ee0c2be2dcaa45ca2e","condition":"contingent","relevant_dimensions":["pattern","legs"],"bee_group":{"antennae":"X","wings":"X","pattern":"D","legs":"M"},"bonus":1.1800000000000013},{"rt":21296.30000001192,"stimulus":"bees-with-color/bee-B1SM.svg","response":0,"trial_type":"image-button-response","trial_index":43,"time_elapsed":772934,"internal_node_id":"0.0-4.0-0.16","subject_id":"613ab4192b5d4923c17d8b16","study_id":"60edd13110225f80f9f3709b","session_id":"6196c1ee0c2be2dcaa45ca2e","condition":"contingent","relevant_dimensions":["pattern","legs"],"bee_group":{"antennae":"X","wings":"X","pattern":"D","legs":"M"},"action":"harvest","summary":"good-harvest","bonus":1.1800000000000013},{"rt":5813.800000011921,"stimulus":"\n                    <p><b>Action: <em>harvest</em></b></p>\n                    <p>This is the bee that you just saw.</p>\n                    <img src=\"bees-with-color/bee-B1SM.svg\" width=\"200\">\n                    <p><span class=\"greenText\"><b>Successful harvest!</b></span><br>Your pay has increased by $0.02. Your bonus pay is now $0.36.</p>\n            ","response":0,"trial_type":"html-button-response","trial_index":44,"time_elapsed":778751,"internal_node_id":"0.0-4.0-1.16","subject_id":"613ab4192b5d4923c17d8b16","study_id":"60edd13110225f80f9f3709b","session_id":"6196c1ee0c2be2dcaa45ca2e","condition":"contingent","relevant_dimensions":["pattern","legs"],"bee_group":{"antennae":"X","wings":"X","pattern":"D","legs":"M"},"bonus":1.1800000000000013},{"rt":11013.799999982119,"stimulus":"bees-with-color/bee-B1DM.svg","response":1,"trial_type":"image-button-response","trial_index":45,"time_elapsed":789770,"internal_node_id":"0.0-4.0-0.17","subject_id":"613ab4192b5d4923c17d8b16","study_id":"60edd13110225f80f9f3709b","session_id":"6196c1ee0c2be2dcaa45ca2e","condition":"contingent","relevant_dimensions":["pattern","legs"],"bee_group":{"antennae":"X","wings":"X","pattern":"D","legs":"M"},"action":"avoid","summary":"good-avoid","bonus":1.1800000000000013},{"rt":1354.8999999761581,"stimulus":"\n                    <p><b>Action: <em>avoid</em></b></p>\n                    <p>This is the bee that you just saw.</p>\n                    <img src=\"bees-with-color/bee-B1DM.svg\" width=\"200\">\n                    <p><br>Your bonus pay is unchanged, and remains at $0.36.</p>\n            ","response":0,"trial_type":"html-button-response","trial_index":46,"time_elapsed":791128,"internal_node_id":"0.0-4.0-1.17","subject_id":"613ab4192b5d4923c17d8b16","study_id":"60edd13110225f80f9f3709b","session_id":"6196c1ee0c2be2dcaa45ca2e","condition":"contingent","relevant_dimensions":["pattern","legs"],"bee_group":{"antennae":"X","wings":"X","pattern":"D","legs":"M"},"bonus":1.1800000000000013},{"rt":9090.699999988079,"stimulus":"bees-with-color/bee-B2DM.svg","response":1,"trial_type":"image-button-response","trial_index":47,"time_elapsed":800225,"internal_node_id":"0.0-4.0-0.18","subject_id":"613ab4192b5d4923c17d8b16","study_id":"60edd13110225f80f9f3709b","session_id":"6196c1ee0c2be2dcaa45ca2e","condition":"contingent","relevant_dimensions":["pattern","legs"],"bee_group":{"antennae":"X","wings":"X","pattern":"D","legs":"M"},"action":"avoid","summary":"good-avoid","bonus":1.1800000000000013},{"rt":1136.199999988079,"stimulus":"\n                    <p><b>Action: <em>avoid</em></b></p>\n                    <p>This is the bee that you just saw.</p>\n                    <img src=\"bees-with-color/bee-B2DM.svg\" width=\"200\">\n                    <p><br>Your bonus pay is unchanged, and remains at $0.36.</p>\n            ","response":0,"trial_type":"html-button-response","trial_index":48,"time_elapsed":801365,"internal_node_id":"0.0-4.0-1.18","subject_id":"613ab4192b5d4923c17d8b16","study_id":"60edd13110225f80f9f3709b","session_id":"6196c1ee0c2be2dcaa45ca2e","condition":"contingent","relevant_dimensions":["pattern","legs"],"bee_group":{"antennae":"X","wings":"X","pattern":"D","legs":"M"},"bonus":1.1800000000000013},{"rt":11267.90000000596,"stimulus":"bees-with-color/bee-A1SF.svg","response":0,"trial_type":"image-button-response","trial_index":49,"time_elapsed":812638,"internal_node_id":"0.0-4.0-0.19","subject_id":"613ab4192b5d4923c17d8b16","study_id":"60edd13110225f80f9f3709b","session_id":"6196c1ee0c2be2dcaa45ca2e","condition":"contingent","relevant_dimensions":["pattern","legs"],"bee_group":{"antennae":"X","wings":"X","pattern":"D","legs":"M"},"action":"harvest","summary":"good-harvest","bonus":1.1800000000000013},{"rt":1367.800000011921,"stimulus":"\n                    <p><b>Action: <em>harvest</em></b></p>\n                    <p>This is the bee that you just saw.</p>\n                    <img src=\"bees-with-color/bee-A1SF.svg\" width=\"200\">\n                    <p><span class=\"greenText\"><b>Successful harvest!</b></span><br>Your pay has increased by $0.02. Your bonus pay is now $0.38.</p>\n            ","response":0,"trial_type":"html-button-response","trial_index":50,"time_elapsed":814011,"internal_node_id":"0.0-4.0-1.19","subject_id":"613ab4192b5d4923c17d8b16","study_id":"60edd13110225f80f9f3709b","session_id":"6196c1ee0c2be2dcaa45ca2e","condition":"contingent","relevant_dimensions":["pattern","legs"],"bee_group":{"antennae":"X","wings":"X","pattern":"D","legs":"M"},"bonus":1.1800000000000013},{"rt":5159.5999999940395,"stimulus":"bees-with-color/bee-A1SM.svg","response":0,"trial_type":"image-button-response","trial_index":51,"time_elapsed":819175,"internal_node_id":"0.0-4.0-0.20","subject_id":"613ab4192b5d4923c17d8b16","study_id":"60edd13110225f80f9f3709b","session_id":"6196c1ee0c2be2dcaa45ca2e","condition":"contingent","relevant_dimensions":["pattern","legs"],"bee_group":{"antennae":"X","wings":"X","pattern":"D","legs":"M"},"action":"harvest","summary":"good-harvest","bonus":1.1800000000000013},{"rt":1985.800000011921,"stimulus":"\n                    <p><b>Action: <em>harvest</em></b></p>\n                    <p>This is the bee that you just saw.</p>\n                    <img src=\"bees-with-color/bee-A1SM.svg\" width=\"200\">\n                    <p><span class=\"greenText\"><b>Successful harvest!</b></span><br>Your pay has increased by $0.02. Your bonus pay is now $0.40.</p>\n            ","response":0,"trial_type":"html-button-response","trial_index":52,"time_elapsed":821164,"internal_node_id":"0.0-4.0-1.20","subject_id":"613ab4192b5d4923c17d8b16","study_id":"60edd13110225f80f9f3709b","session_id":"6196c1ee0c2be2dcaa45ca2e","condition":"contingent","relevant_dimensions":["pattern","legs"],"bee_group":{"antennae":"X","wings":"X","pattern":"D","legs":"M"},"bonus":1.1800000000000013},{"rt":12591.699999988079,"stimulus":"bees-with-color/bee-A2DF.svg","response":0,"trial_type":"image-button-response","trial_index":53,"time_elapsed":833761,"internal_node_id":"0.0-4.0-0.21","subject_id":"613ab4192b5d4923c17d8b16","study_id":"60edd13110225f80f9f3709b","session_id":"6196c1ee0c2be2dcaa45ca2e","condition":"contingent","relevant_dimensions":["pattern","legs"],"bee_group":{"antennae":"X","wings":"X","pattern":"D","legs":"M"},"action":"harvest","summary":"good-harvest","bonus":1.1800000000000013},{"rt":1551.800000011921,"stimulus":"\n                    <p><b>Action: <em>harvest</em></b></p>\n                    <p>This is the bee that you just saw.</p>\n                    <img src=\"bees-with-color/bee-A2DF.svg\" width=\"200\">\n                    <p><span class=\"greenText\"><b>Successful harvest!</b></span><br>Your pay has increased by $0.02. Your bonus pay is now $0.42.</p>\n            ","response":0,"trial_type":"html-button-response","trial_index":54,"time_elapsed":835316,"internal_node_id":"0.0-4.0-1.21","subject_id":"613ab4192b5d4923c17d8b16","study_id":"60edd13110225f80f9f3709b","session_id":"6196c1ee0c2be2dcaa45ca2e","condition":"contingent","relevant_dimensions":["pattern","legs"],"bee_group":{"antennae":"X","wings":"X","pattern":"D","legs":"M"},"bonus":1.1800000000000013},{"rt":15972.399999976158,"stimulus":"bees-with-color/bee-A2SM.svg","response":0,"trial_type":"image-button-response","trial_index":55,"time_elapsed":851295,"internal_node_id":"0.0-4.0-0.22","subject_id":"613ab4192b5d4923c17d8b16","study_id":"60edd13110225f80f9f3709b","session_id":"6196c1ee0c2be2dcaa45ca2e","condition":"contingent","relevant_dimensions":["pattern","legs"],"bee_group":{"antennae":"X","wings":"X","pattern":"D","legs":"M"},"action":"harvest","summary":"good-harvest","bonus":1.1800000000000013},{"rt":1413,"stimulus":"\n                    <p><b>Action: <em>harvest</em></b></p>\n                    <p>This is the bee that you just saw.</p>\n                    <img src=\"bees-with-color/bee-A2SM.svg\" width=\"200\">\n                    <p><span class=\"greenText\"><b>Successful harvest!</b></span><br>Your pay has increased by $0.02. Your bonus pay is now $0.44.</p>\n            ","response":0,"trial_type":"html-button-response","trial_index":56,"time_elapsed":852715,"internal_node_id":"0.0-4.0-1.22","subject_id":"613ab4192b5d4923c17d8b16","study_id":"60edd13110225f80f9f3709b","session_id":"6196c1ee0c2be2dcaa45ca2e","condition":"contingent","relevant_dimensions":["pattern","legs"],"bee_group":{"antennae":"X","wings":"X","pattern":"D","legs":"M"},"bonus":1.1800000000000013},{"rt":15268.300000011921,"stimulus":"bees-with-color/bee-B2SF.svg","response":0,"trial_type":"image-button-response","trial_index":57,"time_elapsed":867988,"internal_node_id":"0.0-4.0-0.23","subject_id":"613ab4192b5d4923c17d8b16","study_id":"60edd13110225f80f9f3709b","session_id":"6196c1ee0c2be2dcaa45ca2e","condition":"contingent","relevant_dimensions":["pattern","legs"],"bee_group":{"antennae":"X","wings":"X","pattern":"D","legs":"M"},"action":"harvest","summary":"good-harvest","bonus":1.1800000000000013},{"rt":961,"stimulus":"\n                    <p><b>Action: <em>harvest</em></b></p>\n                    <p>This is the bee that you just saw.</p>\n                    <img src=\"bees-with-color/bee-B2SF.svg\" width=\"200\">\n                    <p><span class=\"greenText\"><b>Successful harvest!</b></span><br>Your pay has increased by $0.02. Your bonus pay is now $0.46.</p>\n            ","response":0,"trial_type":"html-button-response","trial_index":58,"time_elapsed":868954,"internal_node_id":"0.0-4.0-1.23","subject_id":"613ab4192b5d4923c17d8b16","study_id":"60edd13110225f80f9f3709b","session_id":"6196c1ee0c2be2dcaa45ca2e","condition":"contingent","relevant_dimensions":["pattern","legs"],"bee_group":{"antennae":"X","wings":"X","pattern":"D","legs":"M"},"bonus":1.1800000000000013},{"rt":39062.69999998808,"stimulus":"bees-with-color/bee-A2SF.svg","response":0,"trial_type":"image-button-response","trial_index":59,"time_elapsed":908023,"internal_node_id":"0.0-4.0-0.24","subject_id":"613ab4192b5d4923c17d8b16","study_id":"60edd13110225f80f9f3709b","session_id":"6196c1ee0c2be2dcaa45ca2e","condition":"contingent","relevant_dimensions":["pattern","legs"],"bee_group":{"antennae":"X","wings":"X","pattern":"D","legs":"M"},"action":"harvest","summary":"good-harvest","bonus":1.1800000000000013},{"rt":5840.5,"stimulus":"\n                    <p><b>Action: <em>harvest</em></b></p>\n                    <p>This is the bee that you just saw.</p>\n                    <img src=\"bees-with-color/bee-A2SF.svg\" width=\"200\">\n                    <p><span class=\"greenText\"><b>Successful harvest!</b></span><br>Your pay has increased by $0.02. Your bonus pay is now $0.48.</p>\n            ","response":0,"trial_type":"html-button-response","trial_index":60,"time_elapsed":913868,"internal_node_id":"0.0-4.0-1.24","subject_id":"613ab4192b5d4923c17d8b16","study_id":"60edd13110225f80f9f3709b","session_id":"6196c1ee0c2be2dcaa45ca2e","condition":"contingent","relevant_dimensions":["pattern","legs"],"bee_group":{"antennae":"X","wings":"X","pattern":"D","legs":"M"},"bonus":1.1800000000000013},{"rt":12034.90000000596,"stimulus":"bees-with-color/bee-B1SF.svg","response":0,"trial_type":"image-button-response","trial_index":61,"time_elapsed":925910,"internal_node_id":"0.0-4.0-0.25","subject_id":"613ab4192b5d4923c17d8b16","study_id":"60edd13110225f80f9f3709b","session_id":"6196c1ee0c2be2dcaa45ca2e","condition":"contingent","relevant_dimensions":["pattern","legs"],"bee_group":{"antennae":"X","wings":"X","pattern":"D","legs":"M"},"action":"harvest","summary":"good-harvest","bonus":1.1800000000000013},{"rt":1401.199999988079,"stimulus":"\n                    <p><b>Action: <em>harvest</em></b></p>\n                    <p>This is the bee that you just saw.</p>\n                    <img src=\"bees-with-color/bee-B1SF.svg\" width=\"200\">\n                    <p><span class=\"greenText\"><b>Successful harvest!</b></span><br>Your pay has increased by $0.02. Your bonus pay is now $0.50.</p>\n            ","response":0,"trial_type":"html-button-response","trial_index":62,"time_elapsed":927315,"internal_node_id":"0.0-4.0-1.25","subject_id":"613ab4192b5d4923c17d8b16","study_id":"60edd13110225f80f9f3709b","session_id":"6196c1ee0c2be2dcaa45ca2e","condition":"contingent","relevant_dimensions":["pattern","legs"],"bee_group":{"antennae":"X","wings":"X","pattern":"D","legs":"M"},"bonus":1.1800000000000013},{"rt":15673.699999988079,"stimulus":"bees-with-color/bee-B1DF.svg","response":0,"trial_type":"image-button-response","trial_index":63,"time_elapsed":942996,"internal_node_id":"0.0-4.0-0.26","subject_id":"613ab4192b5d4923c17d8b16","study_id":"60edd13110225f80f9f3709b","session_id":"6196c1ee0c2be2dcaa45ca2e","condition":"contingent","relevant_dimensions":["pattern","legs"],"bee_group":{"antennae":"X","wings":"X","pattern":"D","legs":"M"},"action":"harvest","summary":"good-harvest","bonus":1.1800000000000013},{"rt":8286.300000011921,"stimulus":"\n                    <p><b>Action: <em>harvest</em></b></p>\n                    <p>This is the bee that you just saw.</p>\n                    <img src=\"bees-with-color/bee-B1DF.svg\" width=\"200\">\n                    <p><span class=\"greenText\"><b>Successful harvest!</b></span><br>Your pay has increased by $0.02. Your bonus pay is now $0.52.</p>\n            ","response":0,"trial_type":"html-button-response","trial_index":64,"time_elapsed":951288,"internal_node_id":"0.0-4.0-1.26","subject_id":"613ab4192b5d4923c17d8b16","study_id":"60edd13110225f80f9f3709b","session_id":"6196c1ee0c2be2dcaa45ca2e","condition":"contingent","relevant_dimensions":["pattern","legs"],"bee_group":{"antennae":"X","wings":"X","pattern":"D","legs":"M"},"bonus":1.1800000000000013},{"rt":15313.200000017881,"stimulus":"bees-with-color/bee-A1DF.svg","response":0,"trial_type":"image-button-response","trial_index":65,"time_elapsed":966604,"internal_node_id":"0.0-4.0-0.27","subject_id":"613ab4192b5d4923c17d8b16","study_id":"60edd13110225f80f9f3709b","session_id":"6196c1ee0c2be2dcaa45ca2e","condition":"contingent","relevant_dimensions":["pattern","legs"],"bee_group":{"antennae":"X","wings":"X","pattern":"D","legs":"M"},"action":"harvest","summary":"good-harvest","bonus":1.1800000000000013},{"rt":967.0999999940395,"stimulus":"\n                    <p><b>Action: <em>harvest</em></b></p>\n                    <p>This is the bee that you just saw.</p>\n                    <img src=\"bees-with-color/bee-A1DF.svg\" width=\"200\">\n                    <p><span class=\"greenText\"><b>Successful harvest!</b></span><br>Your pay has increased by $0.02. Your bonus pay is now $0.54.</p>\n            ","response":0,"trial_type":"html-button-response","trial_index":66,"time_elapsed":967577,"internal_node_id":"0.0-4.0-1.27","subject_id":"613ab4192b5d4923c17d8b16","study_id":"60edd13110225f80f9f3709b","session_id":"6196c1ee0c2be2dcaa45ca2e","condition":"contingent","relevant_dimensions":["pattern","legs"],"bee_group":{"antennae":"X","wings":"X","pattern":"D","legs":"M"},"bonus":1.1800000000000013},{"rt":9962.90000000596,"stimulus":"bees-with-color/bee-B2SM.svg","response":0,"trial_type":"image-button-response","trial_index":67,"time_elapsed":977544,"internal_node_id":"0.0-4.0-0.28","subject_id":"613ab4192b5d4923c17d8b16","study_id":"60edd13110225f80f9f3709b","session_id":"6196c1ee0c2be2dcaa45ca2e","condition":"contingent","relevant_dimensions":["pattern","legs"],"bee_group":{"antennae":"X","wings":"X","pattern":"D","legs":"M"},"action":"harvest","summary":"good-harvest","bonus":1.1800000000000013},{"rt":1881.7000000178814,"stimulus":"\n                    <p><b>Action: <em>harvest</em></b></p>\n                    <p>This is the bee that you just saw.</p>\n                    <img src=\"bees-with-color/bee-B2SM.svg\" width=\"200\">\n                    <p><span class=\"greenText\"><b>Successful harvest!</b></span><br>Your pay has increased by $0.02. Your bonus pay is now $0.56.</p>\n            ","response":0,"trial_type":"html-button-response","trial_index":68,"time_elapsed":979429,"internal_node_id":"0.0-4.0-1.28","subject_id":"613ab4192b5d4923c17d8b16","study_id":"60edd13110225f80f9f3709b","session_id":"6196c1ee0c2be2dcaa45ca2e","condition":"contingent","relevant_dimensions":["pattern","legs"],"bee_group":{"antennae":"X","wings":"X","pattern":"D","legs":"M"},"bonus":1.1800000000000013},{"rt":11466,"stimulus":"bees-with-color/bee-A1DM.svg","response":1,"trial_type":"image-button-response","trial_index":69,"time_elapsed":990900,"internal_node_id":"0.0-4.0-0.29","subject_id":"613ab4192b5d4923c17d8b16","study_id":"60edd13110225f80f9f3709b","session_id":"6196c1ee0c2be2dcaa45ca2e","condition":"contingent","relevant_dimensions":["pattern","legs"],"bee_group":{"antennae":"X","wings":"X","pattern":"D","legs":"M"},"action":"avoid","summary":"good-avoid","bonus":1.1800000000000013},{"rt":1524.800000011921,"stimulus":"\n                    <p><b>Action: <em>avoid</em></b></p>\n                    <p>This is the bee that you just saw.</p>\n                    <img src=\"bees-with-color/bee-A1DM.svg\" width=\"200\">\n                    <p><br>Your bonus pay is unchanged, and remains at $0.56.</p>\n            ","response":0,"trial_type":"html-button-response","trial_index":70,"time_elapsed":992430,"internal_node_id":"0.0-4.0-1.29","subject_id":"613ab4192b5d4923c17d8b16","study_id":"60edd13110225f80f9f3709b","session_id":"6196c1ee0c2be2dcaa45ca2e","condition":"contingent","relevant_dimensions":["pattern","legs"],"bee_group":{"antennae":"X","wings":"X","pattern":"D","legs":"M"},"bonus":1.1800000000000013},{"rt":5542.799999982119,"stimulus":"bees-with-color/bee-A2DM.svg","response":1,"trial_type":"image-button-response","trial_index":71,"time_elapsed":997977,"internal_node_id":"0.0-4.0-0.30","subject_id":"613ab4192b5d4923c17d8b16","study_id":"60edd13110225f80f9f3709b","session_id":"6196c1ee0c2be2dcaa45ca2e","condition":"contingent","relevant_dimensions":["pattern","legs"],"bee_group":{"antennae":"X","wings":"X","pattern":"D","legs":"M"},"action":"avoid","summary":"good-avoid","bonus":1.1800000000000013},{"rt":2679.2000000178814,"stimulus":"\n                    <p><b>Action: <em>avoid</em></b></p>\n                    <p>This is the bee that you just saw.</p>\n                    <img src=\"bees-with-color/bee-A2DM.svg\" width=\"200\">\n                    <p><br>Your bonus pay is unchanged, and remains at $0.56.</p>\n            ","response":0,"trial_type":"html-button-response","trial_index":72,"time_elapsed":1000659,"internal_node_id":"0.0-4.0-1.30","subject_id":"613ab4192b5d4923c17d8b16","study_id":"60edd13110225f80f9f3709b","session_id":"6196c1ee0c2be2dcaa45ca2e","condition":"contingent","relevant_dimensions":["pattern","legs"],"bee_group":{"antennae":"X","wings":"X","pattern":"D","legs":"M"},"bonus":1.1800000000000013},{"rt":6479.0999999940395,"stimulus":"bees-with-color/bee-B2DF.svg","response":0,"trial_type":"image-button-response","trial_index":73,"time_elapsed":1007143,"internal_node_id":"0.0-4.0-0.31","subject_id":"613ab4192b5d4923c17d8b16","study_id":"60edd13110225f80f9f3709b","session_id":"6196c1ee0c2be2dcaa45ca2e","condition":"contingent","relevant_dimensions":["pattern","legs"],"bee_group":{"antennae":"X","wings":"X","pattern":"D","legs":"M"},"action":"harvest","summary":"good-harvest","bonus":1.1800000000000013},{"rt":1162.699999988079,"stimulus":"\n                    <p><b>Action: <em>harvest</em></b></p>\n                    <p>This is the bee that you just saw.</p>\n                    <img src=\"bees-with-color/bee-B2DF.svg\" width=\"200\">\n                    <p><span class=\"greenText\"><b>Successful harvest!</b></span><br>Your pay has increased by $0.02. Your bonus pay is now $0.58.</p>\n            ","response":0,"trial_type":"html-button-response","trial_index":74,"time_elapsed":1008309,"internal_node_id":"0.0-4.0-1.31","subject_id":"613ab4192b5d4923c17d8b16","study_id":"60edd13110225f80f9f3709b","session_id":"6196c1ee0c2be2dcaa45ca2e","condition":"contingent","relevant_dimensions":["pattern","legs"],"bee_group":{"antennae":"X","wings":"X","pattern":"D","legs":"M"},"bonus":1.1800000000000013},{"rt":4294.199999988079,"stimulus":"bees-with-color/bee-A1SM.svg","response":0,"trial_type":"image-button-response","trial_index":75,"time_elapsed":1012607,"internal_node_id":"0.0-4.0-0.32","subject_id":"613ab4192b5d4923c17d8b16","study_id":"60edd13110225f80f9f3709b","session_id":"6196c1ee0c2be2dcaa45ca2e","condition":"contingent","relevant_dimensions":["pattern","legs"],"bee_group":{"antennae":"X","wings":"X","pattern":"D","legs":"M"},"action":"harvest","summary":"good-harvest","bonus":1.1800000000000013},{"rt":1862.4000000059605,"stimulus":"\n                    <p><b>Action: <em>harvest</em></b></p>\n                    <p>This is the bee that you just saw.</p>\n                    <img src=\"bees-with-color/bee-A1SM.svg\" width=\"200\">\n                    <p><span class=\"greenText\"><b>Successful harvest!</b></span><br>Your pay has increased by $0.02. Your bonus pay is now $0.60.</p>\n            ","response":0,"trial_type":"html-button-response","trial_index":76,"time_elapsed":1014473,"internal_node_id":"0.0-4.0-1.32","subject_id":"613ab4192b5d4923c17d8b16","study_id":"60edd13110225f80f9f3709b","session_id":"6196c1ee0c2be2dcaa45ca2e","condition":"contingent","relevant_dimensions":["pattern","legs"],"bee_group":{"antennae":"X","wings":"X","pattern":"D","legs":"M"},"bonus":1.1800000000000013},{"rt":13540.5,"stimulus":"bees-with-color/bee-B1DF.svg","response":0,"trial_type":"image-button-response","trial_index":77,"time_elapsed":1028020,"internal_node_id":"0.0-4.0-0.33","subject_id":"613ab4192b5d4923c17d8b16","study_id":"60edd13110225f80f9f3709b","session_id":"6196c1ee0c2be2dcaa45ca2e","condition":"contingent","relevant_dimensions":["pattern","legs"],"bee_group":{"antennae":"X","wings":"X","pattern":"D","legs":"M"},"action":"harvest","summary":"good-harvest","bonus":1.1800000000000013},{"rt":1508.7000000178814,"stimulus":"\n                    <p><b>Action: <em>harvest</em></b></p>\n                    <p>This is the bee that you just saw.</p>\n                    <img src=\"bees-with-color/bee-B1DF.svg\" width=\"200\">\n                    <p><span class=\"greenText\"><b>Successful harvest!</b></span><br>Your pay has increased by $0.02. Your bonus pay is now $0.62.</p>\n            ","response":0,"trial_type":"html-button-response","trial_index":78,"time_elapsed":1029532,"internal_node_id":"0.0-4.0-1.33","subject_id":"613ab4192b5d4923c17d8b16","study_id":"60edd13110225f80f9f3709b","session_id":"6196c1ee0c2be2dcaa45ca2e","condition":"contingent","relevant_dimensions":["pattern","legs"],"bee_group":{"antennae":"X","wings":"X","pattern":"D","legs":"M"},"bonus":1.1800000000000013},{"rt":14044,"stimulus":"bees-with-color/bee-B2SF.svg","response":0,"trial_type":"image-button-response","trial_index":79,"time_elapsed":1043581,"internal_node_id":"0.0-4.0-0.34","subject_id":"613ab4192b5d4923c17d8b16","study_id":"60edd13110225f80f9f3709b","session_id":"6196c1ee0c2be2dcaa45ca2e","condition":"contingent","relevant_dimensions":["pattern","legs"],"bee_group":{"antennae":"X","wings":"X","pattern":"D","legs":"M"},"action":"harvest","summary":"good-harvest","bonus":1.1800000000000013},{"rt":5694.4000000059605,"stimulus":"\n                    <p><b>Action: <em>harvest</em></b></p>\n                    <p>This is the bee that you just saw.</p>\n                    <img src=\"bees-with-color/bee-B2SF.svg\" width=\"200\">\n                    <p><span class=\"greenText\"><b>Successful harvest!</b></span><br>Your pay has increased by $0.02. Your bonus pay is now $0.64.</p>\n            ","response":0,"trial_type":"html-button-response","trial_index":80,"time_elapsed":1049279,"internal_node_id":"0.0-4.0-1.34","subject_id":"613ab4192b5d4923c17d8b16","study_id":"60edd13110225f80f9f3709b","session_id":"6196c1ee0c2be2dcaa45ca2e","condition":"contingent","relevant_dimensions":["pattern","legs"],"bee_group":{"antennae":"X","wings":"X","pattern":"D","legs":"M"},"bonus":1.1800000000000013},{"rt":9356.199999988079,"stimulus":"bees-with-color/bee-B1DM.svg","response":1,"trial_type":"image-button-response","trial_index":81,"time_elapsed":1058641,"internal_node_id":"0.0-4.0-0.35","subject_id":"613ab4192b5d4923c17d8b16","study_id":"60edd13110225f80f9f3709b","session_id":"6196c1ee0c2be2dcaa45ca2e","condition":"contingent","relevant_dimensions":["pattern","legs"],"bee_group":{"antennae":"X","wings":"X","pattern":"D","legs":"M"},"action":"avoid","summary":"good-avoid","bonus":1.1800000000000013},{"rt":1186.199999988079,"stimulus":"\n                    <p><b>Action: <em>avoid</em></b></p>\n                    <p>This is the bee that you just saw.</p>\n                    <img src=\"bees-with-color/bee-B1DM.svg\" width=\"200\">\n                    <p><br>Your bonus pay is unchanged, and remains at $0.64.</p>\n            ","response":0,"trial_type":"html-button-response","trial_index":82,"time_elapsed":1059832,"internal_node_id":"0.0-4.0-1.35","subject_id":"613ab4192b5d4923c17d8b16","study_id":"60edd13110225f80f9f3709b","session_id":"6196c1ee0c2be2dcaa45ca2e","condition":"contingent","relevant_dimensions":["pattern","legs"],"bee_group":{"antennae":"X","wings":"X","pattern":"D","legs":"M"},"bonus":1.1800000000000013},{"rt":9571.199999988079,"stimulus":"bees-with-color/bee-A2SM.svg","response":0,"trial_type":"image-button-response","trial_index":83,"time_elapsed":1069407,"internal_node_id":"0.0-4.0-0.36","subject_id":"613ab4192b5d4923c17d8b16","study_id":"60edd13110225f80f9f3709b","session_id":"6196c1ee0c2be2dcaa45ca2e","condition":"contingent","relevant_dimensions":["pattern","legs"],"bee_group":{"antennae":"X","wings":"X","pattern":"D","legs":"M"},"action":"harvest","summary":"good-harvest","bonus":1.1800000000000013},{"rt":896.4000000059605,"stimulus":"\n                    <p><b>Action: <em>harvest</em></b></p>\n                    <p>This is the bee that you just saw.</p>\n                    <img src=\"bees-with-color/bee-A2SM.svg\" width=\"200\">\n                    <p><span class=\"greenText\"><b>Successful harvest!</b></span><br>Your pay has increased by $0.02. Your bonus pay is now $0.66.</p>\n            ","response":0,"trial_type":"html-button-response","trial_index":84,"time_elapsed":1070308,"internal_node_id":"0.0-4.0-1.36","subject_id":"613ab4192b5d4923c17d8b16","study_id":"60edd13110225f80f9f3709b","session_id":"6196c1ee0c2be2dcaa45ca2e","condition":"contingent","relevant_dimensions":["pattern","legs"],"bee_group":{"antennae":"X","wings":"X","pattern":"D","legs":"M"},"bonus":1.1800000000000013},{"rt":5285,"stimulus":"bees-with-color/bee-A1DM.svg","response":1,"trial_type":"image-button-response","trial_index":85,"time_elapsed":1075598,"internal_node_id":"0.0-4.0-0.37","subject_id":"613ab4192b5d4923c17d8b16","study_id":"60edd13110225f80f9f3709b","session_id":"6196c1ee0c2be2dcaa45ca2e","condition":"contingent","relevant_dimensions":["pattern","legs"],"bee_group":{"antennae":"X","wings":"X","pattern":"D","legs":"M"},"action":"avoid","summary":"good-avoid","bonus":1.1800000000000013},{"rt":1990.5,"stimulus":"\n                    <p><b>Action: <em>avoid</em></b></p>\n                    <p>This is the bee that you just saw.</p>\n                    <img src=\"bees-with-color/bee-A1DM.svg\" width=\"200\">\n                    <p><br>Your bonus pay is unchanged, and remains at $0.66.</p>\n            ","response":0,"trial_type":"html-button-response","trial_index":86,"time_elapsed":1077592,"internal_node_id":"0.0-4.0-1.37","subject_id":"613ab4192b5d4923c17d8b16","study_id":"60edd13110225f80f9f3709b","session_id":"6196c1ee0c2be2dcaa45ca2e","condition":"contingent","relevant_dimensions":["pattern","legs"],"bee_group":{"antennae":"X","wings":"X","pattern":"D","legs":"M"},"bonus":1.1800000000000013},{"rt":16643.59999999404,"stimulus":"bees-with-color/bee-B1SM.svg","response":0,"trial_type":"image-button-response","trial_index":87,"time_elapsed":1094240,"internal_node_id":"0.0-4.0-0.38","subject_id":"613ab4192b5d4923c17d8b16","study_id":"60edd13110225f80f9f3709b","session_id":"6196c1ee0c2be2dcaa45ca2e","condition":"contingent","relevant_dimensions":["pattern","legs"],"bee_group":{"antennae":"X","wings":"X","pattern":"D","legs":"M"},"action":"harvest","summary":"good-harvest","bonus":1.1800000000000013},{"rt":876.4000000059605,"stimulus":"\n                    <p><b>Action: <em>harvest</em></b></p>\n                    <p>This is the bee that you just saw.</p>\n                    <img src=\"bees-with-color/bee-B1SM.svg\" width=\"200\">\n                    <p><span class=\"greenText\"><b>Successful harvest!</b></span><br>Your pay has increased by $0.02. Your bonus pay is now $0.68.</p>\n            ","response":0,"trial_type":"html-button-response","trial_index":88,"time_elapsed":1095121,"internal_node_id":"0.0-4.0-1.38","subject_id":"613ab4192b5d4923c17d8b16","study_id":"60edd13110225f80f9f3709b","session_id":"6196c1ee0c2be2dcaa45ca2e","condition":"contingent","relevant_dimensions":["pattern","legs"],"bee_group":{"antennae":"X","wings":"X","pattern":"D","legs":"M"},"bonus":1.1800000000000013},{"rt":6011.299999982119,"stimulus":"bees-with-color/bee-A2SF.svg","response":0,"trial_type":"image-button-response","trial_index":89,"time_elapsed":1101137,"internal_node_id":"0.0-4.0-0.39","subject_id":"613ab4192b5d4923c17d8b16","study_id":"60edd13110225f80f9f3709b","session_id":"6196c1ee0c2be2dcaa45ca2e","condition":"contingent","relevant_dimensions":["pattern","legs"],"bee_group":{"antennae":"X","wings":"X","pattern":"D","legs":"M"},"action":"harvest","summary":"good-harvest","bonus":1.1800000000000013},{"rt":776.8000000119209,"stimulus":"\n                    <p><b>Action: <em>harvest</em></b></p>\n                    <p>This is the bee that you just saw.</p>\n                    <img src=\"bees-with-color/bee-A2SF.svg\" width=\"200\">\n                    <p><span class=\"greenText\"><b>Successful harvest!</b></span><br>Your pay has increased by $0.02. Your bonus pay is now $0.70.</p>\n            ","response":0,"trial_type":"html-button-response","trial_index":90,"time_elapsed":1101919,"internal_node_id":"0.0-4.0-1.39","subject_id":"613ab4192b5d4923c17d8b16","study_id":"60edd13110225f80f9f3709b","session_id":"6196c1ee0c2be2dcaa45ca2e","condition":"contingent","relevant_dimensions":["pattern","legs"],"bee_group":{"antennae":"X","wings":"X","pattern":"D","legs":"M"},"bonus":1.1800000000000013},{"rt":9744,"stimulus":"bees-with-color/bee-A2DM.svg","response":1,"trial_type":"image-button-response","trial_index":91,"time_elapsed":1111667,"internal_node_id":"0.0-4.0-0.40","subject_id":"613ab4192b5d4923c17d8b16","study_id":"60edd13110225f80f9f3709b","session_id":"6196c1ee0c2be2dcaa45ca2e","condition":"contingent","relevant_dimensions":["pattern","legs"],"bee_group":{"antennae":"X","wings":"X","pattern":"D","legs":"M"},"action":"avoid","summary":"good-avoid","bonus":1.1800000000000013},{"rt":1240.199999988079,"stimulus":"\n                    <p><b>Action: <em>avoid</em></b></p>\n                    <p>This is the bee that you just saw.</p>\n                    <img src=\"bees-with-color/bee-A2DM.svg\" width=\"200\">\n                    <p><br>Your bonus pay is unchanged, and remains at $0.70.</p>\n            ","response":0,"trial_type":"html-button-response","trial_index":92,"time_elapsed":1112911,"internal_node_id":"0.0-4.0-1.40","subject_id":"613ab4192b5d4923c17d8b16","study_id":"60edd13110225f80f9f3709b","session_id":"6196c1ee0c2be2dcaa45ca2e","condition":"contingent","relevant_dimensions":["pattern","legs"],"bee_group":{"antennae":"X","wings":"X","pattern":"D","legs":"M"},"bonus":1.1800000000000013},{"rt":7164.9000000059605,"stimulus":"bees-with-color/bee-A2DF.svg","response":1,"trial_type":"image-button-response","trial_index":93,"time_elapsed":1120082,"internal_node_id":"0.0-4.0-0.41","subject_id":"613ab4192b5d4923c17d8b16","study_id":"60edd13110225f80f9f3709b","session_id":"6196c1ee0c2be2dcaa45ca2e","condition":"contingent","relevant_dimensions":["pattern","legs"],"bee_group":{"antennae":"X","wings":"X","pattern":"D","legs":"M"},"action":"avoid","summary":"bad-avoid","bonus":1.1800000000000013},{"rt":1207.5,"stimulus":"\n                    <p><b>Action: <em>avoid</em></b></p>\n                    <p>This is the bee that you just saw.</p>\n                    <img src=\"bees-with-color/bee-A2DF.svg\" width=\"200\">\n                    <p><br>Your bonus pay is unchanged, and remains at $0.70.</p>\n            ","response":0,"trial_type":"html-button-response","trial_index":94,"time_elapsed":1121294,"internal_node_id":"0.0-4.0-1.41","subject_id":"613ab4192b5d4923c17d8b16","study_id":"60edd13110225f80f9f3709b","session_id":"6196c1ee0c2be2dcaa45ca2e","condition":"contingent","relevant_dimensions":["pattern","legs"],"bee_group":{"antennae":"X","wings":"X","pattern":"D","legs":"M"},"bonus":1.1800000000000013},{"rt":6482,"stimulus":"bees-with-color/bee-A1SF.svg","response":0,"trial_type":"image-button-response","trial_index":95,"time_elapsed":1127782,"internal_node_id":"0.0-4.0-0.42","subject_id":"613ab4192b5d4923c17d8b16","study_id":"60edd13110225f80f9f3709b","session_id":"6196c1ee0c2be2dcaa45ca2e","condition":"contingent","relevant_dimensions":["pattern","legs"],"bee_group":{"antennae":"X","wings":"X","pattern":"D","legs":"M"},"action":"harvest","summary":"good-harvest","bonus":1.1800000000000013},{"rt":1083.7999999821186,"stimulus":"\n                    <p><b>Action: <em>harvest</em></b></p>\n                    <p>This is the bee that you just saw.</p>\n                    <img src=\"bees-with-color/bee-A1SF.svg\" width=\"200\">\n                    <p><span class=\"greenText\"><b>Successful harvest!</b></span><br>Your pay has increased by $0.02. Your bonus pay is now $0.72.</p>\n            ","response":0,"trial_type":"html-button-response","trial_index":96,"time_elapsed":1128870,"internal_node_id":"0.0-4.0-1.42","subject_id":"613ab4192b5d4923c17d8b16","study_id":"60edd13110225f80f9f3709b","session_id":"6196c1ee0c2be2dcaa45ca2e","condition":"contingent","relevant_dimensions":["pattern","legs"],"bee_group":{"antennae":"X","wings":"X","pattern":"D","legs":"M"},"bonus":1.1800000000000013},{"rt":4896.0999999940395,"stimulus":"bees-with-color/bee-B2DF.svg","response":0,"trial_type":"image-button-response","trial_index":97,"time_elapsed":1133771,"internal_node_id":"0.0-4.0-0.43","subject_id":"613ab4192b5d4923c17d8b16","study_id":"60edd13110225f80f9f3709b","session_id":"6196c1ee0c2be2dcaa45ca2e","condition":"contingent","relevant_dimensions":["pattern","legs"],"bee_group":{"antennae":"X","wings":"X","pattern":"D","legs":"M"},"action":"harvest","summary":"good-harvest","bonus":1.1800000000000013},{"rt":945.7999999821186,"stimulus":"\n                    <p><b>Action: <em>harvest</em></b></p>\n                    <p>This is the bee that you just saw.</p>\n                    <img src=\"bees-with-color/bee-B2DF.svg\" width=\"200\">\n                    <p><span class=\"greenText\"><b>Successful harvest!</b></span><br>Your pay has increased by $0.02. Your bonus pay is now $0.74.</p>\n            ","response":0,"trial_type":"html-button-response","trial_index":98,"time_elapsed":1134721,"internal_node_id":"0.0-4.0-1.43","subject_id":"613ab4192b5d4923c17d8b16","study_id":"60edd13110225f80f9f3709b","session_id":"6196c1ee0c2be2dcaa45ca2e","condition":"contingent","relevant_dimensions":["pattern","legs"],"bee_group":{"antennae":"X","wings":"X","pattern":"D","legs":"M"},"bonus":1.1800000000000013},{"rt":9491.299999982119,"stimulus":"bees-with-color/bee-B1SF.svg","response":0,"trial_type":"image-button-response","trial_index":99,"time_elapsed":1144217,"internal_node_id":"0.0-4.0-0.44","subject_id":"613ab4192b5d4923c17d8b16","study_id":"60edd13110225f80f9f3709b","session_id":"6196c1ee0c2be2dcaa45ca2e","condition":"contingent","relevant_dimensions":["pattern","legs"],"bee_group":{"antennae":"X","wings":"X","pattern":"D","legs":"M"},"action":"harvest","summary":"good-harvest","bonus":1.1800000000000013},{"rt":1044.199999988079,"stimulus":"\n                    <p><b>Action: <em>harvest</em></b></p>\n                    <p>This is the bee that you just saw.</p>\n                    <img src=\"bees-with-color/bee-B1SF.svg\" width=\"200\">\n                    <p><span class=\"greenText\"><b>Successful harvest!</b></span><br>Your pay has increased by $0.02. Your bonus pay is now $0.76.</p>\n            ","response":0,"trial_type":"html-button-response","trial_index":100,"time_elapsed":1145266,"internal_node_id":"0.0-4.0-1.44","subject_id":"613ab4192b5d4923c17d8b16","study_id":"60edd13110225f80f9f3709b","session_id":"6196c1ee0c2be2dcaa45ca2e","condition":"contingent","relevant_dimensions":["pattern","legs"],"bee_group":{"antennae":"X","wings":"X","pattern":"D","legs":"M"},"bonus":1.1800000000000013},{"rt":7954.4000000059605,"stimulus":"bees-with-color/bee-B2DM.svg","response":0,"trial_type":"image-button-response","trial_index":101,"time_elapsed":1153221,"internal_node_id":"0.0-4.0-0.45","subject_id":"613ab4192b5d4923c17d8b16","study_id":"60edd13110225f80f9f3709b","session_id":"6196c1ee0c2be2dcaa45ca2e","condition":"contingent","relevant_dimensions":["pattern","legs"],"bee_group":{"antennae":"X","wings":"X","pattern":"D","legs":"M"},"action":"harvest","summary":"bad-harvest","bonus":1.1800000000000013},{"rt":1989.5,"stimulus":"\n                    <p><b>Action: <em>harvest</em></b></p>\n                    <p>This is the bee that you just saw.</p>\n                    <img src=\"bees-with-color/bee-B2DM.svg\" width=\"200\">\n                    <p><span class=\"redText\">Bad choice, the bee was angry.</span><br><b>You have been stung!</b><br>Your pay has been decreased by $0.10. Your bonus pay is now $0.66.</p>\n            ","response":0,"trial_type":"html-button-response","trial_index":102,"time_elapsed":1155215,"internal_node_id":"0.0-4.0-1.45","subject_id":"613ab4192b5d4923c17d8b16","study_id":"60edd13110225f80f9f3709b","session_id":"6196c1ee0c2be2dcaa45ca2e","condition":"contingent","relevant_dimensions":["pattern","legs"],"bee_group":{"antennae":"X","wings":"X","pattern":"D","legs":"M"},"bonus":1.1800000000000013},{"rt":6585.4000000059605,"stimulus":"bees-with-color/bee-B2SM.svg","response":0,"trial_type":"image-button-response","trial_index":103,"time_elapsed":1161806,"internal_node_id":"0.0-4.0-0.46","subject_id":"613ab4192b5d4923c17d8b16","study_id":"60edd13110225f80f9f3709b","session_id":"6196c1ee0c2be2dcaa45ca2e","condition":"contingent","relevant_dimensions":["pattern","legs"],"bee_group":{"antennae":"X","wings":"X","pattern":"D","legs":"M"},"action":"harvest","summary":"good-harvest","bonus":1.1800000000000013},{"rt":1588.2000000178814,"stimulus":"\n                    <p><b>Action: <em>harvest</em></b></p>\n                    <p>This is the bee that you just saw.</p>\n                    <img src=\"bees-with-color/bee-B2SM.svg\" width=\"200\">\n                    <p><span class=\"greenText\"><b>Successful harvest!</b></span><br>Your pay has increased by $0.02. Your bonus pay is now $0.68.</p>\n            ","response":0,"trial_type":"html-button-response","trial_index":104,"time_elapsed":1163399,"internal_node_id":"0.0-4.0-1.46","subject_id":"613ab4192b5d4923c17d8b16","study_id":"60edd13110225f80f9f3709b","session_id":"6196c1ee0c2be2dcaa45ca2e","condition":"contingent","relevant_dimensions":["pattern","legs"],"bee_group":{"antennae":"X","wings":"X","pattern":"D","legs":"M"},"bonus":1.1800000000000013},{"rt":22421.90000000596,"stimulus":"bees-with-color/bee-A1DF.svg","response":0,"trial_type":"image-button-response","trial_index":105,"time_elapsed":1185827,"internal_node_id":"0.0-4.0-0.47","subject_id":"613ab4192b5d4923c17d8b16","study_id":"60edd13110225f80f9f3709b","session_id":"6196c1ee0c2be2dcaa45ca2e","condition":"contingent","relevant_dimensions":["pattern","legs"],"bee_group":{"antennae":"X","wings":"X","pattern":"D","legs":"M"},"action":"harvest","summary":"good-harvest","bonus":1.1800000000000013},{"rt":1019.1999999880791,"stimulus":"\n                    <p><b>Action: <em>harvest</em></b></p>\n                    <p>This is the bee that you just saw.</p>\n                    <img src=\"bees-with-color/bee-A1DF.svg\" width=\"200\">\n                    <p><span class=\"greenText\"><b>Successful harvest!</b></span><br>Your pay has increased by $0.02. Your bonus pay is now $0.70.</p>\n            ","response":0,"trial_type":"html-button-response","trial_index":106,"time_elapsed":1186848,"internal_node_id":"0.0-4.0-1.47","subject_id":"613ab4192b5d4923c17d8b16","study_id":"60edd13110225f80f9f3709b","session_id":"6196c1ee0c2be2dcaa45ca2e","condition":"contingent","relevant_dimensions":["pattern","legs"],"bee_group":{"antennae":"X","wings":"X","pattern":"D","legs":"M"},"bonus":1.1800000000000013},{"rt":17171.69999998808,"stimulus":"bees-with-color/bee-B2DF.svg","response":0,"trial_type":"image-button-response","trial_index":107,"time_elapsed":1204023,"internal_node_id":"0.0-4.0-0.48","subject_id":"613ab4192b5d4923c17d8b16","study_id":"60edd13110225f80f9f3709b","session_id":"6196c1ee0c2be2dcaa45ca2e","condition":"contingent","relevant_dimensions":["pattern","legs"],"bee_group":{"antennae":"X","wings":"X","pattern":"D","legs":"M"},"action":"harvest","summary":"good-harvest","bonus":1.1800000000000013},{"rt":1596.199999988079,"stimulus":"\n                    <p><b>Action: <em>harvest</em></b></p>\n                    <p>This is the bee that you just saw.</p>\n                    <img src=\"bees-with-color/bee-B2DF.svg\" width=\"200\">\n                    <p><span class=\"greenText\"><b>Successful harvest!</b></span><br>Your pay has increased by $0.02. Your bonus pay is now $0.72.</p>\n            ","response":0,"trial_type":"html-button-response","trial_index":108,"time_elapsed":1205624,"internal_node_id":"0.0-4.0-1.48","subject_id":"613ab4192b5d4923c17d8b16","study_id":"60edd13110225f80f9f3709b","session_id":"6196c1ee0c2be2dcaa45ca2e","condition":"contingent","relevant_dimensions":["pattern","legs"],"bee_group":{"antennae":"X","wings":"X","pattern":"D","legs":"M"},"bonus":1.1800000000000013},{"rt":17799.899999976158,"stimulus":"bees-with-color/bee-A2SF.svg","response":0,"trial_type":"image-button-response","trial_index":109,"time_elapsed":1223434,"internal_node_id":"0.0-4.0-0.49","subject_id":"613ab4192b5d4923c17d8b16","study_id":"60edd13110225f80f9f3709b","session_id":"6196c1ee0c2be2dcaa45ca2e","condition":"contingent","relevant_dimensions":["pattern","legs"],"bee_group":{"antennae":"X","wings":"X","pattern":"D","legs":"M"},"action":"harvest","summary":"good-harvest","bonus":1.1800000000000013},{"rt":1084.9000000059605,"stimulus":"\n                    <p><b>Action: <em>harvest</em></b></p>\n                    <p>This is the bee that you just saw.</p>\n                    <img src=\"bees-with-color/bee-A2SF.svg\" width=\"200\">\n                    <p><span class=\"greenText\"><b>Successful harvest!</b></span><br>Your pay has increased by $0.02. Your bonus pay is now $0.74.</p>\n            ","response":0,"trial_type":"html-button-response","trial_index":110,"time_elapsed":1224522,"internal_node_id":"0.0-4.0-1.49","subject_id":"613ab4192b5d4923c17d8b16","study_id":"60edd13110225f80f9f3709b","session_id":"6196c1ee0c2be2dcaa45ca2e","condition":"contingent","relevant_dimensions":["pattern","legs"],"bee_group":{"antennae":"X","wings":"X","pattern":"D","legs":"M"},"bonus":1.1800000000000013},{"rt":17486.90000000596,"stimulus":"bees-with-color/bee-A1DF.svg","response":0,"trial_type":"image-button-response","trial_index":111,"time_elapsed":1242013,"internal_node_id":"0.0-4.0-0.50","subject_id":"613ab4192b5d4923c17d8b16","study_id":"60edd13110225f80f9f3709b","session_id":"6196c1ee0c2be2dcaa45ca2e","condition":"contingent","relevant_dimensions":["pattern","legs"],"bee_group":{"antennae":"X","wings":"X","pattern":"D","legs":"M"},"action":"harvest","summary":"good-harvest","bonus":1.1800000000000013},{"rt":908.3000000119209,"stimulus":"\n                    <p><b>Action: <em>harvest</em></b></p>\n                    <p>This is the bee that you just saw.</p>\n                    <img src=\"bees-with-color/bee-A1DF.svg\" width=\"200\">\n                    <p><span class=\"greenText\"><b>Successful harvest!</b></span><br>Your pay has increased by $0.02. Your bonus pay is now $0.76.</p>\n            ","response":0,"trial_type":"html-button-response","trial_index":112,"time_elapsed":1242925,"internal_node_id":"0.0-4.0-1.50","subject_id":"613ab4192b5d4923c17d8b16","study_id":"60edd13110225f80f9f3709b","session_id":"6196c1ee0c2be2dcaa45ca2e","condition":"contingent","relevant_dimensions":["pattern","legs"],"bee_group":{"antennae":"X","wings":"X","pattern":"D","legs":"M"},"bonus":1.1800000000000013},{"rt":18909.40000000596,"stimulus":"bees-with-color/bee-A2DF.svg","response":0,"trial_type":"image-button-response","trial_index":113,"time_elapsed":1261838,"internal_node_id":"0.0-4.0-0.51","subject_id":"613ab4192b5d4923c17d8b16","study_id":"60edd13110225f80f9f3709b","session_id":"6196c1ee0c2be2dcaa45ca2e","condition":"contingent","relevant_dimensions":["pattern","legs"],"bee_group":{"antennae":"X","wings":"X","pattern":"D","legs":"M"},"action":"harvest","summary":"good-harvest","bonus":1.1800000000000013},{"rt":1114,"stimulus":"\n                    <p><b>Action: <em>harvest</em></b></p>\n                    <p>This is the bee that you just saw.</p>\n                    <img src=\"bees-with-color/bee-A2DF.svg\" width=\"200\">\n                    <p><span class=\"greenText\"><b>Successful harvest!</b></span><br>Your pay has increased by $0.02. Your bonus pay is now $0.78.</p>\n            ","response":0,"trial_type":"html-button-response","trial_index":114,"time_elapsed":1262956,"internal_node_id":"0.0-4.0-1.51","subject_id":"613ab4192b5d4923c17d8b16","study_id":"60edd13110225f80f9f3709b","session_id":"6196c1ee0c2be2dcaa45ca2e","condition":"contingent","relevant_dimensions":["pattern","legs"],"bee_group":{"antennae":"X","wings":"X","pattern":"D","legs":"M"},"bonus":1.1800000000000013},{"rt":21176.80000001192,"stimulus":"bees-with-color/bee-B1DM.svg","response":1,"trial_type":"image-button-response","trial_index":115,"time_elapsed":1284137,"internal_node_id":"0.0-4.0-0.52","subject_id":"613ab4192b5d4923c17d8b16","study_id":"60edd13110225f80f9f3709b","session_id":"6196c1ee0c2be2dcaa45ca2e","condition":"contingent","relevant_dimensions":["pattern","legs"],"bee_group":{"antennae":"X","wings":"X","pattern":"D","legs":"M"},"action":"avoid","summary":"good-avoid","bonus":1.1800000000000013},{"rt":2762.5999999940395,"stimulus":"\n                    <p><b>Action: <em>avoid</em></b></p>\n                    <p>This is the bee that you just saw.</p>\n                    <img src=\"bees-with-color/bee-B1DM.svg\" width=\"200\">\n                    <p><br>Your bonus pay is unchanged, and remains at $0.78.</p>\n            ","response":0,"trial_type":"html-button-response","trial_index":116,"time_elapsed":1286903,"internal_node_id":"0.0-4.0-1.52","subject_id":"613ab4192b5d4923c17d8b16","study_id":"60edd13110225f80f9f3709b","session_id":"6196c1ee0c2be2dcaa45ca2e","condition":"contingent","relevant_dimensions":["pattern","legs"],"bee_group":{"antennae":"X","wings":"X","pattern":"D","legs":"M"},"bonus":1.1800000000000013},{"rt":17128.5,"stimulus":"bees-with-color/bee-B2DM.svg","response":1,"trial_type":"image-button-response","trial_index":117,"time_elapsed":1304037,"internal_node_id":"0.0-4.0-0.53","subject_id":"613ab4192b5d4923c17d8b16","study_id":"60edd13110225f80f9f3709b","session_id":"6196c1ee0c2be2dcaa45ca2e","condition":"contingent","relevant_dimensions":["pattern","legs"],"bee_group":{"antennae":"X","wings":"X","pattern":"D","legs":"M"},"action":"avoid","summary":"good-avoid","bonus":1.1800000000000013},{"rt":7001.899999976158,"stimulus":"\n                    <p><b>Action: <em>avoid</em></b></p>\n                    <p>This is the bee that you just saw.</p>\n                    <img src=\"bees-with-color/bee-B2DM.svg\" width=\"200\">\n                    <p><br>Your bonus pay is unchanged, and remains at $0.78.</p>\n            ","response":0,"trial_type":"html-button-response","trial_index":118,"time_elapsed":1311042,"internal_node_id":"0.0-4.0-1.53","subject_id":"613ab4192b5d4923c17d8b16","study_id":"60edd13110225f80f9f3709b","session_id":"6196c1ee0c2be2dcaa45ca2e","condition":"contingent","relevant_dimensions":["pattern","legs"],"bee_group":{"antennae":"X","wings":"X","pattern":"D","legs":"M"},"bonus":1.1800000000000013},{"rt":5118.4000000059605,"stimulus":"bees-with-color/bee-B1DF.svg","response":0,"trial_type":"image-button-response","trial_index":119,"time_elapsed":1316167,"internal_node_id":"0.0-4.0-0.54","subject_id":"613ab4192b5d4923c17d8b16","study_id":"60edd13110225f80f9f3709b","session_id":"6196c1ee0c2be2dcaa45ca2e","condition":"contingent","relevant_dimensions":["pattern","legs"],"bee_group":{"antennae":"X","wings":"X","pattern":"D","legs":"M"},"action":"harvest","summary":"good-harvest","bonus":1.1800000000000013},{"rt":825.2000000178814,"stimulus":"\n                    <p><b>Action: <em>harvest</em></b></p>\n                    <p>This is the bee that you just saw.</p>\n                    <img src=\"bees-with-color/bee-B1DF.svg\" width=\"200\">\n                    <p><span class=\"greenText\"><b>Successful harvest!</b></span><br>Your pay has increased by $0.02. Your bonus pay is now $0.80.</p>\n            ","response":0,"trial_type":"html-button-response","trial_index":120,"time_elapsed":1316995,"internal_node_id":"0.0-4.0-1.54","subject_id":"613ab4192b5d4923c17d8b16","study_id":"60edd13110225f80f9f3709b","session_id":"6196c1ee0c2be2dcaa45ca2e","condition":"contingent","relevant_dimensions":["pattern","legs"],"bee_group":{"antennae":"X","wings":"X","pattern":"D","legs":"M"},"bonus":1.1800000000000013},{"rt":12820.90000000596,"stimulus":"bees-with-color/bee-B1SF.svg","response":0,"trial_type":"image-button-response","trial_index":121,"time_elapsed":1329820,"internal_node_id":"0.0-4.0-0.55","subject_id":"613ab4192b5d4923c17d8b16","study_id":"60edd13110225f80f9f3709b","session_id":"6196c1ee0c2be2dcaa45ca2e","condition":"contingent","relevant_dimensions":["pattern","legs"],"bee_group":{"antennae":"X","wings":"X","pattern":"D","legs":"M"},"action":"harvest","summary":"good-harvest","bonus":1.1800000000000013},{"rt":1046.800000011921,"stimulus":"\n                    <p><b>Action: <em>harvest</em></b></p>\n                    <p>This is the bee that you just saw.</p>\n                    <img src=\"bees-with-color/bee-B1SF.svg\" width=\"200\">\n                    <p><span class=\"greenText\"><b>Successful harvest!</b></span><br>Your pay has increased by $0.02. Your bonus pay is now $0.82.</p>\n            ","response":0,"trial_type":"html-button-response","trial_index":122,"time_elapsed":1330870,"internal_node_id":"0.0-4.0-1.55","subject_id":"613ab4192b5d4923c17d8b16","study_id":"60edd13110225f80f9f3709b","session_id":"6196c1ee0c2be2dcaa45ca2e","condition":"contingent","relevant_dimensions":["pattern","legs"],"bee_group":{"antennae":"X","wings":"X","pattern":"D","legs":"M"},"bonus":1.1800000000000013},{"rt":9987.699999988079,"stimulus":"bees-with-color/bee-B2SM.svg","response":0,"trial_type":"image-button-response","trial_index":123,"time_elapsed":1340863,"internal_node_id":"0.0-4.0-0.56","subject_id":"613ab4192b5d4923c17d8b16","study_id":"60edd13110225f80f9f3709b","session_id":"6196c1ee0c2be2dcaa45ca2e","condition":"contingent","relevant_dimensions":["pattern","legs"],"bee_group":{"antennae":"X","wings":"X","pattern":"D","legs":"M"},"action":"harvest","summary":"good-harvest","bonus":1.1800000000000013},{"rt":1143.5999999940395,"stimulus":"\n                    <p><b>Action: <em>harvest</em></b></p>\n                    <p>This is the bee that you just saw.</p>\n                    <img src=\"bees-with-color/bee-B2SM.svg\" width=\"200\">\n                    <p><span class=\"greenText\"><b>Successful harvest!</b></span><br>Your pay has increased by $0.02. Your bonus pay is now $0.84.</p>\n            ","response":0,"trial_type":"html-button-response","trial_index":124,"time_elapsed":1342011,"internal_node_id":"0.0-4.0-1.56","subject_id":"613ab4192b5d4923c17d8b16","study_id":"60edd13110225f80f9f3709b","session_id":"6196c1ee0c2be2dcaa45ca2e","condition":"contingent","relevant_dimensions":["pattern","legs"],"bee_group":{"antennae":"X","wings":"X","pattern":"D","legs":"M"},"bonus":1.1800000000000013},{"rt":6457.399999976158,"stimulus":"bees-with-color/bee-A2DM.svg","response":0,"trial_type":"image-button-response","trial_index":125,"time_elapsed":1348472,"internal_node_id":"0.0-4.0-0.57","subject_id":"613ab4192b5d4923c17d8b16","study_id":"60edd13110225f80f9f3709b","session_id":"6196c1ee0c2be2dcaa45ca2e","condition":"contingent","relevant_dimensions":["pattern","legs"],"bee_group":{"antennae":"X","wings":"X","pattern":"D","legs":"M"},"action":"harvest","summary":"bad-harvest","bonus":1.1800000000000013},{"rt":2211.800000011921,"stimulus":"\n                    <p><b>Action: <em>harvest</em></b></p>\n                    <p>This is the bee that you just saw.</p>\n                    <img src=\"bees-with-color/bee-A2DM.svg\" width=\"200\">\n                    <p><span class=\"redText\">Bad choice, the bee was angry.</span><br><b>You have been stung!</b><br>Your pay has been decreased by $0.10. Your bonus pay is now $0.74.</p>\n            ","response":0,"trial_type":"html-button-response","trial_index":126,"time_elapsed":1350688,"internal_node_id":"0.0-4.0-1.57","subject_id":"613ab4192b5d4923c17d8b16","study_id":"60edd13110225f80f9f3709b","session_id":"6196c1ee0c2be2dcaa45ca2e","condition":"contingent","relevant_dimensions":["pattern","legs"],"bee_group":{"antennae":"X","wings":"X","pattern":"D","legs":"M"},"bonus":1.1800000000000013},{"rt":12633.299999982119,"stimulus":"bees-with-color/bee-A1DM.svg","response":1,"trial_type":"image-button-response","trial_index":127,"time_elapsed":1363326,"internal_node_id":"0.0-4.0-0.58","subject_id":"613ab4192b5d4923c17d8b16","study_id":"60edd13110225f80f9f3709b","session_id":"6196c1ee0c2be2dcaa45ca2e","condition":"contingent","relevant_dimensions":["pattern","legs"],"bee_group":{"antennae":"X","wings":"X","pattern":"D","legs":"M"},"action":"avoid","summary":"good-avoid","bonus":1.1800000000000013},{"rt":2638.300000011921,"stimulus":"\n                    <p><b>Action: <em>avoid</em></b></p>\n                    <p>This is the bee that you just saw.</p>\n                    <img src=\"bees-with-color/bee-A1DM.svg\" width=\"200\">\n                    <p><br>Your bonus pay is unchanged, and remains at $0.74.</p>\n            ","response":0,"trial_type":"html-button-response","trial_index":128,"time_elapsed":1365968,"internal_node_id":"0.0-4.0-1.58","subject_id":"613ab4192b5d4923c17d8b16","study_id":"60edd13110225f80f9f3709b","session_id":"6196c1ee0c2be2dcaa45ca2e","condition":"contingent","relevant_dimensions":["pattern","legs"],"bee_group":{"antennae":"X","wings":"X","pattern":"D","legs":"M"},"bonus":1.1800000000000013},{"rt":13128.59999999404,"stimulus":"bees-with-color/bee-B2SF.svg","response":0,"trial_type":"image-button-response","trial_index":129,"time_elapsed":1379101,"internal_node_id":"0.0-4.0-0.59","subject_id":"613ab4192b5d4923c17d8b16","study_id":"60edd13110225f80f9f3709b","session_id":"6196c1ee0c2be2dcaa45ca2e","condition":"contingent","relevant_dimensions":["pattern","legs"],"bee_group":{"antennae":"X","wings":"X","pattern":"D","legs":"M"},"action":"harvest","summary":"good-harvest","bonus":1.1800000000000013},{"rt":1278.2000000178814,"stimulus":"\n                    <p><b>Action: <em>harvest</em></b></p>\n                    <p>This is the bee that you just saw.</p>\n                    <img src=\"bees-with-color/bee-B2SF.svg\" width=\"200\">\n                    <p><span class=\"greenText\"><b>Successful harvest!</b></span><br>Your pay has increased by $0.02. Your bonus pay is now $0.76.</p>\n            ","response":0,"trial_type":"html-button-response","trial_index":130,"time_elapsed":1380383,"internal_node_id":"0.0-4.0-1.59","subject_id":"613ab4192b5d4923c17d8b16","study_id":"60edd13110225f80f9f3709b","session_id":"6196c1ee0c2be2dcaa45ca2e","condition":"contingent","relevant_dimensions":["pattern","legs"],"bee_group":{"antennae":"X","wings":"X","pattern":"D","legs":"M"},"bonus":1.1800000000000013},{"rt":6631.4000000059605,"stimulus":"bees-with-color/bee-B1SM.svg","response":0,"trial_type":"image-button-response","trial_index":131,"time_elapsed":1387019,"internal_node_id":"0.0-4.0-0.60","subject_id":"613ab4192b5d4923c17d8b16","study_id":"60edd13110225f80f9f3709b","session_id":"6196c1ee0c2be2dcaa45ca2e","condition":"contingent","relevant_dimensions":["pattern","legs"],"bee_group":{"antennae":"X","wings":"X","pattern":"D","legs":"M"},"action":"harvest","summary":"good-harvest","bonus":1.1800000000000013},{"rt":1516.199999988079,"stimulus":"\n                    <p><b>Action: <em>harvest</em></b></p>\n                    <p>This is the bee that you just saw.</p>\n                    <img src=\"bees-with-color/bee-B1SM.svg\" width=\"200\">\n                    <p><span class=\"greenText\"><b>Successful harvest!</b></span><br>Your pay has increased by $0.02. Your bonus pay is now $0.78.</p>\n            ","response":0,"trial_type":"html-button-response","trial_index":132,"time_elapsed":1388540,"internal_node_id":"0.0-4.0-1.60","subject_id":"613ab4192b5d4923c17d8b16","study_id":"60edd13110225f80f9f3709b","session_id":"6196c1ee0c2be2dcaa45ca2e","condition":"contingent","relevant_dimensions":["pattern","legs"],"bee_group":{"antennae":"X","wings":"X","pattern":"D","legs":"M"},"bonus":1.1800000000000013},{"rt":6365.800000011921,"stimulus":"bees-with-color/bee-A1SF.svg","response":0,"trial_type":"image-button-response","trial_index":133,"time_elapsed":1394911,"internal_node_id":"0.0-4.0-0.61","subject_id":"613ab4192b5d4923c17d8b16","study_id":"60edd13110225f80f9f3709b","session_id":"6196c1ee0c2be2dcaa45ca2e","condition":"contingent","relevant_dimensions":["pattern","legs"],"bee_group":{"antennae":"X","wings":"X","pattern":"D","legs":"M"},"action":"harvest","summary":"good-harvest","bonus":1.1800000000000013},{"rt":1155.199999988079,"stimulus":"\n                    <p><b>Action: <em>harvest</em></b></p>\n                    <p>This is the bee that you just saw.</p>\n                    <img src=\"bees-with-color/bee-A1SF.svg\" width=\"200\">\n                    <p><span class=\"greenText\"><b>Successful harvest!</b></span><br>Your pay has increased by $0.02. Your bonus pay is now $0.80.</p>\n            ","response":0,"trial_type":"html-button-response","trial_index":134,"time_elapsed":1396070,"internal_node_id":"0.0-4.0-1.61","subject_id":"613ab4192b5d4923c17d8b16","study_id":"60edd13110225f80f9f3709b","session_id":"6196c1ee0c2be2dcaa45ca2e","condition":"contingent","relevant_dimensions":["pattern","legs"],"bee_group":{"antennae":"X","wings":"X","pattern":"D","legs":"M"},"bonus":1.1800000000000013},{"rt":8607,"stimulus":"bees-with-color/bee-A2SM.svg","response":0,"trial_type":"image-button-response","trial_index":135,"time_elapsed":1404681,"internal_node_id":"0.0-4.0-0.62","subject_id":"613ab4192b5d4923c17d8b16","study_id":"60edd13110225f80f9f3709b","session_id":"6196c1ee0c2be2dcaa45ca2e","condition":"contingent","relevant_dimensions":["pattern","legs"],"bee_group":{"antennae":"X","wings":"X","pattern":"D","legs":"M"},"action":"harvest","summary":"good-harvest","bonus":1.1800000000000013},{"rt":982.3000000119209,"stimulus":"\n                    <p><b>Action: <em>harvest</em></b></p>\n                    <p>This is the bee that you just saw.</p>\n                    <img src=\"bees-with-color/bee-A2SM.svg\" width=\"200\">\n                    <p><span class=\"greenText\"><b>Successful harvest!</b></span><br>Your pay has increased by $0.02. Your bonus pay is now $0.82.</p>\n            ","response":0,"trial_type":"html-button-response","trial_index":136,"time_elapsed":1405666,"internal_node_id":"0.0-4.0-1.62","subject_id":"613ab4192b5d4923c17d8b16","study_id":"60edd13110225f80f9f3709b","session_id":"6196c1ee0c2be2dcaa45ca2e","condition":"contingent","relevant_dimensions":["pattern","legs"],"bee_group":{"antennae":"X","wings":"X","pattern":"D","legs":"M"},"bonus":1.1800000000000013},{"rt":12629.5,"stimulus":"bees-with-color/bee-A1SM.svg","response":0,"trial_type":"image-button-response","trial_index":137,"time_elapsed":1418296,"internal_node_id":"0.0-4.0-0.63","subject_id":"613ab4192b5d4923c17d8b16","study_id":"60edd13110225f80f9f3709b","session_id":"6196c1ee0c2be2dcaa45ca2e","condition":"contingent","relevant_dimensions":["pattern","legs"],"bee_group":{"antennae":"X","wings":"X","pattern":"D","legs":"M"},"action":"harvest","summary":"good-harvest","bonus":1.1800000000000013},{"rt":749,"stimulus":"\n                    <p><b>Action: <em>harvest</em></b></p>\n                    <p>This is the bee that you just saw.</p>\n                    <img src=\"bees-with-color/bee-A1SM.svg\" width=\"200\">\n                    <p><span class=\"greenText\"><b>Successful harvest!</b></span><br>Your pay has increased by $0.02. Your bonus pay is now $0.84.</p>\n            ","response":0,"trial_type":"html-button-response","trial_index":138,"time_elapsed":1419049,"internal_node_id":"0.0-4.0-1.63","subject_id":"613ab4192b5d4923c17d8b16","study_id":"60edd13110225f80f9f3709b","session_id":"6196c1ee0c2be2dcaa45ca2e","condition":"contingent","relevant_dimensions":["pattern","legs"],"bee_group":{"antennae":"X","wings":"X","pattern":"D","legs":"M"},"bonus":1.1800000000000013},{"rt":4088.9000000059605,"stimulus":"You have completed the first part of this experiment.<br><br>You will now begin a shorter second part, in which you will receive no feedback.<br>The same rules regarding bonus pay apply.<br><br>Press any key to begin.","response":" ","trial_type":"html-keyboard-response","trial_index":139,"time_elapsed":1423145,"internal_node_id":"0.0-5.0","subject_id":"613ab4192b5d4923c17d8b16","study_id":"60edd13110225f80f9f3709b","session_id":"6196c1ee0c2be2dcaa45ca2e","condition":"contingent","relevant_dimensions":["pattern","legs"],"bee_group":{"antennae":"X","wings":"X","pattern":"D","legs":"M"},"bonus":1.1800000000000013},{"rt":19018.40000000596,"stimulus":"bees-with-color/bee-A2DF.svg","response":0,"trial_type":"image-button-response","trial_index":140,"time_elapsed":1442193,"internal_node_id":"0.0-6.0-0.0","subject_id":"613ab4192b5d4923c17d8b16","study_id":"60edd13110225f80f9f3709b","session_id":"6196c1ee0c2be2dcaa45ca2e","condition":"contingent","relevant_dimensions":["pattern","legs"],"bee_group":{"antennae":"X","wings":"X","pattern":"D","legs":"M"},"bonus":1.1800000000000013},{"rt":5856,"stimulus":"bees-with-color/bee-A1SM.svg","response":0,"trial_type":"image-button-response","trial_index":141,"time_elapsed":1448058,"internal_node_id":"0.0-6.0-0.1","subject_id":"613ab4192b5d4923c17d8b16","study_id":"60edd13110225f80f9f3709b","session_id":"6196c1ee0c2be2dcaa45ca2e","condition":"contingent","relevant_dimensions":["pattern","legs"],"bee_group":{"antennae":"X","wings":"X","pattern":"D","legs":"M"},"bonus":1.1800000000000013},{"rt":3447.5,"stimulus":"bees-with-color/bee-B2DM.svg","response":0,"trial_type":"image-button-response","trial_index":142,"time_elapsed":1451514,"internal_node_id":"0.0-6.0-0.2","subject_id":"613ab4192b5d4923c17d8b16","study_id":"60edd13110225f80f9f3709b","session_id":"6196c1ee0c2be2dcaa45ca2e","condition":"contingent","relevant_dimensions":["pattern","legs"],"bee_group":{"antennae":"X","wings":"X","pattern":"D","legs":"M"},"bonus":1.1800000000000013},{"rt":7927,"stimulus":"bees-with-color/bee-A2SF.svg","response":0,"trial_type":"image-button-response","trial_index":143,"time_elapsed":1459448,"internal_node_id":"0.0-6.0-0.3","subject_id":"613ab4192b5d4923c17d8b16","study_id":"60edd13110225f80f9f3709b","session_id":"6196c1ee0c2be2dcaa45ca2e","condition":"contingent","relevant_dimensions":["pattern","legs"],"bee_group":{"antennae":"X","wings":"X","pattern":"D","legs":"M"},"bonus":1.1800000000000013},{"rt":16266,"stimulus":"bees-with-color/bee-B2SF.svg","response":0,"trial_type":"image-button-response","trial_index":144,"time_elapsed":1475722,"internal_node_id":"0.0-6.0-0.4","subject_id":"613ab4192b5d4923c17d8b16","study_id":"60edd13110225f80f9f3709b","session_id":"6196c1ee0c2be2dcaa45ca2e","condition":"contingent","relevant_dimensions":["pattern","legs"],"bee_group":{"antennae":"X","wings":"X","pattern":"D","legs":"M"},"bonus":1.1800000000000013},{"rt":8405.5,"stimulus":"bees-with-color/bee-A1DM.svg","response":1,"trial_type":"image-button-response","trial_index":145,"time_elapsed":1484140,"internal_node_id":"0.0-6.0-0.5","subject_id":"613ab4192b5d4923c17d8b16","study_id":"60edd13110225f80f9f3709b","session_id":"6196c1ee0c2be2dcaa45ca2e","condition":"contingent","relevant_dimensions":["pattern","legs"],"bee_group":{"antennae":"X","wings":"X","pattern":"D","legs":"M"},"bonus":1.1800000000000013},{"rt":6881,"stimulus":"bees-with-color/bee-B2SM.svg","response":0,"trial_type":"image-button-response","trial_index":146,"time_elapsed":1491029,"internal_node_id":"0.0-6.0-0.6","subject_id":"613ab4192b5d4923c17d8b16","study_id":"60edd13110225f80f9f3709b","session_id":"6196c1ee0c2be2dcaa45ca2e","condition":"contingent","relevant_dimensions":["pattern","legs"],"bee_group":{"antennae":"X","wings":"X","pattern":"D","legs":"M"},"bonus":1.1800000000000013},{"rt":7690.799999982119,"stimulus":"bees-with-color/bee-B1SM.svg","response":1,"trial_type":"image-button-response","trial_index":147,"time_elapsed":1498726,"internal_node_id":"0.0-6.0-0.7","subject_id":"613ab4192b5d4923c17d8b16","study_id":"60edd13110225f80f9f3709b","session_id":"6196c1ee0c2be2dcaa45ca2e","condition":"contingent","relevant_dimensions":["pattern","legs"],"bee_group":{"antennae":"X","wings":"X","pattern":"D","legs":"M"},"bonus":1.1800000000000013},{"rt":14766.40000000596,"stimulus":"bees-with-color/bee-B1DM.svg","response":1,"trial_type":"image-button-response","trial_index":148,"time_elapsed":1513498,"internal_node_id":"0.0-6.0-0.8","subject_id":"613ab4192b5d4923c17d8b16","study_id":"60edd13110225f80f9f3709b","session_id":"6196c1ee0c2be2dcaa45ca2e","condition":"contingent","relevant_dimensions":["pattern","legs"],"bee_group":{"antennae":"X","wings":"X","pattern":"D","legs":"M"},"bonus":1.1800000000000013},{"rt":11200.700000017881,"stimulus":"bees-with-color/bee-A2SM.svg","response":0,"trial_type":"image-button-response","trial_index":149,"time_elapsed":1524706,"internal_node_id":"0.0-6.0-0.9","subject_id":"613ab4192b5d4923c17d8b16","study_id":"60edd13110225f80f9f3709b","session_id":"6196c1ee0c2be2dcaa45ca2e","condition":"contingent","relevant_dimensions":["pattern","legs"],"bee_group":{"antennae":"X","wings":"X","pattern":"D","legs":"M"},"bonus":1.1800000000000013},{"rt":9361.300000011921,"stimulus":"bees-with-color/bee-B1SF.svg","response":0,"trial_type":"image-button-response","trial_index":150,"time_elapsed":1534074,"internal_node_id":"0.0-6.0-0.10","subject_id":"613ab4192b5d4923c17d8b16","study_id":"60edd13110225f80f9f3709b","session_id":"6196c1ee0c2be2dcaa45ca2e","condition":"contingent","relevant_dimensions":["pattern","legs"],"bee_group":{"antennae":"X","wings":"X","pattern":"D","legs":"M"},"bonus":1.1800000000000013},{"rt":8128.0999999940395,"stimulus":"bees-with-color/bee-B1DF.svg","response":0,"trial_type":"image-button-response","trial_index":151,"time_elapsed":1542209,"internal_node_id":"0.0-6.0-0.11","subject_id":"613ab4192b5d4923c17d8b16","study_id":"60edd13110225f80f9f3709b","session_id":"6196c1ee0c2be2dcaa45ca2e","condition":"contingent","relevant_dimensions":["pattern","legs"],"bee_group":{"antennae":"X","wings":"X","pattern":"D","legs":"M"},"bonus":1.1800000000000013},{"rt":7617,"stimulus":"bees-with-color/bee-A2DM.svg","response":1,"trial_type":"image-button-response","trial_index":152,"time_elapsed":1549834,"internal_node_id":"0.0-6.0-0.12","subject_id":"613ab4192b5d4923c17d8b16","study_id":"60edd13110225f80f9f3709b","session_id":"6196c1ee0c2be2dcaa45ca2e","condition":"contingent","relevant_dimensions":["pattern","legs"],"bee_group":{"antennae":"X","wings":"X","pattern":"D","legs":"M"},"bonus":1.1800000000000013},{"rt":4734,"stimulus":"bees-with-color/bee-A1SF.svg","response":0,"trial_type":"image-button-response","trial_index":153,"time_elapsed":1554575,"internal_node_id":"0.0-6.0-0.13","subject_id":"613ab4192b5d4923c17d8b16","study_id":"60edd13110225f80f9f3709b","session_id":"6196c1ee0c2be2dcaa45ca2e","condition":"contingent","relevant_dimensions":["pattern","legs"],"bee_group":{"antennae":"X","wings":"X","pattern":"D","legs":"M"},"bonus":1.1800000000000013},{"rt":9324.09999999404,"stimulus":"bees-with-color/bee-A1DF.svg","response":0,"trial_type":"image-button-response","trial_index":154,"time_elapsed":1563907,"internal_node_id":"0.0-6.0-0.14","subject_id":"613ab4192b5d4923c17d8b16","study_id":"60edd13110225f80f9f3709b","session_id":"6196c1ee0c2be2dcaa45ca2e","condition":"contingent","relevant_dimensions":["pattern","legs"],"bee_group":{"antennae":"X","wings":"X","pattern":"D","legs":"M"},"bonus":1.1800000000000013},{"rt":10588.59999999404,"stimulus":"bees-with-color/bee-B2DF.svg","response":0,"trial_type":"image-button-response","trial_index":155,"time_elapsed":1574504,"internal_node_id":"0.0-6.0-0.15","subject_id":"613ab4192b5d4923c17d8b16","study_id":"60edd13110225f80f9f3709b","session_id":"6196c1ee0c2be2dcaa45ca2e","condition":"contingent","relevant_dimensions":["pattern","legs"],"bee_group":{"antennae":"X","wings":"X","pattern":"D","legs":"M"},"bonus":1.1800000000000013},{"rt":4723.899999976158,"stimulus":"bees-with-color/bee-B1DM.svg","response":1,"trial_type":"image-button-response","trial_index":156,"time_elapsed":1579236,"internal_node_id":"0.0-6.0-0.16","subject_id":"613ab4192b5d4923c17d8b16","study_id":"60edd13110225f80f9f3709b","session_id":"6196c1ee0c2be2dcaa45ca2e","condition":"contingent","relevant_dimensions":["pattern","legs"],"bee_group":{"antennae":"X","wings":"X","pattern":"D","legs":"M"},"bonus":1.1800000000000013},{"rt":7548.799999982119,"stimulus":"bees-with-color/bee-A1DM.svg","response":1,"trial_type":"image-button-response","trial_index":157,"time_elapsed":1586791,"internal_node_id":"0.0-6.0-0.17","subject_id":"613ab4192b5d4923c17d8b16","study_id":"60edd13110225f80f9f3709b","session_id":"6196c1ee0c2be2dcaa45ca2e","condition":"contingent","relevant_dimensions":["pattern","legs"],"bee_group":{"antennae":"X","wings":"X","pattern":"D","legs":"M"},"bonus":1.1800000000000013},{"rt":3019.5,"stimulus":"bees-with-color/bee-A1SM.svg","response":0,"trial_type":"image-button-response","trial_index":158,"time_elapsed":1589817,"internal_node_id":"0.0-6.0-0.18","subject_id":"613ab4192b5d4923c17d8b16","study_id":"60edd13110225f80f9f3709b","session_id":"6196c1ee0c2be2dcaa45ca2e","condition":"contingent","relevant_dimensions":["pattern","legs"],"bee_group":{"antennae":"X","wings":"X","pattern":"D","legs":"M"},"bonus":1.1800000000000013},{"rt":8628.5,"stimulus":"bees-with-color/bee-B2SF.svg","response":0,"trial_type":"image-button-response","trial_index":159,"time_elapsed":1598450,"internal_node_id":"0.0-6.0-0.19","subject_id":"61