[{"success":true,"trial_type":"fullscreen","trial_index":0,"time_elapsed":41365,"internal_node_id":"0.0-0.0","subject_id":"6005c01be34dba4d8e9f3b39","study_id":"6197b3f67c2b5cd3b6d9596a","session_id":"6197b57fc3b609a008c3a5a8","condition":"full-information","relevant_dimensions":["antennae","legs"],"bee_group":{"antennae":"A","wings":"X","pattern":"X","legs":"M"},"bonus":1.600000000000001},{"success":true,"timeout":false,"failed_images":[],"failed_audio":[],"failed_video":[],"trial_type":"preload","trial_index":1,"time_elapsed":43279,"internal_node_id":"0.0-1.0","subject_id":"6005c01be34dba4d8e9f3b39","study_id":"6197b3f67c2b5cd3b6d9596a","session_id":"6197b57fc3b609a008c3a5a8","condition":"full-information","relevant_dimensions":["antennae","legs"],"bee_group":{"antennae":"A","wings":"X","pattern":"X","legs":"M"},"bonus":1.600000000000001},{"rt":1247.2000000476837,"stimulus":"Welcome! Press any key to begin.","response":" ","trial_type":"html-keyboard-response","trial_index":2,"time_elapsed":44529,"internal_node_id":"0.0-2.0","subject_id":"6005c01be34dba4d8e9f3b39","study_id":"6197b3f67c2b5cd3b6d9596a","session_id":"6197b57fc3b609a008c3a5a8","condition":"full-information","relevant_dimensions":["antennae","legs"],"bee_group":{"antennae":"A","wings":"X","pattern":"X","legs":"M"},"bonus":1.600000000000001},{"view_history":[{"page_index":0,"viewing_time":5758.799999952316},{"page_index":1,"viewing_time":19067.200000047684},{"page_index":2,"viewing_time":17563},{"page_index":3,"viewing_time":13752.299999952316},{"page_index":4,"viewing_time":9645.900000095367},{"page_index":5,"viewing_time":15800.5},{"page_index":6,"viewing_time":15491.699999928474},{"page_index":7,"viewing_time":7616.100000023842},{"page_index":8,"viewing_time":6049.899999976158},{"page_index":9,"viewing_time":7920.399999976158},{"page_index":10,"viewing_time":5867.700000047684},{"page_index":11,"viewing_time":14878},{"page_index":12,"viewing_time":8013.100000023842},{"page_index":13,"viewing_time":2067.7999999523163},{"page_index":14,"viewing_time":2788.899999976158}],"rt":152282,"trial_type":"instructions","trial_index":3,"time_elapsed":196812,"internal_node_id":"0.0-3.0-0.0","subject_id":"6005c01be34dba4d8e9f3b39","study_id":"6197b3f67c2b5cd3b6d9596a","session_id":"6197b57fc3b609a008c3a5a8","condition":"full-information","relevant_dimensions":["antennae","legs"],"bee_group":{"antennae":"A","wings":"X","pattern":"X","legs":"M"},"bonus":1.600000000000001},{"rt":19962.900000095367,"response":{"Q0":["Two or six legs","Stripes or spots on body","Single or double wings","Antennae or no antennae"]},"question_order":[0],"trial_type":"survey-multi-select","trial_index":4,"time_elapsed":216779,"internal_node_id":"0.0-3.0-1.0","subject_id":"6005c01be34dba4d8e9f3b39","study_id":"6197b3f67c2b5cd3b6d9596a","session_id":"6197b57fc3b609a008c3a5a8","condition":"full-information","relevant_dimensions":["antennae","legs"],"bee_group":{"antennae":"A","wings":"X","pattern":"X","legs":"M"},"correct":true,"bonus":1.600000000000001},{"rt":33339.299999952316,"response":{"Q1":"No.","Q2":"Based on the four features of the bee.","Q3":"You learn if it was friendly or dangerous, but do not alter your bonus."},"question_order":[0,1,2],"trial_type":"survey-multi-choice","trial_index":5,"time_elapsed":250124,"internal_node_id":"0.0-3.0-2.0","subject_id":"6005c01be34dba4d8e9f3b39","study_id":"6197b3f67c2b5cd3b6d9596a","session_id":"6197b57fc3b609a008c3a5a8","condition":"full-information","relevant_dimensions":["antennae","legs"],"bee_group":{"antennae":"A","wings":"X","pattern":"X","legs":"M"},"correct":true,"bonus":1.600000000000001},{"rt":4390.299999952316,"stimulus":"<p>Congrats, you got everything right<br>When you're ready, click the button below to continue to the experiment.</p>","response":0,"trial_type":"html-button-response","trial_index":6,"time_elapsed":254518,"internal_node_id":"0.0-3.0-3.0","subject_id":"6005c01be34dba4d8e9f3b39","study_id":"6197b3f67c2b5cd3b6d9596a","session_id":"6197b57fc3b609a008c3a5a8","condition":"full-information","relevant_dimensions":["antennae","legs"],"bee_group":{"antennae":"A","wings":"X","pattern":"X","legs":"M"},"bonus":1.600000000000001},{"rt":3789.1999999284744,"stimulus":"bees-with-color/bee-A2SF.svg","response":1,"trial_type":"image-button-response","trial_index":7,"time_elapsed":258310,"internal_node_id":"0.0-4.0-0.0","subject_id":"6005c01be34dba4d8e9f3b39","study_id":"6197b3f67c2b5cd3b6d9596a","session_id":"6197b57fc3b609a008c3a5a8","condition":"full-information","relevant_dimensions":["antennae","legs"],"bee_group":{"antennae":"A","wings":"X","pattern":"X","legs":"M"},"action":"avoid","summary":"bad-avoid","bonus":1.600000000000001},{"rt":19671.5,"stimulus":"\n                    <p><b>Action: <em>avoid</em></b></p>\n                    <p>This is the bee that you just saw.</p>\n                    <img src=\"bees-with-color/bee-A2SF.svg\" width=\"200\">\n                    <p><span class=\"redText\">Bad choice,</span> the bee was friendly.<br>Your bonus pay is unchanged, and remains at $0.54.</p>\n            ","response":0,"trial_type":"html-button-response","trial_index":8,"time_elapsed":277985,"internal_node_id":"0.0-4.0-1.0","subject_id":"6005c01be34dba4d8e9f3b39","study_id":"6197b3f67c2b5cd3b6d9596a","session_id":"6197b57fc3b609a008c3a5a8","condition":"full-information","relevant_dimensions":["antennae","legs"],"bee_group":{"antennae":"A","wings":"X","pattern":"X","legs":"M"},"bonus":1.600000000000001},{"rt":2371.3000000715256,"stimulus":"bees-with-color/bee-A1SM.svg","response":1,"trial_type":"image-button-response","trial_index":9,"time_elapsed":280359,"internal_node_id":"0.0-4.0-0.1","subject_id":"6005c01be34dba4d8e9f3b39","study_id":"6197b3f67c2b5cd3b6d9596a","session_id":"6197b57fc3b609a008c3a5a8","condition":"full-information","relevant_dimensions":["antennae","legs"],"bee_group":{"antennae":"A","wings":"X","pattern":"X","legs":"M"},"action":"avoid","summary":"good-avoid","bonus":1.600000000000001},{"rt":11060.600000023842,"stimulus":"\n                    <p><b>Action: <em>avoid</em></b></p>\n                    <p>This is the bee that you just saw.</p>\n                    <img src=\"bees-with-color/bee-A1SM.svg\" width=\"200\">\n                    <p><span class=\"greenText\">Good choice!</span>  This bee would have stung you.<br>Your bonus pay is unchanged, and remains at $0.54.</p>\n            ","response":0,"trial_type":"html-button-response","trial_index":10,"time_elapsed":291423,"internal_node_id":"0.0-4.0-1.1","subject_id":"6005c01be34dba4d8e9f3b39","study_id":"6197b3f67c2b5cd3b6d9596a","session_id":"6197b57fc3b609a008c3a5a8","condition":"full-information","relevant_dimensions":["antennae","legs"],"bee_group":{"antennae":"A","wings":"X","pattern":"X","legs":"M"},"bonus":1.600000000000001},{"rt":3371.1999999284744,"stimulus":"bees-with-color/bee-A1DM.svg","response":1,"trial_type":"image-button-response","trial_index":11,"time_elapsed":294799,"internal_node_id":"0.0-4.0-0.2","subject_id":"6005c01be34dba4d8e9f3b39","study_id":"6197b3f67c2b5cd3b6d9596a","session_id":"6197b57fc3b609a008c3a5a8","condition":"full-information","relevant_dimensions":["antennae","legs"],"bee_group":{"antennae":"A","wings":"X","pattern":"X","legs":"M"},"action":"avoid","summary":"good-avoid","bonus":1.600000000000001},{"rt":9716.200000047684,"stimulus":"\n                    <p><b>Action: <em>avoid</em></b></p>\n                    <p>This is the bee that you just saw.</p>\n                    <img src=\"bees-with-color/bee-A1DM.svg\" width=\"200\">\n                    <p><span class=\"greenText\">Good choice!</span>  This bee would have stung you.<br>Your bonus pay is unchanged, and remains at $0.54.</p>\n            ","response":0,"trial_type":"html-button-response","trial_index":12,"time_elapsed":304519,"internal_node_id":"0.0-4.0-1.2","subject_id":"6005c01be34dba4d8e9f3b39","study_id":"6197b3f67c2b5cd3b6d9596a","session_id":"6197b57fc3b609a008c3a5a8","condition":"full-information","relevant_dimensions":["antennae","legs"],"bee_group":{"antennae":"A","wings":"X","pattern":"X","legs":"M"},"bonus":1.600000000000001},{"rt":2937.899999976158,"stimulus":"bees-with-color/bee-B2DM.svg","response":1,"trial_type":"image-button-response","trial_index":13,"time_elapsed":307460,"internal_node_id":"0.0-4.0-0.3","subject_id":"6005c01be34dba4d8e9f3b39","study_id":"6197b3f67c2b5cd3b6d9596a","session_id":"6197b57fc3b609a008c3a5a8","condition":"full-information","relevant_dimensions":["antennae","legs"],"bee_group":{"antennae":"A","wings":"X","pattern":"X","legs":"M"},"action":"avoid","summary":"bad-avoid","bonus":1.600000000000001},{"rt":6417.300000071526,"stimulus":"\n                    <p><b>Action: <em>avoid</em></b></p>\n                    <p>This is the bee that you just saw.</p>\n                    <img src=\"bees-with-color/bee-B2DM.svg\" width=\"200\">\n                    <p><span class=\"redText\">Bad choice,</span> the bee was friendly.<br>Your bonus pay is unchanged, and remains at $0.54.</p>\n            ","response":0,"trial_type":"html-button-response","trial_index":14,"time_elapsed":313881,"internal_node_id":"0.0-4.0-1.3","subject_id":"6005c01be34dba4d8e9f3b39","study_id":"6197b3f67c2b5cd3b6d9596a","session_id":"6197b57fc3b609a008c3a5a8","condition":"full-information","relevant_dimensions":["antennae","legs"],"bee_group":{"antennae":"A","wings":"X","pattern":"X","legs":"M"},"bonus":1.600000000000001},{"rt":3495.8000000715256,"stimulus":"bees-with-color/bee-A1DF.svg","response":0,"trial_type":"image-button-response","trial_index":15,"time_elapsed":317381,"internal_node_id":"0.0-4.0-0.4","subject_id":"6005c01be34dba4d8e9f3b39","study_id":"6197b3f67c2b5cd3b6d9596a","session_id":"6197b57fc3b609a008c3a5a8","condition":"full-information","relevant_dimensions":["antennae","legs"],"bee_group":{"antennae":"A","wings":"X","pattern":"X","legs":"M"},"action":"harvest","summary":"good-harvest","bonus":1.600000000000001},{"rt":5323.200000047684,"stimulus":"\n                    <p><b>Action: <em>harvest</em></b></p>\n                    <p>This is the bee that you just saw.</p>\n                    <img src=\"bees-with-color/bee-A1DF.svg\" width=\"200\">\n                    <p><span class=\"greenText\"><b>Successful harvest!</b></span><br>Your pay has increased by $0.02. Your bonus pay is now $0.56.</p>\n            ","response":0,"trial_type":"html-button-response","trial_index":16,"time_elapsed":322707,"internal_node_id":"0.0-4.0-1.4","subject_id":"6005c01be34dba4d8e9f3b39","study_id":"6197b3f67c2b5cd3b6d9596a","session_id":"6197b57fc3b609a008c3a5a8","condition":"full-information","relevant_dimensions":["antennae","legs"],"bee_group":{"antennae":"A","wings":"X","pattern":"X","legs":"M"},"bonus":1.600000000000001},{"rt":4903.399999976158,"stimulus":"bees-with-color/bee-B1DF.svg","response":1,"trial_type":"image-button-response","trial_index":17,"time_elapsed":327614,"internal_node_id":"0.0-4.0-0.5","subject_id":"6005c01be34dba4d8e9f3b39","study_id":"6197b3f67c2b5cd3b6d9596a","session_id":"6197b57fc3b609a008c3a5a8","condition":"full-information","relevant_dimensions":["antennae","legs"],"bee_group":{"antennae":"A","wings":"X","pattern":"X","legs":"M"},"action":"avoid","summary":"bad-avoid","bonus":1.600000000000001},{"rt":9315.299999952316,"stimulus":"\n                    <p><b>Action: <em>avoid</em></b></p>\n                    <p>This is the bee that you just saw.</p>\n                    <img src=\"bees-with-color/bee-B1DF.svg\" width=\"200\">\n                    <p><span class=\"redText\">Bad choice,</span> the bee was friendly.<br>Your bonus pay is unchanged, and remains at $0.56.</p>\n            ","response":0,"trial_type":"html-button-response","trial_index":18,"time_elapsed":336933,"internal_node_id":"0.0-4.0-1.5","subject_id":"6005c01be34dba4d8e9f3b39","study_id":"6197b3f67c2b5cd3b6d9596a","session_id":"6197b57fc3b609a008c3a5a8","condition":"full-information","relevant_dimensions":["antennae","legs"],"bee_group":{"antennae":"A","wings":"X","pattern":"X","legs":"M"},"bonus":1.600000000000001},{"rt":5080.799999952316,"stimulus":"bees-with-color/bee-B1SF.svg","response":1,"trial_type":"image-button-response","trial_index":19,"time_elapsed":342018,"internal_node_id":"0.0-4.0-0.6","subject_id":"6005c01be34dba4d8e9f3b39","study_id":"6197b3f67c2b5cd3b6d9596a","session_id":"6197b57fc3b609a008c3a5a8","condition":"full-information","relevant_dimensions":["antennae","legs"],"bee_group":{"antennae":"A","wings":"X","pattern":"X","legs":"M"},"action":"avoid","summary":"bad-avoid","bonus":1.600000000000001},{"rt":4376.400000095367,"stimulus":"\n                    <p><b>Action: <em>avoid</em></b></p>\n                    <p>This is the bee that you just saw.</p>\n                    <img src=\"bees-with-color/bee-B1SF.svg\" width=\"200\">\n                    <p><span class=\"redText\">Bad choice,</span> the bee was friendly.<br>Your bonus pay is unchanged, and remains at $0.56.</p>\n            ","response":0,"trial_type":"html-button-response","trial_index":20,"time_elapsed":346398,"internal_node_id":"0.0-4.0-1.6","subject_id":"6005c01be34dba4d8e9f3b39","study_id":"6197b3f67c2b5cd3b6d9596a","session_id":"6197b57fc3b609a008c3a5a8","condition":"full-information","relevant_dimensions":["antennae","legs"],"bee_group":{"antennae":"A","wings":"X","pattern":"X","legs":"M"},"bonus":1.600000000000001},{"rt":4730.299999952316,"stimulus":"bees-with-color/bee-B2DF.svg","response":0,"trial_type":"image-button-response","trial_index":21,"time_elapsed":351133,"internal_node_id":"0.0-4.0-0.7","subject_id":"6005c01be34dba4d8e9f3b39","study_id":"6197b3f67c2b5cd3b6d9596a","session_id":"6197b57fc3b609a008c3a5a8","condition":"full-information","relevant_dimensions":["antennae","legs"],"bee_group":{"antennae":"A","wings":"X","pattern":"X","legs":"M"},"action":"harvest","summary":"good-harvest","bonus":1.600000000000001},{"rt":4454.899999976158,"stimulus":"\n                    <p><b>Action: <em>harvest</em></b></p>\n                    <p>This is the bee that you just saw.</p>\n                    <img src=\"bees-with-color/bee-B2DF.svg\" width=\"200\">\n                    <p><span class=\"greenText\"><b>Successful harvest!</b></span><br>Your pay has increased by $0.02. Your bonus pay is now $0.58.</p>\n            ","response":0,"trial_type":"html-button-response","trial_index":22,"time_elapsed":355589,"internal_node_id":"0.0-4.0-1.7","subject_id":"6005c01be34dba4d8e9f3b39","study_id":"6197b3f67c2b5cd3b6d9596a","session_id":"6197b57fc3b609a008c3a5a8","condition":"full-information","relevant_dimensions":["antennae","legs"],"bee_group":{"antennae":"A","wings":"X","pattern":"X","legs":"M"},"bonus":1.600000000000001},{"rt":4596.5,"stimulus":"bees-with-color/bee-A1SF.svg","response":0,"trial_type":"image-button-response","trial_index":23,"time_elapsed":360188,"internal_node_id":"0.0-4.0-0.8","subject_id":"6005c01be34dba4d8e9f3b39","study_id":"6197b3f67c2b5cd3b6d9596a","session_id":"6197b57fc3b609a008c3a5a8","condition":"full-information","relevant_dimensions":["antennae","legs"],"bee_group":{"antennae":"A","wings":"X","pattern":"X","legs":"M"},"action":"harvest","summary":"good-harvest","bonus":1.600000000000001},{"rt":1988.8999999761581,"stimulus":"\n                    <p><b>Action: <em>harvest</em></b></p>\n                    <p>This is the bee that you just saw.</p>\n                    <img src=\"bees-with-color/bee-A1SF.svg\" width=\"200\">\n                    <p><span class=\"greenText\"><b>Successful harvest!</b></span><br>Your pay has increased by $0.02. Your bonus pay is now $0.60.</p>\n            ","response":0,"trial_type":"html-button-response","trial_index":24,"time_elapsed":362179,"internal_node_id":"0.0-4.0-1.8","subject_id":"6005c01be34dba4d8e9f3b39","study_id":"6197b3f67c2b5cd3b6d9596a","session_id":"6197b57fc3b609a008c3a5a8","condition":"full-information","relevant_dimensions":["antennae","legs"],"bee_group":{"antennae":"A","wings":"X","pattern":"X","legs":"M"},"bonus":1.600000000000001},{"rt":3154.2999999523163,"stimulus":"bees-with-color/bee-B1SM.svg","response":1,"trial_type":"image-button-response","trial_index":25,"time_elapsed":365337,"internal_node_id":"0.0-4.0-0.9","subject_id":"6005c01be34dba4d8e9f3b39","study_id":"6197b3f67c2b5cd3b6d9596a","session_id":"6197b57fc3b609a008c3a5a8","condition":"full-information","relevant_dimensions":["antennae","legs"],"bee_group":{"antennae":"A","wings":"X","pattern":"X","legs":"M"},"action":"avoid","summary":"bad-avoid","bonus":1.600000000000001},{"rt":6036.200000047684,"stimulus":"\n                    <p><b>Action: <em>avoid</em></b></p>\n                    <p>This is the bee that you just saw.</p>\n                    <img src=\"bees-with-color/bee-B1SM.svg\" width=\"200\">\n                    <p><span class=\"redText\">Bad choice,</span> the bee was friendly.<br>Your bonus pay is unchanged, and remains at $0.60.</p>\n            ","response":0,"trial_type":"html-button-response","trial_index":26,"time_elapsed":371376,"internal_node_id":"0.0-4.0-1.9","subject_id":"6005c01be34dba4d8e9f3b39","study_id":"6197b3f67c2b5cd3b6d9596a","session_id":"6197b57fc3b609a008c3a5a8","condition":"full-information","relevant_dimensions":["antennae","legs"],"bee_group":{"antennae":"A","wings":"X","pattern":"X","legs":"M"},"bonus":1.600000000000001},{"rt":4353.599999904633,"stimulus":"bees-with-color/bee-A2DF.svg","response":1,"trial_type":"image-button-response","trial_index":27,"time_elapsed":375732,"internal_node_id":"0.0-4.0-0.10","subject_id":"6005c01be34dba4d8e9f3b39","study_id":"6197b3f67c2b5cd3b6d9596a","session_id":"6197b57fc3b609a008c3a5a8","condition":"full-information","relevant_dimensions":["antennae","legs"],"bee_group":{"antennae":"A","wings":"X","pattern":"X","legs":"M"},"action":"avoid","summary":"bad-avoid","bonus":1.600000000000001},{"rt":10745.599999904633,"stimulus":"\n                    <p><b>Action: <em>avoid</em></b></p>\n                    <p>This is the bee that you just saw.</p>\n                    <img src=\"bees-with-color/bee-A2DF.svg\" width=\"200\">\n                    <p><span class=\"redText\">Bad choice,</span> the bee was friendly.<br>Your bonus pay is unchanged, and remains at $0.60.</p>\n            ","response":0,"trial_type":"html-button-response","trial_index":28,"time_elapsed":386481,"internal_node_id":"0.0-4.0-1.10","subject_id":"6005c01be34dba4d8e9f3b39","study_id":"6197b3f67c2b5cd3b6d9596a","session_id":"6197b57fc3b609a008c3a5a8","condition":"full-information","relevant_dimensions":["antennae","legs"],"bee_group":{"antennae":"A","wings":"X","pattern":"X","legs":"M"},"bonus":1.600000000000001},{"rt":2984.899999976158,"stimulus":"bees-with-color/bee-A2SM.svg","response":1,"trial_type":"image-button-response","trial_index":29,"time_elapsed":389468,"internal_node_id":"0.0-4.0-0.11","subject_id":"6005c01be34dba4d8e9f3b39","study_id":"6197b3f67c2b5cd3b6d9596a","session_id":"6197b57fc3b609a008c3a5a8","condition":"full-information","relevant_dimensions":["antennae","legs"],"bee_group":{"antennae":"A","wings":"X","pattern":"X","legs":"M"},"action":"avoid","summary":"good-avoid","bonus":1.600000000000001},{"rt":1595.5999999046326,"stimulus":"\n                    <p><b>Action: <em>avoid</em></b></p>\n                    <p>This is the bee that you just saw.</p>\n                    <img src=\"bees-with-color/bee-A2SM.svg\" width=\"200\">\n                    <p><span class=\"greenText\">Good choice!</span>  This bee would have stung you.<br>Your bonus pay is unchanged, and remains at $0.60.</p>\n            ","response":0,"trial_type":"html-button-response","trial_index":30,"time_elapsed":391067,"internal_node_id":"0.0-4.0-1.11","subject_id":"6005c01be34dba4d8e9f3b39","study_id":"6197b3f67c2b5cd3b6d9596a","session_id":"6197b57fc3b609a008c3a5a8","condition":"full-information","relevant_dimensions":["antennae","legs"],"bee_group":{"antennae":"A","wings":"X","pattern":"X","legs":"M"},"bonus":1.600000000000001},{"rt":4414.5,"stimulus":"bees-with-color/bee-B2SF.svg","response":0,"trial_type":"image-button-response","trial_index":31,"time_elapsed":395483,"internal_node_id":"0.0-4.0-0.12","subject_id":"6005c01be34dba4d8e9f3b39","study_id":"6197b3f67c2b5cd3b6d9596a","session_id":"6197b57fc3b609a008c3a5a8","condition":"full-information","relevant_dimensions":["antennae","legs"],"bee_group":{"antennae":"A","wings":"X","pattern":"X","legs":"M"},"action":"harvest","summary":"good-harvest","bonus":1.600000000000001},{"rt":2017,"stimulus":"\n                    <p><b>Action: <em>harvest</em></b></p>\n                    <p>This is the bee that you just saw.</p>\n                    <img src=\"bees-with-color/bee-B2SF.svg\" width=\"200\">\n                    <p><span class=\"greenText\"><b>Successful harvest!</b></span><br>Your pay has increased by $0.02. Your bonus pay is now $0.62.</p>\n            ","response":0,"trial_type":"html-button-response","trial_index":32,"time_elapsed":397502,"internal_node_id":"0.0-4.0-1.12","subject_id":"6005c01be34dba4d8e9f3b39","study_id":"6197b3f67c2b5cd3b6d9596a","session_id":"6197b57fc3b609a008c3a5a8","condition":"full-information","relevant_dimensions":["antennae","legs"],"bee_group":{"antennae":"A","wings":"X","pattern":"X","legs":"M"},"bonus":1.600000000000001},{"rt":3565.1999999284744,"stimulus":"bees-with-color/bee-B2SM.svg","response":1,"trial_type":"image-button-response","trial_index":33,"time_elapsed":401071,"internal_node_id":"0.0-4.0-0.13","subject_id":"6005c01be34dba4d8e9f3b39","study_id":"6197b3f67c2b5cd3b6d9596a","session_id":"6197b57fc3b609a008c3a5a8","condition":"full-information","relevant_dimensions":["antennae","legs"],"bee_group":{"antennae":"A","wings":"X","pattern":"X","legs":"M"},"action":"avoid","summary":"bad-avoid","bonus":1.600000000000001},{"rt":3701.3000000715256,"stimulus":"\n                    <p><b>Action: <em>avoid</em></b></p>\n                    <p>This is the bee that you just saw.</p>\n                    <img src=\"bees-with-color/bee-B2SM.svg\" width=\"200\">\n                    <p><span class=\"redText\">Bad choice,</span> the bee was friendly.<br>Your bonus pay is unchanged, and remains at $0.62.</p>\n            ","response":0,"trial_type":"html-button-response","trial_index":34,"time_elapsed":404775,"internal_node_id":"0.0-4.0-1.13","subject_id":"6005c01be34dba4d8e9f3b39","study_id":"6197b3f67c2b5cd3b6d9596a","session_id":"6197b57fc3b609a008c3a5a8","condition":"full-information","relevant_dimensions":["antennae","legs"],"bee_group":{"antennae":"A","wings":"X","pattern":"X","legs":"M"},"bonus":1.600000000000001},{"rt":3978.8000000715256,"stimulus":"bees-with-color/bee-B1DM.svg","response":1,"trial_type":"image-button-response","trial_index":35,"time_elapsed":408755,"internal_node_id":"0.0-4.0-0.14","subject_id":"6005c01be34dba4d8e9f3b39","study_id":"6197b3f67c2b5cd3b6d9596a","session_id":"6197b57fc3b609a008c3a5a8","condition":"full-information","relevant_dimensions":["antennae","legs"],"bee_group":{"antennae":"A","wings":"X","pattern":"X","legs":"M"},"action":"avoid","summary":"bad-avoid","bonus":1.600000000000001},{"rt":4368.300000071526,"stimulus":"\n                    <p><b>Action: <em>avoid</em></b></p>\n                    <p>This is the bee that you just saw.</p>\n                    <img src=\"bees-with-color/bee-B1DM.svg\" width=\"200\">\n                    <p><span class=\"redText\">Bad choice,</span> the bee was friendly.<br>Your bonus pay is unchanged, and remains at $0.62.</p>\n            ","response":0,"trial_type":"html-button-response","trial_index":36,"time_elapsed":413125,"internal_node_id":"0.0-4.0-1.14","subject_id":"6005c01be34dba4d8e9f3b39","study_id":"6197b3f67c2b5cd3b6d9596a","session_id":"6197b57fc3b609a008c3a5a8","condition":"full-information","relevant_dimensions":["antennae","legs"],"bee_group":{"antennae":"A","wings":"X","pattern":"X","legs":"M"},"bonus":1.600000000000001},{"rt":3267.399999976158,"stimulus":"bees-with-color/bee-A2DM.svg","response":1,"trial_type":"image-button-response","trial_index":37,"time_elapsed":416396,"internal_node_id":"0.0-4.0-0.15","subject_id":"6005c01be34dba4d8e9f3b39","study_id":"6197b3f67c2b5cd3b6d9596a","session_id":"6197b57fc3b609a008c3a5a8","condition":"full-information","relevant_dimensions":["antennae","legs"],"bee_group":{"antennae":"A","wings":"X","pattern":"X","legs":"M"},"action":"avoid","summary":"good-avoid","bonus":1.600000000000001},{"rt":4872.5,"stimulus":"\n                    <p><b>Action: <em>avoid</em></b></p>\n                    <p>This is the bee that you just saw.</p>\n                    <img src=\"bees-with-color/bee-A2DM.svg\" width=\"200\">\n                    <p><span class=\"greenText\">Good choice!</span>  This bee would have stung you.<br>Your bonus pay is unchanged, and remains at $0.62.</p>\n            ","response":0,"trial_type":"html-button-response","trial_index":38,"time_elapsed":421270,"internal_node_id":"0.0-4.0-1.15","subject_id":"6005c01be34dba4d8e9f3b39","study_id":"6197b3f67c2b5cd3b6d9596a","session_id":"6197b57fc3b609a008c3a5a8","condition":"full-information","relevant_dimensions":["antennae","legs"],"bee_group":{"antennae":"A","wings":"X","pattern":"X","legs":"M"},"bonus":1.600000000000001},{"rt":2429.6999999284744,"stimulus":"bees-with-color/bee-A1SF.svg","response":0,"trial_type":"image-button-response","trial_index":39,"time_elapsed":423701,"internal_node_id":"0.0-4.0-0.16","subject_id":"6005c01be34dba4d8e9f3b39","study_id":"6197b3f67c2b5cd3b6d9596a","session_id":"6197b57fc3b609a008c3a5a8","condition":"full-information","relevant_dimensions":["antennae","legs"],"bee_group":{"antennae":"A","wings":"X","pattern":"X","legs":"M"},"action":"harvest","summary":"good-harvest","bonus":1.600000000000001},{"rt":1367.6999999284744,"stimulus":"\n                    <p><b>Action: <em>harvest</em></b></p>\n                    <p>This is the bee that you just saw.</p>\n                    <img src=\"bees-with-color/bee-A1SF.svg\" width=\"200\">\n                    <p><span class=\"greenText\"><b>Successful harvest!</b></span><br>Your pay has increased by $0.02. Your bonus pay is now $0.64.</p>\n            ","response":0,"trial_type":"html-button-response","trial_index":40,"time_elapsed":425071,"internal_node_id":"0.0-4.0-1.16","subject_id":"6005c01be34dba4d8e9f3b39","study_id":"6197b3f67c2b5cd3b6d9596a","session_id":"6197b57fc3b609a008c3a5a8","condition":"full-information","relevant_dimensions":["antennae","legs"],"bee_group":{"antennae":"A","wings":"X","pattern":"X","legs":"M"},"bonus":1.600000000000001},{"rt":3656,"stimulus":"bees-with-color/bee-A1DF.svg","response":1,"trial_type":"image-button-response","trial_index":41,"time_elapsed":428731,"internal_node_id":"0.0-4.0-0.17","subject_id":"6005c01be34dba4d8e9f3b39","study_id":"6197b3f67c2b5cd3b6d9596a","session_id":"6197b57fc3b609a008c3a5a8","condition":"full-information","relevant_dimensions":["antennae","legs"],"bee_group":{"antennae":"A","wings":"X","pattern":"X","legs":"M"},"action":"avoid","summary":"bad-avoid","bonus":1.600000000000001},{"rt":5495.899999976158,"stimulus":"\n                    <p><b>Action: <em>avoid</em></b></p>\n                    <p>This is the bee that you just saw.</p>\n                    <img src=\"bees-with-color/bee-A1DF.svg\" width=\"200\">\n                    <p><span class=\"redText\">Bad choice,</span> the bee was friendly.<br>Your bonus pay is unchanged, and remains at $0.64.</p>\n            ","response":0,"trial_type":"html-button-response","trial_index":42,"time_elapsed":434230,"internal_node_id":"0.0-4.0-1.17","subject_id":"6005c01be34dba4d8e9f3b39","study_id":"6197b3f67c2b5cd3b6d9596a","session_id":"6197b57fc3b609a008c3a5a8","condition":"full-information","relevant_dimensions":["antennae","legs"],"bee_group":{"antennae":"A","wings":"X","pattern":"X","legs":"M"},"bonus":1.600000000000001},{"rt":4822.199999928474,"stimulus":"bees-with-color/bee-A1DM.svg","response":1,"trial_type":"image-button-response","trial_index":43,"time_elapsed":439055,"internal_node_id":"0.0-4.0-0.18","subject_id":"6005c01be34dba4d8e9f3b39","study_id":"6197b3f67c2b5cd3b6d9596a","session_id":"6197b57fc3b609a008c3a5a8","condition":"full-information","relevant_dimensions":["antennae","legs"],"bee_group":{"antennae":"A","wings":"X","pattern":"X","legs":"M"},"action":"avoid","summary":"good-avoid","bonus":1.600000000000001},{"rt":2140.2000000476837,"stimulus":"\n                    <p><b>Action: <em>avoid</em></b></p>\n                    <p>This is the bee that you just saw.</p>\n                    <img src=\"bees-with-color/bee-A1DM.svg\" width=\"200\">\n                    <p><span class=\"greenText\">Good choice!</span>  This bee would have stung you.<br>Your bonus pay is unchanged, and remains at $0.64.</p>\n            ","response":0,"trial_type":"html-button-response","trial_index":44,"time_elapsed":441198,"internal_node_id":"0.0-4.0-1.18","subject_id":"6005c01be34dba4d8e9f3b39","study_id":"6197b3f67c2b5cd3b6d9596a","session_id":"6197b57fc3b609a008c3a5a8","condition":"full-information","relevant_dimensions":["antennae","legs"],"bee_group":{"antennae":"A","wings":"X","pattern":"X","legs":"M"},"bonus":1.600000000000001},{"rt":4857.299999952316,"stimulus":"bees-with-color/bee-B2DF.svg","response":0,"trial_type":"image-button-response","trial_index":45,"time_elapsed":446058,"internal_node_id":"0.0-4.0-0.19","subject_id":"6005c01be34dba4d8e9f3b39","study_id":"6197b3f67c2b5cd3b6d9596a","session_id":"6197b57fc3b609a008c3a5a8","condition":"full-information","relevant_dimensions":["antennae","legs"],"bee_group":{"antennae":"A","wings":"X","pattern":"X","legs":"M"},"action":"harvest","summary":"good-harvest","bonus":1.600000000000001},{"rt":1547.6999999284744,"stimulus":"\n                    <p><b>Action: <em>harvest</em></b></p>\n                    <p>This is the bee that you just saw.</p>\n                    <img src=\"bees-with-color/bee-B2DF.svg\" width=\"200\">\n                    <p><span class=\"greenText\"><b>Successful harvest!</b></span><br>Your pay has increased by $0.02. Your bonus pay is now $0.66.</p>\n            ","response":0,"trial_type":"html-button-response","trial_index":46,"time_elapsed":447607,"internal_node_id":"0.0-4.0-1.19","subject_id":"6005c01be34dba4d8e9f3b39","study_id":"6197b3f67c2b5cd3b6d9596a","session_id":"6197b57fc3b609a008c3a5a8","condition":"full-information","relevant_dimensions":["antennae","legs"],"bee_group":{"antennae":"A","wings":"X","pattern":"X","legs":"M"},"bonus":1.600000000000001},{"rt":3158.2000000476837,"stimulus":"bees-with-color/bee-B1SM.svg","response":0,"trial_type":"image-button-response","trial_index":47,"time_elapsed":450769,"internal_node_id":"0.0-4.0-0.20","subject_id":"6005c01be34dba4d8e9f3b39","study_id":"6197b3f67c2b5cd3b6d9596a","session_id":"6197b57fc3b609a008c3a5a8","condition":"full-information","relevant_dimensions":["antennae","legs"],"bee_group":{"antennae":"A","wings":"X","pattern":"X","legs":"M"},"action":"harvest","summary":"good-harvest","bonus":1.600000000000001},{"rt":1536.6999999284744,"stimulus":"\n                    <p><b>Action: <em>harvest</em></b></p>\n                    <p>This is the bee that you just saw.</p>\n                    <img src=\"bees-with-color/bee-B1SM.svg\" width=\"200\">\n                    <p><span class=\"greenText\"><b>Successful harvest!</b></span><br>Your pay has increased by $0.02. Your bonus pay is now $0.68.</p>\n            ","response":0,"trial_type":"html-button-response","trial_index":48,"time_elapsed":452307,"internal_node_id":"0.0-4.0-1.20","subject_id":"6005c01be34dba4d8e9f3b39","study_id":"6197b3f67c2b5cd3b6d9596a","session_id":"6197b57fc3b609a008c3a5a8","condition":"full-information","relevant_dimensions":["antennae","legs"],"bee_group":{"antennae":"A","wings":"X","pattern":"X","legs":"M"},"bonus":1.600000000000001},{"rt":3644.600000023842,"stimulus":"bees-with-color/bee-B1DM.svg","response":1,"trial_type":"image-button-response","trial_index":49,"time_elapsed":455956,"internal_node_id":"0.0-4.0-0.21","subject_id":"6005c01be34dba4d8e9f3b39","study_id":"6197b3f67c2b5cd3b6d9596a","session_id":"6197b57fc3b609a008c3a5a8","condition":"full-information","relevant_dimensions":["antennae","legs"],"bee_group":{"antennae":"A","wings":"X","pattern":"X","legs":"M"},"action":"avoid","summary":"bad-avoid","bonus":1.600000000000001},{"rt":1552.2999999523163,"stimulus":"\n                    <p><b>Action: <em>avoid</em></b></p>\n                    <p>This is the bee that you just saw.</p>\n                    <img src=\"bees-with-color/bee-B1DM.svg\" width=\"200\">\n                    <p><span class=\"redText\">Bad choice,</span> the bee was friendly.<br>Your bonus pay is unchanged, and remains at $0.68.</p>\n            ","response":0,"trial_type":"html-button-response","trial_index":50,"time_elapsed":457510,"internal_node_id":"0.0-4.0-1.21","subject_id":"6005c01be34dba4d8e9f3b39","study_id":"6197b3f67c2b5cd3b6d9596a","session_id":"6197b57fc3b609a008c3a5a8","condition":"full-information","relevant_dimensions":["antennae","legs"],"bee_group":{"antennae":"A","wings":"X","pattern":"X","legs":"M"},"bonus":1.600000000000001},{"rt":2902.5,"stimulus":"bees-with-color/bee-A2DM.svg","response":1,"trial_type":"image-button-response","trial_index":51,"time_elapsed":460417,"internal_node_id":"0.0-4.0-0.22","subject_id":"6005c01be34dba4d8e9f3b39","study_id":"6197b3f67c2b5cd3b6d9596a","session_id":"6197b57fc3b609a008c3a5a8","condition":"full-information","relevant_dimensions":["antennae","legs"],"bee_group":{"antennae":"A","wings":"X","pattern":"X","legs":"M"},"action":"avoid","summary":"good-avoid","bonus":1.600000000000001},{"rt":1492.7000000476837,"stimulus":"\n                    <p><b>Action: <em>avoid</em></b></p>\n                    <p>This is the bee that you just saw.</p>\n                    <img src=\"bees-with-color/bee-A2DM.svg\" width=\"200\">\n                    <p><span class=\"greenText\">Good choice!</span>  This bee would have stung you.<br>Your bonus pay is unchanged, and remains at $0.68.</p>\n            ","response":0,"trial_type":"html-button-response","trial_index":52,"time_elapsed":461912,"internal_node_id":"0.0-4.0-1.22","subject_id":"6005c01be34dba4d8e9f3b39","study_id":"6197b3f67c2b5cd3b6d9596a","session_id":"6197b57fc3b609a008c3a5a8","condition":"full-information","relevant_dimensions":["antennae","legs"],"bee_group":{"antennae":"A","wings":"X","pattern":"X","legs":"M"},"bonus":1.600000000000001},{"rt":2945.399999976158,"stimulus":"bees-with-color/bee-B2SM.svg","response":1,"trial_type":"image-button-response","trial_index":53,"time_elapsed":464861,"internal_node_id":"0.0-4.0-0.23","subject_id":"6005c01be34dba4d8e9f3b39","study_id":"6197b3f67c2b5cd3b6d9596a","session_id":"6197b57fc3b609a008c3a5a8","condition":"full-information","relevant_dimensions":["antennae","legs"],"bee_group":{"antennae":"A","wings":"X","pattern":"X","legs":"M"},"action":"avoid","summary":"bad-avoid","bonus":1.600000000000001},{"rt":2496.8000000715256,"stimulus":"\n                    <p><b>Action: <em>avoid</em></b></p>\n                    <p>This is the bee that you just saw.</p>\n                    <img src=\"bees-with-color/bee-B2SM.svg\" width=\"200\">\n                    <p><span class=\"redText\">Bad choice,</span> the bee was friendly.<br>Your bonus pay is unchanged, and remains at $0.68.</p>\n            ","response":0,"trial_type":"html-button-response","trial_index":54,"time_elapsed":467360,"internal_node_id":"0.0-4.0-1.23","subject_id":"6005c01be34dba4d8e9f3b39","study_id":"6197b3f67c2b5cd3b6d9596a","session_id":"6197b57fc3b609a008c3a5a8","condition":"full-information","relevant_dimensions":["antennae","legs"],"bee_group":{"antennae":"A","wings":"X","pattern":"X","legs":"M"},"bonus":1.600000000000001},{"rt":2384.899999976158,"stimulus":"bees-with-color/bee-B1SF.svg","response":0,"trial_type":"image-button-response","trial_index":55,"time_elapsed":469749,"internal_node_id":"0.0-4.0-0.24","subject_id":"6005c01be34dba4d8e9f3b39","study_id":"6197b3f67c2b5cd3b6d9596a","session_id":"6197b57fc3b609a008c3a5a8","condition":"full-information","relevant_dimensions":["antennae","legs"],"bee_group":{"antennae":"A","wings":"X","pattern":"X","legs":"M"},"action":"harvest","summary":"good-harvest","bonus":1.600000000000001},{"rt":1273.2000000476837,"stimulus":"\n                    <p><b>Action: <em>harvest</em></b></p>\n                    <p>This is the bee that you just saw.</p>\n                    <img src=\"bees-with-color/bee-B1SF.svg\" width=\"200\">\n                    <p><span class=\"greenText\"><b>Successful harvest!</b></span><br>Your pay has increased by $0.02. Your bonus pay is now $0.70.</p>\n            ","response":0,"trial_type":"html-button-response","trial_index":56,"time_elapsed":471025,"internal_node_id":"0.0-4.0-1.24","subject_id":"6005c01be34dba4d8e9f3b39","study_id":"6197b3f67c2b5cd3b6d9596a","session_id":"6197b57fc3b609a008c3a5a8","condition":"full-information","relevant_dimensions":["antennae","legs"],"bee_group":{"antennae":"A","wings":"X","pattern":"X","legs":"M"},"bonus":1.600000000000001},{"rt":3530.100000023842,"stimulus":"bees-with-color/bee-B2DM.svg","response":0,"trial_type":"image-button-response","trial_index":57,"time_elapsed":474558,"internal_node_id":"0.0-4.0-0.25","subject_id":"6005c01be34dba4d8e9f3b39","study_id":"6197b3f67c2b5cd3b6d9596a","session_id":"6197b57fc3b609a008c3a5a8","condition":"full-information","relevant_dimensions":["antennae","legs"],"bee_group":{"antennae":"A","wings":"X","pattern":"X","legs":"M"},"action":"harvest","summary":"good-harvest","bonus":1.600000000000001},{"rt":1466.4000000953674,"stimulus":"\n                    <p><b>Action: <em>harvest</em></b></p>\n                    <p>This is the bee that you just saw.</p>\n                    <img src=\"bees-with-color/bee-B2DM.svg\" width=\"200\">\n                    <p><span class=\"greenText\"><b>Successful harvest!</b></span><br>Your pay has increased by $0.02. Your bonus pay is now $0.72.</p>\n            ","response":0,"trial_type":"html-button-response","trial_index":58,"time_elapsed":476028,"internal_node_id":"0.0-4.0-1.25","subject_id":"6005c01be34dba4d8e9f3b39","study_id":"6197b3f67c2b5cd3b6d9596a","session_id":"6197b57fc3b609a008c3a5a8","condition":"full-information","relevant_dimensions":["antennae","legs"],"bee_group":{"antennae":"A","wings":"X","pattern":"X","legs":"M"},"bonus":1.600000000000001},{"rt":3047.399999976158,"stimulus":"bees-with-color/bee-A1SM.svg","response":1,"trial_type":"image-button-response","trial_index":59,"time_elapsed":479079,"internal_node_id":"0.0-4.0-0.26","subject_id":"6005c01be34dba4d8e9f3b39","study_id":"6197b3f67c2b5cd3b6d9596a","session_id":"6197b57fc3b609a008c3a5a8","condition":"full-information","relevant_dimensions":["antennae","legs"],"bee_group":{"antennae":"A","wings":"X","pattern":"X","legs":"M"},"action":"avoid","summary":"good-avoid","bonus":1.600000000000001},{"rt":1266.7000000476837,"stimulus":"\n                    <p><b>Action: <em>avoid</em></b></p>\n                    <p>This is the bee that you just saw.</p>\n                    <img src=\"bees-with-color/bee-A1SM.svg\" width=\"200\">\n                    <p><span class=\"greenText\">Good choice!</span>  This bee would have stung you.<br>Your bonus pay is unchanged, and remains at $0.72.</p>\n            ","response":0,"trial_type":"html-button-response","trial_index":60,"time_elapsed":480349,"internal_node_id":"0.0-4.0-1.26","subject_id":"6005c01be34dba4d8e9f3b39","study_id":"6197b3f67c2b5cd3b6d9596a","session_id":"6197b57fc3b609a008c3a5a8","condition":"full-information","relevant_dimensions":["antennae","legs"],"bee_group":{"antennae":"A","wings":"X","pattern":"X","legs":"M"},"bonus":1.600000000000001},{"rt":6229.299999952316,"stimulus":"bees-with-color/bee-A2DF.svg","response":0,"trial_type":"image-button-response","trial_index":61,"time_elapsed":486581,"internal_node_id":"0.0-4.0-0.27","subject_id":"6005c01be34dba4d8e9f3b39","study_id":"6197b3f67c2b5cd3b6d9596a","session_id":"6197b57fc3b609a008c3a5a8","condition":"full-information","relevant_dimensions":["antennae","legs"],"bee_group":{"antennae":"A","wings":"X","pattern":"X","legs":"M"},"action":"harvest","summary":"good-harvest","bonus":1.600000000000001},{"rt":1255.6000000238419,"stimulus":"\n                    <p><b>Action: <em>harvest</em></b></p>\n                    <p>This is the bee that you just saw.</p>\n                    <img src=\"bees-with-color/bee-A2DF.svg\" width=\"200\">\n                    <p><span class=\"greenText\"><b>Successful harvest!</b></span><br>Your pay has increased by $0.02. Your bonus pay is now $0.74.</p>\n            ","response":0,"trial_type":"html-button-response","trial_index":62,"time_elapsed":487840,"internal_node_id":"0.0-4.0-1.27","subject_id":"6005c01be34dba4d8e9f3b39","study_id":"6197b3f67c2b5cd3b6d9596a","session_id":"6197b57fc3b609a008c3a5a8","condition":"full-information","relevant_dimensions":["antennae","legs"],"bee_group":{"antennae":"A","wings":"X","pattern":"X","legs":"M"},"bonus":1.600000000000001},{"rt":2793.5,"stimulus":"bees-with-color/bee-A2SM.svg","response":1,"trial_type":"image-button-response","trial_index":63,"time_elapsed":490637,"internal_node_id":"0.0-4.0-0.28","subject_id":"6005c01be34dba4d8e9f3b39","study_id":"6197b3f67c2b5cd3b6d9596a","session_id":"6197b57fc3b609a008c3a5a8","condition":"full-information","relevant_dimensions":["antennae","legs"],"bee_group":{"antennae":"A","wings":"X","pattern":"X","legs":"M"},"action":"avoid","summary":"good-avoid","bonus":1.600000000000001},{"rt":1517.9000000953674,"stimulus":"\n                    <p><b>Action: <em>avoid</em></b></p>\n                    <p>This is the bee that you just saw.</p>\n                    <img src=\"bees-with-color/bee-A2SM.svg\" width=\"200\">\n                    <p><span class=\"greenText\">Good choice!</span>  This bee would have stung you.<br>Your bonus pay is unchanged, and remains at $0.74.</p>\n            ","response":0,"trial_type":"html-button-response","trial_index":64,"time_elapsed":492158,"internal_node_id":"0.0-4.0-1.28","subject_id":"6005c01be34dba4d8e9f3b39","study_id":"6197b3f67c2b5cd3b6d9596a","session_id":"6197b57fc3b609a008c3a5a8","condition":"full-information","relevant_dimensions":["antennae","legs"],"bee_group":{"antennae":"A","wings":"X","pattern":"X","legs":"M"},"bonus":1.600000000000001},{"rt":2619.6999999284744,"stimulus":"bees-with-color/bee-A2SF.svg","response":0,"trial_type":"image-button-response","trial_index":65,"time_elapsed":494781,"internal_node_id":"0.0-4.0-0.29","subject_id":"6005c01be34dba4d8e9f3b39","study_id":"6197b3f67c2b5cd3b6d9596a","session_id":"6197b57fc3b609a008c3a5a8","condition":"full-information","relevant_dimensions":["antennae","legs"],"bee_group":{"antennae":"A","wings":"X","pattern":"X","legs":"M"},"action":"harvest","summary":"good-harvest","bonus":1.600000000000001},{"rt":1796.5,"stimulus":"\n                    <p><b>Action: <em>harvest</em></b></p>\n                    <p>This is the bee that you just saw.</p>\n                    <img src=\"bees-with-color/bee-A2SF.svg\" width=\"200\">\n                    <p><span class=\"greenText\"><b>Successful harvest!</b></span><br>Your pay has increased by $0.02. Your bonus pay is now $0.76.</p>\n            ","response":0,"trial_type":"html-button-response","trial_index":66,"time_elapsed":496580,"internal_node_id":"0.0-4.0-1.29","subject_id":"6005c01be34dba4d8e9f3b39","study_id":"6197b3f67c2b5cd3b6d9596a","session_id":"6197b57fc3b609a008c3a5a8","condition":"full-information","relevant_dimensions":["antennae","legs"],"bee_group":{"antennae":"A","wings":"X","pattern":"X","legs":"M"},"bonus":1.600000000000001},{"rt":2863.2000000476837,"stimulus":"bees-with-color/bee-B2SF.svg","response":1,"trial_type":"image-button-response","trial_index":67,"time_elapsed":499444,"internal_node_id":"0.0-4.0-0.30","subject_id":"6005c01be34dba4d8e9f3b39","study_id":"6197b3f67c2b5cd3b6d9596a","session_id":"6197b57fc3b609a008c3a5a8","condition":"full-information","relevant_dimensions":["antennae","legs"],"bee_group":{"antennae":"A","wings":"X","pattern":"X","legs":"M"},"action":"avoid","summary":"bad-avoid","bonus":1.600000000000001},{"rt":2420.5999999046326,"stimulus":"\n                    <p><b>Action: <em>avoid</em></b></p>\n                    <p>This is the bee that you just saw.</p>\n                    <img src=\"bees-with-color/bee-B2SF.svg\" width=\"200\">\n                    <p><span class=\"redText\">Bad choice,</span> the bee was friendly.<br>Your bonus pay is unchanged, and remains at $0.76.</p>\n            ","response":0,"trial_type":"html-button-response","trial_index":68,"time_elapsed":501867,"internal_node_id":"0.0-4.0-1.30","subject_id":"6005c01be34dba4d8e9f3b39","study_id":"6197b3f67c2b5cd3b6d9596a","session_id":"6197b57fc3b609a008c3a5a8","condition":"full-information","relevant_dimensions":["antennae","legs"],"bee_group":{"antennae":"A","wings":"X","pattern":"X","legs":"M"},"bonus":1.600000000000001},{"rt":3302.2999999523163,"stimulus":"bees-with-color/bee-B1DF.svg","response":0,"trial_type":"image-button-response","trial_index":69,"time_elapsed":505173,"internal_node_id":"0.0-4.0-0.31","subject_id":"6005c01be34dba4d8e9f3b39","study_id":"6197b3f67c2b5cd3b6d9596a","session_id":"6197b57fc3b609a008c3a5a8","condition":"full-information","relevant_dimensions":["antennae","legs"],"bee_group":{"antennae":"A","wings":"X","pattern":"X","legs":"M"},"action":"harvest","summary":"good-harvest","bonus":1.600000000000001},{"rt":1312,"stimulus":"\n                    <p><b>Action: <em>harvest</em></b></p>\n                    <p>This is the bee that you just saw.</p>\n                    <img src=\"bees-with-color/bee-B1DF.svg\" width=\"200\">\n                    <p><span class=\"greenText\"><b>Successful harvest!</b></span><br>Your pay has increased by $0.02. Your bonus pay is now $0.78.</p>\n            ","response":0,"trial_type":"html-button-response","trial_index":70,"time_elapsed":506488,"internal_node_id":"0.0-4.0-1.31","subject_id":"6005c01be34dba4d8e9f3b39","study_id":"6197b3f67c2b5cd3b6d9596a","session_id":"6197b57fc3b609a008c3a5a8","condition":"full-information","relevant_dimensions":["antennae","legs"],"bee_group":{"antennae":"A","wings":"X","pattern":"X","legs":"M"},"bonus":1.600000000000001},{"rt":3718.7999999523163,"stimulus":"bees-with-color/bee-B2SF.svg","response":1,"trial_type":"image-button-response","trial_index":71,"time_elapsed":510209,"internal_node_id":"0.0-4.0-0.32","subject_id":"6005c01be34dba4d8e9f3b39","study_id":"6197b3f67c2b5cd3b6d9596a","session_id":"6197b57fc3b609a008c3a5a8","condition":"full-information","relevant_dimensions":["antennae","legs"],"bee_group":{"antennae":"A","wings":"X","pattern":"X","legs":"M"},"action":"avoid","summary":"bad-avoid","bonus":1.600000000000001},{"rt":1384.2999999523163,"stimulus":"\n                    <p><b>Action: <em>avoid</em></b></p>\n                    <p>This is the bee that you just saw.</p>\n                    <img src=\"bees-with-color/bee-B2SF.svg\" width=\"200\">\n                    <p><span class=\"redText\">Bad choice,</span> the bee was friendly.<br>Your bonus pay is unchanged, and remains at $0.78.</p>\n            ","response":0,"trial_type":"html-button-response","trial_index":72,"time_elapsed":511597,"internal_node_id":"0.0-4.0-1.32","subject_id":"6005c01be34dba4d8e9f3b39","study_id":"6197b3f67c2b5cd3b6d9596a","session_id":"6197b57fc3b609a008c3a5a8","condition":"full-information","relevant_dimensions":["antennae","legs"],"bee_group":{"antennae":"A","wings":"X","pattern":"X","legs":"M"},"bonus":1.600000000000001},{"rt":2451.5999999046326,"stimulus":"bees-with-color/bee-A2SF.svg","response":0,"trial_type":"image-button-response","trial_index":73,"time_elapsed":514051,"internal_node_id":"0.0-4.0-0.33","subject_id":"6005c01be34dba4d8e9f3b39","study_id":"6197b3f67c2b5cd3b6d9596a","session_id":"6197b57fc3b609a008c3a5a8","condition":"full-information","relevant_dimensions":["antennae","legs"],"bee_group":{"antennae":"A","wings":"X","pattern":"X","legs":"M"},"action":"harvest","summary":"good-harvest","bonus":1.600000000000001},{"rt":1007.6000000238419,"stimulus":"\n                    <p><b>Action: <em>harvest</em></b></p>\n                    <p>This is the bee that you just saw.</p>\n                    <img src=\"bees-with-color/bee-A2SF.svg\" width=\"200\">\n                    <p><span class=\"greenText\"><b>Successful harvest!</b></span><br>Your pay has increased by $0.02. Your bonus pay is now $0.80.</p>\n            ","response":0,"trial_type":"html-button-response","trial_index":74,"time_elapsed":515062,"internal_node_id":"0.0-4.0-1.33","subject_id":"6005c01be34dba4d8e9f3b39","study_id":"6197b3f67c2b5cd3b6d9596a","session_id":"6197b57fc3b609a008c3a5a8","condition":"full-information","relevant_dimensions":["antennae","legs"],"bee_group":{"antennae":"A","wings":"X","pattern":"X","legs":"M"},"bonus":1.600000000000001},{"rt":2746.7000000476837,"stimulus":"bees-with-color/bee-B1DM.svg","response":0,"trial_type":"image-button-response","trial_index":75,"time_elapsed":517812,"internal_node_id":"0.0-4.0-0.34","subject_id":"6005c01be34dba4d8e9f3b39","study_id":"6197b3f67c2b5cd3b6d9596a","session_id":"6197b57fc3b609a008c3a5a8","condition":"full-information","relevant_dimensions":["antennae","legs"],"bee_group":{"antennae":"A","wings":"X","pattern":"X","legs":"M"},"action":"harvest","summary":"good-harvest","bonus":1.600000000000001},{"rt":1147.8999999761581,"stimulus":"\n                    <p><b>Action: <em>harvest</em></b></p>\n                    <p>This is the bee that you just saw.</p>\n                    <img src=\"bees-with-color/bee-B1DM.svg\" width=\"200\">\n                    <p><span class=\"greenText\"><b>Successful harvest!</b></span><br>Your pay has increased by $0.02. Your bonus pay is now $0.82.</p>\n            ","response":0,"trial_type":"html-button-response","trial_index":76,"time_elapsed":518963,"internal_node_id":"0.0-4.0-1.34","subject_id":"6005c01be34dba4d8e9f3b39","study_id":"6197b3f67c2b5cd3b6d9596a","session_id":"6197b57fc3b609a008c3a5a8","condition":"full-information","relevant_dimensions":["antennae","legs"],"bee_group":{"antennae":"A","wings":"X","pattern":"X","legs":"M"},"bonus":1.600000000000001},{"rt":3046.1999999284744,"stimulus":"bees-with-color/bee-A2DM.svg","response":1,"trial_type":"image-button-response","trial_index":77,"time_elapsed":522014,"internal_node_id":"0.0-4.0-0.35","subject_id":"6005c01be34dba4d8e9f3b39","study_id":"6197b3f67c2b5cd3b6d9596a","session_id":"6197b57fc3b609a008c3a5a8","condition":"full-information","relevant_dimensions":["antennae","legs"],"bee_group":{"antennae":"A","wings":"X","pattern":"X","legs":"M"},"action":"avoid","summary":"good-avoid","bonus":1.600000000000001},{"rt":1383.2000000476837,"stimulus":"\n                    <p><b>Action: <em>avoid</em></b></p>\n                    <p>This is the bee that you just saw.</p>\n                    <img src=\"bees-with-color/bee-A2DM.svg\" width=\"200\">\n                    <p><span class=\"greenText\">Good choice!</span>  This bee would have stung you.<br>Your bonus pay is unchanged, and remains at $0.82.</p>\n            ","response":0,"trial_type":"html-button-response","trial_index":78,"time_elapsed":523400,"internal_node_id":"0.0-4.0-1.35","subject_id":"6005c01be34dba4d8e9f3b39","study_id":"6197b3f67c2b5cd3b6d9596a","session_id":"6197b57fc3b609a008c3a5a8","condition":"full-information","relevant_dimensions":["antennae","legs"],"bee_group":{"antennae":"A","wings":"X","pattern":"X","legs":"M"},"bonus":1.600000000000001},{"rt":2157.8000000715256,"stimulus":"bees-with-color/bee-B2SM.svg","response":0,"trial_type":"image-button-response","trial_index":79,"time_elapsed":525559,"internal_node_id":"0.0-4.0-0.36","subject_id":"6005c01be34dba4d8e9f3b39","study_id":"6197b3f67c2b5cd3b6d9596a","session_id":"6197b57fc3b609a008c3a5a8","condition":"full-information","relevant_dimensions":["antennae","legs"],"bee_group":{"antennae":"A","wings":"X","pattern":"X","legs":"M"},"action":"harvest","summary":"good-harvest","bonus":1.600000000000001},{"rt":1055.2999999523163,"stimulus":"\n                    <p><b>Action: <em>harvest</em></b></p>\n                    <p>This is the bee that you just saw.</p>\n                    <img src=\"bees-with-color/bee-B2SM.svg\" width=\"200\">\n                    <p><span class=\"greenText\"><b>Successful harvest!</b></span><br>Your pay has increased by $0.02. Your bonus pay is now $0.84.</p>\n            ","response":0,"trial_type":"html-button-response","trial_index":80,"time_elapsed":526616,"internal_node_id":"0.0-4.0-1.36","subject_id":"6005c01be34dba4d8e9f3b39","study_id":"6197b3f67c2b5cd3b6d9596a","session_id":"6197b57fc3b609a008c3a5a8","condition":"full-information","relevant_dimensions":["antennae","legs"],"bee_group":{"antennae":"A","wings":"X","pattern":"X","legs":"M"},"bonus":1.600000000000001},{"rt":1827.2000000476837,"stimulus":"bees-with-color/bee-A1SM.svg","response":1,"trial_type":"image-button-response","trial_index":81,"time_elapsed":528445,"internal_node_id":"0.0-4.0-0.37","subject_id":"6005c01be34dba4d8e9f3b39","study_id":"6197b3f67c2b5cd3b6d9596a","session_id":"6197b57fc3b609a008c3a5a8","condition":"full-information","relevant_dimensions":["antennae","legs"],"bee_group":{"antennae":"A","wings":"X","pattern":"X","legs":"M"},"action":"avoid","summary":"good-avoid","bonus":1.600000000000001},{"rt":963.3000000715256,"stimulus":"\n                    <p><b>Action: <em>avoid</em></b></p>\n                    <p>This is the bee that you just saw.</p>\n                    <img src=\"bees-with-color/bee-A1SM.svg\" width=\"200\">\n                    <p><span class=\"greenText\">Good choice!</span>  This bee would have stung you.<br>Your bonus pay is unchanged, and remains at $0.84.</p>\n            ","response":0,"trial_type":"html-button-response","trial_index":82,"time_elapsed":529410,"internal_node_id":"0.0-4.0-1.37","subject_id":"6005c01be34dba4d8e9f3b39","study_id":"6197b3f67c2b5cd3b6d9596a","session_id":"6197b57fc3b609a008c3a5a8","condition":"full-information","relevant_dimensions":["antennae","legs"],"bee_group":{"antennae":"A","wings":"X","pattern":"X","legs":"M"},"bonus":1.600000000000001},{"rt":3889.6999999284744,"stimulus":"bees-with-color/bee-A2DF.svg","response":1,"trial_type":"image-button-response","trial_index":83,"time_elapsed":533304,"internal_node_id":"0.0-4.0-0.38","subject_id":"6005c01be34dba4d8e9f3b39","study_id":"6197b3f67c2b5cd3b6d9596a","session_id":"6197b57fc3b609a008c3a5a8","condition":"full-information","relevant_dimensions":["antennae","legs"],"bee_group":{"antennae":"A","wings":"X","pattern":"X","legs":"M"},"action":"avoid","summary":"bad-avoid","bonus":1.600000000000001},{"rt":1783.3000000715256,"stimulus":"\n                    <p><b>Action: <em>avoid</em></b></p>\n                    <p>This is the bee that you just saw.</p>\n                    <img src=\"bees-with-color/bee-A2DF.svg\" width=\"200\">\n                    <p><span class=\"redText\">Bad choice,</span> the bee was friendly.<br>Your bonus pay is unchanged, and remains at $0.84.</p>\n            ","response":0,"trial_type":"html-button-response","trial_index":84,"time_elapsed":535091,"internal_node_id":"0.0-4.0-1.38","subject_id":"6005c01be34dba4d8e9f3b39","study_id":"6197b3f67c2b5cd3b6d9596a","session_id":"6197b57fc3b609a008c3a5a8","condition":"full-information","relevant_dimensions":["antennae","legs"],"bee_group":{"antennae":"A","wings":"X","pattern":"X","legs":"M"},"bonus":1.600000000000001},{"rt":5055.800000071526,"stimulus":"bees-with-color/bee-A1DF.svg","response":1,"trial_type":"image-button-response","trial_index":85,"time_elapsed":540151,"internal_node_id":"0.0-4.0-0.39","subject_id":"6005c01be34dba4d8e9f3b39","study_id":"6197b3f67c2b5cd3b6d9596a","session_id":"6197b57fc3b609a008c3a5a8","condition":"full-information","relevant_dimensions":["antennae","legs"],"bee_group":{"antennae":"A","wings":"X","pattern":"X","legs":"M"},"action":"avoid","summary":"bad-avoid","bonus":1.600000000000001},{"rt":5586.099999904633,"stimulus":"\n                    <p><b>Action: <em>avoid</em></b></p>\n                    <p>This is the bee that you just saw.</p>\n                    <img src=\"bees-with-color/bee-A1DF.svg\" width=\"200\">\n                    <p><span class=\"redText\">Bad choice,</span> the bee was friendly.<br>Your bonus pay is unchanged, and remains at $0.84.</p>\n            ","response":0,"trial_type":"html-button-response","trial_index":86,"time_elapsed":545741,"internal_node_id":"0.0-4.0-1.39","subject_id":"6005c01be34dba4d8e9f3b39","study_id":"6197b3f67c2b5cd3b6d9596a","session_id":"6197b57fc3b609a008c3a5a8","condition":"full-information","relevant_dimensions":["antennae","legs"],"bee_group":{"antennae":"A","wings":"X","pattern":"X","legs":"M"},"bonus":1.600000000000001},{"rt":2292.2999999523163,"stimulus":"bees-with-color/bee-B1SM.svg","response":0,"trial_type":"image-button-response","trial_index":87,"time_elapsed":548036,"internal_node_id":"0.0-4.0-0.40","subject_id":"6005c01be34dba4d8e9f3b39","study_id":"6197b3f67c2b5cd3b6d9596a","session_id":"6197b57fc3b609a008c3a5a8","condition":"full-information","relevant_dimensions":["antennae","legs"],"bee_group":{"antennae":"A","wings":"X","pattern":"X","legs":"M"},"action":"harvest","summary":"good-harvest","bonus":1.600000000000001},{"rt":1001.7999999523163,"stimulus":"\n                    <p><b>Action: <em>harvest</em></b></p>\n                    <p>This is the bee that you just saw.</p>\n                    <img src=\"bees-with-color/bee-B1SM.svg\" width=\"200\">\n                    <p><span class=\"greenText\"><b>Successful harvest!</b></span><br>Your pay has increased by $0.02. Your bonus pay is now $0.86.</p>\n            ","response":0,"trial_type":"html-button-response","trial_index":88,"time_elapsed":549041,"internal_node_id":"0.0-4.0-1.40","subject_id":"6005c01be34dba4d8e9f3b39","study_id":"6197b3f67c2b5cd3b6d9596a","session_id":"6197b57fc3b609a008c3a5a8","condition":"full-information","relevant_dimensions":["antennae","legs"],"bee_group":{"antennae":"A","wings":"X","pattern":"X","legs":"M"},"bonus":1.600000000000001},{"rt":4212.700000047684,"stimulus":"bees-with-color/bee-B1SF.svg","response":0,"trial_type":"image-button-response","trial_index":89,"time_elapsed":553257,"internal_node_id":"0.0-4.0-0.41","subject_id":"6005c01be34dba4d8e9f3b39","study_id":"6197b3f67c2b5cd3b6d9596a","session_id":"6197b57fc3b609a008c3a5a8","condition":"full-information","relevant_dimensions":["antennae","legs"],"bee_group":{"antennae":"A","wings":"X","pattern":"X","legs":"M"},"action":"harvest","summary":"good-harvest","bonus":1.600000000000001},{"rt":1090.5,"stimulus":"\n                    <p><b>Action: <em>harvest</em></b></p>\n                    <p>This is the bee that you just saw.</p>\n                    <img src=\"bees-with-color/bee-B1SF.svg\" width=\"200\">\n                    <p><span class=\"greenText\"><b>Successful harvest!</b></span><br>Your pay has increased by $0.02. Your bonus pay is now $0.88.</p>\n            ","response":0,"trial_type":"html-button-response","trial_index":90,"time_elapsed":554352,"internal_node_id":"0.0-4.0-1.41","subject_id":"6005c01be34dba4d8e9f3b39","study_id":"6197b3f67c2b5cd3b6d9596a","session_id":"6197b57fc3b609a008c3a5a8","condition":"full-information","relevant_dimensions":["antennae","legs"],"bee_group":{"antennae":"A","wings":"X","pattern":"X","legs":"M"},"bonus":1.600000000000001},{"rt":2364,"stimulus":"bees-with-color/bee-A2SM.svg","response":1,"trial_type":"image-button-response","trial_index":91,"time_elapsed":556720,"internal_node_id":"0.0-4.0-0.42","subject_id":"6005c01be34dba4d8e9f3b39","study_id":"6197b3f67c2b5cd3b6d9596a","session_id":"6197b57fc3b609a008c3a5a8","condition":"full-information","relevant_dimensions":["antennae","legs"],"bee_group":{"antennae":"A","wings":"X","pattern":"X","legs":"M"},"action":"avoid","summary":"good-avoid","bonus":1.600000000000001},{"rt":1152.7000000476837,"stimulus":"\n                    <p><b>Action: <em>avoid</em></b></p>\n                    <p>This is the bee that you just saw.</p>\n                    <img src=\"bees-with-color/bee-A2SM.svg\" width=\"200\">\n                    <p><span class=\"greenText\">Good choice!</span>  This bee would have stung you.<br>Your bonus pay is unchanged, and remains at $0.88.</p>\n            ","response":0,"trial_type":"html-button-response","trial_index":92,"time_elapsed":557874,"internal_node_id":"0.0-4.0-1.42","subject_id":"6005c01be34dba4d8e9f3b39","study_id":"6197b3f67c2b5cd3b6d9596a","session_id":"6197b57fc3b609a008c3a5a8","condition":"full-information","relevant_dimensions":["antennae","legs"],"bee_group":{"antennae":"A","wings":"X","pattern":"X","legs":"M"},"bonus":1.600000000000001},{"rt":2641,"stimulus":"bees-with-color/bee-A1SF.svg","response":0,"trial_type":"image-button-response","trial_index":93,"time_elapsed":560520,"internal_node_id":"0.0-4.0-0.43","subject_id":"6005c01be34dba4d8e9f3b39","study_id":"6197b3f67c2b5cd3b6d9596a","session_id":"6197b57fc3b609a008c3a5a8","condition":"full-information","relevant_dimensions":["antennae","legs"],"bee_group":{"antennae":"A","wings":"X","pattern":"X","legs":"M"},"action":"harvest","summary":"good-harvest","bonus":1.600000000000001},{"rt":987.7000000476837,"stimulus":"\n                    <p><b>Action: <em>harvest</em></b></p>\n                    <p>This is the bee that you just saw.</p>\n                    <img src=\"bees-with-color/bee-A1SF.svg\" width=\"200\">\n                    <p><span class=\"greenText\"><b>Successful harvest!</b></span><br>Your pay has increased by $0.02. Your bonus pay is now $0.90.</p>\n            ","response":0,"trial_type":"html-button-response","trial_index":94,"time_elapsed":561509,"internal_node_id":"0.0-4.0-1.43","subject_id":"6005c01be34dba4d8e9f3b39","study_id":"6197b3f67c2b5cd3b6d9596a","session_id":"6197b57fc3b609a008c3a5a8","condition":"full-information","relevant_dimensions":["antennae","legs"],"bee_group":{"antennae":"A","wings":"X","pattern":"X","legs":"M"},"bonus":1.600000000000001},{"rt":6365.399999976158,"stimulus":"bees-with-color/bee-A1DM.svg","response":1,"trial_type":"image-button-response","trial_index":95,"time_elapsed":567875,"internal_node_id":"0.0-4.0-0.44","subject_id":"6005c01be34dba4d8e9f3b39","study_id":"6197b3f67c2b5cd3b6d9596a","session_id":"6197b57fc3b609a008c3a5a8","condition":"full-information","relevant_dimensions":["antennae","legs"],"bee_group":{"antennae":"A","wings":"X","pattern":"X","legs":"M"},"action":"avoid","summary":"good-avoid","bonus":1.600000000000001},{"rt":1323.6000000238419,"stimulus":"\n                    <p><b>Action: <em>avoid</em></b></p>\n                    <p>This is the bee that you just saw.</p>\n                    <img src=\"bees-with-color/bee-A1DM.svg\" width=\"200\">\n                    <p><span class=\"greenText\">Good choice!</span>  This bee would have stung you.<br>Your bonus pay is unchanged, and remains at $0.90.</p>\n            ","response":0,"trial_type":"html-button-response","trial_index":96,"time_elapsed":569201,"internal_node_id":"0.0-4.0-1.44","subject_id":"6005c01be34dba4d8e9f3b39","study_id":"6197b3f67c2b5cd3b6d9596a","session_id":"6197b57fc3b609a008c3a5a8","condition":"full-information","relevant_dimensions":["antennae","legs"],"bee_group":{"antennae":"A","wings":"X","pattern":"X","legs":"M"},"bonus":1.600000000000001},{"rt":2326.8000000715256,"stimulus":"bees-with-color/bee-B2DM.svg","response":0,"trial_type":"image-button-response","trial_index":97,"time_elapsed":571532,"internal_node_id":"0.0-4.0-0.45","subject_id":"6005c01be34dba4d8e9f3b39","study_id":"6197b3f67c2b5cd3b6d9596a","session_id":"6197b57fc3b609a008c3a5a8","condition":"full-information","relevant_dimensions":["antennae","legs"],"bee_group":{"antennae":"A","wings":"X","pattern":"X","legs":"M"},"action":"harvest","summary":"good-harvest","bonus":1.600000000000001},{"rt":1540.9000000953674,"stimulus":"\n                    <p><b>Action: <em>harvest</em></b></p>\n                    <p>This is the bee that you just saw.</p>\n                    <img src=\"bees-with-color/bee-B2DM.svg\" width=\"200\">\n                    <p><span class=\"greenText\"><b>Successful harvest!</b></span><br>Your pay has increased by $0.02. Your bonus pay is now $0.92.</p>\n            ","response":0,"trial_type":"html-button-response","trial_index":98,"time_elapsed":573077,"internal_node_id":"0.0-4.0-1.45","subject_id":"6005c01be34dba4d8e9f3b39","study_id":"6197b3f67c2b5cd3b6d9596a","session_id":"6197b57fc3b609a008c3a5a8","condition":"full-information","relevant_dimensions":["antennae","legs"],"bee_group":{"antennae":"A","wings":"X","pattern":"X","legs":"M"},"bonus":1.600000000000001},{"rt":1884.6999999284744,"stimulus":"bees-with-color/bee-B1DF.svg","response":0,"trial_type":"image-button-response","trial_index":99,"time_elapsed":574966,"internal_node_id":"0.0-4.0-0.46","subject_id":"6005c01be34dba4d8e9f3b39","study_id":"6197b3f67c2b5cd3b6d9596a","session_id":"6197b57fc3b609a008c3a5a8","condition":"full-information","relevant_dimensions":["antennae","legs"],"bee_group":{"antennae":"A","wings":"X","pattern":"X","legs":"M"},"action":"harvest","summary":"good-harvest","bonus":1.600000000000001},{"rt":1050.6999999284744,"stimulus":"\n                    <p><b>Action: <em>harvest</em></b></p>\n                    <p>This is the bee that you just saw.</p>\n                    <img src=\"bees-with-color/bee-B1DF.svg\" width=\"200\">\n                    <p><span class=\"greenText\"><b>Successful harvest!</b></span><br>Your pay has increased by $0.02. Your bonus pay is now $0.94.</p>\n            ","response":0,"trial_type":"html-button-response","trial_index":100,"time_elapsed":576019,"internal_node_id":"0.0-4.0-1.46","subject_id":"6005c01be34dba4d8e9f3b39","study_id":"6197b3f67c2b5cd3b6d9596a","session_id":"6197b57fc3b609a008c3a5a8","condition":"full-information","relevant_dimensions":["antennae","legs"],"bee_group":{"antennae":"A","wings":"X","pattern":"X","legs":"M"},"bonus":1.600000000000001},{"rt":2032.3000000715256,"stimulus":"bees-with-color/bee-B2DF.svg","response":0,"trial_type":"image-button-response","trial_index":101,"time_elapsed":578056,"internal_node_id":"0.0-4.0-0.47","subject_id":"6005c01be34dba4d8e9f3b39","study_id":"6197b3f67c2b5cd3b6d9596a","session_id":"6197b57fc3b609a008c3a5a8","condition":"full-information","relevant_dimensions":["antennae","legs"],"bee_group":{"antennae":"A","wings":"X","pattern":"X","legs":"M"},"action":"harvest","summary":"good-harvest","bonus":1.600000000000001},{"rt":1084.3999999761581,"stimulus":"\n                    <p><b>Action: <em>harvest</em></b></p>\n                    <p>This is the bee that you just saw.</p>\n                    <img src=\"bees-with-color/bee-B2DF.svg\" width=\"200\">\n                    <p><span class=\"greenText\"><b>Successful harvest!</b></span><br>Your pay has increased by $0.02. Your bonus pay is now $0.96.</p>\n            ","response":0,"trial_type":"html-button-response","trial_index":102,"time_elapsed":579142,"internal_node_id":"0.0-4.0-1.47","subject_id":"6005c01be34dba4d8e9f3b39","study_id":"6197b3f67c2b5cd3b6d9596a","session_id":"6197b57fc3b609a008c3a5a8","condition":"full-information","relevant_dimensions":["antennae","legs"],"bee_group":{"antennae":"A","wings":"X","pattern":"X","legs":"M"},"bonus":1.600000000000001},{"rt":2098.899999976158,"stimulus":"bees-with-color/bee-B1SM.svg","response":0,"trial_type":"image-button-response","trial_index":103,"time_elapsed":581244,"internal_node_id":"0.0-4.0-0.48","subject_id":"6005c01be34dba4d8e9f3b39","study_id":"6197b3f67c2b5cd3b6d9596a","session_id":"6197b57fc3b609a008c3a5a8","condition":"full-information","relevant_dimensions":["antennae","legs"],"bee_group":{"antennae":"A","wings":"X","pattern":"X","legs":"M"},"action":"harvest","summary":"good-harvest","bonus":1.600000000000001},{"rt":1016.7999999523163,"stimulus":"\n                    <p><b>Action: <em>harvest</em></b></p>\n                    <p>This is the bee that you just saw.</p>\n                    <img src=\"bees-with-color/bee-B1SM.svg\" width=\"200\">\n                    <p><span class=\"greenText\"><b>Successful harvest!</b></span><br>Your pay has increased by $0.02. Your bonus pay is now $0.98.</p>\n            ","response":0,"trial_type":"html-button-response","trial_index":104,"time_elapsed":582263,"internal_node_id":"0.0-4.0-1.48","subject_id":"6005c01be34dba4d8e9f3b39","study_id":"6197b3f67c2b5cd3b6d9596a","session_id":"6197b57fc3b609a008c3a5a8","condition":"full-information","relevant_dimensions":["antennae","legs"],"bee_group":{"antennae":"A","wings":"X","pattern":"X","legs":"M"},"bonus":1.600000000000001},{"rt":2995.2000000476837,"stimulus":"bees-with-color/bee-A2SM.svg","response":1,"trial_type":"image-button-response","trial_index":105,"time_elapsed":585260,"internal_node_id":"0.0-4.0-0.49","subject_id":"6005c01be34dba4d8e9f3b39","study_id":"6197b3f67c2b5cd3b6d9596a","session_id":"6197b57fc3b609a008c3a5a8","condition":"full-information","relevant_dimensions":["antennae","legs"],"bee_group":{"antennae":"A","wings":"X","pattern":"X","legs":"M"},"action":"avoid","summary":"good-avoid","bonus":1.600000000000001},{"rt":1356.0999999046326,"stimulus":"\n                    <p><b>Action: <em>avoid</em></b></p>\n                    <p>This is the bee that you just saw.</p>\n                    <img src=\"bees-with-color/bee-A2SM.svg\" width=\"200\">\n                    <p><span class=\"greenText\">Good choice!</span>  This bee would have stung you.<br>Your bonus pay is unchanged, and remains at $0.98.</p>\n            ","response":0,"trial_type":"html-button-response","trial_index":106,"time_elapsed":586619,"internal_node_id":"0.0-4.0-1.49","subject_id":"6005c01be34dba4d8e9f3b39","study_id":"6197b3f67c2b5cd3b6d9596a","session_id":"6197b57fc3b609a008c3a5a8","condition":"full-information","relevant_dimensions":["antennae","legs"],"bee_group":{"antennae":"A","wings":"X","pattern":"X","legs":"M"},"bonus":1.600000000000001},{"rt":1624.6000000238419,"stimulus":"bees-with-color/bee-B2DF.svg","response":0,"trial_type":"image-button-response","trial_index":107,"time_elapsed":588248,"internal_node_id":"0.0-4.0-0.50","subject_id":"6005c01be34dba4d8e9f3b39","study_id":"6197b3f67c2b5cd3b6d9596a","session_id":"6197b57fc3b609a008c3a5a8","condition":"full-information","relevant_dimensions":["antennae","legs"],"bee_group":{"antennae":"A","wings":"X","pattern":"X","legs":"M"},"action":"harvest","summary":"good-harvest","bonus":1.600000000000001},{"rt":1037.2000000476837,"stimulus":"\n                    <p><b>Action: <em>harvest</em></b></p>\n                    <p>This is the bee that you just saw.</p>\n                    <img src=\"bees-with-color/bee-B2DF.svg\" width=\"200\">\n                    <p><span class=\"greenText\"><b>Successful harvest!</b></span><br>Your pay has increased by $0.02. Your bonus pay is now $1.00.</p>\n            ","response":0,"trial_type":"html-button-response","trial_index":108,"time_elapsed":589289,"internal_node_id":"0.0-4.0-1.50","subject_id":"6005c01be34dba4d8e9f3b39","study_id":"6197b3f67c2b5cd3b6d9596a","session_id":"6197b57fc3b609a008c3a5a8","condition":"full-information","relevant_dimensions":["antennae","legs"],"bee_group":{"antennae":"A","wings":"X","pattern":"X","legs":"M"},"bonus":1.600000000000001},{"rt":3038.399999976158,"stimulus":"bees-with-color/bee-A2SF.svg","response":0,"trial_type":"image-button-response","trial_index":109,"time_elapsed":592329,"internal_node_id":"0.0-4.0-0.51","subject_id":"6005c01be34dba4d8e9f3b39","study_id":"6197b3f67c2b5cd3b6d9596a","session_id":"6197b57fc3b609a008c3a5a8","condition":"full-information","relevant_dimensions":["antennae","legs"],"bee_group":{"antennae":"A","wings":"X","pattern":"X","legs":"M"},"action":"harvest","summary":"good-harvest","bonus":1.600000000000001},{"rt":975.0999999046326,"stimulus":"\n                    <p><b>Action: <em>harvest</em></b></p>\n                    <p>This is the bee that you just saw.</p>\n                    <img src=\"bees-with-color/bee-A2SF.svg\" width=\"200\">\n                    <p><span class=\"greenText\"><b>Successful harvest!</b></span><br>Your pay has increased by $0.02. Your bonus pay is now $1.02.</p>\n            ","response":0,"trial_type":"html-button-response","trial_index":110,"time_elapsed":593306,"internal_node_id":"0.0-4.0-1.51","subject_id":"6005c01be34dba4d8e9f3b39","study_id":"6197b3f67c2b5cd3b6d9596a","session_id":"6197b57fc3b609a008c3a5a8","condition":"full-information","relevant_dimensions":["antennae","legs"],"bee_group":{"antennae":"A","wings":"X","pattern":"X","legs":"M"},"bonus":1.600000000000001},{"rt":3397.3000000715256,"stimulus":"bees-with-color/bee-B2SM.svg","response":0,"trial_type":"image-button-response","trial_index":111,"time_elapsed":596705,"internal_node_id":"0.0-4.0-0.52","subject_id":"6005c01be34dba4d8e9f3b39","study_id":"6197b3f67c2b5cd3b6d9596a","session_id":"6197b57fc3b609a008c3a5a8","condition":"full-information","relevant_dimensions":["antennae","legs"],"bee_group":{"antennae":"A","wings":"X","pattern":"X","legs":"M"},"action":"harvest","summary":"good-harvest","bonus":1.600000000000001},{"rt":1017.1999999284744,"stimulus":"\n                    <p><b>Action: <em>harvest</em></b></p>\n                    <p>This is the bee that you just saw.</p>\n                    <img src=\"bees-with-color/bee-B2SM.svg\" width=\"200\">\n                    <p><span class=\"greenText\"><b>Successful harvest!</b></span><br>Your pay has increased by $0.02. Your bonus pay is now $1.04.</p>\n            ","response":0,"trial_type":"html-button-response","trial_index":112,"time_elapsed":597724,"internal_node_id":"0.0-4.0-1.52","subject_id":"6005c01be34dba4d8e9f3b39","study_id":"6197b3f67c2b5cd3b6d9596a","session_id":"6197b57fc3b609a008c3a5a8","condition":"full-information","relevant_dimensions":["antennae","legs"],"bee_group":{"antennae":"A","wings":"X","pattern":"X","legs":"M"},"bonus":1.600000000000001},{"rt":2064,"stimulus":"bees-with-color/bee-A1SF.svg","response":0,"trial_type":"image-button-response","trial_index":113,"time_elapsed":599792,"internal_node_id":"0.0-4.0-0.53","subject_id":"6005c01be34dba4d8e9f3b39","study_id":"6197b3f67c2b5cd3b6d9596a","session_id":"6197b57fc3b609a008c3a5a8","condition":"full-information","relevant_dimensions":["antennae","legs"],"bee_group":{"antennae":"A","wings":"X","pattern":"X","legs":"M"},"action":"harvest","summary":"good-harvest","bonus":1.600000000000001},{"rt":1005,"stimulus":"\n                    <p><b>Action: <em>harvest</em></b></p>\n                    <p>This is the bee that you just saw.</p>\n                    <img src=\"bees-with-color/bee-A1SF.svg\" width=\"200\">\n                    <p><span class=\"greenText\"><b>Successful harvest!</b></span><br>Your pay has increased by $0.02. Your bonus pay is now $1.06.</p>\n            ","response":0,"trial_type":"html-button-response","trial_index":114,"time_elapsed":600801,"internal_node_id":"0.0-4.0-1.53","subject_id":"6005c01be34dba4d8e9f3b39","study_id":"6197b3f67c2b5cd3b6d9596a","session_id":"6197b57fc3b609a008c3a5a8","condition":"full-information","relevant_dimensions":["antennae","legs"],"bee_group":{"antennae":"A","wings":"X","pattern":"X","legs":"M"},"bonus":1.600000000000001},{"rt":2674.100000023842,"stimulus":"bees-with-color/bee-B1SF.svg","response":1,"trial_type":"image-button-response","trial_index":115,"time_elapsed":603479,"internal_node_id":"0.0-4.0-0.54","subject_id":"6005c01be34dba4d8e9f3b39","study_id":"6197b3f67c2b5cd3b6d9596a","session_id":"6197b57fc3b609a008c3a5a8","condition":"full-information","relevant_dimensions":["antennae","legs"],"bee_group":{"antennae":"A","wings":"X","pattern":"X","legs":"M"},"action":"avoid","summary":"bad-avoid","bonus":1.600000000000001},{"rt":4487.699999928474,"stimulus":"\n                    <p><b>Action: <em>avoid</em></b></p>\n                    <p>This is the bee that you just saw.</p>\n                    <img src=\"bees-with-color/bee-B1SF.svg\" width=\"200\">\n                    <p><span class=\"redText\">Bad choice,</span> the bee was friendly.<br>Your bonus pay is unchanged, and remains at $1.06.</p>\n            ","response":0,"trial_type":"html-button-response","trial_index":116,"time_elapsed":607970,"internal_node_id":"0.0-4.0-1.54","subject_id":"6005c01be34dba4d8e9f3b39","study_id":"6197b3f67c2b5cd3b6d9596a","session_id":"6197b57fc3b609a008c3a5a8","condition":"full-information","relevant_dimensions":["antennae","legs"],"bee_group":{"antennae":"A","wings":"X","pattern":"X","legs":"M"},"bonus":1.600000000000001},{"rt":2762.5,"stimulus":"bees-with-color/bee-A1DM.svg","response":1,"trial_type":"image-button-response","trial_index":117,"time_elapsed":610737,"internal_node_id":"0.0-4.0-0.55","subject_id":"6005c01be34dba4d8e9f3b39","study_id":"6197b3f67c2b5cd3b6d9596a","session_id":"6197b57fc3b609a008c3a5a8","condition":"full-information","relevant_dimensions":["antennae","legs"],"bee_group":{"antennae":"A","wings":"X","pattern":"X","legs":"M"},"action":"avoid","summary":"good-avoid","bonus":1.600000000000001},{"rt":1166,"stimulus":"\n                    <p><b>Action: <em>avoid</em></b></p>\n                    <p>This is the bee that you just saw.</p>\n                    <img src=\"bees-with-color/bee-A1DM.svg\" width=\"200\">\n                    <p><span class=\"greenText\">Good choice!</span>  This bee would have stung you.<br>Your bonus pay is unchanged, and remains at $1.06.</p>\n            ","response":0,"trial_type":"html-button-response","trial_index":118,"time_elapsed":611906,"internal_node_id":"0.0-4.0-1.55","subject_id":"6005c01be34dba4d8e9f3b39","study_id":"6197b3f67c2b5cd3b6d9596a","session_id":"6197b57fc3b609a008c3a5a8","condition":"full-information","relevant_dimensions":["antennae","legs"],"bee_group":{"antennae":"A","wings":"X","pattern":"X","legs":"M"},"bonus":1.600000000000001},{"rt":2151,"stimulus":"bees-with-color/bee-B1DF.svg","response":0,"trial_type":"image-button-response","trial_index":119,"time_elapsed":614060,"internal_node_id":"0.0-4.0-0.56","subject_id":"6005c01be34dba4d8e9f3b39","study_id":"6197b3f67c2b5cd3b6d9596a","session_id":"6197b57fc3b609a008c3a5a8","condition":"full-information","relevant_dimensions":["antennae","legs"],"bee_group":{"antennae":"A","wings":"X","pattern":"X","legs":"M"},"action":"harvest","summary":"good-harvest","bonus":1.600000000000001},{"rt":1814.2000000476837,"stimulus":"\n                    <p><b>Action: <em>harvest</em></b></p>\n                    <p>This is the bee that you just saw.</p>\n                    <img src=\"bees-with-color/bee-B1DF.svg\" width=\"200\">\n                    <p><span class=\"greenText\"><b>Successful harvest!</b></span><br>Your pay has increased by $0.02. Your bonus pay is now $1.08.</p>\n            ","response":0,"trial_type":"html-button-response","trial_index":120,"time_elapsed":615876,"internal_node_id":"0.0-4.0-1.56","subject_id":"6005c01be34dba4d8e9f3b39","study_id":"6197b3f67c2b5cd3b6d9596a","session_id":"6197b57fc3b609a008c3a5a8","condition":"full-information","relevant_dimensions":["antennae","legs"],"bee_group":{"antennae":"A","wings":"X","pattern":"X","legs":"M"},"bonus":1.600000000000001},{"rt":1836.5,"stimulus":"bees-with-color/bee-B2SF.svg","response":0,"trial_type":"image-button-response","trial_index":121,"time_elapsed":617717,"internal_node_id":"0.0-4.0-0.57","subject_id":"6005c01be34dba4d8e9f3b39","study_id":"6197b3f67c2b5cd3b6d9596a","session_id":"6197b57fc3b609a008c3a5a8","condition":"full-information","relevant_dimensions":["antennae","legs"],"bee_group":{"antennae":"A","wings":"X","pattern":"X","legs":"M"},"action":"harvest","summary":"good-harvest","bonus":1.600000000000001},{"rt":961.7999999523163,"stimulus":"\n                    <p><b>Action: <em>harvest</em></b></p>\n                    <p>This is the bee that you just saw.</p>\n                    <img src=\"bees-with-color/bee-B2SF.svg\" width=\"200\">\n                    <p><span class=\"greenText\"><b>Successful harvest!</b></span><br>Your pay has increased by $0.02. Your bonus pay is now $1.10.</p>\n            ","response":0,"trial_type":"html-button-response","trial_index":122,"time_elapsed":618681,"internal_node_id":"0.0-4.0-1.57","subject_id":"6005c01be34dba4d8e9f3b39","study_id":"6197b3f67c2b5cd3b6d9596a","session_id":"6197b57fc3b609a008c3a5a8","condition":"full-information","relevant_dimensions":["antennae","legs"],"bee_group":{"antennae":"A","wings":"X","pattern":"X","legs":"M"},"bonus":1.600000000000001},{"rt":1410.6000000238419,"stimulus":"bees-with-color/bee-B2DM.svg","response":0,"trial_type":"image-button-response","trial_index":123,"time_elapsed":620094,"internal_node_id":"0.0-4.0-0.58","subject_id":"6005c01be34dba4d8e9f3b39","study_id":"6197b3f67c2b5cd3b6d9596a","session_id":"6197b57fc3b609a008c3a5a8","condition":"full-information","relevant_dimensions":["antennae","legs"],"bee_group":{"antennae":"A","wings":"X","pattern":"X","legs":"M"},"action":"harvest","summary":"good-harvest","bonus":1.600000000000001},{"rt":1121.3999999761581,"stimulus":"\n                    <p><b>Action: <em>harvest</em></b></p>\n                    <p>This is the bee that you just saw.</p>\n                    <img src=\"bees-with-color/bee-B2DM.svg\" width=\"200\">\n                    <p><span class=\"greenText\"><b>Successful harvest!</b></span><br>Your pay has increased by $0.02. Your bonus pay is now $1.12.</p>\n            ","response":0,"trial_type":"html-button-response","trial_index":124,"time_elapsed":621217,"internal_node_id":"0.0-4.0-1.58","subject_id":"6005c01be34dba4d8e9f3b39","study_id":"6197b3f67c2b5cd3b6d9596a","session_id":"6197b57fc3b609a008c3a5a8","condition":"full-information","relevant_dimensions":["antennae","legs"],"bee_group":{"antennae":"A","wings":"X","pattern":"X","legs":"M"},"bonus":1.600000000000001},{"rt":2702.7000000476837,"stimulus":"bees-with-color/bee-A1DF.svg","response":1,"trial_type":"image-button-response","trial_index":125,"time_elapsed":623921,"internal_node_id":"0.0-4.0-0.59","subject_id":"6005c01be34dba4d8e9f3b39","study_id":"6197b3f67c2b5cd3b6d9596a","session_id":"6197b57fc3b609a008c3a5a8","condition":"full-information","relevant_dimensions":["antennae","legs"],"bee_group":{"antennae":"A","wings":"X","pattern":"X","legs":"M"},"action":"avoid","summary":"bad-avoid","bonus":1.600000000000001},{"rt":3349.1999999284744,"stimulus":"\n                    <p><b>Action: <em>avoid</em></b></p>\n                    <p>This is the bee that you just saw.</p>\n                    <img src=\"bees-with-color/bee-A1DF.svg\" width=\"200\">\n                    <p><span class=\"redText\">Bad choice,</span> the bee was friendly.<br>Your bonus pay is unchanged, and remains at $1.12.</p>\n            ","response":0,"trial_type":"html-button-response","trial_index":126,"time_elapsed":627273,"internal_node_id":"0.0-4.0-1.59","subject_id":"6005c01be34dba4d8e9f3b39","study_id":"6197b3f67c2b5cd3b6d9596a","session_id":"6197b57fc3b609a008c3a5a8","condition":"full-information","relevant_dimensions":["antennae","legs"],"bee_group":{"antennae":"A","wings":"X","pattern":"X","legs":"M"},"bonus":1.600000000000001},{"rt":3026.399999976158,"stimulus":"bees-with-color/bee-A2DF.svg","response":1,"trial_type":"image-button-response","trial_index":127,"time_elapsed":630301,"internal_node_id":"0.0-4.0-0.60","subject_id":"6005c01be34dba4d8e9f3b39","study_id":"6197b3f67c2b5cd3b6d9596a","session_id":"6197b57fc3b609a008c3a5a8","condition":"full-information","relevant_dimensions":["antennae","legs"],"bee_group":{"antennae":"A","wings":"X","pattern":"X","legs":"M"},"action":"avoid","summary":"bad-avoid","bonus":1.600000000000001},{"rt":1074,"stimulus":"\n                    <p><b>Action: <em>avoid</em></b></p>\n                    <p>This is the bee that you just saw.</p>\n                    <img src=\"bees-with-color/bee-A2DF.svg\" width=\"200\">\n                    <p><span class=\"redText\">Bad choice,</span> the bee was friendly.<br>Your bonus pay is unchanged, and remains at $1.12.</p>\n            ","response":0,"trial_type":"html-button-response","trial_index":128,"time_elapsed":631376,"internal_node_id":"0.0-4.0-1.60","subject_id":"6005c01be34dba4d8e9f3b39","study_id":"6197b3f67c2b5cd3b6d9596a","session_id":"6197b57fc3b609a008c3a5a8","condition":"full-information","relevant_dimensions":["antennae","legs"],"bee_group":{"antennae":"A","wings":"X","pattern":"X","legs":"M"},"bonus":1.600000000000001},{"rt":2028.7000000476837,"stimulus":"bees-with-color/bee-B1DM.svg","response":0,"trial_type":"image-button-response","trial_index":129,"time_elapsed":633407,"internal_node_id":"0.0-4.0-0.61","subject_id":"6005c01be34dba4d8e9f3b39","study_id":"6197b3f67c2b5cd3b6d9596a","session_id":"6197b57fc3b609a008c3a5a8","condition":"full-information","relevant_dimensions":["antennae","legs"],"bee_group":{"antennae":"A","wings":"X","pattern":"X","legs":"M"},"action":"harvest","summary":"good-harvest","bonus":1.600000000000001},{"rt":1052,"stimulus":"\n                    <p><b>Action: <em>harvest</em></b></p>\n                    <p>This is the bee that you just saw.</p>\n                    <img src=\"bees-with-color/bee-B1DM.svg\" width=\"200\">\n                    <p><span class=\"greenText\"><b>Successful harvest!</b></span><br>Your pay has increased by $0.02. Your bonus pay is now $1.14.</p>\n            ","response":0,"trial_type":"html-button-response","trial_index":130,"time_elapsed":634462,"internal_node_id":"0.0-4.0-1.61","subject_id":"6005c01be34dba4d8e9f3b39","study_id":"6197b3f67c2b5cd3b6d9596a","session_id":"6197b57fc3b609a008c3a5a8","condition":"full-information","relevant_dimensions":["antennae","legs"],"bee_group":{"antennae":"A","wings":"X","pattern":"X","legs":"M"},"bonus":1.600000000000001},{"rt":1727.5,"stimulus":"bees-with-color/bee-A1SM.svg","response":1,"trial_type":"image-button-response","trial_index":131,"time_elapsed":636191,"internal_node_id":"0.0-4.0-0.62","subject_id":"6005c01be34dba4d8e9f3b39","study_id":"6197b3f67c2b5cd3b6d9596a","session_id":"6197b57fc3b609a008c3a5a8","condition":"full-information","relevant_dimensions":["antennae","legs"],"bee_group":{"antennae":"A","wings":"X","pattern":"X","legs":"M"},"action":"avoid","summary":"good-avoid","bonus":1.600000000000001},{"rt":1421.7000000476837,"stimulus":"\n                    <p><b>Action: <em>avoid</em></b></p>\n                    <p>This is the bee that you just saw.</p>\n                    <img src=\"bees-with-color/bee-A1SM.svg\" width=\"200\">\n                    <p><span class=\"greenText\">Good choice!</span>  This bee would have stung you.<br>Your bonus pay is unchanged, and remains at $1.14.</p>\n            ","response":0,"trial_type":"html-button-response","trial_index":132,"time_elapsed":637617,"internal_node_id":"0.0-4.0-1.62","subject_id":"6005c01be34dba4d8e9f3b39","study_id":"6197b3f67c2b5cd3b6d9596a","session_id":"6197b57fc3b609a008c3a5a8","condition":"full-information","relevant_dimensions":["antennae","legs"],"bee_group":{"antennae":"A","wings":"X","pattern":"X","legs":"M"},"bonus":1.600000000000001},{"rt":4017.100000023842,"stimulus":"bees-with-color/bee-A2DM.svg","response":1,"trial_type":"image-button-response","trial_index":133,"time_elapsed":641637,"internal_node_id":"0.0-4.0-0.63","subject_id":"6005c01be34dba4d8e9f3b39","study_id":"6197b3f67c2b5cd3b6d9596a","session_id":"6197b57fc3b609a008c3a5a8","condition":"full-information","relevant_dimensions":["antennae","legs"],"bee_group":{"antennae":"A","wings":"X","pattern":"X","legs":"M"},"action":"avoid","summary":"good-avoid","bonus":1.600000000000001},{"rt":1011.2000000476837,"stimulus":"\n                    <p><b>Action: <em>avoid</em></b></p>\n                    <p>This is the bee that you just saw.</p>\n                    <img src=\"bees-with-color/bee-A2DM.svg\" width=\"200\">\n                    <p><span class=\"greenText\">Good choice!</span>  This bee would have stung you.<br>Your bonus pay is unchanged, and remains at $1.14.</p>\n            ","response":0,"trial_type":"html-button-response","trial_index":134,"time_elapsed":642652,"internal_node_id":"0.0-4.0-1.63","subject_id":"6005c01be34dba4d8e9f3b39","study_id":"6197b3f67c2b5cd3b6d9596a","session_id":"6197b57fc3b609a008c3a5a8","condition":"full-information","relevant_dimensions":["antennae","legs"],"bee_group":{"antennae":"A","wings":"X","pattern":"X","legs":"M"},"bonus":1.600000000000001},{"rt":8480.299999952316,"stimulus":"You have completed the first part of this experiment.<br><br>You will now begin a shorter second part, in which you will receive no feedback.<br>The same rules regarding bonus pay apply.<br><br>Press any key to begin.","response":" ","trial_type":"html-keyboard-response","trial_index":135,"time_elapsed":651134,"internal_node_id":"0.0-5.0","subject_id":"6005c01be34dba4d8e9f3b39","study_id":"6197b3f67c2b5cd3b6d9596a","session_id":"6197b57fc3b609a008c3a5a8","condition":"full-information","relevant_dimensions":["antennae","legs"],"bee_group":{"antennae":"A","wings":"X","pattern":"X","legs":"M"},"bonus":1.600000000000001},{"rt":4529.900000095367,"stimulus":"bees-with-color/bee-A2SF.svg","response":0,"trial_type":"image-button-response","trial_index":136,"time_elapsed":655671,"internal_node_id":"0.0-6.0-0.0","subject_id":"6005c01be34dba4d8e9f3b39","study_id":"6197b3f67c2b5cd3b6d9596a","session_id":"6197b57fc3b609a008c3a5a8","condition":"full-information","relevant_dimensions":["antennae","legs"],"bee_group":{"antennae":"A","wings":"X","pattern":"X","legs":"M"},"bonus":1.600000000000001},{"rt":4947.700000047684,"stimulus":"bees-with-color/bee-B2SF.svg","response":0,"trial_type":"image-button-response","trial_index":137,"time_elapsed":660621,"internal_node_id":"0.0-6.0-0.1","subject_id":"6005c01be34dba4d8e9f3b39","study_id":"6197b3f67c2b5cd3b6d9596a","session_id":"6197b57fc3b609a008c3a5a8","condition":"full-information","relevant_dimensions":["antennae","legs"],"bee_group":{"antennae":"A","wings":"X","pattern":"X","legs":"M"},"bonus":1.600000000000001},{"rt":3782.2999999523163,"stimulus":"bees-with-color/bee-A2DF.svg","response":0,"trial_type":"image-button-response","trial_index":138,"time_elapsed":664405,"internal_node_id":"0.0-6.0-0.2","subject_id":"6005c01be34dba4d8e9f3b39","study_id":"6197b3f67c2b5cd3b6d9596a","session_id":"6197b57fc3b609a008c3a5a8","condition":"full-information","relevant_dimensions":["antennae","legs"],"bee_group":{"antennae":"A","wings":"X","pattern":"X","legs":"M"},"bonus":1.600000000000001},{"rt":4140.899999976158,"stimulus":"bees-with-color/bee-A1DF.svg","response":0,"trial_type":"image-button-response","trial_index":139,"time_elapsed":668549,"internal_node_id":"0.0-6.0-0.3","subject_id":"6005c01be34dba4d8e9f3b39","study_id":"6197b3f67c2b5cd3b6d9596a","session_id":"6197b57fc3b609a008c3a5a8","condition":"full-information","relevant_dimensions":["antennae","legs"],"bee_group":{"antennae":"A","wings":"X","pattern":"X","legs":"M"},"bonus":1.600000000000001},{"rt":1384,"stimulus":"bees-with-color/bee-B1SM.svg","response":0,"trial_type":"image-button-response","trial_index":140,"time_elapsed":669938,"internal_node_id":"0.0-6.0-0.4","subject_id":"6005c01be34dba4d8e9f3b39","study_id":"6197b3f67c2b5cd3b6d9596a","session_id":"6197b57fc3b609a008c3a5a8","condition":"full-information","relevant_dimensions":["antennae","legs"],"bee_group":{"antennae":"A","wings":"X","pattern":"X","legs":"M"},"bonus":1.600000000000001},{"rt":3078.600000023842,"stimulus":"bees-with-color/bee-A2SM.svg","response":1,"trial_type":"image-button-response","trial_index":141,"time_elapsed":673021,"internal_node_id":"0.0-6.0-0.5","subject_id":"6005c01be34dba4d8e9f3b39","study_id":"6197b3f67c2b5cd3b6d9596a","session_id":"6197b57fc3b609a008c3a5a8","condition":"full-information","relevant_dimensions":["antennae","legs"],"bee_group":{"antennae":"A","wings":"X","pattern":"X","legs":"M"},"bonus":1.600000000000001},{"rt":1593.4000000953674,"stimulus":"bees-with-color/bee-B2SM.svg","response":0,"trial_type":"image-button-response","trial_index":142,"time_elapsed":674620,"internal_node_id":"0.0-6.0-0.6","subject_id":"6005c01be34dba4d8e9f3b39","study_id":"6197b3f67c2b5cd3b6d9596a","session_id":"6197b57fc3b609a008c3a5a8","condition":"full-information","relevant_dimensions":["antennae","legs"],"bee_group":{"antennae":"A","wings":"X","pattern":"X","legs":"M"},"bonus":1.600000000000001},{"rt":1928,"stimulus":"bees-with-color/bee-A2DM.svg","response":1,"trial_type":"image-button-response","trial_index":143,"time_elapsed":676553,"internal_node_id":"0.0-6.0-0.7","subject_id":"6005c01be34dba4d8e9f3b39","study_id":"6197b3f67c2b5cd3b6d9596a","session_id":"6197b57fc3b609a008c3a5a8","condition":"full-information","relevant_dimensions":["antennae","legs"],"bee_group":{"antennae":"A","wings":"X","pattern":"X","legs":"M"},"bonus":1.600000000000001},{"rt":2346.7000000476837,"stimulus":"bees-with-color/bee-B1SF.svg","response":1,"trial_type":"image-button-response","trial_index":144,"time_elapsed":678904,"internal_node_id":"0.0-6.0-0.8","subject_id":"6005c01be34dba4d8e9f3b39","study_id":"6197b3f67c2b5cd3b6d9596a","session_id":"6197b57fc3b609a008c3a5a8","condition":"full-information","relevant_dimensions":["antennae","legs"],"bee_group":{"antennae":"A","wings":"X","pattern":"X","legs":"M"},"bonus":1.600000000000001},{"rt":2897.899999976158,"stimulus":"bees-with-color/bee-B2DF.svg","response":0,"trial_type":"image-button-response","trial_index":145,"time_elapsed":681806,"internal_node_id":"0.0-6.0-0.9","subject_id":"6005c01be34dba4d8e9f3b39","study_id":"6197b3f67c2b5cd3b6d9596a","session_id":"6197b57fc3b609a008c3a5a8","condition":"full-information","relevant_dimensions":["antennae","legs"],"bee_group":{"antennae":"A","wings":"X","pattern":"X","legs":"M"},"bonus":1.600000000000001},{"rt":953,"stimulus":"bees-with-color/bee-B2DM.svg","response":0,"trial_type":"image-button-response","trial_index":146,"time_elapsed":682763,"internal_node_id":"0.0-6.0-0.10","subject_id":"6005c01be34dba4d8e9f3b39","study_id":"6197b3f67c2b5cd3b6d9596a","session_id":"6197b57fc3b609a008c3a5a8","condition":"full-information","relevant_dimensions":["antennae","legs"],"bee_group":{"antennae":"A","wings":"X","pattern":"X","legs":"M"},"bonus":1.600000000000001},{"rt":720.5,"stimulus":"bees-with-color/bee-B1DM.svg","response":0,"trial_type":"image-button-response","trial_index":147,"time_elapsed":683485,"internal_node_id":"0.0-6.0-0.11","subject_id":"6005c01be34dba4d8e9f3b39","study_id":"6197b3f67c2b5cd3b6d9596a","session_id":"6197b57fc3b609a008c3a5a8","condition":"full-information","relevant_dimensions":["antennae","legs"],"bee_group":{"antennae":"A","wings":"X","pattern":"X","legs":"M"},"bonus":1.600000000000001},{"rt":1734.5,"stimulus":"bees-with-color/bee-A1SM.svg","response":1,"trial_type":"image-button-response","trial_index":148,"time_elapsed":685224,"internal_node_id":"0.0-6.0-0.12","subject_id":"6005c01be34dba4d8e9f3b39","study_id":"6197b3f67c2b5cd3b6d9596a","session_id":"6197b57fc3b609a008c3a5a8","condition":"full-information","relevant_dimensions":["antennae","legs"],"bee_group":{"antennae":"A","wings":"X","pattern":"X","legs":"M"},"bonus":1.600000000000001},{"rt":3830.600000023842,"stimulus":"bees-with-color/bee-A1DM.svg","response":1,"trial_type":"image-button-response","trial_index":149,"time_elapsed":689056,"internal_node_id":"0.0-6.0-0.13","subject_id":"6005c01be34dba4d8e9f3b39","study_id":"6197b3f67c2b5cd3b6d9596a","session_id":"6197b57fc3b609a008c3a5a8","condition":"full-information","relevant_dimensions":["antennae","legs"],"bee_group":{"antennae":"A","wings":"X","pattern":"X","legs":"M"},"bonus":1.600000000000001},{"rt":2102.7999999523163,"stimulus":"bees-with-color/bee-A1SF.svg","response":0,"trial_type":"image-button-response","trial_index":150,"time_elapsed":691164,"internal_node_id":"0.0-6.0-0.14","subject_id":"6005c01be34dba4d8e9f3b39","study_id":"6197b3f67c2b5cd3b6d9596a","session_id":"6197b57fc3b609a008c3a5a8","condition":"full-information","relevant_dimensions":["antennae","legs"],"bee_group":{"antennae":"A","wings":"X","pattern":"X","legs":"M"},"bonus":1.600000000000001},{"rt":1813.6000000238419,"stimulus":"bees-with-color/bee-B1DF.svg","response":0,"trial_type":"image-button-response","trial_index":151,"time_elapsed":692982,"internal_node_id":"0.0-6.0-0.15","subject_id":"6005c01be34dba4d8e9f3b39","study_id":"6197b3f67c2b5cd3b6d9596a","session_id":"6197b57fc3b609a008c3a5a8","condition":"full-information","relevant_dimensions":["antennae","legs"],"bee_group":{"antennae":"A","wings":"X","pattern":"X","legs":"M"},"bonus":1.600000000000001},{"rt":2464.899999976158,"stimulus":"bees-with-color/bee-B1DF.svg","response":0,"trial_type":"image-button-response","trial_index":152,"time_elapsed":695450,"internal_node_id":"0.0-6.0-0.16","subject_id":"6005c01be34dba4d8e9f3b39","study_id":"6197b3f67c2b5cd3b6d9596a","session_id":"6197b57fc3b609a008c3a5a8","condition":"full-information","relevant_dimensions":["antennae","legs"],"bee_group":{"antennae":"A","wings":"X","pattern":"X","legs":"M"},"bonus":1.600000000000001},{"rt":1168.2000000476837,"stimulus":"bees-with-color/bee-B2DF.svg","response":0,"trial_type":"image-button-response","trial_index":153,"time_elapsed":696622,"internal_node_id":"0.0-6.0-0.17","subject_id":"6005c01be34dba4d8e9f3b39","study_id":"6197b3f67c2b5cd3b6d9596a","session_id":"6197b57fc3b609a008c3a5a8","condition":"full-information","relevant_dimensions":["antennae","legs"],"bee_group":{"antennae":"A","wings":"X","pattern":"X","legs":"M"},"bonus":1.600000000000001},{"rt":2919.100000023842,"stimulus":"bees-with-color/bee-A1DF.svg","response":0,"trial_type":"image-button-response","trial_index":154,"time_elapsed":699543,"internal_node_id":"0.0-6.0-0.18","subject_id":"6005c01be34dba4d8e9f3b39","study_id":"6197b3f67c2b5cd3b6d9596a","session_id":"6197b57fc3b609a008c3a5a8","condition":"full-information","relevant_dimensions":["antennae","legs"],"bee_group":{"antennae":"A","wings":"X","pattern":"X","legs":"M"},"bonus":1.600000000000001},{"rt":4097.199999928474,"stimulus":"bees-with-color/bee-A1DM.svg","response":1,"trial_type":"image-button-response","trial_index":155,"time_elapsed":703641,"internal_node_id":"0.0-6.0-0.19","subject_id":"6005c01be34dba4d8e9f3b39","study_id":"6197b3f67c2b5cd3b6d9596a","session_id":"6197b57fc3b609a008c3a5a8","condition":"full-information","relevant_dimensions":["antennae","legs"],"bee_group":{"antennae":"A","wings":"X","pattern":"X","legs":"M"},"bonus":1.600000000000001},{"rt":1337.7000000476837,"stimulus":"bees-with-color/bee-B2SF.svg","response":0,"trial_type":"image-button-response","trial_index":156,"time_elapsed":704980,"internal_node_id":"0.0-6.0-0.20","subject_id":"6005c01be34dba4d8e9f3b39","study_id":"6197b3f67c2b5cd3b6d9596a","session_id":"6197b57fc3b609a008c3a5a8","condition":"full-information","relevant_dimensions":["antennae","legs"],"bee_group":{"antennae":"A","wings":"X","pattern":"X","legs":"M"},"bonus":1.600000000000001},{"rt":1535.5,"stimulus":"bees-with-color/bee-A2SF.svg","response":0,"trial_type":"image-button-response","trial_index":157,"time_elapsed":706518,"internal_node_id":"0.0-6.0-0.21","subject_id":"6005c01be34dba4d8e9f3b39","study_id":"6197b3f67c2b5cd3b6d9596a","session_id":"6197b57fc3b609a008c3a5a8","condition":"full-information","relevant_dimensions":["antennae","legs"],"bee_group":{"antennae":"A","wings":"X","pattern":"X","legs":"M"},"bonus":1.600000000000001},{"rt":1633.2999999523163,"stimulus":"bees-with-color/bee-A2SM.svg","response":1,"trial_type":"image-button-response","trial_index":158,"ti