[{"success":true,"trial_type":"fullscreen","trial_index":0,"time_elapsed":12604,"internal_node_id":"0.0-0.0","subject_id":"5e6d8b23478ec434085c40cc","study_id":"6197b3f67c2b5cd3b6d9596a","session_id":"6197b5f034b3a3559b86e5f6","condition":"contingent","relevant_dimensions":["wings","pattern"],"bee_group":{"antennae":"X","wings":"1","pattern":"D","legs":"X"},"bonus":1.4600000000000009},{"success":true,"timeout":false,"failed_images":[],"failed_audio":[],"failed_video":[],"trial_type":"preload","trial_index":1,"time_elapsed":14635,"internal_node_id":"0.0-1.0","subject_id":"5e6d8b23478ec434085c40cc","study_id":"6197b3f67c2b5cd3b6d9596a","session_id":"6197b5f034b3a3559b86e5f6","condition":"contingent","relevant_dimensions":["wings","pattern"],"bee_group":{"antennae":"X","wings":"1","pattern":"D","legs":"X"},"bonus":1.4600000000000009},{"rt":1701.0999999046326,"stimulus":"Welcome! Press any key to begin.","response":" ","trial_type":"html-keyboard-response","trial_index":2,"time_elapsed":16338,"internal_node_id":"0.0-2.0","subject_id":"5e6d8b23478ec434085c40cc","study_id":"6197b3f67c2b5cd3b6d9596a","session_id":"6197b5f034b3a3559b86e5f6","condition":"contingent","relevant_dimensions":["wings","pattern"],"bee_group":{"antennae":"X","wings":"1","pattern":"D","legs":"X"},"bonus":1.4600000000000009},{"view_history":[{"page_index":0,"viewing_time":4927.599999904633},{"page_index":1,"viewing_time":12605.900000095367},{"page_index":2,"viewing_time":15735},{"page_index":3,"viewing_time":12880.299999952316},{"page_index":4,"viewing_time":4789.099999904633},{"page_index":5,"viewing_time":6751.800000190735},{"page_index":6,"viewing_time":34274},{"page_index":7,"viewing_time":7549.799999952316},{"page_index":8,"viewing_time":3881},{"page_index":9,"viewing_time":2685.2000000476837},{"page_index":10,"viewing_time":3028.0999999046326},{"page_index":11,"viewing_time":9912.099999904633},{"page_index":12,"viewing_time":6610.700000047684},{"page_index":13,"viewing_time":1651.7000000476837},{"page_index":14,"viewing_time":2115.2000000476837}],"rt":129398.09999990463,"trial_type":"instructions","trial_index":3,"time_elapsed":145737,"internal_node_id":"0.0-3.0-0.0","subject_id":"5e6d8b23478ec434085c40cc","study_id":"6197b3f67c2b5cd3b6d9596a","session_id":"6197b5f034b3a3559b86e5f6","condition":"contingent","relevant_dimensions":["wings","pattern"],"bee_group":{"antennae":"X","wings":"1","pattern":"D","legs":"X"},"bonus":1.4600000000000009},{"rt":13512.299999952316,"response":{"Q0":["Two or six legs","Stripes or spots on body","Single or double wings","Antennae or no antennae"]},"question_order":[0],"trial_type":"survey-multi-select","trial_index":4,"time_elapsed":159263,"internal_node_id":"0.0-3.0-1.0","subject_id":"5e6d8b23478ec434085c40cc","study_id":"6197b3f67c2b5cd3b6d9596a","session_id":"6197b5f034b3a3559b86e5f6","condition":"contingent","relevant_dimensions":["wings","pattern"],"bee_group":{"antennae":"X","wings":"1","pattern":"D","legs":"X"},"correct":true,"bonus":1.4600000000000009},{"rt":18613.10000014305,"response":{"Q1":"No.","Q2":"Based on the four features of the bee.","Q3":"You do not learn if it was friendly or dangerous, and do not alter your bonus."},"question_order":[0,1,2],"trial_type":"survey-multi-choice","trial_index":5,"time_elapsed":177897,"internal_node_id":"0.0-3.0-2.0","subject_id":"5e6d8b23478ec434085c40cc","study_id":"6197b3f67c2b5cd3b6d9596a","session_id":"6197b5f034b3a3559b86e5f6","condition":"contingent","relevant_dimensions":["wings","pattern"],"bee_group":{"antennae":"X","wings":"1","pattern":"D","legs":"X"},"correct":true,"bonus":1.4600000000000009},{"rt":7295.299999952316,"stimulus":"<p>Congrats, you got everything right<br>When you're ready, click the button below to continue to the experiment.</p>","response":0,"trial_type":"html-button-response","trial_index":6,"time_elapsed":185213,"internal_node_id":"0.0-3.0-3.0","subject_id":"5e6d8b23478ec434085c40cc","study_id":"6197b3f67c2b5cd3b6d9596a","session_id":"6197b5f034b3a3559b86e5f6","condition":"contingent","relevant_dimensions":["wings","pattern"],"bee_group":{"antennae":"X","wings":"1","pattern":"D","legs":"X"},"bonus":1.4600000000000009},{"rt":7776.799999952316,"stimulus":"bees-with-color/bee-B2SF.svg","response":0,"trial_type":"image-button-response","trial_index":7,"time_elapsed":193003,"internal_node_id":"0.0-4.0-0.0","subject_id":"5e6d8b23478ec434085c40cc","study_id":"6197b3f67c2b5cd3b6d9596a","session_id":"6197b5f034b3a3559b86e5f6","condition":"contingent","relevant_dimensions":["wings","pattern"],"bee_group":{"antennae":"X","wings":"1","pattern":"D","legs":"X"},"action":"harvest","summary":"good-harvest","bonus":1.4600000000000009},{"rt":10637.099999904633,"stimulus":"\n                    <p><b>Action: <em>harvest</em></b></p>\n                    <p>This is the bee that you just saw.</p>\n                    <img src=\"bees-with-color/bee-B2SF.svg\" width=\"200\">\n                    <p><span class=\"greenText\"><b>Successful harvest!</b></span><br>Your pay has increased by $0.02. Your bonus pay is now $0.56.</p>\n            ","response":0,"trial_type":"html-button-response","trial_index":8,"time_elapsed":203667,"internal_node_id":"0.0-4.0-1.0","subject_id":"5e6d8b23478ec434085c40cc","study_id":"6197b3f67c2b5cd3b6d9596a","session_id":"6197b5f034b3a3559b86e5f6","condition":"contingent","relevant_dimensions":["wings","pattern"],"bee_group":{"antennae":"X","wings":"1","pattern":"D","legs":"X"},"bonus":1.4600000000000009},{"rt":1879.7000000476837,"stimulus":"bees-with-color/bee-B2DF.svg","response":1,"trial_type":"image-button-response","trial_index":9,"time_elapsed":205556,"internal_node_id":"0.0-4.0-0.1","subject_id":"5e6d8b23478ec434085c40cc","study_id":"6197b3f67c2b5cd3b6d9596a","session_id":"6197b5f034b3a3559b86e5f6","condition":"contingent","relevant_dimensions":["wings","pattern"],"bee_group":{"antennae":"X","wings":"1","pattern":"D","legs":"X"},"action":"avoid","summary":"bad-avoid","bonus":1.4600000000000009},{"rt":7668.5,"stimulus":"\n                    <p><b>Action: <em>avoid</em></b></p>\n                    <p>This is the bee that you just saw.</p>\n                    <img src=\"bees-with-color/bee-B2DF.svg\" width=\"200\">\n                    <p><br>Your bonus pay is unchanged, and remains at $0.56.</p>\n            ","response":0,"trial_type":"html-button-response","trial_index":10,"time_elapsed":213234,"internal_node_id":"0.0-4.0-1.1","subject_id":"5e6d8b23478ec434085c40cc","study_id":"6197b3f67c2b5cd3b6d9596a","session_id":"6197b5f034b3a3559b86e5f6","condition":"contingent","relevant_dimensions":["wings","pattern"],"bee_group":{"antennae":"X","wings":"1","pattern":"D","legs":"X"},"bonus":1.4600000000000009},{"rt":4710.899999856949,"stimulus":"bees-with-color/bee-A2SM.svg","response":1,"trial_type":"image-button-response","trial_index":11,"time_elapsed":217954,"internal_node_id":"0.0-4.0-0.2","subject_id":"5e6d8b23478ec434085c40cc","study_id":"6197b3f67c2b5cd3b6d9596a","session_id":"6197b5f034b3a3559b86e5f6","condition":"contingent","relevant_dimensions":["wings","pattern"],"bee_group":{"antennae":"X","wings":"1","pattern":"D","legs":"X"},"action":"avoid","summary":"bad-avoid","bonus":1.4600000000000009},{"rt":2128.699999809265,"stimulus":"\n                    <p><b>Action: <em>avoid</em></b></p>\n                    <p>This is the bee that you just saw.</p>\n                    <img src=\"bees-with-color/bee-A2SM.svg\" width=\"200\">\n                    <p><br>Your bonus pay is unchanged, and remains at $0.56.</p>\n            ","response":0,"trial_type":"html-button-response","trial_index":12,"time_elapsed":220091,"internal_node_id":"0.0-4.0-1.2","subject_id":"5e6d8b23478ec434085c40cc","study_id":"6197b3f67c2b5cd3b6d9596a","session_id":"6197b5f034b3a3559b86e5f6","condition":"contingent","relevant_dimensions":["wings","pattern"],"bee_group":{"antennae":"X","wings":"1","pattern":"D","legs":"X"},"bonus":1.4600000000000009},{"rt":5865.600000143051,"stimulus":"bees-with-color/bee-A1SM.svg","response":0,"trial_type":"image-button-response","trial_index":13,"time_elapsed":225967,"internal_node_id":"0.0-4.0-0.3","subject_id":"5e6d8b23478ec434085c40cc","study_id":"6197b3f67c2b5cd3b6d9596a","session_id":"6197b5f034b3a3559b86e5f6","condition":"contingent","relevant_dimensions":["wings","pattern"],"bee_group":{"antennae":"X","wings":"1","pattern":"D","legs":"X"},"action":"harvest","summary":"good-harvest","bonus":1.4600000000000009},{"rt":3843.5999999046326,"stimulus":"\n                    <p><b>Action: <em>harvest</em></b></p>\n                    <p>This is the bee that you just saw.</p>\n                    <img src=\"bees-with-color/bee-A1SM.svg\" width=\"200\">\n                    <p><span class=\"greenText\"><b>Successful harvest!</b></span><br>Your pay has increased by $0.02. Your bonus pay is now $0.58.</p>\n            ","response":0,"trial_type":"html-button-response","trial_index":14,"time_elapsed":229821,"internal_node_id":"0.0-4.0-1.3","subject_id":"5e6d8b23478ec434085c40cc","study_id":"6197b3f67c2b5cd3b6d9596a","session_id":"6197b5f034b3a3559b86e5f6","condition":"contingent","relevant_dimensions":["wings","pattern"],"bee_group":{"antennae":"X","wings":"1","pattern":"D","legs":"X"},"bonus":1.4600000000000009},{"rt":3630.0999999046326,"stimulus":"bees-with-color/bee-B1SM.svg","response":1,"trial_type":"image-button-response","trial_index":15,"time_elapsed":233464,"internal_node_id":"0.0-4.0-0.4","subject_id":"5e6d8b23478ec434085c40cc","study_id":"6197b3f67c2b5cd3b6d9596a","session_id":"6197b5f034b3a3559b86e5f6","condition":"contingent","relevant_dimensions":["wings","pattern"],"bee_group":{"antennae":"X","wings":"1","pattern":"D","legs":"X"},"action":"avoid","summary":"bad-avoid","bonus":1.4600000000000009},{"rt":1316.4000000953674,"stimulus":"\n                    <p><b>Action: <em>avoid</em></b></p>\n                    <p>This is the bee that you just saw.</p>\n                    <img src=\"bees-with-color/bee-B1SM.svg\" width=\"200\">\n                    <p><br>Your bonus pay is unchanged, and remains at $0.58.</p>\n            ","response":0,"trial_type":"html-button-response","trial_index":16,"time_elapsed":234791,"internal_node_id":"0.0-4.0-1.4","subject_id":"5e6d8b23478ec434085c40cc","study_id":"6197b3f67c2b5cd3b6d9596a","session_id":"6197b5f034b3a3559b86e5f6","condition":"contingent","relevant_dimensions":["wings","pattern"],"bee_group":{"antennae":"X","wings":"1","pattern":"D","legs":"X"},"bonus":1.4600000000000009},{"rt":3424.7999999523163,"stimulus":"bees-with-color/bee-B1SF.svg","response":0,"trial_type":"image-button-response","trial_index":17,"time_elapsed":238226,"internal_node_id":"0.0-4.0-0.5","subject_id":"5e6d8b23478ec434085c40cc","study_id":"6197b3f67c2b5cd3b6d9596a","session_id":"6197b5f034b3a3559b86e5f6","condition":"contingent","relevant_dimensions":["wings","pattern"],"bee_group":{"antennae":"X","wings":"1","pattern":"D","legs":"X"},"action":"harvest","summary":"good-harvest","bonus":1.4600000000000009},{"rt":2368.2999999523163,"stimulus":"\n                    <p><b>Action: <em>harvest</em></b></p>\n                    <p>This is the bee that you just saw.</p>\n                    <img src=\"bees-with-color/bee-B1SF.svg\" width=\"200\">\n                    <p><span class=\"greenText\"><b>Successful harvest!</b></span><br>Your pay has increased by $0.02. Your bonus pay is now $0.60.</p>\n            ","response":0,"trial_type":"html-button-response","trial_index":18,"time_elapsed":240606,"internal_node_id":"0.0-4.0-1.5","subject_id":"5e6d8b23478ec434085c40cc","study_id":"6197b3f67c2b5cd3b6d9596a","session_id":"6197b5f034b3a3559b86e5f6","condition":"contingent","relevant_dimensions":["wings","pattern"],"bee_group":{"antennae":"X","wings":"1","pattern":"D","legs":"X"},"bonus":1.4600000000000009},{"rt":1744.2000000476837,"stimulus":"bees-with-color/bee-A1DM.svg","response":1,"trial_type":"image-button-response","trial_index":19,"time_elapsed":242364,"internal_node_id":"0.0-4.0-0.6","subject_id":"5e6d8b23478ec434085c40cc","study_id":"6197b3f67c2b5cd3b6d9596a","session_id":"6197b5f034b3a3559b86e5f6","condition":"contingent","relevant_dimensions":["wings","pattern"],"bee_group":{"antennae":"X","wings":"1","pattern":"D","legs":"X"},"action":"avoid","summary":"good-avoid","bonus":1.4600000000000009},{"rt":1245.7000000476837,"stimulus":"\n                    <p><b>Action: <em>avoid</em></b></p>\n                    <p>This is the bee that you just saw.</p>\n                    <img src=\"bees-with-color/bee-A1DM.svg\" width=\"200\">\n                    <p><br>Your bonus pay is unchanged, and remains at $0.60.</p>\n            ","response":0,"trial_type":"html-button-response","trial_index":20,"time_elapsed":243619,"internal_node_id":"0.0-4.0-1.6","subject_id":"5e6d8b23478ec434085c40cc","study_id":"6197b3f67c2b5cd3b6d9596a","session_id":"6197b5f034b3a3559b86e5f6","condition":"contingent","relevant_dimensions":["wings","pattern"],"bee_group":{"antennae":"X","wings":"1","pattern":"D","legs":"X"},"bonus":1.4600000000000009},{"rt":1573.2000000476837,"stimulus":"bees-with-color/bee-B1DF.svg","response":1,"trial_type":"image-button-response","trial_index":21,"time_elapsed":245198,"internal_node_id":"0.0-4.0-0.7","subject_id":"5e6d8b23478ec434085c40cc","study_id":"6197b3f67c2b5cd3b6d9596a","session_id":"6197b5f034b3a3559b86e5f6","condition":"contingent","relevant_dimensions":["wings","pattern"],"bee_group":{"antennae":"X","wings":"1","pattern":"D","legs":"X"},"action":"avoid","summary":"good-avoid","bonus":1.4600000000000009},{"rt":1064.5,"stimulus":"\n                    <p><b>Action: <em>avoid</em></b></p>\n                    <p>This is the bee that you just saw.</p>\n                    <img src=\"bees-with-color/bee-B1DF.svg\" width=\"200\">\n                    <p><br>Your bonus pay is unchanged, and remains at $0.60.</p>\n            ","response":0,"trial_type":"html-button-response","trial_index":22,"time_elapsed":246272,"internal_node_id":"0.0-4.0-1.7","subject_id":"5e6d8b23478ec434085c40cc","study_id":"6197b3f67c2b5cd3b6d9596a","session_id":"6197b5f034b3a3559b86e5f6","condition":"contingent","relevant_dimensions":["wings","pattern"],"bee_group":{"antennae":"X","wings":"1","pattern":"D","legs":"X"},"bonus":1.4600000000000009},{"rt":1666.7000000476837,"stimulus":"bees-with-color/bee-B1DM.svg","response":1,"trial_type":"image-button-response","trial_index":23,"time_elapsed":247950,"internal_node_id":"0.0-4.0-0.8","subject_id":"5e6d8b23478ec434085c40cc","study_id":"6197b3f67c2b5cd3b6d9596a","session_id":"6197b5f034b3a3559b86e5f6","condition":"contingent","relevant_dimensions":["wings","pattern"],"bee_group":{"antennae":"X","wings":"1","pattern":"D","legs":"X"},"action":"avoid","summary":"good-avoid","bonus":1.4600000000000009},{"rt":1365.8999998569489,"stimulus":"\n                    <p><b>Action: <em>avoid</em></b></p>\n                    <p>This is the bee that you just saw.</p>\n                    <img src=\"bees-with-color/bee-B1DM.svg\" width=\"200\">\n                    <p><br>Your bonus pay is unchanged, and remains at $0.60.</p>\n            ","response":0,"trial_type":"html-button-response","trial_index":24,"time_elapsed":249325,"internal_node_id":"0.0-4.0-1.8","subject_id":"5e6d8b23478ec434085c40cc","study_id":"6197b3f67c2b5cd3b6d9596a","session_id":"6197b5f034b3a3559b86e5f6","condition":"contingent","relevant_dimensions":["wings","pattern"],"bee_group":{"antennae":"X","wings":"1","pattern":"D","legs":"X"},"bonus":1.4600000000000009},{"rt":1413.7999999523163,"stimulus":"bees-with-color/bee-A2DM.svg","response":1,"trial_type":"image-button-response","trial_index":25,"time_elapsed":250747,"internal_node_id":"0.0-4.0-0.9","subject_id":"5e6d8b23478ec434085c40cc","study_id":"6197b3f67c2b5cd3b6d9596a","session_id":"6197b5f034b3a3559b86e5f6","condition":"contingent","relevant_dimensions":["wings","pattern"],"bee_group":{"antennae":"X","wings":"1","pattern":"D","legs":"X"},"action":"avoid","summary":"bad-avoid","bonus":1.4600000000000009},{"rt":1272.6000001430511,"stimulus":"\n                    <p><b>Action: <em>avoid</em></b></p>\n                    <p>This is the bee that you just saw.</p>\n                    <img src=\"bees-with-color/bee-A2DM.svg\" width=\"200\">\n                    <p><br>Your bonus pay is unchanged, and remains at $0.60.</p>\n            ","response":0,"trial_type":"html-button-response","trial_index":26,"time_elapsed":252030,"internal_node_id":"0.0-4.0-1.9","subject_id":"5e6d8b23478ec434085c40cc","study_id":"6197b3f67c2b5cd3b6d9596a","session_id":"6197b5f034b3a3559b86e5f6","condition":"contingent","relevant_dimensions":["wings","pattern"],"bee_group":{"antennae":"X","wings":"1","pattern":"D","legs":"X"},"bonus":1.4600000000000009},{"rt":1363.5999999046326,"stimulus":"bees-with-color/bee-A2SF.svg","response":0,"trial_type":"image-button-response","trial_index":27,"time_elapsed":253401,"internal_node_id":"0.0-4.0-0.10","subject_id":"5e6d8b23478ec434085c40cc","study_id":"6197b3f67c2b5cd3b6d9596a","session_id":"6197b5f034b3a3559b86e5f6","condition":"contingent","relevant_dimensions":["wings","pattern"],"bee_group":{"antennae":"X","wings":"1","pattern":"D","legs":"X"},"action":"harvest","summary":"good-harvest","bonus":1.4600000000000009},{"rt":1234.7999999523163,"stimulus":"\n                    <p><b>Action: <em>harvest</em></b></p>\n                    <p>This is the bee that you just saw.</p>\n                    <img src=\"bees-with-color/bee-A2SF.svg\" width=\"200\">\n                    <p><span class=\"greenText\"><b>Successful harvest!</b></span><br>Your pay has increased by $0.02. Your bonus pay is now $0.62.</p>\n            ","response":0,"trial_type":"html-button-response","trial_index":28,"time_elapsed":254647,"internal_node_id":"0.0-4.0-1.10","subject_id":"5e6d8b23478ec434085c40cc","study_id":"6197b3f67c2b5cd3b6d9596a","session_id":"6197b5f034b3a3559b86e5f6","condition":"contingent","relevant_dimensions":["wings","pattern"],"bee_group":{"antennae":"X","wings":"1","pattern":"D","legs":"X"},"bonus":1.4600000000000009},{"rt":1461.3000001907349,"stimulus":"bees-with-color/bee-A1SF.svg","response":0,"trial_type":"image-button-response","trial_index":29,"time_elapsed":256112,"internal_node_id":"0.0-4.0-0.11","subject_id":"5e6d8b23478ec434085c40cc","study_id":"6197b3f67c2b5cd3b6d9596a","session_id":"6197b5f034b3a3559b86e5f6","condition":"contingent","relevant_dimensions":["wings","pattern"],"bee_group":{"antennae":"X","wings":"1","pattern":"D","legs":"X"},"action":"harvest","summary":"good-harvest","bonus":1.4600000000000009},{"rt":1231,"stimulus":"\n                    <p><b>Action: <em>harvest</em></b></p>\n                    <p>This is the bee that you just saw.</p>\n                    <img src=\"bees-with-color/bee-A1SF.svg\" width=\"200\">\n                    <p><span class=\"greenText\"><b>Successful harvest!</b></span><br>Your pay has increased by $0.02. Your bonus pay is now $0.64.</p>\n            ","response":0,"trial_type":"html-button-response","trial_index":30,"time_elapsed":257353,"internal_node_id":"0.0-4.0-1.11","subject_id":"5e6d8b23478ec434085c40cc","study_id":"6197b3f67c2b5cd3b6d9596a","session_id":"6197b5f034b3a3559b86e5f6","condition":"contingent","relevant_dimensions":["wings","pattern"],"bee_group":{"antennae":"X","wings":"1","pattern":"D","legs":"X"},"bonus":1.4600000000000009},{"rt":1276.8999998569489,"stimulus":"bees-with-color/bee-B2SM.svg","response":0,"trial_type":"image-button-response","trial_index":31,"time_elapsed":258638,"internal_node_id":"0.0-4.0-0.12","subject_id":"5e6d8b23478ec434085c40cc","study_id":"6197b3f67c2b5cd3b6d9596a","session_id":"6197b5f034b3a3559b86e5f6","condition":"contingent","relevant_dimensions":["wings","pattern"],"bee_group":{"antennae":"X","wings":"1","pattern":"D","legs":"X"},"action":"harvest","summary":"good-harvest","bonus":1.4600000000000009},{"rt":1298.2000000476837,"stimulus":"\n                    <p><b>Action: <em>harvest</em></b></p>\n                    <p>This is the bee that you just saw.</p>\n                    <img src=\"bees-with-color/bee-B2SM.svg\" width=\"200\">\n                    <p><span class=\"greenText\"><b>Successful harvest!</b></span><br>Your pay has increased by $0.02. Your bonus pay is now $0.66.</p>\n            ","response":0,"trial_type":"html-button-response","trial_index":32,"time_elapsed":259946,"internal_node_id":"0.0-4.0-1.12","subject_id":"5e6d8b23478ec434085c40cc","study_id":"6197b3f67c2b5cd3b6d9596a","session_id":"6197b5f034b3a3559b86e5f6","condition":"contingent","relevant_dimensions":["wings","pattern"],"bee_group":{"antennae":"X","wings":"1","pattern":"D","legs":"X"},"bonus":1.4600000000000009},{"rt":2675.0999999046326,"stimulus":"bees-with-color/bee-B2DM.svg","response":1,"trial_type":"image-button-response","trial_index":33,"time_elapsed":262629,"internal_node_id":"0.0-4.0-0.13","subject_id":"5e6d8b23478ec434085c40cc","study_id":"6197b3f67c2b5cd3b6d9596a","session_id":"6197b5f034b3a3559b86e5f6","condition":"contingent","relevant_dimensions":["wings","pattern"],"bee_group":{"antennae":"X","wings":"1","pattern":"D","legs":"X"},"action":"avoid","summary":"bad-avoid","bonus":1.4600000000000009},{"rt":916.2000000476837,"stimulus":"\n                    <p><b>Action: <em>avoid</em></b></p>\n                    <p>This is the bee that you just saw.</p>\n                    <img src=\"bees-with-color/bee-B2DM.svg\" width=\"200\">\n                    <p><br>Your bonus pay is unchanged, and remains at $0.66.</p>\n            ","response":0,"trial_type":"html-button-response","trial_index":34,"time_elapsed":263553,"internal_node_id":"0.0-4.0-1.13","subject_id":"5e6d8b23478ec434085c40cc","study_id":"6197b3f67c2b5cd3b6d9596a","session_id":"6197b5f034b3a3559b86e5f6","condition":"contingent","relevant_dimensions":["wings","pattern"],"bee_group":{"antennae":"X","wings":"1","pattern":"D","legs":"X"},"bonus":1.4600000000000009},{"rt":1340.5,"stimulus":"bees-with-color/bee-A1DF.svg","response":1,"trial_type":"image-button-response","trial_index":35,"time_elapsed":264901,"internal_node_id":"0.0-4.0-0.14","subject_id":"5e6d8b23478ec434085c40cc","study_id":"6197b3f67c2b5cd3b6d9596a","session_id":"6197b5f034b3a3559b86e5f6","condition":"contingent","relevant_dimensions":["wings","pattern"],"bee_group":{"antennae":"X","wings":"1","pattern":"D","legs":"X"},"action":"avoid","summary":"good-avoid","bonus":1.4600000000000009},{"rt":1048.5,"stimulus":"\n                    <p><b>Action: <em>avoid</em></b></p>\n                    <p>This is the bee that you just saw.</p>\n                    <img src=\"bees-with-color/bee-A1DF.svg\" width=\"200\">\n                    <p><br>Your bonus pay is unchanged, and remains at $0.66.</p>\n            ","response":0,"trial_type":"html-button-response","trial_index":36,"time_elapsed":265959,"internal_node_id":"0.0-4.0-1.14","subject_id":"5e6d8b23478ec434085c40cc","study_id":"6197b3f67c2b5cd3b6d9596a","session_id":"6197b5f034b3a3559b86e5f6","condition":"contingent","relevant_dimensions":["wings","pattern"],"bee_group":{"antennae":"X","wings":"1","pattern":"D","legs":"X"},"bonus":1.4600000000000009},{"rt":1269.7000000476837,"stimulus":"bees-with-color/bee-A2DF.svg","response":1,"trial_type":"image-button-response","trial_index":37,"time_elapsed":267232,"internal_node_id":"0.0-4.0-0.15","subject_id":"5e6d8b23478ec434085c40cc","study_id":"6197b3f67c2b5cd3b6d9596a","session_id":"6197b5f034b3a3559b86e5f6","condition":"contingent","relevant_dimensions":["wings","pattern"],"bee_group":{"antennae":"X","wings":"1","pattern":"D","legs":"X"},"action":"avoid","summary":"bad-avoid","bonus":1.4600000000000009},{"rt":1041.2999999523163,"stimulus":"\n                    <p><b>Action: <em>avoid</em></b></p>\n                    <p>This is the bee that you just saw.</p>\n                    <img src=\"bees-with-color/bee-A2DF.svg\" width=\"200\">\n                    <p><br>Your bonus pay is unchanged, and remains at $0.66.</p>\n            ","response":0,"trial_type":"html-button-response","trial_index":38,"time_elapsed":268281,"internal_node_id":"0.0-4.0-1.15","subject_id":"5e6d8b23478ec434085c40cc","study_id":"6197b3f67c2b5cd3b6d9596a","session_id":"6197b5f034b3a3559b86e5f6","condition":"contingent","relevant_dimensions":["wings","pattern"],"bee_group":{"antennae":"X","wings":"1","pattern":"D","legs":"X"},"bonus":1.4600000000000009},{"rt":1743.7000000476837,"stimulus":"bees-with-color/bee-A1SM.svg","response":0,"trial_type":"image-button-response","trial_index":39,"time_elapsed":270030,"internal_node_id":"0.0-4.0-0.16","subject_id":"5e6d8b23478ec434085c40cc","study_id":"6197b3f67c2b5cd3b6d9596a","session_id":"6197b5f034b3a3559b86e5f6","condition":"contingent","relevant_dimensions":["wings","pattern"],"bee_group":{"antennae":"X","wings":"1","pattern":"D","legs":"X"},"action":"harvest","summary":"good-harvest","bonus":1.4600000000000009},{"rt":1091.7000000476837,"stimulus":"\n                    <p><b>Action: <em>harvest</em></b></p>\n                    <p>This is the bee that you just saw.</p>\n                    <img src=\"bees-with-color/bee-A1SM.svg\" width=\"200\">\n                    <p><span class=\"greenText\"><b>Successful harvest!</b></span><br>Your pay has increased by $0.02. Your bonus pay is now $0.68.</p>\n            ","response":0,"trial_type":"html-button-response","trial_index":40,"time_elapsed":271130,"internal_node_id":"0.0-4.0-1.16","subject_id":"5e6d8b23478ec434085c40cc","study_id":"6197b3f67c2b5cd3b6d9596a","session_id":"6197b5f034b3a3559b86e5f6","condition":"contingent","relevant_dimensions":["wings","pattern"],"bee_group":{"antennae":"X","wings":"1","pattern":"D","legs":"X"},"bonus":1.4600000000000009},{"rt":1190.4000000953674,"stimulus":"bees-with-color/bee-A1DF.svg","response":1,"trial_type":"image-button-response","trial_index":41,"time_elapsed":272325,"internal_node_id":"0.0-4.0-0.17","subject_id":"5e6d8b23478ec434085c40cc","study_id":"6197b3f67c2b5cd3b6d9596a","session_id":"6197b5f034b3a3559b86e5f6","condition":"contingent","relevant_dimensions":["wings","pattern"],"bee_group":{"antennae":"X","wings":"1","pattern":"D","legs":"X"},"action":"avoid","summary":"good-avoid","bonus":1.4600000000000009},{"rt":948.4000000953674,"stimulus":"\n                    <p><b>Action: <em>avoid</em></b></p>\n                    <p>This is the bee that you just saw.</p>\n                    <img src=\"bees-with-color/bee-A1DF.svg\" width=\"200\">\n                    <p><br>Your bonus pay is unchanged, and remains at $0.68.</p>\n            ","response":0,"trial_type":"html-button-response","trial_index":42,"time_elapsed":273277,"internal_node_id":"0.0-4.0-1.17","subject_id":"5e6d8b23478ec434085c40cc","study_id":"6197b3f67c2b5cd3b6d9596a","session_id":"6197b5f034b3a3559b86e5f6","condition":"contingent","relevant_dimensions":["wings","pattern"],"bee_group":{"antennae":"X","wings":"1","pattern":"D","legs":"X"},"bonus":1.4600000000000009},{"rt":1738.7999999523163,"stimulus":"bees-with-color/bee-B2DF.svg","response":1,"trial_type":"image-button-response","trial_index":43,"time_elapsed":275025,"internal_node_id":"0.0-4.0-0.18","subject_id":"5e6d8b23478ec434085c40cc","study_id":"6197b3f67c2b5cd3b6d9596a","session_id":"6197b5f034b3a3559b86e5f6","condition":"contingent","relevant_dimensions":["wings","pattern"],"bee_group":{"antennae":"X","wings":"1","pattern":"D","legs":"X"},"action":"avoid","summary":"bad-avoid","bonus":1.4600000000000009},{"rt":1459.3999998569489,"stimulus":"\n                    <p><b>Action: <em>avoid</em></b></p>\n                    <p>This is the bee that you just saw.</p>\n                    <img src=\"bees-with-color/bee-B2DF.svg\" width=\"200\">\n                    <p><br>Your bonus pay is unchanged, and remains at $0.68.</p>\n            ","response":0,"trial_type":"html-button-response","trial_index":44,"time_elapsed":276493,"internal_node_id":"0.0-4.0-1.18","subject_id":"5e6d8b23478ec434085c40cc","study_id":"6197b3f67c2b5cd3b6d9596a","session_id":"6197b5f034b3a3559b86e5f6","condition":"contingent","relevant_dimensions":["wings","pattern"],"bee_group":{"antennae":"X","wings":"1","pattern":"D","legs":"X"},"bonus":1.4600000000000009},{"rt":1309.2999999523163,"stimulus":"bees-with-color/bee-A1SF.svg","response":0,"trial_type":"image-button-response","trial_index":45,"time_elapsed":277815,"internal_node_id":"0.0-4.0-0.19","subject_id":"5e6d8b23478ec434085c40cc","study_id":"6197b3f67c2b5cd3b6d9596a","session_id":"6197b5f034b3a3559b86e5f6","condition":"contingent","relevant_dimensions":["wings","pattern"],"bee_group":{"antennae":"X","wings":"1","pattern":"D","legs":"X"},"action":"harvest","summary":"good-harvest","bonus":1.4600000000000009},{"rt":1194.7999999523163,"stimulus":"\n                    <p><b>Action: <em>harvest</em></b></p>\n                    <p>This is the bee that you just saw.</p>\n                    <img src=\"bees-with-color/bee-A1SF.svg\" width=\"200\">\n                    <p><span class=\"greenText\"><b>Successful harvest!</b></span><br>Your pay has increased by $0.02. Your bonus pay is now $0.70.</p>\n            ","response":0,"trial_type":"html-button-response","trial_index":46,"time_elapsed":279018,"internal_node_id":"0.0-4.0-1.19","subject_id":"5e6d8b23478ec434085c40cc","study_id":"6197b3f67c2b5cd3b6d9596a","session_id":"6197b5f034b3a3559b86e5f6","condition":"contingent","relevant_dimensions":["wings","pattern"],"bee_group":{"antennae":"X","wings":"1","pattern":"D","legs":"X"},"bonus":1.4600000000000009},{"rt":1342.1000001430511,"stimulus":"bees-with-color/bee-B2SF.svg","response":0,"trial_type":"image-button-response","trial_index":47,"time_elapsed":280368,"internal_node_id":"0.0-4.0-0.20","subject_id":"5e6d8b23478ec434085c40cc","study_id":"6197b3f67c2b5cd3b6d9596a","session_id":"6197b5f034b3a3559b86e5f6","condition":"contingent","relevant_dimensions":["wings","pattern"],"bee_group":{"antennae":"X","wings":"1","pattern":"D","legs":"X"},"action":"harvest","summary":"good-harvest","bonus":1.4600000000000009},{"rt":984.2999999523163,"stimulus":"\n                    <p><b>Action: <em>harvest</em></b></p>\n                    <p>This is the bee that you just saw.</p>\n                    <img src=\"bees-with-color/bee-B2SF.svg\" width=\"200\">\n                    <p><span class=\"greenText\"><b>Successful harvest!</b></span><br>Your pay has increased by $0.02. Your bonus pay is now $0.72.</p>\n            ","response":0,"trial_type":"html-button-response","trial_index":48,"time_elapsed":281362,"internal_node_id":"0.0-4.0-1.20","subject_id":"5e6d8b23478ec434085c40cc","study_id":"6197b3f67c2b5cd3b6d9596a","session_id":"6197b5f034b3a3559b86e5f6","condition":"contingent","relevant_dimensions":["wings","pattern"],"bee_group":{"antennae":"X","wings":"1","pattern":"D","legs":"X"},"bonus":1.4600000000000009},{"rt":1861.2000000476837,"stimulus":"bees-with-color/bee-A1DM.svg","response":1,"trial_type":"image-button-response","trial_index":49,"time_elapsed":283232,"internal_node_id":"0.0-4.0-0.21","subject_id":"5e6d8b23478ec434085c40cc","study_id":"6197b3f67c2b5cd3b6d9596a","session_id":"6197b5f034b3a3559b86e5f6","condition":"contingent","relevant_dimensions":["wings","pattern"],"bee_group":{"antennae":"X","wings":"1","pattern":"D","legs":"X"},"action":"avoid","summary":"good-avoid","bonus":1.4600000000000009},{"rt":1240.7999999523163,"stimulus":"\n                    <p><b>Action: <em>avoid</em></b></p>\n                    <p>This is the bee that you just saw.</p>\n                    <img src=\"bees-with-color/bee-A1DM.svg\" width=\"200\">\n                    <p><br>Your bonus pay is unchanged, and remains at $0.72.</p>\n            ","response":0,"trial_type":"html-button-response","trial_index":50,"time_elapsed":284483,"internal_node_id":"0.0-4.0-1.21","subject_id":"5e6d8b23478ec434085c40cc","study_id":"6197b3f67c2b5cd3b6d9596a","session_id":"6197b5f034b3a3559b86e5f6","condition":"contingent","relevant_dimensions":["wings","pattern"],"bee_group":{"antennae":"X","wings":"1","pattern":"D","legs":"X"},"bonus":1.4600000000000009},{"rt":1367.2999999523163,"stimulus":"bees-with-color/bee-B1SM.svg","response":0,"trial_type":"image-button-response","trial_index":51,"time_elapsed":285860,"internal_node_id":"0.0-4.0-0.22","subject_id":"5e6d8b23478ec434085c40cc","study_id":"6197b3f67c2b5cd3b6d9596a","session_id":"6197b5f034b3a3559b86e5f6","condition":"contingent","relevant_dimensions":["wings","pattern"],"bee_group":{"antennae":"X","wings":"1","pattern":"D","legs":"X"},"action":"harvest","summary":"good-harvest","bonus":1.4600000000000009},{"rt":1105.4000000953674,"stimulus":"\n                    <p><b>Action: <em>harvest</em></b></p>\n                    <p>This is the bee that you just saw.</p>\n                    <img src=\"bees-with-color/bee-B1SM.svg\" width=\"200\">\n                    <p><span class=\"greenText\"><b>Successful harvest!</b></span><br>Your pay has increased by $0.02. Your bonus pay is now $0.74.</p>\n            ","response":0,"trial_type":"html-button-response","trial_index":52,"time_elapsed":286974,"internal_node_id":"0.0-4.0-1.22","subject_id":"5e6d8b23478ec434085c40cc","study_id":"6197b3f67c2b5cd3b6d9596a","session_id":"6197b5f034b3a3559b86e5f6","condition":"contingent","relevant_dimensions":["wings","pattern"],"bee_group":{"antennae":"X","wings":"1","pattern":"D","legs":"X"},"bonus":1.4600000000000009},{"rt":1084.2999999523163,"stimulus":"bees-with-color/bee-A2DM.svg","response":1,"trial_type":"image-button-response","trial_index":53,"time_elapsed":288065,"internal_node_id":"0.0-4.0-0.23","subject_id":"5e6d8b23478ec434085c40cc","study_id":"6197b3f67c2b5cd3b6d9596a","session_id":"6197b5f034b3a3559b86e5f6","condition":"contingent","relevant_dimensions":["wings","pattern"],"bee_group":{"antennae":"X","wings":"1","pattern":"D","legs":"X"},"action":"avoid","summary":"bad-avoid","bonus":1.4600000000000009},{"rt":1191,"stimulus":"\n                    <p><b>Action: <em>avoid</em></b></p>\n                    <p>This is the bee that you just saw.</p>\n                    <img src=\"bees-with-color/bee-A2DM.svg\" width=\"200\">\n                    <p><br>Your bonus pay is unchanged, and remains at $0.74.</p>\n            ","response":0,"trial_type":"html-button-response","trial_index":54,"time_elapsed":289267,"internal_node_id":"0.0-4.0-1.23","subject_id":"5e6d8b23478ec434085c40cc","study_id":"6197b3f67c2b5cd3b6d9596a","session_id":"6197b5f034b3a3559b86e5f6","condition":"contingent","relevant_dimensions":["wings","pattern"],"bee_group":{"antennae":"X","wings":"1","pattern":"D","legs":"X"},"bonus":1.4600000000000009},{"rt":1757.9000000953674,"stimulus":"bees-with-color/bee-A2DF.svg","response":1,"trial_type":"image-button-response","trial_index":55,"time_elapsed":291034,"internal_node_id":"0.0-4.0-0.24","subject_id":"5e6d8b23478ec434085c40cc","study_id":"6197b3f67c2b5cd3b6d9596a","session_id":"6197b5f034b3a3559b86e5f6","condition":"contingent","relevant_dimensions":["wings","pattern"],"bee_group":{"antennae":"X","wings":"1","pattern":"D","legs":"X"},"action":"avoid","summary":"bad-avoid","bonus":1.4600000000000009},{"rt":1317.9000000953674,"stimulus":"\n                    <p><b>Action: <em>avoid</em></b></p>\n                    <p>This is the bee that you just saw.</p>\n                    <img src=\"bees-with-color/bee-A2DF.svg\" width=\"200\">\n                    <p><br>Your bonus pay is unchanged, and remains at $0.74.</p>\n            ","response":0,"trial_type":"html-button-response","trial_index":56,"time_elapsed":292363,"internal_node_id":"0.0-4.0-1.24","subject_id":"5e6d8b23478ec434085c40cc","study_id":"6197b3f67c2b5cd3b6d9596a","session_id":"6197b5f034b3a3559b86e5f6","condition":"contingent","relevant_dimensions":["wings","pattern"],"bee_group":{"antennae":"X","wings":"1","pattern":"D","legs":"X"},"bonus":1.4600000000000009},{"rt":1350.0999999046326,"stimulus":"bees-with-color/bee-B2SM.svg","response":0,"trial_type":"image-button-response","trial_index":57,"time_elapsed":293728,"internal_node_id":"0.0-4.0-0.25","subject_id":"5e6d8b23478ec434085c40cc","study_id":"6197b3f67c2b5cd3b6d9596a","session_id":"6197b5f034b3a3559b86e5f6","condition":"contingent","relevant_dimensions":["wings","pattern"],"bee_group":{"antennae":"X","wings":"1","pattern":"D","legs":"X"},"action":"harvest","summary":"good-harvest","bonus":1.4600000000000009},{"rt":1080.2000000476837,"stimulus":"\n                    <p><b>Action: <em>harvest</em></b></p>\n                    <p>This is the bee that you just saw.</p>\n                    <img src=\"bees-with-color/bee-B2SM.svg\" width=\"200\">\n                    <p><span class=\"greenText\"><b>Successful harvest!</b></span><br>Your pay has increased by $0.02. Your bonus pay is now $0.76.</p>\n            ","response":0,"trial_type":"html-button-response","trial_index":58,"time_elapsed":294817,"internal_node_id":"0.0-4.0-1.25","subject_id":"5e6d8b23478ec434085c40cc","study_id":"6197b3f67c2b5cd3b6d9596a","session_id":"6197b5f034b3a3559b86e5f6","condition":"contingent","relevant_dimensions":["wings","pattern"],"bee_group":{"antennae":"X","wings":"1","pattern":"D","legs":"X"},"bonus":1.4600000000000009},{"rt":1264.1000001430511,"stimulus":"bees-with-color/bee-B1SF.svg","response":0,"trial_type":"image-button-response","trial_index":59,"time_elapsed":296092,"internal_node_id":"0.0-4.0-0.26","subject_id":"5e6d8b23478ec434085c40cc","study_id":"6197b3f67c2b5cd3b6d9596a","session_id":"6197b5f034b3a3559b86e5f6","condition":"contingent","relevant_dimensions":["wings","pattern"],"bee_group":{"antennae":"X","wings":"1","pattern":"D","legs":"X"},"action":"harvest","summary":"good-harvest","bonus":1.4600000000000009},{"rt":1072.5,"stimulus":"\n                    <p><b>Action: <em>harvest</em></b></p>\n                    <p>This is the bee that you just saw.</p>\n                    <img src=\"bees-with-color/bee-B1SF.svg\" width=\"200\">\n                    <p><span class=\"greenText\"><b>Successful harvest!</b></span><br>Your pay has increased by $0.02. Your bonus pay is now $0.78.</p>\n            ","response":0,"trial_type":"html-button-response","trial_index":60,"time_elapsed":297175,"internal_node_id":"0.0-4.0-1.26","subject_id":"5e6d8b23478ec434085c40cc","study_id":"6197b3f67c2b5cd3b6d9596a","session_id":"6197b5f034b3a3559b86e5f6","condition":"contingent","relevant_dimensions":["wings","pattern"],"bee_group":{"antennae":"X","wings":"1","pattern":"D","legs":"X"},"bonus":1.4600000000000009},{"rt":1243.2000000476837,"stimulus":"bees-with-color/bee-B1DM.svg","response":1,"trial_type":"image-button-response","trial_index":61,"time_elapsed":298424,"internal_node_id":"0.0-4.0-0.27","subject_id":"5e6d8b23478ec434085c40cc","study_id":"6197b3f67c2b5cd3b6d9596a","session_id":"6197b5f034b3a3559b86e5f6","condition":"contingent","relevant_dimensions":["wings","pattern"],"bee_group":{"antennae":"X","wings":"1","pattern":"D","legs":"X"},"action":"avoid","summary":"good-avoid","bonus":1.4600000000000009},{"rt":2804,"stimulus":"\n                    <p><b>Action: <em>avoid</em></b></p>\n                    <p>This is the bee that you just saw.</p>\n                    <img src=\"bees-with-color/bee-B1DM.svg\" width=\"200\">\n                    <p><br>Your bonus pay is unchanged, and remains at $0.78.</p>\n            ","response":0,"trial_type":"html-button-response","trial_index":62,"time_elapsed":301238,"internal_node_id":"0.0-4.0-1.27","subject_id":"5e6d8b23478ec434085c40cc","study_id":"6197b3f67c2b5cd3b6d9596a","session_id":"6197b5f034b3a3559b86e5f6","condition":"contingent","relevant_dimensions":["wings","pattern"],"bee_group":{"antennae":"X","wings":"1","pattern":"D","legs":"X"},"bonus":1.4600000000000009},{"rt":1143,"stimulus":"bees-with-color/bee-B2DM.svg","response":1,"trial_type":"image-button-response","trial_index":63,"time_elapsed":302389,"internal_node_id":"0.0-4.0-0.28","subject_id":"5e6d8b23478ec434085c40cc","study_id":"6197b3f67c2b5cd3b6d9596a","session_id":"6197b5f034b3a3559b86e5f6","condition":"contingent","relevant_dimensions":["wings","pattern"],"bee_group":{"antennae":"X","wings":"1","pattern":"D","legs":"X"},"action":"avoid","summary":"bad-avoid","bonus":1.4600000000000009},{"rt":1042.0999999046326,"stimulus":"\n                    <p><b>Action: <em>avoid</em></b></p>\n                    <p>This is the bee that you just saw.</p>\n                    <img src=\"bees-with-color/bee-B2DM.svg\" width=\"200\">\n                    <p><br>Your bonus pay is unchanged, and remains at $0.78.</p>\n            ","response":0,"trial_type":"html-button-response","trial_index":64,"time_elapsed":303440,"internal_node_id":"0.0-4.0-1.28","subject_id":"5e6d8b23478ec434085c40cc","study_id":"6197b3f67c2b5cd3b6d9596a","session_id":"6197b5f034b3a3559b86e5f6","condition":"contingent","relevant_dimensions":["wings","pattern"],"bee_group":{"antennae":"X","wings":"1","pattern":"D","legs":"X"},"bonus":1.4600000000000009},{"rt":1152.9000000953674,"stimulus":"bees-with-color/bee-B1DF.svg","response":1,"trial_type":"image-button-response","trial_index":65,"time_elapsed":304600,"internal_node_id":"0.0-4.0-0.29","subject_id":"5e6d8b23478ec434085c40cc","study_id":"6197b3f67c2b5cd3b6d9596a","session_id":"6197b5f034b3a3559b86e5f6","condition":"contingent","relevant_dimensions":["wings","pattern"],"bee_group":{"antennae":"X","wings":"1","pattern":"D","legs":"X"},"action":"avoid","summary":"good-avoid","bonus":1.4600000000000009},{"rt":1070.1000001430511,"stimulus":"\n                    <p><b>Action: <em>avoid</em></b></p>\n                    <p>This is the bee that you just saw.</p>\n                    <img src=\"bees-with-color/bee-B1DF.svg\" width=\"200\">\n                    <p><br>Your bonus pay is unchanged, and remains at $0.78.</p>\n            ","response":0,"trial_type":"html-button-response","trial_index":66,"time_elapsed":305681,"internal_node_id":"0.0-4.0-1.29","subject_id":"5e6d8b23478ec434085c40cc","study_id":"6197b3f67c2b5cd3b6d9596a","session_id":"6197b5f034b3a3559b86e5f6","condition":"contingent","relevant_dimensions":["wings","pattern"],"bee_group":{"antennae":"X","wings":"1","pattern":"D","legs":"X"},"bonus":1.4600000000000009},{"rt":1153.6000001430511,"stimulus":"bees-with-color/bee-A2SF.svg","response":0,"trial_type":"image-button-response","trial_index":67,"time_elapsed":306843,"internal_node_id":"0.0-4.0-0.30","subject_id":"5e6d8b23478ec434085c40cc","study_id":"6197b3f67c2b5cd3b6d9596a","session_id":"6197b5f034b3a3559b86e5f6","condition":"contingent","relevant_dimensions":["wings","pattern"],"bee_group":{"antennae":"X","wings":"1","pattern":"D","legs":"X"},"action":"harvest","summary":"good-harvest","bonus":1.4600000000000009},{"rt":1165,"stimulus":"\n                    <p><b>Action: <em>harvest</em></b></p>\n                    <p>This is the bee that you just saw.</p>\n                    <img src=\"bees-with-color/bee-A2SF.svg\" width=\"200\">\n                    <p><span class=\"greenText\"><b>Successful harvest!</b></span><br>Your pay has increased by $0.02. Your bonus pay is now $0.80.</p>\n            ","response":0,"trial_type":"html-button-response","trial_index":68,"time_elapsed":308017,"internal_node_id":"0.0-4.0-1.30","subject_id":"5e6d8b23478ec434085c40cc","study_id":"6197b3f67c2b5cd3b6d9596a","session_id":"6197b5f034b3a3559b86e5f6","condition":"contingent","relevant_dimensions":["wings","pattern"],"bee_group":{"antennae":"X","wings":"1","pattern":"D","legs":"X"},"bonus":1.4600000000000009},{"rt":1136.5,"stimulus":"bees-with-color/bee-A2SM.svg","response":0,"trial_type":"image-button-response","trial_index":69,"time_elapsed":309164,"internal_node_id":"0.0-4.0-0.31","subject_id":"5e6d8b23478ec434085c40cc","study_id":"6197b3f67c2b5cd3b6d9596a","session_id":"6197b5f034b3a3559b86e5f6","condition":"contingent","relevant_dimensions":["wings","pattern"],"bee_group":{"antennae":"X","wings":"1","pattern":"D","legs":"X"},"action":"harvest","summary":"good-harvest","bonus":1.4600000000000009},{"rt":1093.0999999046326,"stimulus":"\n                    <p><b>Action: <em>harvest</em></b></p>\n                    <p>This is the bee that you just saw.</p>\n                    <img src=\"bees-with-color/bee-A2SM.svg\" width=\"200\">\n                    <p><span class=\"greenText\"><b>Successful harvest!</b></span><br>Your pay has increased by $0.02. Your bonus pay is now $0.82.</p>\n            ","response":0,"trial_type":"html-button-response","trial_index":70,"time_elapsed":310277,"internal_node_id":"0.0-4.0-1.31","subject_id":"5e6d8b23478ec434085c40cc","study_id":"6197b3f67c2b5cd3b6d9596a","session_id":"6197b5f034b3a3559b86e5f6","condition":"contingent","relevant_dimensions":["wings","pattern"],"bee_group":{"antennae":"X","wings":"1","pattern":"D","legs":"X"},"bonus":1.4600000000000009},{"rt":1246.2000000476837,"stimulus":"bees-with-color/bee-A1SF.svg","response":0,"trial_type":"image-button-response","trial_index":71,"time_elapsed":311529,"internal_node_id":"0.0-4.0-0.32","subject_id":"5e6d8b23478ec434085c40cc","study_id":"6197b3f67c2b5cd3b6d9596a","session_id":"6197b5f034b3a3559b86e5f6","condition":"contingent","relevant_dimensions":["wings","pattern"],"bee_group":{"antennae":"X","wings":"1","pattern":"D","legs":"X"},"action":"harvest","summary":"good-harvest","bonus":1.4600000000000009},{"rt":1067.5999999046326,"stimulus":"\n                    <p><b>Action: <em>harvest</em></b></p>\n                    <p>This is the bee that you just saw.</p>\n                    <img src=\"bees-with-color/bee-A1SF.svg\" width=\"200\">\n                    <p><span class=\"greenText\"><b>Successful harvest!</b></span><br>Your pay has increased by $0.02. Your bonus pay is now $0.84.</p>\n            ","response":0,"trial_type":"html-button-response","trial_index":72,"time_elapsed":312607,"internal_node_id":"0.0-4.0-1.32","subject_id":"5e6d8b23478ec434085c40cc","study_id":"6197b3f67c2b5cd3b6d9596a","session_id":"6197b5f034b3a3559b86e5f6","condition":"contingent","relevant_dimensions":["wings","pattern"],"bee_group":{"antennae":"X","wings":"1","pattern":"D","legs":"X"},"bonus":1.4600000000000009},{"rt":1105.0999999046326,"stimulus":"bees-with-color/bee-B2SF.svg","response":0,"trial_type":"image-button-response","trial_index":73,"time_elapsed":313719,"internal_node_id":"0.0-4.0-0.33","subject_id":"5e6d8b23478ec434085c40cc","study_id":"6197b3f67c2b5cd3b6d9596a","session_id":"6197b5f034b3a3559b86e5f6","condition":"contingent","relevant_dimensions":["wings","pattern"],"bee_group":{"antennae":"X","wings":"1","pattern":"D","legs":"X"},"action":"harvest","summary":"good-harvest","bonus":1.4600000000000009},{"rt":1019.5,"stimulus":"\n                    <p><b>Action: <em>harvest</em></b></p>\n                    <p>This is the bee that you just saw.</p>\n                    <img src=\"bees-with-color/bee-B2SF.svg\" width=\"200\">\n                    <p><span class=\"greenText\"><b>Successful harvest!</b></span><br>Your pay has increased by $0.02. Your bonus pay is now $0.86.</p>\n            ","response":0,"trial_type":"html-button-response","trial_index":74,"time_elapsed":314746,"internal_node_id":"0.0-4.0-1.33","subject_id":"5e6d8b23478ec434085c40cc","study_id":"6197b3f67c2b5cd3b6d9596a","session_id":"6197b5f034b3a3559b86e5f6","condition":"contingent","relevant_dimensions":["wings","pattern"],"bee_group":{"antennae":"X","wings":"1","pattern":"D","legs":"X"},"bonus":1.4600000000000009},{"rt":1251.6999998092651,"stimulus":"bees-with-color/bee-B2DM.svg","response":1,"trial_type":"image-button-response","trial_index":75,"time_elapsed":316003,"internal_node_id":"0.0-4.0-0.34","subject_id":"5e6d8b23478ec434085c40cc","study_id":"6197b3f67c2b5cd3b6d9596a","session_id":"6197b5f034b3a3559b86e5f6","condition":"contingent","relevant_dimensions":["wings","pattern"],"bee_group":{"antennae":"X","wings":"1","pattern":"D","legs":"X"},"action":"avoid","summary":"bad-avoid","bonus":1.4600000000000009},{"rt":1065.8999998569489,"stimulus":"\n                    <p><b>Action: <em>avoid</em></b></p>\n                    <p>This is the bee that you just saw.</p>\n                    <img src=\"bees-with-color/bee-B2DM.svg\" width=\"200\">\n                    <p><br>Your bonus pay is unchanged, and remains at $0.86.</p>\n            ","response":0,"trial_type":"html-button-response","trial_index":76,"time_elapsed":317078,"internal_node_id":"0.0-4.0-1.34","subject_id":"5e6d8b23478ec434085c40cc","study_id":"6197b3f67c2b5cd3b6d9596a","session_id":"6197b5f034b3a3559b86e5f6","condition":"contingent","relevant_dimensions":["wings","pattern"],"bee_group":{"antennae":"X","wings":"1","pattern":"D","legs":"X"},"bonus":1.4600000000000009},{"rt":1093.7999999523163,"stimulus":"bees-with-color/bee-A1SM.svg","response":0,"trial_type":"image-button-response","trial_index":77,"time_elapsed":318178,"internal_node_id":"0.0-4.0-0.35","subject_id":"5e6d8b23478ec434085c40cc","study_id":"6197b3f67c2b5cd3b6d9596a","session_id":"6197b5f034b3a3559b86e5f6","condition":"contingent","relevant_dimensions":["wings","pattern"],"bee_group":{"antennae":"X","wings":"1","pattern":"D","legs":"X"},"action":"harvest","summary":"good-harvest","bonus":1.4600000000000009},{"rt":1048,"stimulus":"\n                    <p><b>Action: <em>harvest</em></b></p>\n                    <p>This is the bee that you just saw.</p>\n                    <img src=\"bees-with-color/bee-A1SM.svg\" width=\"200\">\n                    <p><span class=\"greenText\"><b>Successful harvest!</b></span><br>Your pay has increased by $0.02. Your bonus pay is now $0.88.</p>\n            ","response":0,"trial_type":"html-button-response","trial_index":78,"time_elapsed":319236,"internal_node_id":"0.0-4.0-1.35","subject_id":"5e6d8b23478ec434085c40cc","study_id":"6197b3f67c2b5cd3b6d9596a","session_id":"6197b5f034b3a3559b86e5f6","condition":"contingent","relevant_dimensions":["wings","pattern"],"bee_group":{"antennae":"X","wings":"1","pattern":"D","legs":"X"},"bonus":1.4600000000000009},{"rt":1912.1000001430511,"stimulus":"bees-with-color/bee-A1DF.svg","response":1,"trial_type":"image-button-response","trial_index":79,"time_elapsed":321154,"internal_node_id":"0.0-4.0-0.36","subject_id":"5e6d8b23478ec434085c40cc","study_id":"6197b3f67c2b5cd3b6d9596a","session_id":"6197b5f034b3a3559b86e5f6","condition":"contingent","relevant_dimensions":["wings","pattern"],"bee_group":{"antennae":"X","wings":"1","pattern":"D","legs":"X"},"action":"avoid","summary":"good-avoid","bonus":1.4600000000000009},{"rt":1026.5,"stimulus":"\n                    <p><b>Action: <em>avoid</em></b></p>\n                    <p>This is the bee that you just saw.</p>\n                    <img src=\"bees-with-color/bee-A1DF.svg\" width=\"200\">\n                    <p><br>Your bonus pay is unchanged, and remains at $0.88.</p>\n            ","response":0,"trial_type":"html-button-response","trial_index":80,"time_elapsed":322188,"internal_node_id":"0.0-4.0-1.36","subject_id":"5e6d8b23478ec434085c40cc","study_id":"6197b3f67c2b5cd3b6d9596a","session_id":"6197b5f034b3a3559b86e5f6","condition":"contingent","relevant_dimensions":["wings","pattern"],"bee_group":{"antennae":"X","wings":"1","pattern":"D","legs":"X"},"bonus":1.4600000000000009},{"rt":1279.4000000953674,"stimulus":"bees-with-color/bee-B1DF.svg","response":1,"trial_type":"image-button-response","trial_index":81,"time_elapsed":323475,"internal_node_id":"0.0-4.0-0.37","subject_id":"5e6d8b23478ec434085c40cc","study_id":"6197b3f67c2b5cd3b6d9596a","session_id":"6197b5f034b3a3559b86e5f6","condition":"contingent","relevant_dimensions":["wings","pattern"],"bee_group":{"antennae":"X","wings":"1","pattern":"D","legs":"X"},"action":"avoid","summary":"good-avoid","bonus":1.4600000000000009},{"rt":1069.7999999523163,"stimulus":"\n                    <p><b>Action: <em>avoid</em></b></p>\n                    <p>This is the bee that you just saw.</p>\n                    <img src=\"bees-with-color/bee-B1DF.svg\" width=\"200\">\n                    <p><br>Your bonus pay is unchanged, and remains at $0.88.</p>\n            ","response":0,"trial_type":"html-button-response","trial_index":82,"time_elapsed":324554,"internal_node_id":"0.0-4.0-1.37","subject_id":"5e6d8b23478ec434085c40cc","study_id":"6197b3f67c2b5cd3b6d9596a","session_id":"6197b5f034b3a3559b86e5f6","condition":"contingent","relevant_dimensions":["wings","pattern"],"bee_group":{"antennae":"X","wings":"1","pattern":"D","legs":"X"},"bonus":1.4600000000000009},{"rt":1114.3999998569489,"stimulus":"bees-with-color/bee-A2DM.svg","response":1,"trial_type":"image-button-response","trial_index":83,"time_elapsed":325674,"internal_node_id":"0.0-4.0-0.38","subject_id":"5e6d8b23478ec434085c40cc","study_id":"6197b3f67c2b5cd3b6d9596a","session_id":"6197b5f034b3a3559b86e5f6","condition":"contingent","relevant_dimensions":["wings","pattern"],"bee_group":{"antennae":"X","wings":"1","pattern":"D","legs":"X"},"action":"avoid","summary":"bad-avoid","bonus":1.4600000000000009},{"rt":1020.5,"stimulus":"\n                    <p><b>Action: <em>avoid</em></b></p>\n                    <p>This is the bee that you just saw.</p>\n                    <img src=\"bees-with-color/bee-A2DM.svg\" width=\"200\">\n                    <p><br>Your bonus pay is unchanged, and remains at $0.88.</p>\n            ","response":0,"trial_type":"html-button-response","trial_index":84,"time_elapsed":326703,"internal_node_id":"0.0-4.0-1.38","subject_id":"5e6d8b23478ec434085c40cc","study_id":"6197b3f67c2b5cd3b6d9596a","session_id":"6197b5f034b3a3559b86e5f6","condition":"contingent","relevant_dimensions":["wings","pattern"],"bee_group":{"antennae":"X","wings":"1","pattern":"D","legs":"X"},"bonus":1.4600000000000009},{"rt":1119.5,"stimulus":"bees-with-color/bee-B1SF.svg","response":0,"trial_type":"image-button-response","trial_index":85,"time_elapsed":327827,"internal_node_id":"0.0-4.0-0.39","subject_id":"5e6d8b23478ec434085c40cc","study_id":"6197b3f67c2b5cd3b6d9596a","session_id":"6197b5f034b3a3559b86e5f6","condition":"contingent","relevant_dimensions":["wings","pattern"],"bee_group":{"antennae":"X","wings":"1","pattern":"D","legs":"X"},"action":"harvest","summary":"good-harvest","bonus":1.4600000000000009},{"rt":1014.4000000953674,"stimulus":"\n                    <p><b>Action: <em>harvest</em></b></p>\n                    <p>This is the bee that you just saw.</p>\n                    <img src=\"bees-with-color/bee-B1SF.svg\" width=\"200\">\n                    <p><span class=\"greenText\"><b>Successful harvest!</b></span><br>Your pay has increased by $0.02. Your bonus pay is now $0.90.</p>\n            ","response":0,"trial_type":"html-button-response","trial_index":86,"time_elapsed":328852,"internal_node_id":"0.0-4.0-1.39","subject_id":"5e6d8b23478ec434085c40cc","study_id":"6197b3f67c2b5cd3b6d9596a","session_id":"6197b5f034b3a3559b86e5f6","condition":"contingent","relevant_dimensions":["wings","pattern"],"bee_group":{"antennae":"X","wings":"1","pattern":"D","legs":"X"},"bonus":1.4600000000000009},{"rt":1126.7999999523163,"stimulus":"bees-with-color/bee-A1DM.svg","response":1,"trial_type":"image-button-response","trial_index":87,"time_elapsed":329985,"internal_node_id":"0.0-4.0-0.40","subject_id":"5e6d8b23478ec434085c40cc","study_id":"6197b3f67c2b5cd3b6d9596a","session_id":"6197b5f034b3a3559b86e5f6","condition":"contingent","relevant_dimensions":["wings","pattern"],"bee_group":{"antennae":"X","wings":"1","pattern":"D","legs":"X"},"action":"avoid","summary":"good-avoid","bonus":1.4600000000000009},{"rt":1018,"stimulus":"\n                    <p><b>Action: <em>avoid</em></b></p>\n                    <p>This is the bee that you just saw.</p>\n                    <img src=\"bees-with-color/bee-A1DM.svg\" width=\"200\">\n                    <p><br>Your bonus pay is unchanged, and remains at $0.90.</p>\n            ","response":0,"trial_type":"html-button-response","trial_index":88,"time_elapsed":331011,"internal_node_id":"0.0-4.0-1.40","subject_id":"5e6d8b23478ec434085c40cc","study_id":"6197b3f67c2b5cd3b6d9596a","session_id":"6197b5f034b3a3559b86e5f6","condition":"contingent","relevant_dimensions":["wings","pattern"],"bee_group":{"antennae":"X","wings":"1","pattern":"D","legs":"X"},"bonus":1.4600000000000009},{"rt":1143.2000000476837,"stimulus":"bees-with-color/bee-B1DM.svg","response":1,"trial_type":"image-button-response","trial_index":89,"time_elapsed":332162,"internal_node_id":"0.0-4.0-0.41","subject_id":"5e6d8b23478ec434085c40cc","study_id":"6197b3f67c2b5cd3b6d9596a","session_id":"6197b5f034b3a3559b86e5f6","condition":"contingent","relevant_dimensions":["wings","pattern"],"bee_group":{"antennae":"X","wings":"1","pattern":"D","legs":"X"},"action":"avoid","summary":"good-avoid","bonus":1.4600000000000009},{"rt":1035.5,"stimulus":"\n                    <p><b>Action: <em>avoid</em></b></p>\n                    <p>This is the bee that you just saw.</p>\n                    <img src=\"bees-with-color/bee-B1DM.svg\" width=\"200\">\n                    <p><br>Your bonus pay is unchanged, and remains at $0.90.</p>\n            ","response":0,"trial_type":"html-button-response","trial_index":90,"time_elapsed":333208,"internal_node_id":"0.0-4.0-1.41","subject_id":"5e6d8b23478ec434085c40cc","study_id":"6197b3f67c2b5cd3b6d9596a","session_id":"6197b5f034b3a3559b86e5f6","condition":"contingent","relevant_dimensions":["wings","pattern"],"bee_group":{"antennae":"X","wings":"1","pattern":"D","legs":"X"},"bonus":1.4600000000000009},{"rt":1951,"stimulus":"bees-with-color/bee-A2DF.svg","response":1,"trial_type":"image-button-response","trial_index":91,"time_elapsed":335166,"internal_node_id":"0.0-4.0-0.42","subject_id":"5e6d8b23478ec434085c40cc","study_id":"6197b3f67c2b5cd3b6d9596a","session_id":"6197b5f034b3a3559b86e5f6","condition":"contingent","relevant_dimensions":["wings","pattern"],"bee_group":{"antennae":"X","wings":"1","pattern":"D","legs":"X"},"action":"avoid","summary":"bad-avoid","bonus":1.4600000000000009},{"rt":1326.4000000953674,"stimulus":"\n                    <p><b>Action: <em>avoid</em></b></p>\n                    <p>This is the bee that you just saw.</p>\n                    <img src=\"bees-with-color/bee-A2DF.svg\" width=\"200\">\n                    <p><br>Your bonus pay is unchanged, and remains at $0.90.</p>\n            ","response":0,"trial_type":"html-button-response","trial_index":92,"time_elapsed":336502,"internal_node_id":"0.0-4.0-1.42","subject_id":"5e6d8b23478ec434085c40cc","study_id":"6197b3f67c2b5cd3b6d9596a","session_id":"6197b5f034b3a3559b86e5f6","condition":"contingent","relevant_dimensions":["wings","pattern"],"bee_group":{"antennae":"X","wings":"1","pattern":"D","legs":"X"},"bonus":1.4600000000000009},{"rt":1814.7999999523163,"stimulus":"bees-with-color/bee-A2SM.svg","response":0,"trial_type":"image-button-response","trial_index":93,"time_elapsed":338324,"internal_node_id":"0.0-4.0-0.43","subject_id":"5e6d8b23478ec434085c40cc","study_id":"6197b3f67c2b5cd3b6d9596a","session_id":"6197b5f034b3a3559b86e5f6","condition":"contingent","relevant_dimensions":["wings","pattern"],"bee_group":{"antennae":"X","wings":"1","pattern":"D","legs":"X"},"action":"harvest","summary":"good-harvest","bonus":1.4600000000000009},{"rt":1293.2000000476837,"stimulus":"\n                    <p><b>Action: <em>harvest</em></b></p>\n                    <p>This is the bee that you just saw.</p>\n                    <img src=\"bees-with-color/bee-A2SM.svg\" width=\"200\">\n                    <p><span class=\"greenText\"><b>Successful harvest!</b></span><br>Your pay has increased by $0.02. Your bonus pay is now $0.92.</p>\n            ","response":0,"trial_type":"html-button-response","trial_index":94,"time_elapsed":339627,"internal_node_id":"0.0-4.0-1.43","subject_id":"5e6d8b23478ec434085c40cc","study_id":"6197b3f67c2b5cd3b6d9596a","session_id":"6197b5f034b3a3559b86e5f6","condition":"contingent","relevant_dimensions":["wings","pattern"],"bee_group":{"antennae":"X","wings":"1","pattern":"D","legs":"X"},"bonus":1.4600000000000009},{"rt":1114.2000000476837,"stimulus":"bees-with-color/bee-A2SF.svg","response":0,"trial_type":"image-button-response","trial_index":95,"time_elapsed":340750,"internal_node_id":"0.0-4.0-0.44","subject_id":"5e6d8b23478ec434085c40cc","study_id":"6197b3f67c2b5cd3b6d9596a","session_id":"6197b5f034b3a3559b86e5f6","condition":"contingent","relevant_dimensions":["wings","pattern"],"bee_group":{"antennae":"X","wings":"1","pattern":"D","legs":"X"},"action":"harvest","summary":"good-harvest","bonus":1.4600000000000009},{"rt":926.4000000953674,"stimulus":"\n                    <p><b>Action: <em>harvest</em></b></p>\n                    <p>This is the bee that you just saw.</p>\n                    <img src=\"bees-with-color/bee-A2SF.svg\" width=\"200\">\n                    <p><span class=\"greenText\"><b>Successful harvest!</b></span><br>Your pay has increased by $0.02. Your bonus pay is now $0.94.</p>\n            ","response":0,"trial_type":"html-button-response","trial_index":96,"time_elapsed":341686,"internal_node_id":"0.0-4.0-1.44","subject_id":"5e6d8b23478ec434085c40cc","study_id":"6197b3f67c2b5cd3b6d9596a","session_id":"6197b5f034b3a3559b86e5f6","condition":"contingent","relevant_dimensions":["wings","pattern"],"bee_group":{"antennae":"X","wings":"1","pattern":"D","legs":"X"},"bonus":1.4600000000000009},{"rt":1145,"stimulus":"bees-with-color/bee-B2DF.svg","response":1,"trial_type":"image-button-response","trial_index":97,"time_elapsed":342838,"internal_node_id":"0.0-4.0-0.45","subject_id":"5e6d8b23478ec434085c40cc","study_id":"6197b3f67c2b5cd3b6d9596a","session_id":"6197b5f034b3a3559b86e5f6","condition":"contingent","relevant_dimensions":["wings","pattern"],"bee_group":{"antennae":"X","wings":"1","pattern":"D","legs":"X"},"action":"avoid","summary":"bad-avoid","bonus":1.4600000000000009},{"rt":985.1000001430511,"stimulus":"\n                    <p><b>Action: <em>avoid</em></b></p>\n                    <p>This is the bee that you just saw.</p>\n                    <img src=\"bees-with-color/bee-B2DF.svg\" width=\"200\">\n                    <p><br>Your bonus pay is unchanged, and remains at $0.94.</p>\n            ","response":0,"trial_type":"html-button-response","trial_index":98,"time_elapsed":343832,"internal_node_id":"0.0-4.0-1.45","subject_id":"5e6d8b23478ec434085c40cc","study_id":"6197b3f67c2b5cd3b6d9596a","session_id":"6197b5f034b3a3559b86e5f6","condition":"contingent","relevant_dimensions":["wings","pattern"],"bee_group":{"antennae":"X","wings":"1","pattern":"D","legs":"X"},"bonus":1.4600000000000009},{"rt":1399.7000000476837,"stimulus":"bees-with-color/bee-B2SM.svg","response":0,"trial_type":"image-button-response","trial_index":99,"time_elapsed":345239,"internal_node_id":"0.0-4.0-0.46","subject_id":"5e6d8b23478ec434085c40cc","study_id":"6197b3f67c2b5cd3b6d9596a","session_id":"6197b5f034b3a3559b86e5f6","condition":"contingent","relevant_dimensions":["wings","pattern"],"bee_group":{"antennae":"X","wings":"1","pattern":"D","legs":"X"},"action":"harvest","summary":"good-harvest","bonus":1.4600000000000009},{"rt":1023.3999998569489,"stimulus":"\n                    <p><b>Action: <em>harvest</em></b></p>\n                    <p>This is the bee that you just saw.</p>\n                    <img src=\"bees-with-color/bee-B2SM.svg\" width=\"200\">\n                    <p><span class=\"greenText\"><b>Successful harvest!</b></span><br>Your pay has increased by $0.02. Your bonus pay is now $0.96.</p>\n            ","response":0,"trial_type":"html-button-response","trial_index":100,"time_elapsed":346274,"internal_node_id":"0.0-4.0-1.46","subject_id":"5e6d8b23478ec434085c40cc","study_id":"6197b3f67c2b5cd3b6d9596a","session_id":"6197b5f034b3a3559b86e5f6","condition":"contingent","relevant_dimensions":["wings","pattern"],"bee_group":{"antennae":"X","wings":"1","pattern":"D","legs":"X"},"bonus":1.4600000000000009},{"rt":1070.9000000953674,"stimulus":"bees-with-color/bee-B1SM.svg","response":0,"trial_type":"image-button-response","trial_index":101,"time_elapsed":347354,"internal_node_id":"0.0-4.0-0.47","subject_id":"5e6d8b23478ec434085c40cc","study_id":"6197b3f67c2b5cd3b6d9596a","session_id":"6197b5f034b3a3559b86e5f6","condition":"contingent","relevant_dimensions":["wings","pattern"],"bee_group":{"antennae":"X","wings":"1","pattern":"D","legs":"X"},"action":"harvest","summary":"good-harvest","bonus":1.4600000000000009},{"rt":1156,"stimulus":"\n                    <p><b>Action: <em>harvest</em></b></p>\n                    <p>This is the bee that you just saw.</p>\n                    <img src=\"bees-with-color/bee-B1SM.svg\" width=\"200\">\n                    <p><span class=\"greenText\"><b>Successful harvest!</b></span><br>Your pay has increased by $0.02. Your bonus pay is now $0.98.</p>\n            ","response":0,"trial_type":"html-button-response","trial_index":102,"time_elapsed":348525,"internal_node_id":"0.0-4.0-1.47","subject_id":"5e6d8b23478ec434085c40cc","study_id":"6197b3f67c2b5cd3b6d9596a","session_id":"6197b5f034b3a3559b86e5f6","condition":"contingent","relevant_dimensions":["wings","pattern"],"bee_group":{"antennae":"X","wings":"1","pattern":"D","legs":"X"},"bonus":1.4600000000000009},{"rt":1201.5,"stimulus":"bees-with-color/bee-B1DF.svg","response":1,"trial_type":"image-button-response","trial_index":103,"time_elapsed":349734,"internal_node_id":"0.0-4.0-0.48","subject_id":"5e6d8b23478ec434085c40cc","study_id":"6197b3f67c2b5cd3b6d9596a","session_id":"6197b5f034b3a3559b86e5f6","condition":"contingent","relevant_dimensions":["wings","pattern"],"bee_group":{"antennae":"X","wings":"1","pattern":"D","legs":"X"},"action":"avoid","summary":"good-avoid","bonus":1.4600000000000009},{"rt":1744.9000000953674,"stimulus":"\n                    <p><b>Action: <em>avoid</em></b></p>\n                    <p>This is the bee that you just saw.</p>\n                    <img src=\"bees-with-color/bee-B1DF.svg\" width=\"200\">\n                    <p><br>Your bonus pay is unchanged, and remains at $0.98.</p>\n            ","response":0,"trial_type":"html-button-response","trial_index":104,"time_elapsed":351488,"internal_node_id":"0.0-4.0-1.48","subject_id":"5e6d8b23478ec434085c40cc","study_id":"6197b3f67c2b5cd3b6d9596a","session_id":"6197b5f034b3a3559b86e5f6","condition":"contingent","relevant_dimensions":["wings","pattern"],"bee_group":{"antennae":"X","wings":"1","pattern":"D","legs":"X"},"bonus":1.4600000000000009},{"rt":1568,"stimulus":"bees-with-color/bee-A2SF.svg","response":0,"trial_type":"image-button-response","trial_index":105,"time_elapsed":353062,"internal_node_id":"0.0-4.0-0.49","subject_id":"5e6d8b23478ec434085c40cc","study_id":"6197b3f67c2b5cd3b6d9596a","session_id":"6197b5f034b3a3559b86e5f6","condition":"contingent","relevant_dimensions":["wings","pattern"],"bee_group":{"antennae":"X","wings":"1","pattern":"D","legs":"X"},"action":"harvest","summary":"good-harvest","bonus":1.4600000000000009},{"rt":1029.0999999046326,"stimulus":"\n                    <p><b>Action: <em>harvest</em></b></p>\n                    <p>This is the bee that you just saw.</p>\n                    <img src=\"bees-with-color/bee-A2SF.svg\" width=\"200\">\n                    <p><span class=\"greenText\"><b>Successful harvest!</b></span><br>Your pay has increased by $0.02. Your bonus pay is now $1.00.</p>\n            ","response":0,"trial_type":"html-button-response","trial_index":106,"time_elapsed":354102,"internal_node_id":"0.0-4.0-1.49","subject_id":"5e6d8b23478ec434085c40cc","study_id":"6197b3f67c2b5cd3b6d9596a","session_id":"6197b5f034b3a3559b86e5f6","condition":"contingent","relevant_dimensions":["wings","pattern"],"bee_group":{"antennae":"X","wings":"1","pattern":"D","legs":"X"},"bonus":1.4600000000000009},{"rt":1278.9000000953674,"stimulus":"bees-with-color/bee-A2DF.svg","response":1,"trial_type":"image-button-response","trial_index":107,"time_elapsed":355386,"internal_node_id":"0.0-4.0-0.50","subject_id":"5e6d8b23478ec434085c40cc","study_id":"6197b3f67c2b5cd3b6d9596a","session_id":"6197b5f034b3a3559b86e5f6","condition":"contingent","relevant_dimensions":["wings","pattern"],"bee_group":{"antennae":"X","wings":"1","pattern":"D","legs":"X"},"action":"avoid","summary":"bad-avoid","bonus":1.4600000000000009},{"rt":1340.8000001907349,"stimulus":"\n                    <p><b>Action: <em>avoid</em></b></p>\n                    <p>This is the bee that you just saw.</p>\n                    <img src=\"bees-with-color/bee-A2DF.svg\" width=\"200\">\n                    <p><br>Your bonus pay is unchanged, and remains at $1.00.</p>\n            ","response":0,"trial_type":"html-button-response","trial_index":108,"time_elapsed":356735,"internal_node_id":"0.0-4.0-1.50","subject_id":"5e6d8b23478ec434085c40cc","study_id":"6197b3f67c2b5cd3b6d9596a","session_id":"6197b5f034b3a3559b86e5f6","condition":"contingent","relevant_dimensions":["wings","pattern"],"bee_group":{"antennae":"X","wings":"1","pattern":"D","legs":"X"},"bonus":1.4600000000000009},{"rt":1163.4000000953674,"stimulus":"bees-with-color/bee-A2DM.svg","response":1,"trial_type":"image-button-response","trial_index":109,"time_elapsed":357906,"internal_node_id":"0.0-4.0-0.51","subject_id":"5e6d8b23478ec434085c40cc","study_id":"6197b3f67c2b5cd3b6d9596a","session_id":"6197b5f034b3a3559b86e5f6","condition":"contingent","relevant_dimensions":["wings","pattern"],"bee_group":{"antennae":"X","wings":"1","pattern":"D","legs":"X"},"action":"avoid","summary":"bad-avoid","bonus":1.4600000000000009},{"rt":938.0999999046326,"stimulus":"\n                    <p><b>Action: <em>avoid</em></b></p>\n                    <p>This is the bee that you just saw.</p>\n                    <img src=\"bees-with-color/bee-A2DM.svg\" width=\"200\">\n                    <p><br>Your bonus pay is unchanged, and remains at $1.00.</p>\n            ","response":0,"trial_type":"html-button-response","trial_index":110,"time_elapsed":358855,"internal_node_id":"0.0-4.0-1.51","subject_id":"5e6d8b23478ec434085c40cc","study_id":"6197b3f67c2b5cd3b6d9596a","session_id":"6197b5f034b3a3559b86e5f6","condition":"contingent","relevant_dimensions":["wings","pattern"],"bee_group":{"antennae":"X","wings":"1","pattern":"D","legs":"X"},"bonus":1.4600000000000009},{"rt":1407.3000001907349,"stimulus":"bees-with-color/bee-B2SM.svg","response":0,"trial_type":"image-button-response","trial_index":111,"time_elapsed":360270,"internal_node_id":"0.0-4.0-0.52","subject_id":"5e6d8b23478ec434085c40cc","study_id":"6197b3f67c2b5cd3b6d9596a","session_id":"6197b5f034b3a3559b86e5f6","condition":"contingent","relevant_dimensions":["wings","pattern"],"bee_group":{"antennae":"X","wings":"1","pattern":"D","legs":"X"},"action":"harvest","summary":"good-harvest","bonus":1.4600000000000009},{"rt":947.3000001907349,"stimulus":"\n                    <p><b>Action: <em>harvest</em></b></p>\n                    <p>This is the bee that you just saw.</p>\n                    <img src=\"bees-with-color/bee-B2SM.svg\" width=\"200\">\n                    <p><span class=\"greenText\"><b>Successful harvest!</b></span><br>Your pay has increased by $0.02. Your bonus pay is now $1.02.</p>\n            ","response":0,"trial_type":"html-button-response","trial_index":112,"time_elapsed":361229,"internal_node_id":"0.0-4.0-1.52","subject_id":"5e6d8b23478ec434085c40cc","study_id":"6197b3f67c2b5cd3b6d9596a","session_id":"6197b5f034b3a3559b86e5f6","condition":"contingent","relevant_dimensions":["wings","pattern"],"bee_group":{"antennae":"X","wings":"1","pattern":"D","legs":"X"},"bonus":1.4600000000000009},{"rt":1156.6999998092651,"stimulus":"bees-with-color/bee-A1DF.svg","response":1,"trial_type":"image-button-response","trial_index":113,"time_elapsed":362392,"internal_node_id":"0.0-4.0-0.53","subject_id":"5e6d8b23478ec434085c40cc","study_id":"6197b3f67c2b5cd3b6d9596a","session_id":"6197b5f034b3a3559b86e5f6","condition":"contingent","relevant_dimensions":["wings","pattern"],"bee_group":{"antennae":"X","wings":"1","pattern":"D","legs":"X"},"action":"avoid","summary":"good-avoid","bonus":1.4600000000000009},{"rt":957.1000001430511,"stimulus":"\n                    <p><b>Action: <em>avoid</em></b></p>\n                    <p>This is the bee that you just saw.</p>\n                    <img src=\"bees-with-color/bee-A1DF.svg\" width=\"200\">\n                    <p><br>Your bonus pay is unchanged, and remains at $1.02.</p>\n            ","response":0,"trial_type":"html-button-response","trial_index":114,"time_elapsed":363362,"internal_node_id":"0.0-4.0-1.53","subject_id":"5e6d8b23478ec434085c40cc","study_id":"6197b3f67c2b5cd3b6d9596a","session_id":"6197b5f034b3a3559b86e5f6","condition":"contingent","relevant_dimensions":["wings","pattern"],"bee_group":{"antennae":"X","wings":"1","pattern":"D","legs":"X"},"bonus":1.4600000000000009},{"rt":1093.3999998569489,"stimulus":"bees-with-color/bee-A1SF.svg","response":0,"trial_type":"image-button-response","trial_index":115,"time_elapsed":364462,"internal_node_id":"0.0-4.0-0.54","subject_id":"5e6d8b23478ec434085c40cc","study_id":"6197b3f67c2b5cd3b6d9596a","session_id":"6197b5f034b3a3559b86e5f6","condition":"contingent","relevant_dimensions":["wings","pattern"],"bee_group":{"antennae":"X","wings":"1","pattern":"D","legs":"X"},"action":"harvest","summary":"good-harvest","bonus":1.4600000000000009},{"rt":996.2000000476837,"stimulus":"\n                    <p><b>Action: <em>harvest</em></b></p>\n                    <p>This is the bee that you just saw.</p>\n                    <img src=\"bees-with-color/bee-A1SF.svg\" width=\"200\">\n                    <p><span class=\"greenText\"><b>Successful harvest!</b></span><br>Your pay has increased by $0.02. Your bonus pay is now $1.04.</p>\n            ","response":0,"trial_type":"html-button-response","trial_index":116,"time_elapsed":365467,"internal_node_id":"0.0-4.0-1.54","subject_id":"5e6d8b23478ec434085c40cc","study_id":"6197b3f67c2b5cd3b6d9596a","session_id":"6197b5f034b3a3559b86e5f6","condition":"contingent","relevant_dimensions":["wings","pattern"],"bee_group":{"antennae":"X","wings":"1","pattern":"D","legs":"X"},"bonus":1.4600000000000009},{"rt":1577.4000000953674,"stimulus":"bees-with-color/bee-B1SM.svg","response":0,"trial_type":"image-button-response","trial_index":117,"time_elapsed":367049,"internal_node_id":"0.0-4.0-0.55","subject_id":"5e6d8b23478ec434085c40cc","study_id":"6197b3f67c2b5cd3b6d9596a","session_id":"6197b5f034b3a3559b86e5f6","condition":"contingent","relevant_dimensions":["wings","pattern"],"bee_group":{"antennae":"X","wings":"1","pattern":"D","legs":"X"},"action":"harvest","summary":"good-harvest","bonus":1.4600000000000009},{"rt":1001.5,"stimulus":"\n                    <p><b>Action: <em>harvest</em></b></p>\n                    <p>This is the bee that you just saw.</p>\n                    <img src=\"bees-with-color/bee-B1SM.svg\" width=\"200\">\n                    <p><span class=\"greenText\"><b>Successful harvest!</b></span><br>Your pay has increased by $0.02. Your bonus pay is now $1.06.</p>\n            ","response":0,"trial_type":"html-button-response","trial_index":118,"time_elapsed":368060,"internal_node_id":"0.0-4.0-1.55","subject_id":"5e6d8b23478ec434085c40cc","study_id":"6197b3f67c2b5cd3b6d9596a","session_id":"6197b5f034b3a3559b86e5f6","condition":"contingent","relevant_dimensions":["wings","pattern"],"bee_group":{"antennae":"X","wings":"1","pattern":"D","legs":"X"},"bonus":1.4600000000000009},{"rt":1201.9000000953674,"stimulus":"bees-with-color/bee-B2DF.svg","response":1,"trial_type":"image-button-response","trial_index":119,"time_elapsed":369268,"internal_node_id":"0.0-4.0-0.56","subject_id":"5e6d8b23478ec434085c40cc","study_id":"6197b3f67c2b5cd3b6d9596a","session_id":"6197b5f034b3a3559b86e5f6","condition":"contingent","relevant_dimensions":["wings","pattern"],"bee_group":{"antennae":"X","wings":"1","pattern":"D","legs":"X"},"action":"avoid","summary":"bad-avoid","bonus":1.4600000000000009},{"rt":1204,"stimulus":"\n                    <p><b>Action: <em>avoid</em></b></p>\n                    <p>This is the bee that you just saw.</p>\n                    <img src=\"bees-with-color/bee-B2DF.svg\" width=\"200\">\n                    <p><br>Your bonus pay is unchanged, and remains at $1.06.</p>\n            ","response":0,"trial_type":"html-button-response","trial_index":120,"time_elapsed":370482,"internal_node_id":"0.0-4.0-1.56","subject_id":"5e6d8b23478ec434085c40cc","study_id":"6197b3f67c2b5cd3b6d9596a","session_id":"6197b5f034b3a3559b86e5f6","condition":"contingent","relevant_dimensions":["wings","pattern"],"bee_group":{"antennae":"X","wings":"1","pattern":"D","legs":"X"},"bonus":1.4600000000000009},{"rt":1343.2000000476837,"stimulus":"bees-with-color/bee-B1SF.svg","response":0,"trial_type":"image-button-response","trial_index":121,"time_elapsed":371832,"internal_node_id":"0.0-4.0-0.57","subject_id":"5e6d8b23478ec434085c40cc","study_id":"6197b3f67c2b5cd3b6d9596a","session_id":"6197b5f034b3a3559b86e5f6","condition":"contingent","relevant_dimensions":["wings","pattern"],"bee_group":{"antennae":"X","wings":"1","pattern":"D","legs":"X"},"action":"harvest","summary":"good-harvest","bonus":1.4600000000000009},{"rt":1058.2000000476837,"stimulus":"\n                    <p><b>Action: <em>harvest</em></b></p>\n                    <p>This is the bee that you just saw.</p>\n                    <img src=\"bees-with-color/bee-B1SF.svg\" width=\"200\">\n                    <p><span class=\"greenText\"><b>Successful harvest!</b></span><br>Your pay has increased by $0.02. Your bonus pay is now $1.08.</p>\n            ","response":0,"trial_type":"html-button-response","trial_index":122,"time_elapsed":372898,"internal_node_id":"0.0-4.0-1.57","subject_id":"5e6d8b23478ec434085c40cc","study_id":"6197b3f67c2b5cd3b6d9596a","session_id":"6197b5f034b3a3559b86e5f6","condition":"contingent","relevant_dimensions":["wings","pattern"],"bee_group":{"antennae":"X","wings":"1","pattern":"D","legs":"X"},"bonus":1.4600000000000009},{"rt":1473.6000001430511,"stimulus":"bees-with-color/bee-B2DM.svg","response":1,"trial_type":"image-button-response","trial_index":123,"time_elapsed":374378,"internal_node_id":"0.0-4.0-0.58","subject_id":"5e6d8b23478ec434085c40cc","study_id":"6197b3f67c2b5cd3b6d9596a","session_id":"6197b5f034b3a3559b86e5f6","condition":"contingent","relevant_dimensions":["wings","pattern"],"bee_group":{"antennae":"X","wings":"1","pattern":"D","legs":"X"},"action":"avoid","summary":"bad-avoid","bonus":1.4600000000000009},{"rt":1198.3999998569489,"stimulus":"\n                    <p><b>Action: <em>avoid</em></b></p>\n                    <p>This is the bee that you just saw.</p>\n                    <img src=\"bees-with-color/bee-B2DM.svg\" width=\"200\">\n                    <p><br>Your bonus pay is unchanged, and remains at $1.08.</p>\n            ","response":0,"trial_type":"html-button-response","trial_index":124,"time_elapsed":375584,"internal_node_id":"0.0-4.0-1.58","subject_id":"5e6d8b23478ec434085c40cc","study_id":"6197b3f67c2b5cd3b6d9596a","session_id":"6197b5f034b3a3559b86e5f6","condition":"contingent","relevant_dimensions":["wings","pattern"],"bee_group":{"antennae":"X","wings":"1","pattern":"D","legs":"X"},"bonus":1.4600000000000009},{"rt":1140,"stimulus":"bees-with-color/bee-B1DM.svg","response":1,"trial_type":"image-button-response","trial_index":125,"time_elapsed":376730,"internal_node_id":"0.0-4.0-0.59","subject_id":"5e6d8b23478ec434085c40cc","study_id":"6197b3f67c2b5cd3b6d9596a","session_id":"6197b5f034b3a3559b86e5f6","condition":"contingent","relevant_dimensions":["wings","pattern"],"bee_group":{"antennae":"X","wings":"1","pattern":"D","legs":"X"},"action":"avoid","summary":"good-avoid","bonus":1.4600000000000009},{"rt":1212.7000000476837,"stimulus":"\n                    <p><b>Action: <em>avoid</em></b></p>\n                    <p>This is the bee that you just saw.</p>\n                    <img src=\"bees-with-color/bee-B1DM.svg\" width=\"200\">\n                    <p><br>Your bonus pay is unchanged, and remains at $1.08.</p>\n            ","response":0,"trial_type":"html-button-response","trial_index":126,"time_elapsed":377950,"internal_node_id":"0.0-4.0-1.59","subject_id":"5e6d8b23478ec434085c40cc","study_id":"6197b3f67c2b5cd3b6d9596a","session_id":"6197b5f034b3a3559b86e5f6","condition":"contingent","relevant_dimensions":["wings","pattern"],"bee_group":{"antennae":"X","wings":"1","pattern":"D","legs":"X"},"bonus":1.4600000000000009},{"rt":1202.0999999046326,"stimulus":"bees-with-color/bee-A1SM.svg","response":0,"trial_type":"image-button-response","trial_index":127,"time_elapsed":379159,"internal_node_id":"0.0-4.0-0.60","subject_id":"5e6d8b23478ec434085c40cc","study_id":"6197b3f67c2b5cd3b6d9596a","session_id":"6197b5f034b3a3559b86e5f6","condition":"contingent","relevant_dimensions":["wings","pattern"],"bee_group":{"antennae":"X","wings":"1","pattern":"D","legs":"X"},"action":"harvest","summary":"good-harvest","bonus":1.4600000000000009},{"rt":967.2999999523163,"stimulus":"\n                    <p><b>Action: <em>harvest</em></b></p>\n                    <p>This is the bee that you just saw.</p>\n                    <img src=\"bees-with-color/bee-A1SM.svg\" width=\"200\">\n                    <p><span class=\"greenText\"><b>Successful harvest!</b></span><br>Your pay has increased by $0.02. Your bonus pay is now $1.10.</p>\n            ","response":0,"trial_type":"html-button-response","trial_index":128,"time_elapsed":380135,"internal_node_id":"0.0-4.0-1.60","subject_id":"5e6d8b23478ec434085c40cc","study_id":"6197b3f67c2b5cd3b6d9596a","session_id":"6197b5f034b3a3559b86e5f6","condition":"contingent","relevant_dimensions":["wings","pattern"],"bee_group":{"antennae":"X","wings":"1","pattern":"D","legs":"X"},"bonus":1.4600000000000009},{"rt":1090.7999999523163,"stimulus":"bees-with-color/bee-A2SM.svg","response":0,"trial_type":"image-button-response","trial_index":129,"time_elapsed":381232,"internal_node_id":"0.0-4.0-0.61","subject_id":"5e6d8b23478ec434085c40cc","study_id":"6197b3f67c2b5cd3b6d9596a","session_id":"6197b5f034b3a3559b86e5f6","condition":"contingent","relevant_dimensions":["wings","pattern"],"bee_group":{"antennae":"X","wings":"1","pattern":"D","legs":"X"},"action":"harvest","summary":"good-harvest","bonus":1.4600000000000009},{"rt":1630.2999999523163,"stimulus":"\n                    <p><b>Action: <em>harvest</em></b></p>\n                    <p>This is the bee that you just saw.</p>\n                    <img src=\"bees-with-color/bee-A2SM.svg\" width=\"200\">\n                    <p><span class=\"greenText\"><b>Successful harvest!</b></span><br>Your pay has increased by $0.02. Your bonus pay is now $1.12.</p>\n            ","response":0,"trial_type":"html-button-response","trial_index":130,"time_elapsed":382870,"internal_node_id":"0.0-4.0-1.61","subject_id":"5e6d8b23478ec434085c40cc","study_id":"6197b3f67c2b5cd3b6d9596a","session_id":"6197b5f034b3a3559b86e5f6","condition":"contingent","relevant_dimensions":["wings","pattern"],"bee_group":{"antennae":"X","wings":"1","pattern":"D","legs":"X"},"bonus":1.4600000000000009},{"rt":1094.7000000476837,"stimulus":"bees-with-color/bee-B2SF.svg","response":0,"trial_type":"image-button-response","trial_index":131,"time_elapsed":383976,"internal_node_id":"0.0-4.0-0.62","subject_id":"5e6d8b23478ec434085c40cc","study_id":"6197b3f67c2b5cd3b6d9596a","session_id":"6197b5f034b3a3559b86e5f6","condition":"contingent","relevant_dimensions":["wings","pattern"],"bee_group":{"antennae":"X","wings":"1","pattern":"D","legs":"X"},"action":"harvest","summary":"good-harvest","bonus":1.4600000000000009},{"rt":1094.8999998569489,"stimulus":"\n                    <p><b>Action: <em>harvest</em></b></p>\n                    <p>This is the bee that you just saw.</p>\n                    <img src=\"bees-with-color/bee-B2SF.svg\" width=\"200\">\n                    <p><span class=\"greenText\"><b>Successful harvest!</b></span><br>Your pay has increased by $0.02. Your bonus pay is now $1.14.</p>\n            ","response":0,"trial_type":"html-button-response","trial_index":132,"time_elapsed":385079,"internal_node_id":"0.0-4.0-1.62","subject_id":"5e6d8b23478ec434085c40cc","study_id":"6197b3f67c2b5cd3b6d9596a","session_id":"6197b5f034b3a3559b86e5f6","condition":"contingent","relevant_dimensions":["wings","pattern"],"bee_group":{"antennae":"X","wings":"1","pattern":"D","legs":"X"},"bonus":1.4600000000000009},{"rt":1251.1000001430511,"stimulus":"bees-with-color/bee-A1DM.svg","response":1,"trial_type":"image-button-response","trial_index":133,"time_elapsed":386336,"internal_node_id":"0.0-4.0-0.63","subject_id":"5e6d8b23478ec434085c40cc","study_id":"6197b3f67c2b5cd3b6d9596a","session_id":"6197b5f034b3a3559b86e5f6","condition":"contingent","relevant_dimensions":["wings","pattern"],"bee_group":{"antennae":"X","wings":"1","pattern":"D","legs":"X"},"action":"avoid","summary":"good-avoid","bonus":1.4600000000000009},{"rt":1297.5,"stimulus":"\n                    <p><b>Action: <em>avoid</em></b></p>\n                    <p>This is the bee that you just saw.</p>\n                    <img src=\"bees-with-color/bee-A1DM.svg\" width=\"200\">\n                    <p><br>Your bonus pay is unchanged, and remains at $1.14.</p>\n            ","response":0,"trial_type":"html-button-response","trial_index":134,"time_elapsed":387644,"internal_node_id":"0.0-4.0-1.63","subject_id":"5e6d8b23478ec434085c40cc","study_id":"6197b3f67c2b5cd3b6d9596a","session_id":"6197b5f034b3a3559b86e5f6","condition":"contingent","relevant_dimensions":["wings","pattern"],"bee_group":{"antennae":"X","wings":"1","pattern":"D","legs":"X"},"bonus":1.4600000000000009},{"rt":7944.200000047684,"stimulus":"You have completed the first part of this experiment.<br><br>You will now begin a shorter second part, in which you will receive no feedback.<br>The same rules regarding bonus pay apply.<br><br>Press any key to begin.","response":" ","trial_type":"html-keyboard-response","trial_index":135,"time_elapsed":395598,"internal_node_id":"0.0-5.0","subject_id":"5e6d8b23478ec434085c40cc","study_id":"6197b3f67c2b5cd3b6d9596a","session_id":"6197b5f034b3a3559b86e5f6","condition":"contingent","relevant_dimensions":["wings","pattern"],"bee_group":{"antennae":"X","wings":"1","pattern":"D","legs":"X"},"bonus":1.4600000000000009},{"rt":5054.700000047684,"stimulus":"bees-with-color/bee-B2DF.svg","response":1,"trial_type":"image-button-response","trial_index":136,"time_elapsed":400663,"internal_node_id":"0.0-6.0-0.0","subject_id":"5e6d8b23478ec434085c40cc","study_id":"6197b3f67c2b5cd3b6d9596a","session_id":"6197b5f034b3a3559b86e5f6","condition":"contingent","relevant_dimensions":["wings","pattern"],"bee_group":{"antennae":"X","wings":"1","pattern":"D","legs":"X"},"bonus":1.4600000000000009},{"rt":2509.5,"stimulus":"bees-with-color/bee-A2SF.svg","response":0,"trial_type":"image-button-response","trial_index":137,"time_elapsed":403185,"internal_node_id":"0.0-6.0-0.1","subject_id":"5e6d8b23478ec434085c40cc","study_id":"6197b3f67c2b5cd3b6d9596a","session_id":"6197b5f034b3a3559b86e5f6","condition":"contingent","relevant_dimensions":["wings","pattern"],"bee_group":{"antennae":"X","wings":"1","pattern":"D","legs":"X"},"bonus":1.4600000000000009},{"rt":1269.7000000476837,"stimulus":"bees-with-color/bee-A1DF.svg","response":1,"trial_type":"image-button-response","trial_index":138,"time_elapsed":404466,"internal_node_id":"0.0-6.0-0.2","subject_id":"5e6d8b23478ec434085c40cc","study_id":"6197b3f67c2b5cd3b6d9596a","session_id":"6197b5f034b3a3559b86e5f6","condition":"contingent","relevant_dimensions":["wings","pattern"],"bee_group":{"antennae":"X","wings":"1","pattern":"D","legs":"X"},"bonus":1.4600000000000009},{"rt":978,"stimulus":"bees-with-color/bee-B2SM.svg","response":0,"trial_type":"image-button-response","trial_index":139,"time_elapsed":405456,"internal_node_id":"0.0-6.0-0.3","subject_id":"5e6d8b23478ec434085c40cc","study_id":"6197b3f67c2b5cd3b6d9596a","session_id":"6197b5f034b3a3559b86e5f6","condition":"contingent","relevant_dimensions":["wings","pattern"],"bee_group":{"antennae":"X","wings":"1","pattern":"D","legs":"X"},"bonus":1.4600000000000009},{"rt":1079.7000000476837,"stimulus":"bees-with-color/bee-A1DM.svg","response":1,"trial_type":"image-button-response","trial_index":140,"time_elapsed":406559,"internal_node_id":"0.0-6.0-0.4","subject_id":"5e6d8b23478ec434085c40cc","study_id":"6197b3f67c2b5cd3b6d9596a","session_id":"6197b5f034b3a3559b86e5f6","condition":"contingent","relevant_dimensions":["wings","pattern"],"bee_group":{"antennae":"X","wings":"1","pattern":"D","legs":"X"},"bonus":1.4600000000000009},{"rt":2335.9000000953674,"stimulus":"bees-with-color/bee-A2DF.svg","response":1,"trial_type":"image-button-response","trial_index":141,"time_elapsed":408906,"internal_node_id":"0.0-6.0-0.5","subject_id":"5e6d8b23478ec434085c40cc","study_id":"6197b3f67c2b5cd3b6d9596a","session_id":"6197b5f034b3a3559b86e5f6","condition":"contingent","relevant_dimensions":["wings","pattern"],"bee_group":{"antennae":"X","wings":"1","pattern":"D","legs":"X"},"bonus":1.4600000000000009},{"rt":973.8999998569489,"stimulus":"bees-with-color/bee-B1SM.svg","response":0,"trial_type":"image-button-response","trial_index":142,"time_elapsed":409889,"internal_node_id":"0.0-6.0-0.6","subject_id":"5e6d8b23478ec434085c40cc","study_id":"6197b3f67c2b5cd3b6d9596a","session_id":"6197b5f034b3a3559b86e5f6","condition":"contingent","relevant_dimensions":["wings","pattern"],"bee_group":{"antennae":"X","wings":"1","pattern":"D","legs":"X"},"bonus":1.4600000000000009},{"rt":1032.9000000953674,"stimulus":"bees-with-color/bee-A1SF.svg","response":0,"trial_type":"image-button-response","trial_index":143,"time_elapsed":410932,"internal_node_id":"0.0-6.0-0.7","subject_id":"5e6d8b23478ec434085c40cc","study_id":"6197b3f67c2b5cd3b6d9596a","session_id":"6197b5f034b3a3559b86e5f6","condition":"contingent","relevant_dimensions":["wings","pattern"],"bee_group":{"antennae":"X","wings":"1","pattern":"D","legs":"X"},"bonus":1.4600000000000009},{"rt":845.6999998092651,"stimulus":"bees-with-color/bee-B1SF.svg","response":0,"trial_type":"image-button-response","trial_index":144,"time_elapsed":411790,"internal_node_id":"0.0-6.0-0.8","subject_id":"5e6d8b23478ec434085c40cc","study_id":"6197b3f67c2b5cd3b6d9596a","session_id":"6197b5f034b3a3559b86e5f6","condition":"contingent","relevant_dimensions":["wings","pattern"],"bee_group":{"antennae":"X","wings":"1","pattern":"D","legs":"X"},"bonus":1.4600000000000009},{"rt":1095.9000000953674,"stimulus":"bees-with-color/bee-B2DM.svg","response":1,"trial_type":"image-button-response","trial_index":145,"time_elapsed":412895,"internal_node_id":"0.0-6.0-0.9","subject_id":"5e6d8b23478ec434085c40cc","study_id":"6197b3f67c2b5cd3b6d9596a","session_id":"6197b5f034b3a3559b86e5f6","condition":"contingent","relevant_dimensions":["wings","pattern"],"bee_group":{"antennae":"X","wings":"1","pattern":"D","legs":"X"},"bonus":1.4600000000000009},{"rt":1008.0999999046326,"stimulus":"bees-with-color/bee-A2SM.svg","response":0,"trial_type":"image-button-response","trial_index":146,"time_elapsed":413912,"internal_node_id":"0.0-6.0-0.10","subject_id":"5e6d8b23478ec434085c40cc","study_id":"6197b3f67c2b5cd3b6d9596a","session_id":"6197b5f034b3a3559b86e5f6","condition":"contingent","relevant_dimensions":["wings","pattern"],"bee_group":{"antennae":"X","wings":"1","pattern":"D","legs":"X"},"bonus":1.4600000000000009},{"rt":1373.5,"stimulus":"bees-with-color/bee-A1SM.svg","response":0,"trial_type":"image-button-response","trial_index":147,"time_elapsed":415295,"internal_node_id":"0.0-6.0-0.11","subject_id":"5e6d8b23478ec434085c40cc","study_id":"6197b3f67c2b5cd3b6d9596a","session_id":"6197b5f034b3a3559b86e5f6","condition":"contingent","relevant_dimensions":["wings","pattern"],"bee_group":{"antennae":"X","wings":"1","pattern":"D","legs":"X"},"bonus":1.4600000000000009},{"rt":1327,"stimulus":"bees-with-color/bee-A2DM.svg","response":1,"trial_type":"image-button-response","trial_index":148,"time_elapsed":416630,"internal_node_id":"0.0-6.0-0.12","subject_id":"5e6d8b23478ec434085c40cc","study_id":"6197b3f67c2b5cd3b6d9596a","session_id":"6197b5f034b3a3559b86e5f6","condition":"contingent","relevant_dimensions":["wings","pattern"],"bee_group":{"antennae":"X","wings":"1","pattern":"D","legs":"X"},"bonus":1.4600000000000009},{"rt":977.2999999523163,"stimulus":"bees-with-color/bee-B1DM.svg","response":1,"trial_type":"image-button-response","trial_index":149,"time_elapsed":417618,"internal_node_id":"0.0-6.0-0.13","subject_id":"5e6d8b23478ec434085c40cc","study_id":"6197b3f67c2b5cd3b6d9596a","session_id":"6197b5f034b3a3559b86e5f6","condition":"contingent","relevant_dimensions":["wings","pattern"],"bee_group":{"antennae":"X","wings":"1","pattern":"D","legs":"X"},"bonus":1.4600000000000009},{"rt":693,"stimulus":"bees-with-color/bee-B1DF.svg","response":1,"trial_type":"image-button-response","trial_index":150,"time_elapsed":418323,"internal_node_id":"0.0-6.0-0.14","subject_id":"5e6d8b23478ec434085c40cc","study_id":"6197b3f67c2b5cd3b6d9596a","session_id":"6197b5f034b3a3559b86e5f6","condition":"contingent","relevant_dimensions":["wings","pattern"],"bee_group":{"antennae":"X","wings":"1","pattern":"D","legs":"X"},"bonus":1.4600000000000009},{"rt":1025.7000000476837,"stimulus":"bees-with-color/bee-B2SF.svg","response":0,"trial_type":"image-button-response","trial_index":151,"time_elapsed":419357,"internal_node_id":"0.0-6.0-0.15","subject_id":"5e6d8b23478ec434085c40cc","study_id":"6197b3f67c2b5cd3b6d9596a","session_id":"6197b5f034b3a3559b86e5f6","condition":"contingent","relevant_dimensions":["wings","pattern"],"bee_group":{"antennae":"X","wings":"1","pattern":"D","legs":"X"},"bonus":1.4600000000000009},{"rt":675.2000000476837,"stimulus":"bees-with-color/bee-A1SF.svg","response":0,"trial_type":"image-button-response","trial_index":152,"time_elapsed":420041,"internal_node_id":"0.0-6.0-0.16","subject_id":"5e6d8b23478ec434085c40cc","study_id":"6197b3f67c2b5cd3b6d9596a","session_id":"6197b5f034b3a3559b86e5f6","condition":"contingent","relevant_dimensions":["wings","pattern"],"bee_group":{"antennae":"X","wings":"1","pattern":"D","legs":"X"},"bonus":1.4600000000000009},{"rt":685.7999999523163,"stimulus":"bees-with-color/bee-B2SM.svg","response":0,"trial_type":"image-button-response","trial_index":153,"time_elapsed":420734,"internal_node_id":"0.0-6.0-0.17","subject_id":"5e6d8b23478ec434085c40cc","study_id":"6197b3f67c2b5cd3b6d9596a","session_id":"6197b5f034b3a3559b86e5f6","condition":"contingent","relevant_dimensions":["wings","pattern"],"bee_group":{"antennae":"X","wings":"1","pattern":"D","legs":"X"},"bonus":1.4600000000000009},{"rt":636.5,"stimulus":"bees-with-color/bee-A1SM.svg","response":0,"trial_type":"image-button-response","trial_index":154,"time_elapsed":421380,"internal_node_id":"0.0-6.0-0.18","subject_id":"5e6d8b23478ec434085c40cc","study_id":"6197b3f67c2b5cd3b6d9596a","session_id":"6197b5f034b3a3559b86e5f6","condition":"contingent","relevant_dimensions":["wings","pattern"],"bee_group":{"antennae":"X","wings":"1","pattern":"D","legs":"X"},"bonus":1.4600000000000009},{"rt":673.5999999046326,"stimulus":"bees-with-color/bee-A2SF.svg","response":0,"trial_type":"image-button-response","trial_index":155,"time_elapsed":422064,"internal_node_id":"0.0-6.0-0.19","subject_id":"5e6d8b23478ec434085c40cc","study_id":"6197b3f67c2b5cd3b6d9596a","session_id":"6197b5f034b3a3559b86e5f6","condition":"contingent","relevant_dimensions":["wings","pattern"],"bee_group":{"antennae":"X","wings":"1","pattern":"D","legs":"X"},"bonus":1.4600000000000009},{"rt":1148.0999999046326,"stimulus":"bees-with-color/bee-B1DM.svg","response":1,"trial_type":"image-button-response","trial_index":156,"time_elapsed":423223,"internal_node_id":"0.0-6.0-0.20","subject_id":"5e6d8b23478ec434085c40cc","study_id":"6197b3f67c2b5cd3b6d9596a","session_id":"6197b5f034b3a3559b86e5f6","condition":"contingent","relevant_dimensions":["wings","pattern"],"bee_group":{"antennae":"X","wings":"1","pattern":"D","legs":"X"},"bonus":1.4600000000000009},{"rt":685.8999998569489,"stimulus":"bees-with-color/bee-B2DM.svg","response":1,"trial_type":"image-button-response","trial_index":157,"time_elapsed":423917,"internal_node_id":"0.0-6.0-0.21","subject_id":"5e6d8b23478ec434085c40cc","study_id":"6197b3f67c2b5cd3b6d9596a","session_id":"6197b5f034b3a3559b86e5f6","condition":"contingent","relevant_dimensions":["wings","pattern"],"bee_group":{"antennae":"X","wings":"1","pattern":"D","legs":"X"},"bonus":1.4600000000000009},{"rt":709.2000000476837,"stimulus":"bees-with-color/bee-B2DF.svg","response":1,"trial_type":"image-button-response","trial_index":158,"time_elapsed":424638,"internal_node_id":"0.0-6.0-0.22","subject_id":"5e6d8b23478ec434085c40cc","study_id":"6197b3f67c2b5cd3b6d9596a","session_id":"6197b5f034b3a3559b86e5f6","condition":"contingent","relevant_dimensions":["wings","pattern"],"bee_group":{"antennae":"X","wings":"1","pattern":"D","legs":"X"},"bonus":1.4600000000000009},{"rt":770.2999999523163,"stimulus":"bees-with-color/bee-A1DF.svg","response":1,"trial_type":"image-button-response","trial_index":159,"time_elapsed":425416,"internal_node_id":"0.0-6.0-0.23","subject_id":"5e6d8b23478ec434085c40cc","study_id":"6197b3f67c2b5cd3b6d9596a","session_id":"6197b5f034b3a3559b86e5f6","condition":"contingent","relevant_dimensions":["wings","pattern"],"bee_group":{"antennae":"X","wings":"1","pattern":"D","legs":"X"},"bonus":1.4600000000000009},{"rt":706,"stimulus":"bees-with-color/bee-A2DF.svg","response":1,"trial_type":"image-button-response","trial_index":160,"time_elapsed":426133,"internal_node_id":"0.0-6.0-0.24","subject_id":"5e6d8b23478ec434085c40cc","study_id":"6197b3f67c2b5cd3b6d9596a","session_id":"6197b5f034b3a3559b86e5f6","condition":"contingent","relevant_dimensions":["wings","pattern"],"bee_group":{"antennae":"X","wings":"1","pattern":"D","legs":"X"},"bonus":1.4600000000000009},{"rt":1184.3000001907349,"stimulus":"bees-with-color/bee-B1SM.svg","response":0,"trial_type":"image-button-response","trial_index":161,"time_elapsed":427327,"internal_node_id":"0.0-6.0-0.25","subject_id":"5e6d8b23478ec434085c40cc","study_id":"6197b3f67c2b5cd3b6d9596a","session_id":"6197b5f034b3a3559b86e5f6","condition":"contingent","relevant_dimensions":["wings","pattern"],"bee_group":{"antennae":"X","wings":"1","pattern":"D","legs":"X"},"bonus":1.4600000000000009},{"rt":709.6000001430511,"stimulus":"bees-with-color/bee-B1SF.svg","response":0,"trial_type":"image-button-response","trial_index":162,"time_elapsed":428044,"internal_node_id":"0.0-6.0-0.26","subject_id":"5e6d8b23478ec434085c40cc","study_id":"6197b3f67c2b5cd3b6d9596a","session_id":"6197b5f034b3a3559b86e5f6","condition":"contingent","relevant_dimensions":["wings","pattern"],"bee_group":{"antennae":"X","wings":"1","pattern":"D","legs":"X"},"bonus":1.4600000000000009},{"rt":763.7000000476837,"stimulus":"bees-with-color/bee-A2SM.svg","response":0,"trial_type":"image-button-response","trial_index":163,"time_elapsed":428815,"internal_node_id":"0.0-6.0-0.27","subject_id":"5e6d8b23478ec434085c40cc","study_id":"6197b3f67c2b5cd3b6d9596a","session_id":"6197b5f034b3a3559b86e5f6","condition":"contingent","relevant_dimensions":["wings","pattern"],"bee_group":{"antennae":"X","wings":"1","pattern":"D","legs":"X"},"bonus":1.4600000000000009},{"rt":670.7999999523163,"stimulus":"bees-with-color/bee-B2SF.svg","response":0,"trial_type":"image-button-response","trial_index":164,"time_elapsed":429497,"internal_node_id":"0.0-6.0-0.28","subject_id":"5e6d8b23478ec434085c40cc","study_id":"6197b3f67c2b5cd3b6d9596a","session_id":"6197b5f034b3a3559b86e5f6","condition":"contingent","relevant_dimensions":["wings","pattern"],"bee_group":{"antennae":"X","wings":"1","pattern":"D","legs":"X"},"bonus":1.4600000000000009},{"rt":1196.5,"stimulus":"bees-with-color/bee-A2DM.svg","response":