[{"success":true,"trial_type":"fullscreen","trial_index":0,"time_elapsed":6824,"internal_node_id":"0.0-0.0","subject_id":"607e09fbd7c60ded8577281e","study_id":"60edd13110225f80f9f3709b","session_id":"6196c1f7322e1681a6a562eb","condition":"contingent","relevant_dimensions":["pattern","legs"],"bee_group":{"antennae":"X","wings":"X","pattern":"S","legs":"F"},"bonus":0.840000000000001},{"success":true,"timeout":false,"failed_images":[],"failed_audio":[],"failed_video":[],"trial_type":"preload","trial_index":1,"time_elapsed":10849,"internal_node_id":"0.0-1.0","subject_id":"607e09fbd7c60ded8577281e","study_id":"60edd13110225f80f9f3709b","session_id":"6196c1f7322e1681a6a562eb","condition":"contingent","relevant_dimensions":["pattern","legs"],"bee_group":{"antennae":"X","wings":"X","pattern":"S","legs":"F"},"bonus":0.840000000000001},{"rt":5520,"stimulus":"Welcome! Press any key to begin.","response":"enter","trial_type":"html-keyboard-response","trial_index":2,"time_elapsed":16372,"internal_node_id":"0.0-2.0","subject_id":"607e09fbd7c60ded8577281e","study_id":"60edd13110225f80f9f3709b","session_id":"6196c1f7322e1681a6a562eb","condition":"contingent","relevant_dimensions":["pattern","legs"],"bee_group":{"antennae":"X","wings":"X","pattern":"S","legs":"F"},"bonus":0.840000000000001},{"view_history":[{"page_index":0,"viewing_time":26857},{"page_index":1,"viewing_time":19319},{"page_index":2,"viewing_time":33175},{"page_index":3,"viewing_time":16409},{"page_index":2,"viewing_time":8752},{"page_index":3,"viewing_time":1401},{"page_index":4,"viewing_time":7424},{"page_index":5,"viewing_time":10319},{"page_index":6,"viewing_time":66464},{"page_index":7,"viewing_time":19535},{"page_index":8,"viewing_time":4809},{"page_index":9,"viewing_time":5495},{"page_index":10,"viewing_time":3041},{"page_index":11,"viewing_time":9216},{"page_index":12,"viewing_time":9513},{"page_index":13,"viewing_time":1454},{"page_index":14,"viewing_time":2848}],"rt":246032,"trial_type":"instructions","trial_index":3,"time_elapsed":262406,"internal_node_id":"0.0-3.0-0.0","subject_id":"607e09fbd7c60ded8577281e","study_id":"60edd13110225f80f9f3709b","session_id":"6196c1f7322e1681a6a562eb","condition":"contingent","relevant_dimensions":["pattern","legs"],"bee_group":{"antennae":"X","wings":"X","pattern":"S","legs":"F"},"bonus":0.840000000000001},{"rt":15320,"response":{"Q0":["Two or six legs","Stripes or spots on body","Single or double wings","Antennae or no antennae"]},"question_order":[0],"trial_type":"survey-multi-select","trial_index":4,"time_elapsed":277737,"internal_node_id":"0.0-3.0-1.0","subject_id":"607e09fbd7c60ded8577281e","study_id":"60edd13110225f80f9f3709b","session_id":"6196c1f7322e1681a6a562eb","condition":"contingent","relevant_dimensions":["pattern","legs"],"bee_group":{"antennae":"X","wings":"X","pattern":"S","legs":"F"},"correct":true,"bonus":0.840000000000001},{"rt":22448,"response":{"Q1":"No.","Q2":"Based on the four features of the bee.","Q3":"You do not learn if it was friendly or dangerous, and do not alter your bonus."},"question_order":[0,1,2],"trial_type":"survey-multi-choice","trial_index":5,"time_elapsed":300194,"internal_node_id":"0.0-3.0-2.0","subject_id":"607e09fbd7c60ded8577281e","study_id":"60edd13110225f80f9f3709b","session_id":"6196c1f7322e1681a6a562eb","condition":"contingent","relevant_dimensions":["pattern","legs"],"bee_group":{"antennae":"X","wings":"X","pattern":"S","legs":"F"},"correct":true,"bonus":0.840000000000001},{"rt":1918,"stimulus":"<p>Congrats, you got everything right<br>When you're ready, click the button below to continue to the experiment.</p>","response":0,"trial_type":"html-button-response","trial_index":6,"time_elapsed":302116,"internal_node_id":"0.0-3.0-3.0","subject_id":"607e09fbd7c60ded8577281e","study_id":"60edd13110225f80f9f3709b","session_id":"6196c1f7322e1681a6a562eb","condition":"contingent","relevant_dimensions":["pattern","legs"],"bee_group":{"antennae":"X","wings":"X","pattern":"S","legs":"F"},"bonus":0.840000000000001},{"rt":5270,"stimulus":"bees-with-color/bee-A1SF.svg","response":0,"trial_type":"image-button-response","trial_index":7,"time_elapsed":307392,"internal_node_id":"0.0-4.0-0.0","subject_id":"607e09fbd7c60ded8577281e","study_id":"60edd13110225f80f9f3709b","session_id":"6196c1f7322e1681a6a562eb","condition":"contingent","relevant_dimensions":["pattern","legs"],"bee_group":{"antennae":"X","wings":"X","pattern":"S","legs":"F"},"action":"harvest","summary":"bad-harvest","bonus":0.840000000000001},{"rt":46244,"stimulus":"\n                    <p><b>Action: <em>harvest</em></b></p>\n                    <p>This is the bee that you just saw.</p>\n                    <img src=\"bees-with-color/bee-A1SF.svg\" width=\"200\">\n                    <p><span class=\"redText\">Bad choice, the bee was angry.</span><br><b>You have been stung!</b><br>Your pay has been decreased by $0.10. Your bonus pay is now $0.44.</p>\n            ","response":0,"trial_type":"html-button-response","trial_index":8,"time_elapsed":353830,"internal_node_id":"0.0-4.0-1.0","subject_id":"607e09fbd7c60ded8577281e","study_id":"60edd13110225f80f9f3709b","session_id":"6196c1f7322e1681a6a562eb","condition":"contingent","relevant_dimensions":["pattern","legs"],"bee_group":{"antennae":"X","wings":"X","pattern":"S","legs":"F"},"bonus":0.840000000000001},{"rt":2524,"stimulus":"bees-with-color/bee-A2DF.svg","response":0,"trial_type":"image-button-response","trial_index":9,"time_elapsed":356358,"internal_node_id":"0.0-4.0-0.1","subject_id":"607e09fbd7c60ded8577281e","study_id":"60edd13110225f80f9f3709b","session_id":"6196c1f7322e1681a6a562eb","condition":"contingent","relevant_dimensions":["pattern","legs"],"bee_group":{"antennae":"X","wings":"X","pattern":"S","legs":"F"},"action":"harvest","summary":"good-harvest","bonus":0.840000000000001},{"rt":23284,"stimulus":"\n                    <p><b>Action: <em>harvest</em></b></p>\n                    <p>This is the bee that you just saw.</p>\n                    <img src=\"bees-with-color/bee-A2DF.svg\" width=\"200\">\n                    <p><span class=\"greenText\"><b>Successful harvest!</b></span><br>Your pay has increased by $0.02. Your bonus pay is now $0.46.</p>\n            ","response":0,"trial_type":"html-button-response","trial_index":10,"time_elapsed":379645,"internal_node_id":"0.0-4.0-1.1","subject_id":"607e09fbd7c60ded8577281e","study_id":"60edd13110225f80f9f3709b","session_id":"6196c1f7322e1681a6a562eb","condition":"contingent","relevant_dimensions":["pattern","legs"],"bee_group":{"antennae":"X","wings":"X","pattern":"S","legs":"F"},"bonus":0.840000000000001},{"rt":5456,"stimulus":"bees-with-color/bee-B2DF.svg","response":0,"trial_type":"image-button-response","trial_index":11,"time_elapsed":385105,"internal_node_id":"0.0-4.0-0.2","subject_id":"607e09fbd7c60ded8577281e","study_id":"60edd13110225f80f9f3709b","session_id":"6196c1f7322e1681a6a562eb","condition":"contingent","relevant_dimensions":["pattern","legs"],"bee_group":{"antennae":"X","wings":"X","pattern":"S","legs":"F"},"action":"harvest","summary":"good-harvest","bonus":0.840000000000001},{"rt":19424,"stimulus":"\n                    <p><b>Action: <em>harvest</em></b></p>\n                    <p>This is the bee that you just saw.</p>\n                    <img src=\"bees-with-color/bee-B2DF.svg\" width=\"200\">\n                    <p><span class=\"greenText\"><b>Successful harvest!</b></span><br>Your pay has increased by $0.02. Your bonus pay is now $0.48.</p>\n            ","response":0,"trial_type":"html-button-response","trial_index":12,"time_elapsed":404534,"internal_node_id":"0.0-4.0-1.2","subject_id":"607e09fbd7c60ded8577281e","study_id":"60edd13110225f80f9f3709b","session_id":"6196c1f7322e1681a6a562eb","condition":"contingent","relevant_dimensions":["pattern","legs"],"bee_group":{"antennae":"X","wings":"X","pattern":"S","legs":"F"},"bonus":0.840000000000001},{"rt":11141,"stimulus":"bees-with-color/bee-B2SM.svg","response":0,"trial_type":"image-button-response","trial_index":13,"time_elapsed":415677,"internal_node_id":"0.0-4.0-0.3","subject_id":"607e09fbd7c60ded8577281e","study_id":"60edd13110225f80f9f3709b","session_id":"6196c1f7322e1681a6a562eb","condition":"contingent","relevant_dimensions":["pattern","legs"],"bee_group":{"antennae":"X","wings":"X","pattern":"S","legs":"F"},"action":"harvest","summary":"good-harvest","bonus":0.840000000000001},{"rt":26357,"stimulus":"\n                    <p><b>Action: <em>harvest</em></b></p>\n                    <p>This is the bee that you just saw.</p>\n                    <img src=\"bees-with-color/bee-B2SM.svg\" width=\"200\">\n                    <p><span class=\"greenText\"><b>Successful harvest!</b></span><br>Your pay has increased by $0.02. Your bonus pay is now $0.50.</p>\n            ","response":0,"trial_type":"html-button-response","trial_index":14,"time_elapsed":442037,"internal_node_id":"0.0-4.0-1.3","subject_id":"607e09fbd7c60ded8577281e","study_id":"60edd13110225f80f9f3709b","session_id":"6196c1f7322e1681a6a562eb","condition":"contingent","relevant_dimensions":["pattern","legs"],"bee_group":{"antennae":"X","wings":"X","pattern":"S","legs":"F"},"bonus":0.840000000000001},{"rt":8293,"stimulus":"bees-with-color/bee-B2SF.svg","response":1,"trial_type":"image-button-response","trial_index":15,"time_elapsed":450333,"internal_node_id":"0.0-4.0-0.4","subject_id":"607e09fbd7c60ded8577281e","study_id":"60edd13110225f80f9f3709b","session_id":"6196c1f7322e1681a6a562eb","condition":"contingent","relevant_dimensions":["pattern","legs"],"bee_group":{"antennae":"X","wings":"X","pattern":"S","legs":"F"},"action":"avoid","summary":"good-avoid","bonus":0.840000000000001},{"rt":2517,"stimulus":"\n                    <p><b>Action: <em>avoid</em></b></p>\n                    <p>This is the bee that you just saw.</p>\n                    <img src=\"bees-with-color/bee-B2SF.svg\" width=\"200\">\n                    <p><br>Your bonus pay is unchanged, and remains at $0.50.</p>\n            ","response":0,"trial_type":"html-button-response","trial_index":16,"time_elapsed":452853,"internal_node_id":"0.0-4.0-1.4","subject_id":"607e09fbd7c60ded8577281e","study_id":"60edd13110225f80f9f3709b","session_id":"6196c1f7322e1681a6a562eb","condition":"contingent","relevant_dimensions":["pattern","legs"],"bee_group":{"antennae":"X","wings":"X","pattern":"S","legs":"F"},"bonus":0.840000000000001},{"rt":6013,"stimulus":"bees-with-color/bee-B1DM.svg","response":0,"trial_type":"image-button-response","trial_index":17,"time_elapsed":458869,"internal_node_id":"0.0-4.0-0.5","subject_id":"607e09fbd7c60ded8577281e","study_id":"60edd13110225f80f9f3709b","session_id":"6196c1f7322e1681a6a562eb","condition":"contingent","relevant_dimensions":["pattern","legs"],"bee_group":{"antennae":"X","wings":"X","pattern":"S","legs":"F"},"action":"harvest","summary":"good-harvest","bonus":0.840000000000001},{"rt":18198,"stimulus":"\n                    <p><b>Action: <em>harvest</em></b></p>\n                    <p>This is the bee that you just saw.</p>\n                    <img src=\"bees-with-color/bee-B1DM.svg\" width=\"200\">\n                    <p><span class=\"greenText\"><b>Successful harvest!</b></span><br>Your pay has increased by $0.02. Your bonus pay is now $0.52.</p>\n            ","response":0,"trial_type":"html-button-response","trial_index":18,"time_elapsed":477070,"internal_node_id":"0.0-4.0-1.5","subject_id":"607e09fbd7c60ded8577281e","study_id":"60edd13110225f80f9f3709b","session_id":"6196c1f7322e1681a6a562eb","condition":"contingent","relevant_dimensions":["pattern","legs"],"bee_group":{"antennae":"X","wings":"X","pattern":"S","legs":"F"},"bonus":0.840000000000001},{"rt":6780,"stimulus":"bees-with-color/bee-B1DF.svg","response":0,"trial_type":"image-button-response","trial_index":19,"time_elapsed":483854,"internal_node_id":"0.0-4.0-0.6","subject_id":"607e09fbd7c60ded8577281e","study_id":"60edd13110225f80f9f3709b","session_id":"6196c1f7322e1681a6a562eb","condition":"contingent","relevant_dimensions":["pattern","legs"],"bee_group":{"antennae":"X","wings":"X","pattern":"S","legs":"F"},"action":"harvest","summary":"good-harvest","bonus":0.840000000000001},{"rt":23269,"stimulus":"\n                    <p><b>Action: <em>harvest</em></b></p>\n                    <p>This is the bee that you just saw.</p>\n                    <img src=\"bees-with-color/bee-B1DF.svg\" width=\"200\">\n                    <p><span class=\"greenText\"><b>Successful harvest!</b></span><br>Your pay has increased by $0.02. Your bonus pay is now $0.54.</p>\n            ","response":0,"trial_type":"html-button-response","trial_index":20,"time_elapsed":507126,"internal_node_id":"0.0-4.0-1.6","subject_id":"607e09fbd7c60ded8577281e","study_id":"60edd13110225f80f9f3709b","session_id":"6196c1f7322e1681a6a562eb","condition":"contingent","relevant_dimensions":["pattern","legs"],"bee_group":{"antennae":"X","wings":"X","pattern":"S","legs":"F"},"bonus":0.840000000000001},{"rt":13045,"stimulus":"bees-with-color/bee-A2DM.svg","response":0,"trial_type":"image-button-response","trial_index":21,"time_elapsed":520174,"internal_node_id":"0.0-4.0-0.7","subject_id":"607e09fbd7c60ded8577281e","study_id":"60edd13110225f80f9f3709b","session_id":"6196c1f7322e1681a6a562eb","condition":"contingent","relevant_dimensions":["pattern","legs"],"bee_group":{"antennae":"X","wings":"X","pattern":"S","legs":"F"},"action":"harvest","summary":"good-harvest","bonus":0.840000000000001},{"rt":25637,"stimulus":"\n                    <p><b>Action: <em>harvest</em></b></p>\n                    <p>This is the bee that you just saw.</p>\n                    <img src=\"bees-with-color/bee-A2DM.svg\" width=\"200\">\n                    <p><span class=\"greenText\"><b>Successful harvest!</b></span><br>Your pay has increased by $0.02. Your bonus pay is now $0.56.</p>\n            ","response":0,"trial_type":"html-button-response","trial_index":22,"time_elapsed":545814,"internal_node_id":"0.0-4.0-1.7","subject_id":"607e09fbd7c60ded8577281e","study_id":"60edd13110225f80f9f3709b","session_id":"6196c1f7322e1681a6a562eb","condition":"contingent","relevant_dimensions":["pattern","legs"],"bee_group":{"antennae":"X","wings":"X","pattern":"S","legs":"F"},"bonus":0.840000000000001},{"rt":19350,"stimulus":"bees-with-color/bee-B2DM.svg","response":0,"trial_type":"image-button-response","trial_index":23,"time_elapsed":565166,"internal_node_id":"0.0-4.0-0.8","subject_id":"607e09fbd7c60ded8577281e","study_id":"60edd13110225f80f9f3709b","session_id":"6196c1f7322e1681a6a562eb","condition":"contingent","relevant_dimensions":["pattern","legs"],"bee_group":{"antennae":"X","wings":"X","pattern":"S","legs":"F"},"action":"harvest","summary":"good-harvest","bonus":0.840000000000001},{"rt":1773,"stimulus":"\n                    <p><b>Action: <em>harvest</em></b></p>\n                    <p>This is the bee that you just saw.</p>\n                    <img src=\"bees-with-color/bee-B2DM.svg\" width=\"200\">\n                    <p><span class=\"greenText\"><b>Successful harvest!</b></span><br>Your pay has increased by $0.02. Your bonus pay is now $0.58.</p>\n            ","response":0,"trial_type":"html-button-response","trial_index":24,"time_elapsed":566942,"internal_node_id":"0.0-4.0-1.8","subject_id":"607e09fbd7c60ded8577281e","study_id":"60edd13110225f80f9f3709b","session_id":"6196c1f7322e1681a6a562eb","condition":"contingent","relevant_dimensions":["pattern","legs"],"bee_group":{"antennae":"X","wings":"X","pattern":"S","legs":"F"},"bonus":0.840000000000001},{"rt":11580,"stimulus":"bees-with-color/bee-A1DF.svg","response":0,"trial_type":"image-button-response","trial_index":25,"time_elapsed":578525,"internal_node_id":"0.0-4.0-0.9","subject_id":"607e09fbd7c60ded8577281e","study_id":"60edd13110225f80f9f3709b","session_id":"6196c1f7322e1681a6a562eb","condition":"contingent","relevant_dimensions":["pattern","legs"],"bee_group":{"antennae":"X","wings":"X","pattern":"S","legs":"F"},"action":"harvest","summary":"good-harvest","bonus":0.840000000000001},{"rt":1901,"stimulus":"\n                    <p><b>Action: <em>harvest</em></b></p>\n                    <p>This is the bee that you just saw.</p>\n                    <img src=\"bees-with-color/bee-A1DF.svg\" width=\"200\">\n                    <p><span class=\"greenText\"><b>Successful harvest!</b></span><br>Your pay has increased by $0.02. Your bonus pay is now $0.60.</p>\n            ","response":0,"trial_type":"html-button-response","trial_index":26,"time_elapsed":580430,"internal_node_id":"0.0-4.0-1.9","subject_id":"607e09fbd7c60ded8577281e","study_id":"60edd13110225f80f9f3709b","session_id":"6196c1f7322e1681a6a562eb","condition":"contingent","relevant_dimensions":["pattern","legs"],"bee_group":{"antennae":"X","wings":"X","pattern":"S","legs":"F"},"bonus":0.840000000000001},{"rt":14892,"stimulus":"bees-with-color/bee-A2SM.svg","response":1,"trial_type":"image-button-response","trial_index":27,"time_elapsed":595326,"internal_node_id":"0.0-4.0-0.10","subject_id":"607e09fbd7c60ded8577281e","study_id":"60edd13110225f80f9f3709b","session_id":"6196c1f7322e1681a6a562eb","condition":"contingent","relevant_dimensions":["pattern","legs"],"bee_group":{"antennae":"X","wings":"X","pattern":"S","legs":"F"},"action":"avoid","summary":"bad-avoid","bonus":0.840000000000001},{"rt":1468,"stimulus":"\n                    <p><b>Action: <em>avoid</em></b></p>\n                    <p>This is the bee that you just saw.</p>\n                    <img src=\"bees-with-color/bee-A2SM.svg\" width=\"200\">\n                    <p><br>Your bonus pay is unchanged, and remains at $0.60.</p>\n            ","response":0,"trial_type":"html-button-response","trial_index":28,"time_elapsed":596797,"internal_node_id":"0.0-4.0-1.10","subject_id":"607e09fbd7c60ded8577281e","study_id":"60edd13110225f80f9f3709b","session_id":"6196c1f7322e1681a6a562eb","condition":"contingent","relevant_dimensions":["pattern","legs"],"bee_group":{"antennae":"X","wings":"X","pattern":"S","legs":"F"},"bonus":0.840000000000001},{"rt":7795,"stimulus":"bees-with-color/bee-B1SM.svg","response":0,"trial_type":"image-button-response","trial_index":29,"time_elapsed":604598,"internal_node_id":"0.0-4.0-0.11","subject_id":"607e09fbd7c60ded8577281e","study_id":"60edd13110225f80f9f3709b","session_id":"6196c1f7322e1681a6a562eb","condition":"contingent","relevant_dimensions":["pattern","legs"],"bee_group":{"antennae":"X","wings":"X","pattern":"S","legs":"F"},"action":"harvest","summary":"good-harvest","bonus":0.840000000000001},{"rt":1292,"stimulus":"\n                    <p><b>Action: <em>harvest</em></b></p>\n                    <p>This is the bee that you just saw.</p>\n                    <img src=\"bees-with-color/bee-B1SM.svg\" width=\"200\">\n                    <p><span class=\"greenText\"><b>Successful harvest!</b></span><br>Your pay has increased by $0.02. Your bonus pay is now $0.62.</p>\n            ","response":0,"trial_type":"html-button-response","trial_index":30,"time_elapsed":605894,"internal_node_id":"0.0-4.0-1.11","subject_id":"607e09fbd7c60ded8577281e","study_id":"60edd13110225f80f9f3709b","session_id":"6196c1f7322e1681a6a562eb","condition":"contingent","relevant_dimensions":["pattern","legs"],"bee_group":{"antennae":"X","wings":"X","pattern":"S","legs":"F"},"bonus":0.840000000000001},{"rt":7566,"stimulus":"bees-with-color/bee-A1SM.svg","response":1,"trial_type":"image-button-response","trial_index":31,"time_elapsed":613463,"internal_node_id":"0.0-4.0-0.12","subject_id":"607e09fbd7c60ded8577281e","study_id":"60edd13110225f80f9f3709b","session_id":"6196c1f7322e1681a6a562eb","condition":"contingent","relevant_dimensions":["pattern","legs"],"bee_group":{"antennae":"X","wings":"X","pattern":"S","legs":"F"},"action":"avoid","summary":"bad-avoid","bonus":0.840000000000001},{"rt":892,"stimulus":"\n                    <p><b>Action: <em>avoid</em></b></p>\n                    <p>This is the bee that you just saw.</p>\n                    <img src=\"bees-with-color/bee-A1SM.svg\" width=\"200\">\n                    <p><br>Your bonus pay is unchanged, and remains at $0.62.</p>\n            ","response":0,"trial_type":"html-button-response","trial_index":32,"time_elapsed":614358,"internal_node_id":"0.0-4.0-1.12","subject_id":"607e09fbd7c60ded8577281e","study_id":"60edd13110225f80f9f3709b","session_id":"6196c1f7322e1681a6a562eb","condition":"contingent","relevant_dimensions":["pattern","legs"],"bee_group":{"antennae":"X","wings":"X","pattern":"S","legs":"F"},"bonus":0.840000000000001},{"rt":7757,"stimulus":"bees-with-color/bee-A1DM.svg","response":0,"trial_type":"image-button-response","trial_index":33,"time_elapsed":622117,"internal_node_id":"0.0-4.0-0.13","subject_id":"607e09fbd7c60ded8577281e","study_id":"60edd13110225f80f9f3709b","session_id":"6196c1f7322e1681a6a562eb","condition":"contingent","relevant_dimensions":["pattern","legs"],"bee_group":{"antennae":"X","wings":"X","pattern":"S","legs":"F"},"action":"harvest","summary":"good-harvest","bonus":0.840000000000001},{"rt":1604,"stimulus":"\n                    <p><b>Action: <em>harvest</em></b></p>\n                    <p>This is the bee that you just saw.</p>\n                    <img src=\"bees-with-color/bee-A1DM.svg\" width=\"200\">\n                    <p><span class=\"greenText\"><b>Successful harvest!</b></span><br>Your pay has increased by $0.02. Your bonus pay is now $0.64.</p>\n            ","response":0,"trial_type":"html-button-response","trial_index":34,"time_elapsed":623726,"internal_node_id":"0.0-4.0-1.13","subject_id":"607e09fbd7c60ded8577281e","study_id":"60edd13110225f80f9f3709b","session_id":"6196c1f7322e1681a6a562eb","condition":"contingent","relevant_dimensions":["pattern","legs"],"bee_group":{"antennae":"X","wings":"X","pattern":"S","legs":"F"},"bonus":0.840000000000001},{"rt":2725,"stimulus":"bees-with-color/bee-B1SF.svg","response":1,"trial_type":"image-button-response","trial_index":35,"time_elapsed":626454,"internal_node_id":"0.0-4.0-0.14","subject_id":"607e09fbd7c60ded8577281e","study_id":"60edd13110225f80f9f3709b","session_id":"6196c1f7322e1681a6a562eb","condition":"contingent","relevant_dimensions":["pattern","legs"],"bee_group":{"antennae":"X","wings":"X","pattern":"S","legs":"F"},"action":"avoid","summary":"good-avoid","bonus":0.840000000000001},{"rt":773,"stimulus":"\n                    <p><b>Action: <em>avoid</em></b></p>\n                    <p>This is the bee that you just saw.</p>\n                    <img src=\"bees-with-color/bee-B1SF.svg\" width=\"200\">\n                    <p><br>Your bonus pay is unchanged, and remains at $0.64.</p>\n            ","response":0,"trial_type":"html-button-response","trial_index":36,"time_elapsed":627231,"internal_node_id":"0.0-4.0-1.14","subject_id":"607e09fbd7c60ded8577281e","study_id":"60edd13110225f80f9f3709b","session_id":"6196c1f7322e1681a6a562eb","condition":"contingent","relevant_dimensions":["pattern","legs"],"bee_group":{"antennae":"X","wings":"X","pattern":"S","legs":"F"},"bonus":0.840000000000001},{"rt":15523,"stimulus":"bees-with-color/bee-A2SF.svg","response":0,"trial_type":"image-button-response","trial_index":37,"time_elapsed":642758,"internal_node_id":"0.0-4.0-0.15","subject_id":"607e09fbd7c60ded8577281e","study_id":"60edd13110225f80f9f3709b","session_id":"6196c1f7322e1681a6a562eb","condition":"contingent","relevant_dimensions":["pattern","legs"],"bee_group":{"antennae":"X","wings":"X","pattern":"S","legs":"F"},"action":"harvest","summary":"bad-harvest","bonus":0.840000000000001},{"rt":11915,"stimulus":"\n                    <p><b>Action: <em>harvest</em></b></p>\n                    <p>This is the bee that you just saw.</p>\n                    <img src=\"bees-with-color/bee-A2SF.svg\" width=\"200\">\n                    <p><span class=\"redText\">Bad choice, the bee was angry.</span><br><b>You have been stung!</b><br>Your pay has been decreased by $0.10. Your bonus pay is now $0.54.</p>\n            ","response":0,"trial_type":"html-button-response","trial_index":38,"time_elapsed":654678,"internal_node_id":"0.0-4.0-1.15","subject_id":"607e09fbd7c60ded8577281e","study_id":"60edd13110225f80f9f3709b","session_id":"6196c1f7322e1681a6a562eb","condition":"contingent","relevant_dimensions":["pattern","legs"],"bee_group":{"antennae":"X","wings":"X","pattern":"S","legs":"F"},"bonus":0.840000000000001},{"rt":5277,"stimulus":"bees-with-color/bee-A1DM.svg","response":0,"trial_type":"image-button-response","trial_index":39,"time_elapsed":659960,"internal_node_id":"0.0-4.0-0.16","subject_id":"607e09fbd7c60ded8577281e","study_id":"60edd13110225f80f9f3709b","session_id":"6196c1f7322e1681a6a562eb","condition":"contingent","relevant_dimensions":["pattern","legs"],"bee_group":{"antennae":"X","wings":"X","pattern":"S","legs":"F"},"action":"harvest","summary":"good-harvest","bonus":0.840000000000001},{"rt":978,"stimulus":"\n                    <p><b>Action: <em>harvest</em></b></p>\n                    <p>This is the bee that you just saw.</p>\n                    <img src=\"bees-with-color/bee-A1DM.svg\" width=\"200\">\n                    <p><span class=\"greenText\"><b>Successful harvest!</b></span><br>Your pay has increased by $0.02. Your bonus pay is now $0.56.</p>\n            ","response":0,"trial_type":"html-button-response","trial_index":40,"time_elapsed":660942,"internal_node_id":"0.0-4.0-1.16","subject_id":"607e09fbd7c60ded8577281e","study_id":"60edd13110225f80f9f3709b","session_id":"6196c1f7322e1681a6a562eb","condition":"contingent","relevant_dimensions":["pattern","legs"],"bee_group":{"antennae":"X","wings":"X","pattern":"S","legs":"F"},"bonus":0.840000000000001},{"rt":13078,"stimulus":"bees-with-color/bee-B1SM.svg","response":0,"trial_type":"image-button-response","trial_index":41,"time_elapsed":674023,"internal_node_id":"0.0-4.0-0.17","subject_id":"607e09fbd7c60ded8577281e","study_id":"60edd13110225f80f9f3709b","session_id":"6196c1f7322e1681a6a562eb","condition":"contingent","relevant_dimensions":["pattern","legs"],"bee_group":{"antennae":"X","wings":"X","pattern":"S","legs":"F"},"action":"harvest","summary":"good-harvest","bonus":0.840000000000001},{"rt":916,"stimulus":"\n                    <p><b>Action: <em>harvest</em></b></p>\n                    <p>This is the bee that you just saw.</p>\n                    <img src=\"bees-with-color/bee-B1SM.svg\" width=\"200\">\n                    <p><span class=\"greenText\"><b>Successful harvest!</b></span><br>Your pay has increased by $0.02. Your bonus pay is now $0.58.</p>\n            ","response":0,"trial_type":"html-button-response","trial_index":42,"time_elapsed":674942,"internal_node_id":"0.0-4.0-1.17","subject_id":"607e09fbd7c60ded8577281e","study_id":"60edd13110225f80f9f3709b","session_id":"6196c1f7322e1681a6a562eb","condition":"contingent","relevant_dimensions":["pattern","legs"],"bee_group":{"antennae":"X","wings":"X","pattern":"S","legs":"F"},"bonus":0.840000000000001},{"rt":5757,"stimulus":"bees-with-color/bee-A1SM.svg","response":1,"trial_type":"image-button-response","trial_index":43,"time_elapsed":680702,"internal_node_id":"0.0-4.0-0.18","subject_id":"607e09fbd7c60ded8577281e","study_id":"60edd13110225f80f9f3709b","session_id":"6196c1f7322e1681a6a562eb","condition":"contingent","relevant_dimensions":["pattern","legs"],"bee_group":{"antennae":"X","wings":"X","pattern":"S","legs":"F"},"action":"avoid","summary":"bad-avoid","bonus":0.840000000000001},{"rt":1494,"stimulus":"\n                    <p><b>Action: <em>avoid</em></b></p>\n                    <p>This is the bee that you just saw.</p>\n                    <img src=\"bees-with-color/bee-A1SM.svg\" width=\"200\">\n                    <p><br>Your bonus pay is unchanged, and remains at $0.58.</p>\n            ","response":0,"trial_type":"html-button-response","trial_index":44,"time_elapsed":682200,"internal_node_id":"0.0-4.0-1.18","subject_id":"607e09fbd7c60ded8577281e","study_id":"60edd13110225f80f9f3709b","session_id":"6196c1f7322e1681a6a562eb","condition":"contingent","relevant_dimensions":["pattern","legs"],"bee_group":{"antennae":"X","wings":"X","pattern":"S","legs":"F"},"bonus":0.840000000000001},{"rt":2596,"stimulus":"bees-with-color/bee-A2SF.svg","response":1,"trial_type":"image-button-response","trial_index":45,"time_elapsed":684797,"internal_node_id":"0.0-4.0-0.19","subject_id":"607e09fbd7c60ded8577281e","study_id":"60edd13110225f80f9f3709b","session_id":"6196c1f7322e1681a6a562eb","condition":"contingent","relevant_dimensions":["pattern","legs"],"bee_group":{"antennae":"X","wings":"X","pattern":"S","legs":"F"},"action":"avoid","summary":"good-avoid","bonus":0.840000000000001},{"rt":860,"stimulus":"\n                    <p><b>Action: <em>avoid</em></b></p>\n                    <p>This is the bee that you just saw.</p>\n                    <img src=\"bees-with-color/bee-A2SF.svg\" width=\"200\">\n                    <p><br>Your bonus pay is unchanged, and remains at $0.58.</p>\n            ","response":0,"trial_type":"html-button-response","trial_index":46,"time_elapsed":685662,"internal_node_id":"0.0-4.0-1.19","subject_id":"607e09fbd7c60ded8577281e","study_id":"60edd13110225f80f9f3709b","session_id":"6196c1f7322e1681a6a562eb","condition":"contingent","relevant_dimensions":["pattern","legs"],"bee_group":{"antennae":"X","wings":"X","pattern":"S","legs":"F"},"bonus":0.840000000000001},{"rt":15837,"stimulus":"bees-with-color/bee-B2SF.svg","response":0,"trial_type":"image-button-response","trial_index":47,"time_elapsed":701503,"internal_node_id":"0.0-4.0-0.20","subject_id":"607e09fbd7c60ded8577281e","study_id":"60edd13110225f80f9f3709b","session_id":"6196c1f7322e1681a6a562eb","condition":"contingent","relevant_dimensions":["pattern","legs"],"bee_group":{"antennae":"X","wings":"X","pattern":"S","legs":"F"},"action":"harvest","summary":"bad-harvest","bonus":0.840000000000001},{"rt":1427,"stimulus":"\n                    <p><b>Action: <em>harvest</em></b></p>\n                    <p>This is the bee that you just saw.</p>\n                    <img src=\"bees-with-color/bee-B2SF.svg\" width=\"200\">\n                    <p><span class=\"redText\">Bad choice, the bee was angry.</span><br><b>You have been stung!</b><br>Your pay has been decreased by $0.10. Your bonus pay is now $0.48.</p>\n            ","response":0,"trial_type":"html-button-response","trial_index":48,"time_elapsed":702934,"internal_node_id":"0.0-4.0-1.20","subject_id":"607e09fbd7c60ded8577281e","study_id":"60edd13110225f80f9f3709b","session_id":"6196c1f7322e1681a6a562eb","condition":"contingent","relevant_dimensions":["pattern","legs"],"bee_group":{"antennae":"X","wings":"X","pattern":"S","legs":"F"},"bonus":0.840000000000001},{"rt":1486,"stimulus":"bees-with-color/bee-A2SM.svg","response":0,"trial_type":"image-button-response","trial_index":49,"time_elapsed":704422,"internal_node_id":"0.0-4.0-0.21","subject_id":"607e09fbd7c60ded8577281e","study_id":"60edd13110225f80f9f3709b","session_id":"6196c1f7322e1681a6a562eb","condition":"contingent","relevant_dimensions":["pattern","legs"],"bee_group":{"antennae":"X","wings":"X","pattern":"S","legs":"F"},"action":"harvest","summary":"good-harvest","bonus":0.840000000000001},{"rt":1141,"stimulus":"\n                    <p><b>Action: <em>harvest</em></b></p>\n                    <p>This is the bee that you just saw.</p>\n                    <img src=\"bees-with-color/bee-A2SM.svg\" width=\"200\">\n                    <p><span class=\"greenText\"><b>Successful harvest!</b></span><br>Your pay has increased by $0.02. Your bonus pay is now $0.50.</p>\n            ","response":0,"trial_type":"html-button-response","trial_index":50,"time_elapsed":705566,"internal_node_id":"0.0-4.0-1.21","subject_id":"607e09fbd7c60ded8577281e","study_id":"60edd13110225f80f9f3709b","session_id":"6196c1f7322e1681a6a562eb","condition":"contingent","relevant_dimensions":["pattern","legs"],"bee_group":{"antennae":"X","wings":"X","pattern":"S","legs":"F"},"bonus":0.840000000000001},{"rt":7886,"stimulus":"bees-with-color/bee-A1DF.svg","response":0,"trial_type":"image-button-response","trial_index":51,"time_elapsed":713454,"internal_node_id":"0.0-4.0-0.22","subject_id":"607e09fbd7c60ded8577281e","study_id":"60edd13110225f80f9f3709b","session_id":"6196c1f7322e1681a6a562eb","condition":"contingent","relevant_dimensions":["pattern","legs"],"bee_group":{"antennae":"X","wings":"X","pattern":"S","legs":"F"},"action":"harvest","summary":"good-harvest","bonus":0.840000000000001},{"rt":876,"stimulus":"\n                    <p><b>Action: <em>harvest</em></b></p>\n                    <p>This is the bee that you just saw.</p>\n                    <img src=\"bees-with-color/bee-A1DF.svg\" width=\"200\">\n                    <p><span class=\"greenText\"><b>Successful harvest!</b></span><br>Your pay has increased by $0.02. Your bonus pay is now $0.52.</p>\n            ","response":0,"trial_type":"html-button-response","trial_index":52,"time_elapsed":714334,"internal_node_id":"0.0-4.0-1.22","subject_id":"607e09fbd7c60ded8577281e","study_id":"60edd13110225f80f9f3709b","session_id":"6196c1f7322e1681a6a562eb","condition":"contingent","relevant_dimensions":["pattern","legs"],"bee_group":{"antennae":"X","wings":"X","pattern":"S","legs":"F"},"bonus":0.840000000000001},{"rt":1845,"stimulus":"bees-with-color/bee-B2SM.svg","response":1,"trial_type":"image-button-response","trial_index":53,"time_elapsed":716182,"internal_node_id":"0.0-4.0-0.23","subject_id":"607e09fbd7c60ded8577281e","study_id":"60edd13110225f80f9f3709b","session_id":"6196c1f7322e1681a6a562eb","condition":"contingent","relevant_dimensions":["pattern","legs"],"bee_group":{"antennae":"X","wings":"X","pattern":"S","legs":"F"},"action":"avoid","summary":"bad-avoid","bonus":0.840000000000001},{"rt":781,"stimulus":"\n                    <p><b>Action: <em>avoid</em></b></p>\n                    <p>This is the bee that you just saw.</p>\n                    <img src=\"bees-with-color/bee-B2SM.svg\" width=\"200\">\n                    <p><br>Your bonus pay is unchanged, and remains at $0.52.</p>\n            ","response":0,"trial_type":"html-button-response","trial_index":54,"time_elapsed":716966,"internal_node_id":"0.0-4.0-1.23","subject_id":"607e09fbd7c60ded8577281e","study_id":"60edd13110225f80f9f3709b","session_id":"6196c1f7322e1681a6a562eb","condition":"contingent","relevant_dimensions":["pattern","legs"],"bee_group":{"antennae":"X","wings":"X","pattern":"S","legs":"F"},"bonus":0.840000000000001},{"rt":2476,"stimulus":"bees-with-color/bee-A1SF.svg","response":1,"trial_type":"image-button-response","trial_index":55,"time_elapsed":719446,"internal_node_id":"0.0-4.0-0.24","subject_id":"607e09fbd7c60ded8577281e","study_id":"60edd13110225f80f9f3709b","session_id":"6196c1f7322e1681a6a562eb","condition":"contingent","relevant_dimensions":["pattern","legs"],"bee_group":{"antennae":"X","wings":"X","pattern":"S","legs":"F"},"action":"avoid","summary":"good-avoid","bonus":0.840000000000001},{"rt":662,"stimulus":"\n                    <p><b>Action: <em>avoid</em></b></p>\n                    <p>This is the bee that you just saw.</p>\n                    <img src=\"bees-with-color/bee-A1SF.svg\" width=\"200\">\n                    <p><br>Your bonus pay is unchanged, and remains at $0.52.</p>\n            ","response":0,"trial_type":"html-button-response","trial_index":56,"time_elapsed":720110,"internal_node_id":"0.0-4.0-1.24","subject_id":"607e09fbd7c60ded8577281e","study_id":"60edd13110225f80f9f3709b","session_id":"6196c1f7322e1681a6a562eb","condition":"contingent","relevant_dimensions":["pattern","legs"],"bee_group":{"antennae":"X","wings":"X","pattern":"S","legs":"F"},"bonus":0.840000000000001},{"rt":1404,"stimulus":"bees-with-color/bee-B1SF.svg","response":1,"trial_type":"image-button-response","trial_index":57,"time_elapsed":721518,"internal_node_id":"0.0-4.0-0.25","subject_id":"607e09fbd7c60ded8577281e","study_id":"60edd13110225f80f9f3709b","session_id":"6196c1f7322e1681a6a562eb","condition":"contingent","relevant_dimensions":["pattern","legs"],"bee_group":{"antennae":"X","wings":"X","pattern":"S","legs":"F"},"action":"avoid","summary":"good-avoid","bonus":0.840000000000001},{"rt":596,"stimulus":"\n                    <p><b>Action: <em>avoid</em></b></p>\n                    <p>This is the bee that you just saw.</p>\n                    <img src=\"bees-with-color/bee-B1SF.svg\" width=\"200\">\n                    <p><br>Your bonus pay is unchanged, and remains at $0.52.</p>\n            ","response":0,"trial_type":"html-button-response","trial_index":58,"time_elapsed":722118,"internal_node_id":"0.0-4.0-1.25","subject_id":"607e09fbd7c60ded8577281e","study_id":"60edd13110225f80f9f3709b","session_id":"6196c1f7322e1681a6a562eb","condition":"contingent","relevant_dimensions":["pattern","legs"],"bee_group":{"antennae":"X","wings":"X","pattern":"S","legs":"F"},"bonus":0.840000000000001},{"rt":7333,"stimulus":"bees-with-color/bee-A2DM.svg","response":0,"trial_type":"image-button-response","trial_index":59,"time_elapsed":729453,"internal_node_id":"0.0-4.0-0.26","subject_id":"607e09fbd7c60ded8577281e","study_id":"60edd13110225f80f9f3709b","session_id":"6196c1f7322e1681a6a562eb","condition":"contingent","relevant_dimensions":["pattern","legs"],"bee_group":{"antennae":"X","wings":"X","pattern":"S","legs":"F"},"action":"harvest","summary":"good-harvest","bonus":0.840000000000001},{"rt":821,"stimulus":"\n                    <p><b>Action: <em>harvest</em></b></p>\n                    <p>This is the bee that you just saw.</p>\n                    <img src=\"bees-with-color/bee-A2DM.svg\" width=\"200\">\n                    <p><span class=\"greenText\"><b>Successful harvest!</b></span><br>Your pay has increased by $0.02. Your bonus pay is now $0.54.</p>\n            ","response":0,"trial_type":"html-button-response","trial_index":60,"time_elapsed":730278,"internal_node_id":"0.0-4.0-1.26","subject_id":"607e09fbd7c60ded8577281e","study_id":"60edd13110225f80f9f3709b","session_id":"6196c1f7322e1681a6a562eb","condition":"contingent","relevant_dimensions":["pattern","legs"],"bee_group":{"antennae":"X","wings":"X","pattern":"S","legs":"F"},"bonus":0.840000000000001},{"rt":2734,"stimulus":"bees-with-color/bee-B1DM.svg","response":0,"trial_type":"image-button-response","trial_index":61,"time_elapsed":733014,"internal_node_id":"0.0-4.0-0.27","subject_id":"607e09fbd7c60ded8577281e","study_id":"60edd13110225f80f9f3709b","session_id":"6196c1f7322e1681a6a562eb","condition":"contingent","relevant_dimensions":["pattern","legs"],"bee_group":{"antennae":"X","wings":"X","pattern":"S","legs":"F"},"action":"harvest","summary":"good-harvest","bonus":0.840000000000001},{"rt":749,"stimulus":"\n                    <p><b>Action: <em>harvest</em></b></p>\n                    <p>This is the bee that you just saw.</p>\n                    <img src=\"bees-with-color/bee-B1DM.svg\" width=\"200\">\n                    <p><span class=\"greenText\"><b>Successful harvest!</b></span><br>Your pay has increased by $0.02. Your bonus pay is now $0.56.</p>\n            ","response":0,"trial_type":"html-button-response","trial_index":62,"time_elapsed":733766,"internal_node_id":"0.0-4.0-1.27","subject_id":"607e09fbd7c60ded8577281e","study_id":"60edd13110225f80f9f3709b","session_id":"6196c1f7322e1681a6a562eb","condition":"contingent","relevant_dimensions":["pattern","legs"],"bee_group":{"antennae":"X","wings":"X","pattern":"S","legs":"F"},"bonus":0.840000000000001},{"rt":1253,"stimulus":"bees-with-color/bee-B2DM.svg","response":0,"trial_type":"image-button-response","trial_index":63,"time_elapsed":735022,"internal_node_id":"0.0-4.0-0.28","subject_id":"607e09fbd7c60ded8577281e","study_id":"60edd13110225f80f9f3709b","session_id":"6196c1f7322e1681a6a562eb","condition":"contingent","relevant_dimensions":["pattern","legs"],"bee_group":{"antennae":"X","wings":"X","pattern":"S","legs":"F"},"action":"harvest","summary":"good-harvest","bonus":0.840000000000001},{"rt":1140,"stimulus":"\n                    <p><b>Action: <em>harvest</em></b></p>\n                    <p>This is the bee that you just saw.</p>\n                    <img src=\"bees-with-color/bee-B2DM.svg\" width=\"200\">\n                    <p><span class=\"greenText\"><b>Successful harvest!</b></span><br>Your pay has increased by $0.02. Your bonus pay is now $0.58.</p>\n            ","response":0,"trial_type":"html-button-response","trial_index":64,"time_elapsed":736166,"internal_node_id":"0.0-4.0-1.28","subject_id":"607e09fbd7c60ded8577281e","study_id":"60edd13110225f80f9f3709b","session_id":"6196c1f7322e1681a6a562eb","condition":"contingent","relevant_dimensions":["pattern","legs"],"bee_group":{"antennae":"X","wings":"X","pattern":"S","legs":"F"},"bonus":0.840000000000001},{"rt":1198,"stimulus":"bees-with-color/bee-A2DF.svg","response":0,"trial_type":"image-button-response","trial_index":65,"time_elapsed":737366,"internal_node_id":"0.0-4.0-0.29","subject_id":"607e09fbd7c60ded8577281e","study_id":"60edd13110225f80f9f3709b","session_id":"6196c1f7322e1681a6a562eb","condition":"contingent","relevant_dimensions":["pattern","legs"],"bee_group":{"antennae":"X","wings":"X","pattern":"S","legs":"F"},"action":"harvest","summary":"good-harvest","bonus":0.840000000000001},{"rt":723,"stimulus":"\n                    <p><b>Action: <em>harvest</em></b></p>\n                    <p>This is the bee that you just saw.</p>\n                    <img src=\"bees-with-color/bee-A2DF.svg\" width=\"200\">\n                    <p><span class=\"greenText\"><b>Successful harvest!</b></span><br>Your pay has increased by $0.02. Your bonus pay is now $0.60.</p>\n            ","response":0,"trial_type":"html-button-response","trial_index":66,"time_elapsed":738093,"internal_node_id":"0.0-4.0-1.29","subject_id":"607e09fbd7c60ded8577281e","study_id":"60edd13110225f80f9f3709b","session_id":"6196c1f7322e1681a6a562eb","condition":"contingent","relevant_dimensions":["pattern","legs"],"bee_group":{"antennae":"X","wings":"X","pattern":"S","legs":"F"},"bonus":0.840000000000001},{"rt":885,"stimulus":"bees-with-color/bee-B1DF.svg","response":0,"trial_type":"image-button-response","trial_index":67,"time_elapsed":738982,"internal_node_id":"0.0-4.0-0.30","subject_id":"607e09fbd7c60ded8577281e","study_id":"60edd13110225f80f9f3709b","session_id":"6196c1f7322e1681a6a562eb","condition":"contingent","relevant_dimensions":["pattern","legs"],"bee_group":{"antennae":"X","wings":"X","pattern":"S","legs":"F"},"action":"harvest","summary":"good-harvest","bonus":0.840000000000001},{"rt":686,"stimulus":"\n                    <p><b>Action: <em>harvest</em></b></p>\n                    <p>This is the bee that you just saw.</p>\n                    <img src=\"bees-with-color/bee-B1DF.svg\" width=\"200\">\n                    <p><span class=\"greenText\"><b>Successful harvest!</b></span><br>Your pay has increased by $0.02. Your bonus pay is now $0.62.</p>\n            ","response":0,"trial_type":"html-button-response","trial_index":68,"time_elapsed":739670,"internal_node_id":"0.0-4.0-1.30","subject_id":"607e09fbd7c60ded8577281e","study_id":"60edd13110225f80f9f3709b","session_id":"6196c1f7322e1681a6a562eb","condition":"contingent","relevant_dimensions":["pattern","legs"],"bee_group":{"antennae":"X","wings":"X","pattern":"S","legs":"F"},"bonus":0.840000000000001},{"rt":1886,"stimulus":"bees-with-color/bee-B2DF.svg","response":0,"trial_type":"image-button-response","trial_index":69,"time_elapsed":741558,"internal_node_id":"0.0-4.0-0.31","subject_id":"607e09fbd7c60ded8577281e","study_id":"60edd13110225f80f9f3709b","session_id":"6196c1f7322e1681a6a562eb","condition":"contingent","relevant_dimensions":["pattern","legs"],"bee_group":{"antennae":"X","wings":"X","pattern":"S","legs":"F"},"action":"harvest","summary":"good-harvest","bonus":0.840000000000001},{"rt":792,"stimulus":"\n                    <p><b>Action: <em>harvest</em></b></p>\n                    <p>This is the bee that you just saw.</p>\n                    <img src=\"bees-with-color/bee-B2DF.svg\" width=\"200\">\n                    <p><span class=\"greenText\"><b>Successful harvest!</b></span><br>Your pay has increased by $0.02. Your bonus pay is now $0.64.</p>\n            ","response":0,"trial_type":"html-button-response","trial_index":70,"time_elapsed":742353,"internal_node_id":"0.0-4.0-1.31","subject_id":"607e09fbd7c60ded8577281e","study_id":"60edd13110225f80f9f3709b","session_id":"6196c1f7322e1681a6a562eb","condition":"contingent","relevant_dimensions":["pattern","legs"],"bee_group":{"antennae":"X","wings":"X","pattern":"S","legs":"F"},"bonus":0.840000000000001},{"rt":849,"stimulus":"bees-with-color/bee-B2DM.svg","response":0,"trial_type":"image-button-response","trial_index":71,"time_elapsed":743206,"internal_node_id":"0.0-4.0-0.32","subject_id":"607e09fbd7c60ded8577281e","study_id":"60edd13110225f80f9f3709b","session_id":"6196c1f7322e1681a6a562eb","condition":"contingent","relevant_dimensions":["pattern","legs"],"bee_group":{"antennae":"X","wings":"X","pattern":"S","legs":"F"},"action":"harvest","summary":"good-harvest","bonus":0.840000000000001},{"rt":853,"stimulus":"\n                    <p><b>Action: <em>harvest</em></b></p>\n                    <p>This is the bee that you just saw.</p>\n                    <img src=\"bees-with-color/bee-B2DM.svg\" width=\"200\">\n                    <p><span class=\"greenText\"><b>Successful harvest!</b></span><br>Your pay has increased by $0.02. Your bonus pay is now $0.66.</p>\n            ","response":0,"trial_type":"html-button-response","trial_index":72,"time_elapsed":744062,"internal_node_id":"0.0-4.0-1.32","subject_id":"607e09fbd7c60ded8577281e","study_id":"60edd13110225f80f9f3709b","session_id":"6196c1f7322e1681a6a562eb","condition":"contingent","relevant_dimensions":["pattern","legs"],"bee_group":{"antennae":"X","wings":"X","pattern":"S","legs":"F"},"bonus":0.840000000000001},{"rt":1100,"stimulus":"bees-with-color/bee-B2SM.svg","response":1,"trial_type":"image-button-response","trial_index":73,"time_elapsed":745166,"internal_node_id":"0.0-4.0-0.33","subject_id":"607e09fbd7c60ded8577281e","study_id":"60edd13110225f80f9f3709b","session_id":"6196c1f7322e1681a6a562eb","condition":"contingent","relevant_dimensions":["pattern","legs"],"bee_group":{"antennae":"X","wings":"X","pattern":"S","legs":"F"},"action":"avoid","summary":"bad-avoid","bonus":0.840000000000001},{"rt":909,"stimulus":"\n                    <p><b>Action: <em>avoid</em></b></p>\n                    <p>This is the bee that you just saw.</p>\n                    <img src=\"bees-with-color/bee-B2SM.svg\" width=\"200\">\n                    <p><br>Your bonus pay is unchanged, and remains at $0.66.</p>\n            ","response":0,"trial_type":"html-button-response","trial_index":74,"time_elapsed":746078,"internal_node_id":"0.0-4.0-1.33","subject_id":"607e09fbd7c60ded8577281e","study_id":"60edd13110225f80f9f3709b","session_id":"6196c1f7322e1681a6a562eb","condition":"contingent","relevant_dimensions":["pattern","legs"],"bee_group":{"antennae":"X","wings":"X","pattern":"S","legs":"F"},"bonus":0.840000000000001},{"rt":1072,"stimulus":"bees-with-color/bee-A1SM.svg","response":1,"trial_type":"image-button-response","trial_index":75,"time_elapsed":747152,"internal_node_id":"0.0-4.0-0.34","subject_id":"607e09fbd7c60ded8577281e","study_id":"60edd13110225f80f9f3709b","session_id":"6196c1f7322e1681a6a562eb","condition":"contingent","relevant_dimensions":["pattern","legs"],"bee_group":{"antennae":"X","wings":"X","pattern":"S","legs":"F"},"action":"avoid","summary":"bad-avoid","bonus":0.840000000000001},{"rt":618,"stimulus":"\n                    <p><b>Action: <em>avoid</em></b></p>\n                    <p>This is the bee that you just saw.</p>\n                    <img src=\"bees-with-color/bee-A1SM.svg\" width=\"200\">\n                    <p><br>Your bonus pay is unchanged, and remains at $0.66.</p>\n            ","response":0,"trial_type":"html-button-response","trial_index":76,"time_elapsed":747773,"internal_node_id":"0.0-4.0-1.34","subject_id":"607e09fbd7c60ded8577281e","study_id":"60edd13110225f80f9f3709b","session_id":"6196c1f7322e1681a6a562eb","condition":"contingent","relevant_dimensions":["pattern","legs"],"bee_group":{"antennae":"X","wings":"X","pattern":"S","legs":"F"},"bonus":0.840000000000001},{"rt":982,"stimulus":"bees-with-color/bee-A2DM.svg","response":0,"trial_type":"image-button-response","trial_index":77,"time_elapsed":748758,"internal_node_id":"0.0-4.0-0.35","subject_id":"607e09fbd7c60ded8577281e","study_id":"60edd13110225f80f9f3709b","session_id":"6196c1f7322e1681a6a562eb","condition":"contingent","relevant_dimensions":["pattern","legs"],"bee_group":{"antennae":"X","wings":"X","pattern":"S","legs":"F"},"action":"harvest","summary":"good-harvest","bonus":0.840000000000001},{"rt":669,"stimulus":"\n                    <p><b>Action: <em>harvest</em></b></p>\n                    <p>This is the bee that you just saw.</p>\n                    <img src=\"bees-with-color/bee-A2DM.svg\" width=\"200\">\n                    <p><span class=\"greenText\"><b>Successful harvest!</b></span><br>Your pay has increased by $0.02. Your bonus pay is now $0.68.</p>\n            ","response":0,"trial_type":"html-button-response","trial_index":78,"time_elapsed":749430,"internal_node_id":"0.0-4.0-1.35","subject_id":"607e09fbd7c60ded8577281e","study_id":"60edd13110225f80f9f3709b","session_id":"6196c1f7322e1681a6a562eb","condition":"contingent","relevant_dimensions":["pattern","legs"],"bee_group":{"antennae":"X","wings":"X","pattern":"S","legs":"F"},"bonus":0.840000000000001},{"rt":9638,"stimulus":"bees-with-color/bee-B1SF.svg","response":1,"trial_type":"image-button-response","trial_index":79,"time_elapsed":759070,"internal_node_id":"0.0-4.0-0.36","subject_id":"607e09fbd7c60ded8577281e","study_id":"60edd13110225f80f9f3709b","session_id":"6196c1f7322e1681a6a562eb","condition":"contingent","relevant_dimensions":["pattern","legs"],"bee_group":{"antennae":"X","wings":"X","pattern":"S","legs":"F"},"action":"avoid","summary":"good-avoid","bonus":0.840000000000001},{"rt":1078,"stimulus":"\n                    <p><b>Action: <em>avoid</em></b></p>\n                    <p>This is the bee that you just saw.</p>\n                    <img src=\"bees-with-color/bee-B1SF.svg\" width=\"200\">\n                    <p><br>Your bonus pay is unchanged, and remains at $0.68.</p>\n            ","response":0,"trial_type":"html-button-response","trial_index":80,"time_elapsed":760151,"internal_node_id":"0.0-4.0-1.36","subject_id":"607e09fbd7c60ded8577281e","study_id":"60edd13110225f80f9f3709b","session_id":"6196c1f7322e1681a6a562eb","condition":"contingent","relevant_dimensions":["pattern","legs"],"bee_group":{"antennae":"X","wings":"X","pattern":"S","legs":"F"},"bonus":0.840000000000001},{"rt":1428,"stimulus":"bees-with-color/bee-A1DF.svg","response":0,"trial_type":"image-button-response","trial_index":81,"time_elapsed":761582,"internal_node_id":"0.0-4.0-0.37","subject_id":"607e09fbd7c60ded8577281e","study_id":"60edd13110225f80f9f3709b","session_id":"6196c1f7322e1681a6a562eb","condition":"contingent","relevant_dimensions":["pattern","legs"],"bee_group":{"antennae":"X","wings":"X","pattern":"S","legs":"F"},"action":"harvest","summary":"good-harvest","bonus":0.840000000000001},{"rt":718,"stimulus":"\n                    <p><b>Action: <em>harvest</em></b></p>\n                    <p>This is the bee that you just saw.</p>\n                    <img src=\"bees-with-color/bee-A1DF.svg\" width=\"200\">\n                    <p><span class=\"greenText\"><b>Successful harvest!</b></span><br>Your pay has increased by $0.02. Your bonus pay is now $0.70.</p>\n            ","response":0,"trial_type":"html-button-response","trial_index":82,"time_elapsed":762304,"internal_node_id":"0.0-4.0-1.37","subject_id":"607e09fbd7c60ded8577281e","study_id":"60edd13110225f80f9f3709b","session_id":"6196c1f7322e1681a6a562eb","condition":"contingent","relevant_dimensions":["pattern","legs"],"bee_group":{"antennae":"X","wings":"X","pattern":"S","legs":"F"},"bonus":0.840000000000001},{"rt":6324,"stimulus":"bees-with-color/bee-A2SF.svg","response":1,"trial_type":"image-button-response","trial_index":83,"time_elapsed":768631,"internal_node_id":"0.0-4.0-0.38","subject_id":"607e09fbd7c60ded8577281e","study_id":"60edd13110225f80f9f3709b","session_id":"6196c1f7322e1681a6a562eb","condition":"contingent","relevant_dimensions":["pattern","legs"],"bee_group":{"antennae":"X","wings":"X","pattern":"S","legs":"F"},"action":"avoid","summary":"good-avoid","bonus":0.840000000000001},{"rt":700,"stimulus":"\n                    <p><b>Action: <em>avoid</em></b></p>\n                    <p>This is the bee that you just saw.</p>\n                    <img src=\"bees-with-color/bee-A2SF.svg\" width=\"200\">\n                    <p><br>Your bonus pay is unchanged, and remains at $0.70.</p>\n            ","response":0,"trial_type":"html-button-response","trial_index":84,"time_elapsed":769334,"internal_node_id":"0.0-4.0-1.38","subject_id":"607e09fbd7c60ded8577281e","study_id":"60edd13110225f80f9f3709b","session_id":"6196c1f7322e1681a6a562eb","condition":"contingent","relevant_dimensions":["pattern","legs"],"bee_group":{"antennae":"X","wings":"X","pattern":"S","legs":"F"},"bonus":0.840000000000001},{"rt":8885,"stimulus":"bees-with-color/bee-B1SM.svg","response":1,"trial_type":"image-button-response","trial_index":85,"time_elapsed":778222,"internal_node_id":"0.0-4.0-0.39","subject_id":"607e09fbd7c60ded8577281e","study_id":"60edd13110225f80f9f3709b","session_id":"6196c1f7322e1681a6a562eb","condition":"contingent","relevant_dimensions":["pattern","legs"],"bee_group":{"antennae":"X","wings":"X","pattern":"S","legs":"F"},"action":"avoid","summary":"bad-avoid","bonus":0.840000000000001},{"rt":726,"stimulus":"\n                    <p><b>Action: <em>avoid</em></b></p>\n                    <p>This is the bee that you just saw.</p>\n                    <img src=\"bees-with-color/bee-B1SM.svg\" width=\"200\">\n                    <p><br>Your bonus pay is unchanged, and remains at $0.70.</p>\n            ","response":0,"trial_type":"html-button-response","trial_index":86,"time_elapsed":778950,"internal_node_id":"0.0-4.0-1.39","subject_id":"607e09fbd7c60ded8577281e","study_id":"60edd13110225f80f9f3709b","session_id":"6196c1f7322e1681a6a562eb","condition":"contingent","relevant_dimensions":["pattern","legs"],"bee_group":{"antennae":"X","wings":"X","pattern":"S","legs":"F"},"bonus":0.840000000000001},{"rt":1292,"stimulus":"bees-with-color/bee-B2DF.svg","response":0,"trial_type":"image-button-response","trial_index":87,"time_elapsed":780245,"internal_node_id":"0.0-4.0-0.40","subject_id":"607e09fbd7c60ded8577281e","study_id":"60edd13110225f80f9f3709b","session_id":"6196c1f7322e1681a6a562eb","condition":"contingent","relevant_dimensions":["pattern","legs"],"bee_group":{"antennae":"X","wings":"X","pattern":"S","legs":"F"},"action":"harvest","summary":"good-harvest","bonus":0.840000000000001},{"rt":702,"stimulus":"\n                    <p><b>Action: <em>harvest</em></b></p>\n                    <p>This is the bee that you just saw.</p>\n                    <img src=\"bees-with-color/bee-B2DF.svg\" width=\"200\">\n                    <p><span class=\"greenText\"><b>Successful harvest!</b></span><br>Your pay has increased by $0.02. Your bonus pay is now $0.72.</p>\n            ","response":0,"trial_type":"html-button-response","trial_index":88,"time_elapsed":780950,"internal_node_id":"0.0-4.0-1.40","subject_id":"607e09fbd7c60ded8577281e","study_id":"60edd13110225f80f9f3709b","session_id":"6196c1f7322e1681a6a562eb","condition":"contingent","relevant_dimensions":["pattern","legs"],"bee_group":{"antennae":"X","wings":"X","pattern":"S","legs":"F"},"bonus":0.840000000000001},{"rt":1421,"stimulus":"bees-with-color/bee-A1SF.svg","response":1,"trial_type":"image-button-response","trial_index":89,"time_elapsed":782375,"internal_node_id":"0.0-4.0-0.41","subject_id":"607e09fbd7c60ded8577281e","study_id":"60edd13110225f80f9f3709b","session_id":"6196c1f7322e1681a6a562eb","condition":"contingent","relevant_dimensions":["pattern","legs"],"bee_group":{"antennae":"X","wings":"X","pattern":"S","legs":"F"},"action":"avoid","summary":"good-avoid","bonus":0.840000000000001},{"rt":645,"stimulus":"\n                    <p><b>Action: <em>avoid</em></b></p>\n                    <p>This is the bee that you just saw.</p>\n                    <img src=\"bees-with-color/bee-A1SF.svg\" width=\"200\">\n                    <p><br>Your bonus pay is unchanged, and remains at $0.72.</p>\n            ","response":0,"trial_type":"html-button-response","trial_index":90,"time_elapsed":783022,"internal_node_id":"0.0-4.0-1.41","subject_id":"607e09fbd7c60ded8577281e","study_id":"60edd13110225f80f9f3709b","session_id":"6196c1f7322e1681a6a562eb","condition":"contingent","relevant_dimensions":["pattern","legs"],"bee_group":{"antennae":"X","wings":"X","pattern":"S","legs":"F"},"bonus":0.840000000000001},{"rt":1037,"stimulus":"bees-with-color/bee-A1DM.svg","response":0,"trial_type":"image-button-response","trial_index":91,"time_elapsed":784062,"internal_node_id":"0.0-4.0-0.42","subject_id":"607e09fbd7c60ded8577281e","study_id":"60edd13110225f80f9f3709b","session_id":"6196c1f7322e1681a6a562eb","condition":"contingent","relevant_dimensions":["pattern","legs"],"bee_group":{"antennae":"X","wings":"X","pattern":"S","legs":"F"},"action":"harvest","summary":"good-harvest","bonus":0.840000000000001},{"rt":540,"stimulus":"\n                    <p><b>Action: <em>harvest</em></b></p>\n                    <p>This is the bee that you just saw.</p>\n                    <img src=\"bees-with-color/bee-A1DM.svg\" width=\"200\">\n                    <p><span class=\"greenText\"><b>Successful harvest!</b></span><br>Your pay has increased by $0.02. Your bonus pay is now $0.74.</p>\n            ","response":0,"trial_type":"html-button-response","trial_index":92,"time_elapsed":784606,"internal_node_id":"0.0-4.0-1.42","subject_id":"607e09fbd7c60ded8577281e","study_id":"60edd13110225f80f9f3709b","session_id":"6196c1f7322e1681a6a562eb","condition":"contingent","relevant_dimensions":["pattern","legs"],"bee_group":{"antennae":"X","wings":"X","pattern":"S","legs":"F"},"bonus":0.840000000000001},{"rt":773,"stimulus":"bees-with-color/bee-A2SM.svg","response":1,"trial_type":"image-button-response","trial_index":93,"time_elapsed":785382,"internal_node_id":"0.0-4.0-0.43","subject_id":"607e09fbd7c60ded8577281e","study_id":"60edd13110225f80f9f3709b","session_id":"6196c1f7322e1681a6a562eb","condition":"contingent","relevant_dimensions":["pattern","legs"],"bee_group":{"antennae":"X","wings":"X","pattern":"S","legs":"F"},"action":"avoid","summary":"bad-avoid","bonus":0.840000000000001},{"rt":549,"stimulus":"\n                    <p><b>Action: <em>avoid</em></b></p>\n                    <p>This is the bee that you just saw.</p>\n                    <img src=\"bees-with-color/bee-A2SM.svg\" width=\"200\">\n                    <p><br>Your bonus pay is unchanged, and remains at $0.74.</p>\n            ","response":0,"trial_type":"html-button-response","trial_index":94,"time_elapsed":785933,"internal_node_id":"0.0-4.0-1.43","subject_id":"607e09fbd7c60ded8577281e","study_id":"60edd13110225f80f9f3709b","session_id":"6196c1f7322e1681a6a562eb","condition":"contingent","relevant_dimensions":["pattern","legs"],"bee_group":{"antennae":"X","wings":"X","pattern":"S","legs":"F"},"bonus":0.840000000000001},{"rt":782,"stimulus":"bees-with-color/bee-B1DM.svg","response":0,"trial_type":"image-button-response","trial_index":95,"time_elapsed":786717,"internal_node_id":"0.0-4.0-0.44","subject_id":"607e09fbd7c60ded8577281e","study_id":"60edd13110225f80f9f3709b","session_id":"6196c1f7322e1681a6a562eb","condition":"contingent","relevant_dimensions":["pattern","legs"],"bee_group":{"antennae":"X","wings":"X","pattern":"S","legs":"F"},"action":"harvest","summary":"good-harvest","bonus":0.840000000000001},{"rt":631,"stimulus":"\n                    <p><b>Action: <em>harvest</em></b></p>\n                    <p>This is the bee that you just saw.</p>\n                    <img src=\"bees-with-color/bee-B1DM.svg\" width=\"200\">\n                    <p><span class=\"greenText\"><b>Successful harvest!</b></span><br>Your pay has increased by $0.02. Your bonus pay is now $0.76.</p>\n            ","response":0,"trial_type":"html-button-response","trial_index":96,"time_elapsed":787351,"internal_node_id":"0.0-4.0-1.44","subject_id":"607e09fbd7c60ded8577281e","study_id":"60edd13110225f80f9f3709b","session_id":"6196c1f7322e1681a6a562eb","condition":"contingent","relevant_dimensions":["pattern","legs"],"bee_group":{"antennae":"X","wings":"X","pattern":"S","legs":"F"},"bonus":0.840000000000001},{"rt":1156,"stimulus":"bees-with-color/bee-B1DF.svg","response":0,"trial_type":"image-button-response","trial_index":97,"time_elapsed":788510,"internal_node_id":"0.0-4.0-0.45","subject_id":"607e09fbd7c60ded8577281e","study_id":"60edd13110225f80f9f3709b","session_id":"6196c1f7322e1681a6a562eb","condition":"contingent","relevant_dimensions":["pattern","legs"],"bee_group":{"antennae":"X","wings":"X","pattern":"S","legs":"F"},"action":"harvest","summary":"good-harvest","bonus":0.840000000000001},{"rt":572,"stimulus":"\n                    <p><b>Action: <em>harvest</em></b></p>\n                    <p>This is the bee that you just saw.</p>\n                    <img src=\"bees-with-color/bee-B1DF.svg\" width=\"200\">\n                    <p><span class=\"greenText\"><b>Successful harvest!</b></span><br>Your pay has increased by $0.02. Your bonus pay is now $0.78.</p>\n            ","response":0,"trial_type":"html-button-response","trial_index":98,"time_elapsed":789086,"internal_node_id":"0.0-4.0-1.45","subject_id":"607e09fbd7c60ded8577281e","study_id":"60edd13110225f80f9f3709b","session_id":"6196c1f7322e1681a6a562eb","condition":"contingent","relevant_dimensions":["pattern","legs"],"bee_group":{"antennae":"X","wings":"X","pattern":"S","legs":"F"},"bonus":0.840000000000001},{"rt":869,"stimulus":"bees-with-color/bee-B2SF.svg","response":1,"trial_type":"image-button-response","trial_index":99,"time_elapsed":789958,"internal_node_id":"0.0-4.0-0.46","subject_id":"607e09fbd7c60ded8577281e","study_id":"60edd13110225f80f9f3709b","session_id":"6196c1f7322e1681a6a562eb","condition":"contingent","relevant_dimensions":["pattern","legs"],"bee_group":{"antennae":"X","wings":"X","pattern":"S","legs":"F"},"action":"avoid","summary":"good-avoid","bonus":0.840000000000001},{"rt":604,"stimulus":"\n                    <p><b>Action: <em>avoid</em></b></p>\n                    <p>This is the bee that you just saw.</p>\n                    <img src=\"bees-with-color/bee-B2SF.svg\" width=\"200\">\n                    <p><br>Your bonus pay is unchanged, and remains at $0.78.</p>\n            ","response":0,"trial_type":"html-button-response","trial_index":100,"time_elapsed":790565,"internal_node_id":"0.0-4.0-1.46","subject_id":"607e09fbd7c60ded8577281e","study_id":"60edd13110225f80f9f3709b","session_id":"6196c1f7322e1681a6a562eb","condition":"contingent","relevant_dimensions":["pattern","legs"],"bee_group":{"antennae":"X","wings":"X","pattern":"S","legs":"F"},"bonus":0.840000000000001},{"rt":1333,"stimulus":"bees-with-color/bee-A2DF.svg","response":0,"trial_type":"image-button-response","trial_index":101,"time_elapsed":791902,"internal_node_id":"0.0-4.0-0.47","subject_id":"607e09fbd7c60ded8577281e","study_id":"60edd13110225f80f9f3709b","session_id":"6196c1f7322e1681a6a562eb","condition":"contingent","relevant_dimensions":["pattern","legs"],"bee_group":{"antennae":"X","wings":"X","pattern":"S","legs":"F"},"action":"harvest","summary":"good-harvest","bonus":0.840000000000001},{"rt":564,"stimulus":"\n                    <p><b>Action: <em>harvest</em></b></p>\n                    <p>This is the bee that you just saw.</p>\n                    <img src=\"bees-with-color/bee-A2DF.svg\" width=\"200\">\n                    <p><span class=\"greenText\"><b>Successful harvest!</b></span><br>Your pay has increased by $0.02. Your bonus pay is now $0.80.</p>\n            ","response":0,"trial_type":"html-button-response","trial_index":102,"time_elapsed":792470,"internal_node_id":"0.0-4.0-1.47","subject_id":"607e09fbd7c60ded8577281e","study_id":"60edd13110225f80f9f3709b","session_id":"6196c1f7322e1681a6a562eb","condition":"contingent","relevant_dimensions":["pattern","legs"],"bee_group":{"antennae":"X","wings":"X","pattern":"S","legs":"F"},"bonus":0.840000000000001},{"rt":940,"stimulus":"bees-with-color/bee-A2SM.svg","response":1,"trial_type":"image-button-response","trial_index":103,"time_elapsed":793413,"internal_node_id":"0.0-4.0-0.48","subject_id":"607e09fbd7c60ded8577281e","study_id":"60edd13110225f80f9f3709b","session_id":"6196c1f7322e1681a6a562eb","condition":"contingent","relevant_dimensions":["pattern","legs"],"bee_group":{"antennae":"X","wings":"X","pattern":"S","legs":"F"},"action":"avoid","summary":"bad-avoid","bonus":0.840000000000001},{"rt":774,"stimulus":"\n                    <p><b>Action: <em>avoid</em></b></p>\n                    <p>This is the bee that you just saw.</p>\n                    <img src=\"bees-with-color/bee-A2SM.svg\" width=\"200\">\n                    <p><br>Your bonus pay is unchanged, and remains at $0.80.</p>\n            ","response":0,"trial_type":"html-button-response","trial_index":104,"time_elapsed":794190,"internal_node_id":"0.0-4.0-1.48","subject_id":"607e09fbd7c60ded8577281e","study_id":"60edd13110225f80f9f3709b","session_id":"6196c1f7322e1681a6a562eb","condition":"contingent","relevant_dimensions":["pattern","legs"],"bee_group":{"antennae":"X","wings":"X","pattern":"S","legs":"F"},"bonus":0.840000000000001},{"rt":877,"stimulus":"bees-with-color/bee-B2SF.svg","response":1,"trial_type":"image-button-response","trial_index":105,"time_elapsed":795071,"internal_node_id":"0.0-4.0-0.49","subject_id":"607e09fbd7c60ded8577281e","study_id":"60edd13110225f80f9f3709b","session_id":"6196c1f7322e1681a6a562eb","condition":"contingent","relevant_dimensions":["pattern","legs"],"bee_group":{"antennae":"X","wings":"X","pattern":"S","legs":"F"},"action":"avoid","summary":"good-avoid","bonus":0.840000000000001},{"rt":669,"stimulus":"\n                    <p><b>Action: <em>avoid</em></b></p>\n                    <p>This is the bee that you just saw.</p>\n                    <img src=\"bees-with-color/bee-B2SF.svg\" width=\"200\">\n                    <p><br>Your bonus pay is unchanged, and remains at $0.80.</p>\n            ","response":0,"trial_type":"html-button-response","trial_index":106,"time_elapsed":795742,"internal_node_id":"0.0-4.0-1.49","subject_id":"607e09fbd7c60ded8577281e","study_id":"60edd13110225f80f9f3709b","session_id":"6196c1f7322e1681a6a562eb","condition":"contingent","relevant_dimensions":["pattern","legs"],"bee_group":{"antennae":"X","wings":"X","pattern":"S","legs":"F"},"bonus":0.840000000000001},{"rt":773,"stimulus":"bees-with-color/bee-A2DM.svg","response":0,"trial_type":"image-button-response","trial_index":107,"time_elapsed":796518,"internal_node_id":"0.0-4.0-0.50","subject_id":"607e09fbd7c60ded8577281e","study_id":"60edd13110225f80f9f3709b","session_id":"6196c1f7322e1681a6a562eb","condition":"contingent","relevant_dimensions":["pattern","legs"],"bee_group":{"antennae":"X","wings":"X","pattern":"S","legs":"F"},"action":"harvest","summary":"good-harvest","bonus":0.840000000000001},{"rt":564,"stimulus":"\n                    <p><b>Action: <em>harvest</em></b></p>\n                    <p>This is the bee that you just saw.</p>\n                    <img src=\"bees-with-color/bee-A2DM.svg\" width=\"200\">\n                    <p><span class=\"greenText\"><b>Successful harvest!</b></span><br>Your pay has increased by $0.02. Your bonus pay is now $0.82.</p>\n            ","response":0,"trial_type":"html-button-response","trial_index":108,"time_elapsed":797085,"internal_node_id":"0.0-4.0-1.50","subject_id":"607e09fbd7c60ded8577281e","study_id":"60edd13110225f80f9f3709b","session_id":"6196c1f7322e1681a6a562eb","condition":"contingent","relevant_dimensions":["pattern","legs"],"bee_group":{"antennae":"X","wings":"X","pattern":"S","legs":"F"},"bonus":0.840000000000001},{"rt":844,"stimulus":"bees-with-color/bee-B1DF.svg","response":0,"trial_type":"image-button-response","trial_index":109,"time_elapsed":797934,"internal_node_id":"0.0-4.0-0.51","subject_id":"607e09fbd7c60ded8577281e","study_id":"60edd13110225f80f9f3709b","session_id":"6196c1f7322e1681a6a562eb","condition":"contingent","relevant_dimensions":["pattern","legs"],"bee_group":{"antennae":"X","wings":"X","pattern":"S","legs":"F"},"action":"harvest","summary":"good-harvest","bonus":0.840000000000001},{"rt":534,"stimulus":"\n                    <p><b>Action: <em>harvest</em></b></p>\n                    <p>This is the bee that you just saw.</p>\n                    <img src=\"bees-with-color/bee-B1DF.svg\" width=\"200\">\n                    <p><span class=\"greenText\"><b>Successful harvest!</b></span><br>Your pay has increased by $0.02. Your bonus pay is now $0.84.</p>\n            ","response":0,"trial_type":"html-button-response","trial_index":110,"time_elapsed":798470,"internal_node_id":"0.0-4.0-1.51","subject_id":"607e09fbd7c60ded8577281e","study_id":"60edd13110225f80f9f3709b","session_id":"6196c1f7322e1681a6a562eb","condition":"contingent","relevant_dimensions":["pattern","legs"],"bee_group":{"antennae":"X","wings":"X","pattern":"S","legs":"F"},"bonus":0.840000000000001},{"rt":830,"stimulus":"bees-with-color/bee-A1DF.svg","response":0,"trial_type":"image-button-response","trial_index":111,"time_elapsed":799302,"internal_node_id":"0.0-4.0-0.52","subject_id":"607e09fbd7c60ded8577281e","study_id":"60edd13110225f80f9f3709b","session_id":"6196c1f7322e1681a6a562eb","condition":"contingent","relevant_dimensions":["pattern","legs"],"bee_group":{"antennae":"X","wings":"X","pattern":"S","legs":"F"},"action":"harvest","summary":"good-harvest","bonus":0.840000000000001},{"rt":708,"stimulus":"\n                    <p><b>Action: <em>harvest</em></b></p>\n                    <p>This is the bee that you just saw.</p>\n                    <img src=\"bees-with-color/bee-A1DF.svg\" width=\"200\">\n                    <p><span class=\"greenText\"><b>Successful harvest!</b></span><br>Your pay has increased by $0.02. Your bonus pay is now $0.86.</p>\n            ","response":0,"trial_type":"html-button-response","trial_index":112,"time_elapsed":800014,"internal_node_id":"0.0-4.0-1.52","subject_id":"607e09fbd7c60ded8577281e","study_id":"60edd13110225f80f9f3709b","session_id":"6196c1f7322e1681a6a562eb","condition":"contingent","relevant_dimensions":["pattern","legs"],"bee_group":{"antennae":"X","wings":"X","pattern":"S","legs":"F"},"bonus":0.840000000000001},{"rt":918,"stimulus":"bees-with-color/bee-A1SF.svg","response":1,"trial_type":"image-button-response","trial_index":113,"time_elapsed":800934,"internal_node_id":"0.0-4.0-0.53","subject_id":"607e09fbd7c60ded8577281e","study_id":"60edd13110225f80f9f3709b","session_id":"6196c1f7322e1681a6a562eb","condition":"contingent","relevant_dimensions":["pattern","legs"],"bee_group":{"antennae":"X","wings":"X","pattern":"S","legs":"F"},"action":"avoid","summary":"good-avoid","bonus":0.840000000000001},{"rt":636,"stimulus":"\n                    <p><b>Action: <em>avoid</em></b></p>\n                    <p>This is the bee that you just saw.</p>\n                    <img src=\"bees-with-color/bee-A1SF.svg\" width=\"200\">\n                    <p><br>Your bonus pay is unchanged, and remains at $0.86.</p>\n            ","response":0,"trial_type":"html-button-response","trial_index":114,"time_elapsed":801573,"internal_node_id":"0.0-4.0-1.53","subject_id":"607e09fbd7c60ded8577281e","study_id":"60edd13110225f80f9f3709b","session_id":"6196c1f7322e1681a6a562eb","condition":"contingent","relevant_dimensions":["pattern","legs"],"bee_group":{"antennae":"X","wings":"X","pattern":"S","legs":"F"},"bonus":0.840000000000001},{"rt":1262,"stimulus":"bees-with-color/bee-A2DF.svg","response":0,"trial_type":"image-button-response","trial_index":115,"time_elapsed":802838,"internal_node_id":"0.0-4.0-0.54","subject_id":"607e09fbd7c60ded8577281e","study_id":"60edd13110225f80f9f3709b","session_id":"6196c1f7322e1681a6a562eb","condition":"contingent","relevant_dimensions":["pattern","legs"],"bee_group":{"antennae":"X","wings":"X","pattern":"S","legs":"F"},"action":"harvest","summary":"good-harvest","bonus":0.840000000000001},{"rt":653,"stimulus":"\n                    <p><b>Action: <em>harvest</em></b></p>\n                    <p>This is the bee that you just saw.</p>\n                    <img src=\"bees-with-color/bee-A2DF.svg\" width=\"200\">\n                    <p><span class=\"greenText\"><b>Successful harvest!</b></span><br>Your pay has increased by $0.02. Your bonus pay is now $0.88.</p>\n            ","response":0,"trial_type":"html-button-response","trial_index":116,"time_elapsed":803494,"internal_node_id":"0.0-4.0-1.54","subject_id":"607e09fbd7c60ded8577281e","study_id":"60edd13110225f80f9f3709b","session_id":"6196c1f7322e1681a6a562eb","condition":"contingent","relevant_dimensions":["pattern","legs"],"bee_group":{"antennae":"X","wings":"X","pattern":"S","legs":"F"},"bonus":0.840000000000001},{"rt":958,"stimulus":"bees-with-color/bee-A1DM.svg","response":0,"trial_type":"image-button-response","trial_index":117,"time_elapsed":804453,"internal_node_id":"0.0-4.0-0.55","subject_id":"607e09fbd7c60ded8577281e","study_id":"60edd13110225f80f9f3709b","session_id":"6196c1f7322e1681a6a562eb","condition":"contingent","relevant_dimensions":["pattern","legs"],"bee_group":{"antennae":"X","wings":"X","pattern":"S","legs":"F"},"action":"harvest","summary":"good-harvest","bonus":0.840000000000001},{"rt":572,"stimulus":"\n                    <p><b>Action: <em>harvest</em></b></p>\n                    <p>This is the bee that you just saw.</p>\n                    <img src=\"bees-with-color/bee-A1DM.svg\" width=\"200\">\n                    <p><span class=\"greenText\"><b>Successful harvest!</b></span><br>Your pay has increased by $0.02. Your bonus pay is now $0.90.</p>\n            ","response":0,"trial_type":"html-button-response","trial_index":118,"time_elapsed":805030,"internal_node_id":"0.0-4.0-1.55","subject_id":"607e09fbd7c60ded8577281e","study_id":"60edd13110225f80f9f3709b","session_id":"6196c1f7322e1681a6a562eb","condition":"contingent","relevant_dimensions":["pattern","legs"],"bee_group":{"antennae":"X","wings":"X","pattern":"S","legs":"F"},"bonus":0.840000000000001},{"rt":1309,"stimulus":"bees-with-color/bee-B1DM.svg","response":0,"trial_type":"image-button-response","trial_index":119,"time_elapsed":806342,"internal_node_id":"0.0-4.0-0.56","subject_id":"607e09fbd7c60ded8577281e","study_id":"60edd13110225f80f9f3709b","session_id":"6196c1f7322e1681a6a562eb","condition":"contingent","relevant_dimensions":["pattern","legs"],"bee_group":{"antennae":"X","wings":"X","pattern":"S","legs":"F"},"action":"harvest","summary":"good-harvest","bonus":0.840000000000001},{"rt":581,"stimulus":"\n                    <p><b>Action: <em>harvest</em></b></p>\n                    <p>This is the bee that you just saw.</p>\n                    <img src=\"bees-with-color/bee-B1DM.svg\" width=\"200\">\n                    <p><span class=\"greenText\"><b>Successful harvest!</b></span><br>Your pay has increased by $0.02. Your bonus pay is now $0.92.</p>\n            ","response":0,"trial_type":"html-button-response","trial_index":120,"time_elapsed":806927,"internal_node_id":"0.0-4.0-1.56","subject_id":"607e09fbd7c60ded8577281e","study_id":"60edd13110225f80f9f3709b","session_id":"6196c1f7322e1681a6a562eb","condition":"contingent","relevant_dimensions":["pattern","legs"],"bee_group":{"antennae":"X","wings":"X","pattern":"S","legs":"F"},"bonus":0.840000000000001},{"rt":1268,"stimulus":"bees-with-color/bee-B1SM.svg","response":1,"trial_type":"image-button-response","trial_index":121,"time_elapsed":808197,"internal_node_id":"0.0-4.0-0.57","subject_id":"607e09fbd7c60ded8577281e","study_id":"60edd13110225f80f9f3709b","session_id":"6196c1f7322e1681a6a562eb","condition":"contingent","relevant_dimensions":["pattern","legs"],"bee_group":{"antennae":"X","wings":"X","pattern":"S","legs":"F"},"action":"avoid","summary":"bad-avoid","bonus":0.840000000000001},{"rt":1685,"stimulus":"\n                    <p><b>Action: <em>avoid</em></b></p>\n                    <p>This is the bee that you just saw.</p>\n                    <img src=\"bees-with-color/bee-B1SM.svg\" width=\"200\">\n                    <p><br>Your bonus pay is unchanged, and remains at $0.92.</p>\n            ","response":0,"trial_type":"html-button-response","trial_index":122,"time_elapsed":809886,"internal_node_id":"0.0-4.0-1.57","subject_id":"607e09fbd7c60ded8577281e","study_id":"60edd13110225f80f9f3709b","session_id":"6196c1f7322e1681a6a562eb","condition":"contingent","relevant_dimensions":["pattern","legs"],"bee_group":{"antennae":"X","wings":"X","pattern":"S","legs":"F"},"bonus":0.840000000000001},{"rt":11765,"stimulus":"bees-with-color/bee-A1SM.svg","response":1,"trial_type":"image-button-response","trial_index":123,"time_elapsed":821653,"internal_node_id":"0.0-4.0-0.58","subject_id":"607e09fbd7c60ded8577281e","study_id":"60edd13110225f80f9f3709b","session_id":"6196c1f7322e1681a6a562eb","condition":"contingent","relevant_dimensions":["pattern","legs"],"bee_group":{"antennae":"X","wings":"X","pattern":"S","legs":"F"},"action":"avoid","summary":"bad-avoid","bonus":0.840000000000001},{"rt":1109,"stimulus":"\n                    <p><b>Action: <em>avoid</em></b></p>\n                    <p>This is the bee that you just saw.</p>\n                    <img src=\"bees-with-color/bee-A1SM.svg\" width=\"200\">\n                    <p><br>Your bonus pay is unchanged, and remains at $0.92.</p>\n            ","response":0,"trial_type":"html-button-response","trial_index":124,"time_elapsed":822766,"internal_node_id":"0.0-4.0-1.58","subject_id":"607e09fbd7c60ded8577281e","study_id":"60edd13110225f80f9f3709b","session_id":"6196c1f7322e1681a6a562eb","condition":"contingent","relevant_dimensions":["pattern","legs"],"bee_group":{"antennae":"X","wings":"X","pattern":"S","legs":"F"},"bonus":0.840000000000001},{"rt":1077,"stimulus":"bees-with-color/bee-A2SF.svg","response":1,"trial_type":"image-button-response","trial_index":125,"time_elapsed":823847,"internal_node_id":"0.0-4.0-0.59","subject_id":"607e09fbd7c60ded8577281e","study_id":"60edd13110225f80f9f3709b","session_id":"6196c1f7322e1681a6a562eb","condition":"contingent","relevant_dimensions":["pattern","legs"],"bee_group":{"antennae":"X","wings":"X","pattern":"S","legs":"F"},"action":"avoid","summary":"good-avoid","bonus":0.840000000000001},{"rt":1362,"stimulus":"\n                    <p><b>Action: <em>avoid</em></b></p>\n                    <p>This is the bee that you just saw.</p>\n                    <img src=\"bees-with-color/bee-A2SF.svg\" width=\"200\">\n                    <p><br>Your bonus pay is unchanged, and remains at $0.92.</p>\n            ","response":0,"trial_type":"html-button-response","trial_index":126,"time_elapsed":825214,"internal_node_id":"0.0-4.0-1.59","subject_id":"607e09fbd7c60ded8577281e","study_id":"60edd13110225f80f9f3709b","session_id":"6196c1f7322e1681a6a562eb","condition":"contingent","relevant_dimensions":["pattern","legs"],"bee_group":{"antennae":"X","wings":"X","pattern":"S","legs":"F"},"bonus":0.840000000000001},{"rt":1030,"stimulus":"bees-with-color/bee-B2SM.svg","response":1,"trial_type":"image-button-response","trial_index":127,"time_elapsed":826247,"internal_node_id":"0.0-4.0-0.60","subject_id":"607e09fbd7c60ded8577281e","study_id":"60edd13110225f80f9f3709b","session_id":"6196c1f7322e1681a6a562eb","condition":"contingent","relevant_dimensions":["pattern","legs"],"bee_group":{"antennae":"X","wings":"X","pattern":"S","legs":"F"},"action":"avoid","summary":"bad-avoid","bonus":0.840000000000001},{"rt":643,"stimulus":"\n                    <p><b>Action: <em>avoid</em></b></p>\n                    <p>This is the bee that you just saw.</p>\n                    <img src=\"bees-with-color/bee-B2SM.svg\" width=\"200\">\n                    <p><br>Your bonus pay is unchanged, and remains at $0.92.</p>\n            ","response":0,"trial_type":"html-button-response","trial_index":128,"time_elapsed":826893,"internal_node_id":"0.0-4.0-1.60","subject_id":"607e09fbd7c60ded8577281e","study_id":"60edd13110225f80f9f3709b","session_id":"6196c1f7322e1681a6a562eb","condition":"contingent","relevant_dimensions":["pattern","legs"],"bee_group":{"antennae":"X","wings":"X","pattern":"S","legs":"F"},"bonus":0.840000000000001},{"rt":1446,"stimulus":"bees-with-color/bee-B2DM.svg","response":0,"trial_type":"image-button-response","trial_index":129,"time_elapsed":828342,"internal_node_id":"0.0-4.0-0.61","subject_id":"607e09fbd7c60ded8577281e","study_id":"60edd13110225f80f9f3709b","session_id":"6196c1f7322e1681a6a562eb","condition":"contingent","relevant_dimensions":["pattern","legs"],"bee_group":{"antennae":"X","wings":"X","pattern":"S","legs":"F"},"action":"harvest","summary":"good-harvest","bonus":0.840000000000001},{"rt":502,"stimulus":"\n                    <p><b>Action: <em>harvest</em></b></p>\n                    <p>This is the bee that you just saw.</p>\n                    <img src=\"bees-with-color/bee-B2DM.svg\" width=\"200\">\n                    <p><span class=\"greenText\"><b>Successful harvest!</b></span><br>Your pay has increased by $0.02. Your bonus pay is now $0.94.</p>\n            ","response":0,"trial_type":"html-button-response","trial_index":130,"time_elapsed":828846,"internal_node_id":"0.0-4.0-1.61","subject_id":"607e09fbd7c60ded8577281e","study_id":"60edd13110225f80f9f3709b","session_id":"6196c1f7322e1681a6a562eb","condition":"contingent","relevant_dimensions":["pattern","legs"],"bee_group":{"antennae":"X","wings":"X","pattern":"S","legs":"F"},"bonus":0.840000000000001},{"rt":853,"stimulus":"bees-with-color/bee-B1SF.svg","response":1,"trial_type":"image-button-response","trial_index":131,"time_elapsed":829702,"internal_node_id":"0.0-4.0-0.62","subject_id":"607e09fbd7c60ded8577281e","study_id":"60edd13110225f80f9f3709b","session_id":"6196c1f7322e1681a6a562eb","condition":"contingent","relevant_dimensions":["pattern","legs"],"bee_group":{"antennae":"X","wings":"X","pattern":"S","legs":"F"},"action":"avoid","summary":"good-avoid","bonus":0.840000000000001},{"rt":669,"stimulus":"\n                    <p><b>Action: <em>avoid</em></b></p>\n                    <p>This is the bee that you just saw.</p>\n                    <img src=\"bees-with-color/bee-B1SF.svg\" width=\"200\">\n                    <p><br>Your bonus pay is unchanged, and remains at $0.94.</p>\n            ","response":0,"trial_type":"html-button-response","trial_index":132,"time_elapsed":830374,"internal_node_id":"0.0-4.0-1.62","subject_id":"607e09fbd7c60ded8577281e","study_id":"60edd13110225f80f9f3709b","session_id":"6196c1f7322e1681a6a562eb","condition":"contingent","relevant_dimensions":["pattern","legs"],"bee_group":{"antennae":"X","wings":"X","pattern":"S","legs":"F"},"bonus":0.840000000000001},{"rt":2926,"stimulus":"bees-with-color/bee-B2DF.svg","response":0,"trial_type":"image-button-response","trial_index":133,"time_elapsed":833302,"internal_node_id":"0.0-4.0-0.63","subject_id":"607e09fbd7c60ded8577281e","study_id":"60edd13110225f80f9f3709b","session_id":"6196c1f7322e1681a6a562eb","condition":"contingent","relevant_dimensions":["pattern","legs"],"bee_group":{"antennae":"X","wings":"X","pattern":"S","legs":"F"},"action":"harvest","summary":"good-harvest","bonus":0.840000000000001},{"rt":1237,"stimulus":"\n                    <p><b>Action: <em>harvest</em></b></p>\n                    <p>This is the bee that you just saw.</p>\n                    <img src=\"bees-with-color/bee-B2DF.svg\" width=\"200\">\n                    <p><span class=\"greenText\"><b>Successful harvest!</b></span><br>Your pay has increased by $0.02. Your bonus pay is now $0.96.</p>\n            ","response":0,"trial_type":"html-button-response","trial_index":134,"time_elapsed":834543,"internal_node_id":"0.0-4.0-1.63","subject_id":"607e09fbd7c60ded8577281e","study_id":"60edd13110225f80f9f3709b","session_id":"6196c1f7322e1681a6a562eb","condition":"contingent","relevant_dimensions":["pattern","legs"],"bee_group":{"antennae":"X","wings":"X","pattern":"S","legs":"F"},"bonus":0.840000000000001},{"rt":9113,"stimulus":"You have completed the first part of this experiment.<br><br>You will now begin a shorter second part, in which you will receive no feedback.<br>The same rules regarding bonus pay apply.<br><br>Press any key to begin.","response":"enter","trial_type":"html-keyboard-response","trial_index":135,"time_elapsed":843658,"internal_node_id":"0.0-5.0","subject_id":"607e09fbd7c60ded8577281e","study_id":"60edd13110225f80f9f3709b","session_id":"6196c1f7322e1681a6a562eb","condition":"contingent","relevant_dimensions":["pattern","legs"],"bee_group":{"antennae":"X","wings":"X","pattern":"S","legs":"F"},"bonus":0.840000000000001},{"rt":2711,"stimulus":"bees-with-color/bee-A2SF.svg","response":0,"trial_type":"image-button-response","trial_index":136,"time_elapsed":846374,"internal_node_id":"0.0-6.0-0.0","subject_id":"607e09fbd7c60ded8577281e","study_id":"60edd13110225f80f9f3709b","session_id":"6196c1f7322e1681a6a562eb","condition":"contingent","relevant_dimensions":["pattern","legs"],"bee_group":{"antennae":"X","wings":"X","pattern":"S","legs":"F"},"bonus":0.840000000000001},{"rt":6014,"stimulus":"bees-with-color/bee-B1DM.svg","response":0,"trial_type":"image-button-response","trial_index":137,"time_elapsed":852391,"internal_node_id":"0.0-6.0-0.1","subject_id":"607e09fbd7c60ded8577281e","study_id":"60edd13110225f80f9f3709b","session_id":"6196c1f7322e1681a6a562eb","condition":"contingent","relevant_dimensions":["pattern","legs"],"bee_group":{"antennae":"X","wings":"X","pattern":"S","legs":"F"},"bonus":0.840000000000001},{"rt":610,"stimulus":"bees-with-color/bee-A2SM.svg","response":1,"trial_type":"image-button-response","trial_index":138,"time_elapsed":853006,"internal_node_id":"0.0-6.0-0.2","subject_id":"607e09fbd7c60ded8577281e","study_id":"60edd13110225f80f9f3709b","session_id":"6196c1f7322e1681a6a562eb","condition":"contingent","relevant_dimensions":["pattern","legs"],"bee_group":{"antennae":"X","wings":"X","pattern":"S","legs":"F"},"bonus":0.840000000000001},{"rt":5412,"stimulus":"bees-with-color/bee-B1SF.svg","response":0,"trial_type":"image-button-response","trial_index":139,"time_elapsed":858423,"internal_node_id":"0.0-6.0-0.3","subject_id":"607e09fbd7c60ded8577281e","study_id":"60edd13110225f80f9f3709b","session_id":"6196c1f7322e1681a6a562eb","condition":"contingent","relevant_dimensions":["pattern","legs"],"bee_group":{"antennae":"X","wings":"X","pattern":"S","legs":"F"},"bonus":0.840000000000001},{"rt":663,"stimulus":"bees-with-color/bee-A1DF.svg","response":1,"trial_type":"image-button-response","trial_index":140,"time_elapsed":859088,"internal_node_id":"0.0-6.0-0.4","subject_id":"607e09fbd7c60ded8577281e","study_id":"60edd13110225f80f9f3709b","session_id":"6196c1f7322e1681a6a562eb","condition":"contingent","relevant_dimensions":["pattern","legs"],"bee_group":{"antennae":"X","wings":"X","pattern":"S","legs":"F"},"bonus":0.840000000000001},{"rt":554,"stimulus":"bees-with-color/bee-B2DF.svg","response":1,"trial_type":"image-button-response","trial_index":141,"time_elapsed":859646,"internal_node_id":"0.0-6.0-0.5","subject_id":"607e09fbd7c60ded8577281e","study_id":"60edd13110225f80f9f3709b","session_id":"6196c1f7322e1681a6a562eb","condition":"contingent","relevant_dimensions":["pattern","legs"],"bee_group":{"antennae":"X","wings":"X","pattern":"S","legs":"F"},"bonus":0.840000000000001},{"rt":348,"stimulus":"bees-with-color/bee-A2DM.svg","response":1,"trial_type":"image-button-response","trial_index":142,"time_elapsed":859998,"internal_node_id":"0.0-6.0-0.6","subject_id":"607e09fbd7c60ded8577281e","study_id":"60edd13110225f80f9f3709b","session_id":"6196c1f7322e1681a6a562eb","condition":"contingent","relevant_dimensions":["pattern","legs"],"bee_group":{"antennae":"X","wings":"X","pattern":"S","legs":"F"},"bonus":0.840000000000001},{"rt":476,"stimulus":"bees-with-color/bee-B1DF.svg","response":0,"trial_type":"image-button-response","trial_index":143,"time_elapsed":860478,"internal_node_id":"0.0-6.0-0.7","subject_id":"607e09fbd7c60ded8577281e","study_id":"60edd13110225f80f9f3709b","session_id":"6196c1f7322e1681a6a562eb","condition":"contingent","relevant_dimensions":["pattern","legs"],"bee_group":{"antennae":"X","wings":"X","pattern":"S","legs":"F"},"bonus":0.840000000000001},{"rt":516,"stimulus":"bees-with-color/bee-B2DM.svg","response":1,"trial_type":"image-button-response","trial_index":144,"time_elapsed":860998,"internal_node_id":"0.0-6.0-0.8","subject_id":"607e09fbd7c60ded8577281e","study_id":"60edd13110225f80f9f3709b","session_id":"6196c1f7322e1681a6a562eb","condition":"contingent","relevant_dimensions":["pattern","legs"],"bee_group":{"antennae":"X","wings":"X","pattern":"S","legs":"F"},"bonus":0.840000000000001},{"rt":293,"stimulus":"bees-with-color/bee-B2SF.svg","response":1,"trial_type":"image-button-response","trial_index":145,"time_elapsed":861293,"internal_node_id":"0.0-6.0-0.9","subject_id":"607e09fbd7c60ded8577281e","study_id":"60edd13110225f80f9f3709b","session_id":"6196c1f7322e1681a6a562eb","condition":"contingent","relevant_dimensions":["pattern","legs"],"bee_group":{"antennae":"X","wings":"X","pattern":"S","legs":"F"},"bonus":0.840000000000001},{"rt":261,"stimulus":"bees-with-color/bee-A1SM.svg","response":1,"trial_type":"image-button-response","trial_index":146,"time_elapsed":861557,"internal_node_id":"0.0-6.0-0.10","subject_id":"607e09fbd7c60ded8577281e","study_id":"60edd13110225f80f9f3709b","session_id":"6196c1f7322e1681a6a562eb","condition":"contingent","relevant_dimensions":["pattern","legs"],"bee_group":{"antennae":"X","wings":"X","pattern":"S","legs":"F"},"bonus":0.840000000000001},{"rt":372,"stimulus":"bees-with-color/bee-A1SF.svg","response":0,"trial_type":"image-button-response","trial_index":147,"time_elapsed":861934,"internal_node_id":"0.0-6.0-0.11","subject_id":"607e09fbd7c60ded8577281e","study_id":"60edd13110225f80f9f3709b","session_id":"6196c1f7322e1681a6a562eb","condition":"contingent","relevant_dimensions":["pattern","legs"],"bee_group":{"antennae":"X","wings":"X","pattern":"S","legs":"F"},"bonus":0.840000000000001},{"rt":407,"stimulus":"bees-with-color/bee-B2SM.svg","response":1,"trial_type":"image-button-response","trial_index":148,"time_elapsed":862344,"internal_node_id":"0.0-6.0-0.12","subject_id":"607e09fbd7c60ded8577281e","study_id":"60edd13110225f80f9f3709b","session_id":"6196c1f7322e1681a6a562eb","condition":"contingent","relevant_dimensions":["pattern","legs"],"bee_group":{"antennae":"X","wings":"X","pattern":"S","legs":"F"},"bonus":0.840000000000001},{"rt":180,"stimulus":"bees-with-color/bee-B1SM.svg","response":1,"trial_type":"image-button-response","trial_index":149,"time_elapsed":862527,"internal_node_id":"0.0-6.0-0.13","subject_id":"607e09fbd7c60ded8577281e","study_id":"60edd13110225f80f9f3709b","session_id":"6196c1f7322e1681a6a562eb","condition":"contingent","relevant_dimensions":["pattern","legs"],"bee_group":{"antennae":"X","wings":"X","pattern":"S","legs":"F"},"bonus":0.840000000000001},{"rt":195,"stimulus":"bees-with-color/bee-A1DM.svg","response":1,"trial_type":"image-button-response","trial_index":150,"time_elapsed":862725,"internal_node_id":"0.0-6.0-0.14","subject_id":"607e09fbd7c60ded8577281e","study_id":"60edd13110225f80f9f3709b","session_id":"6196c1f7322e1681a6a562eb","condition":"contingent","relevant_dimensions":["pattern","legs"],"bee_group":{"antennae":"X","wings":"X","pattern":"S","legs":"F"},"bonus":0.840000000000001},{"rt":482,"stimulus":"bees-with-color/bee-A2DF.svg","response":0,"trial_type":"image-button-response","trial_index":151,"time_elapsed":863214,"internal_node_id":"0.0-6.0-0.15","subject_id":"607e09fbd7c60ded8577281e","study_id":"60edd13110225f80f9f3709b","session_id":"6196c1f7322e1681a6a562eb","condition":"contingent","relevant_dimensions":["pattern","legs"],"bee_group":{"antennae":"X","wings":"X","pattern":"S","legs":"F"},"bonus":0.840000000000001},{"rt":510,"stimulus":"bees-with-color/bee-A2DF.svg","response":1,"trial_type":"image-button-response","trial_index":152,"time_elapsed":863727,"internal_node_id":"0.0-6.0-0.16","subject_id":"607e09fbd7c60ded8577281e","study_id":"60edd13110225f80f9f3709b","session_id":"6196c1f7322e1681a6a562eb","condition":"contingent","relevant_dimensions":["pattern","legs"],"bee_group":{"antennae":"X","wings":"X","pattern":"S","legs":"F"},"bonus":0.840000000000001},{"rt":179,"stimulus":"bees-with-color/bee-B1SM.svg","response":1,"trial_type":"image-button-response","trial_index":153,"time_elapsed":863911,"internal_node_id":"0.0-6.0-0.17","subject_id":"607e09fbd7c60ded8577281e","study_id":"60edd13110225f80f9f3709b","session_id":"6196c1f7322e1681a6a562eb","condition":"contingent","relevant_dimensions":["pattern","legs"],"bee_group":{"antennae":"X","wings":"X","pattern":"S","legs":"F"},"bonus":0.840000000000001},{"rt":300,"stimulus":"bees-with-color/bee-B2SM.svg","response":0,"trial_type":"image-button-response","trial_index":154,"time_elapsed":864213,"internal_node_id":"0.0-6.0-0.18","subject_id":"607e09fbd7c60ded8577281e","study_id":"60edd13110225f80f9f3709b","session_id":"6196c1f7322e1681a6a562eb","condition":"contingent","relevant_dimensions":["pattern","legs"],"bee_group":{"antennae":"X","wings":"X","pattern":"S","legs":"F"},"bonus":0.840000000000001},{"rt":380,"stimulus":"bees-with-color/bee-A2SF.svg","response":1,"trial_type":"image-button-response","trial_index":155,"time_elapsed":864598,"internal_node_id":"0.0-6.0-0.19","subject_id":"607e09fbd7c60ded8577281e","study_id":"60edd13110225f80f9f3709b","session_id":"6196c1f7322e1681a6a562eb","condition":"contingent","relevant_dimensions":["pattern","legs"],"bee_group":{"antennae":"X","wings":"X","pattern":"S","legs":"F"},"bonus":0.840000000000001},{"rt":334,"stimulus":"bees-with-color/bee-A1SM.svg","response":0,"trial_type":"image-button-response","trial_index":156,"time_elapsed":864933,"internal_node_id":"0.0-6.0-0.20","subject_id":"607e09fbd7c60ded8577281e","study_id":"60edd13110225f80f9f3709b","session_id":"6196c1f7322e1681a6a562eb","condition":"contingent","relevant_dimensions":["pattern","legs"],"bee_group":{"antennae":"X","wings":"X","pattern":"S","legs":"F"},"bonus":0.840000000000001},{"rt":350,"stimulus":"bees-with-color/bee-B1DM.svg","response":1,"trial_type":"image-button-response","trial_index":157,"time_elapsed":865286,"internal_node_id":"0.0-6.0-0.21","subject_id":"607e09fbd7c60ded8577281e","study_id":"60edd13110225f80f9f3709b","session_id":"6196c1f7322e1681a6a562eb","condition":"contingent","relevant_dimensions":["pattern","legs"],"bee_group":{"antennae":"X","wings":"X","pattern":"S","legs":"F"},"bonus":0.840000000000001},{"rt":189,"stimulus":"bees-with-color/bee-B2SF.svg","response":1,"trial_type":"image-button-response","trial_index":158,"time_elapsed":865478,"internal_node_id":"0.0-6.0-0.22","subject_id":"607e09fbd7c60ded8577281e","study_id":"60edd13110225f80f9f3709b","session_id":"6196c1f7322e1681a6a562eb","condition":"contingent","relevant_dimensions":["pattern","legs"],"bee_group":{"antennae":"X","wings":"X","pattern":"S","legs":"F"},"bonus":0.840000000000001},{"rt":364,"stimulus":"bees-with-color/bee-B1DF.svg","response":0,"trial_type":"image-button-response","trial_index":159,"time_elapsed":865846,"internal_node_id":"0.0-6.0-0.23","subject_id":"607e09fbd7c60ded8577281e","study_id":"60edd13110225f80f9f3709b","session_id":"6196c1f7322e1681a6a562eb","condition":"contingent","relevant_dimensions":["pattern","legs"],"bee_group":{"antennae":"X","wings":"X","pattern":"S","legs":"F"},"bonus":0.840000000000001},{"rt":358,"stimulus":"bees-with-color/bee-B2DM.svg","response":1,"trial_type":"image-button-response","trial_index":160,"time_elapsed":866206,"internal_node_id":"0.0-6.0-0.24","subject_id":"607e09fbd7c60ded8577281e","study_id":"60edd13110225f80f9f3709b","session_id":"6196c1f7322e1681a6a562eb","condition":"contingent","relevant_dimensions":["pattern","legs"],"bee_group":{"antennae":"X","wings":"X","pattern":"S","legs":"F"},"bonus":0.840000000000001},{"rt":342,"stimulus":"bees-with-color/bee-A1DF.svg","response":0,"trial_type":"image-button-response","trial_index":161,"time_elapsed":866550,"internal_node_id":"0.0-6.0-0.25","subject_id":"607e09fbd7c60ded8577281e","study_id":"60edd13110225f80f9f3709b","session_id":"6196c1f7322e1681a6a562eb","condition":"contingent","relevant_dimensions":["pattern","legs"],"bee_group":{"antennae":"X","wings":"X","pattern":"S","legs":"F"},"bonus":0.840000000000001},{"rt":156,"stimulus":"bees-with-color/bee-A2SM.svg","response":0,"trial_type":"image-button-response","trial_index":162,"time_elapsed":866709,"internal_node_id":"0.0-6.0-0.26","subject_id":"607e09fbd7c60ded8577281e","study_id":"60edd13110225f80f9f3709b","session_id":"6196c1f7322e1681a6a562eb","condition":"contingent","relevant_dimensions":["pattern","legs"],"bee_group":{"antennae":"X","wings":"X","pattern":"S","legs":"F"},"bonus":0.840000000000001},{"rt":588,"stimulus":"bees-with-color/bee-A2DM.svg","response":1,"trial_type":"image-button-response","trial_index":163,"time_elapsed":867302,"internal_node_id":"0.0-6.0-0.27","subject_id":"607e09fbd7c60ded8577281e","study_id":"60edd13110225f80f9f3709b","session_id":"6196c1f7322e1681a6a562eb","condition":"contingent","relevant_dimensions":["pattern","legs"],"bee_group":{"antennae":"X","wings":"X","pattern":"S","legs":"F"},"bonus":0.840000000000001},{"rt":361,"stimulus":"bees-with-color/bee-B1SF.svg","response":1,"trial_type":"image-button-response","trial_index":164,"time_elapsed":867670,"internal_node_id":"0.0-6.0-0.28","subject_id":"607e09fbd7c60ded8577281e","study_id":"60edd13110225f80f9f3709b","session_id":"6196c1f7322e1681a6a562eb","condition":"contingent","relevant_dimensions":["pattern","legs"],"bee_group":{"antennae":"X","wings":"X","pattern":"S","legs":"F"},"bonus":0.840000000000001},{"rt":260,"stimulus":"bees-with-color/bee-A1DM.svg","response":1,"trial_type":"image-button-response","trial_index":165,"time_elapsed":867934,"internal_node_id":"0.0-6.0-0.29","subject_id":"607e09fbd7c60ded8577281e","study_id":"60edd13110225f80f9f3709b","session_id":"6196c1f7322e1681a6a562eb","condition":"contingent","relevant_dimensions":["pattern","legs"],"bee_group":{"antennae":"X","wings":"X","pattern":"S","legs":"F"},"bonus":0.840000000000001},{"rt":309,"stimulus":"bees-with-color/bee-B2DF.svg","response":0,"trial_type":"image-button-response","trial_index":166,"time_elapsed":868246,"internal_node_id":"0.0-6.0-0.30","subject_id":"607e09fbd7c60ded8577281e","study_id":"60edd13110225f80f9f3709b","session_id":"6196c1f7322e1681a6a562eb","condition":"contingent","relevant_dimensions":["pattern","legs"],"bee_group":{"antennae":"X","wings":"X","pattern":"S","legs":"F"},"bonus":0.840000000000001},{"rt":589,"stimulus":"bees-with-color/bee-A1SF.svg","response":1,"trial_type":"image-button-response","trial_index":167,"time_elapsed":868838,"internal_node_id":"0.0-6.0-0.31","subject_id":"607e09fbd7c60ded8577281e","study_id":"60edd13110225f80f9f3709b","session_id":"6196c1f7322e1681a6a562eb","condition":"contingent","relevant_dimensions":["pattern","legs"],"bee_group":{"antennae":"X","wings":"X","pattern":"S","legs":"F"},"bonus":0.840000000000001},{"rt":6246,"stimulus":"You started with $2.50 of base pay.<br><br>\n            You made $0.84 in bonus pay,\n            for a total of <b>$3.34</b>.","response":0,"trial_type":