[{"success":true,"trial_type":"fullscreen","trial_index":0,"time_elapsed":9690,"internal_node_id":"0.0-0.0","subject_id":"5ea000d6e849b0000814e9d5","study_id":"6197b3f67c2b5cd3b6d9596a","session_id":"619bef05cff1940829474f76","condition":"contingent","relevant_dimensions":["antennae","wings"],"bee_group":{"antennae":"B","wings":"1","pattern":"X","legs":"X"},"bonus":1.1800000000000008},{"success":true,"timeout":false,"failed_images":[],"failed_audio":[],"failed_video":[],"trial_type":"preload","trial_index":1,"time_elapsed":11709,"internal_node_id":"0.0-1.0","subject_id":"5ea000d6e849b0000814e9d5","study_id":"6197b3f67c2b5cd3b6d9596a","session_id":"619bef05cff1940829474f76","condition":"contingent","relevant_dimensions":["antennae","wings"],"bee_group":{"antennae":"B","wings":"1","pattern":"X","legs":"X"},"bonus":1.1800000000000008},{"rt":2456.6999999955297,"stimulus":"Welcome! Press any key to begin.","response":" ","trial_type":"html-keyboard-response","trial_index":2,"time_elapsed":14170,"internal_node_id":"0.0-2.0","subject_id":"5ea000d6e849b0000814e9d5","study_id":"6197b3f67c2b5cd3b6d9596a","session_id":"619bef05cff1940829474f76","condition":"contingent","relevant_dimensions":["antennae","wings"],"bee_group":{"antennae":"B","wings":"1","pattern":"X","legs":"X"},"bonus":1.1800000000000008},{"view_history":[{"page_index":0,"viewing_time":12343.30000000447},{"page_index":1,"viewing_time":45196.79999999702},{"page_index":2,"viewing_time":13329.39999999851},{"page_index":3,"viewing_time":24694.60000000149},{"page_index":4,"viewing_time":10437.20000000298},{"page_index":5,"viewing_time":9540.69999999553},{"page_index":6,"viewing_time":14133.5},{"page_index":7,"viewing_time":10299.90000000596},{"page_index":8,"viewing_time":6532.39999999851},{"page_index":9,"viewing_time":3309.39999999851},{"page_index":10,"viewing_time":4199.29999999702},{"page_index":11,"viewing_time":13643},{"page_index":12,"viewing_time":19043.30000000447},{"page_index":13,"viewing_time":2049.2999999970198},{"page_index":14,"viewing_time":1517.7000000029802}],"rt":190271.30000000447,"trial_type":"instructions","trial_index":3,"time_elapsed":204417,"internal_node_id":"0.0-3.0-0.0","subject_id":"5ea000d6e849b0000814e9d5","study_id":"6197b3f67c2b5cd3b6d9596a","session_id":"619bef05cff1940829474f76","condition":"contingent","relevant_dimensions":["antennae","wings"],"bee_group":{"antennae":"B","wings":"1","pattern":"X","legs":"X"},"bonus":1.1800000000000008},{"rt":13702.70000000298,"response":{"Q0":["Two or six legs","Stripes or spots on body","Single or double wings","Antennae or no antennae"]},"question_order":[0],"trial_type":"survey-multi-select","trial_index":4,"time_elapsed":218149,"internal_node_id":"0.0-3.0-1.0","subject_id":"5ea000d6e849b0000814e9d5","study_id":"6197b3f67c2b5cd3b6d9596a","session_id":"619bef05cff1940829474f76","condition":"contingent","relevant_dimensions":["antennae","wings"],"bee_group":{"antennae":"B","wings":"1","pattern":"X","legs":"X"},"correct":true,"bonus":1.1800000000000008},{"rt":23664.60000000149,"response":{"Q1":"No.","Q2":"Based on the four features of the bee.","Q3":"You do not learn if it was friendly or dangerous, and do not alter your bonus."},"question_order":[0,1,2],"trial_type":"survey-multi-choice","trial_index":5,"time_elapsed":241825,"internal_node_id":"0.0-3.0-2.0","subject_id":"5ea000d6e849b0000814e9d5","study_id":"6197b3f67c2b5cd3b6d9596a","session_id":"619bef05cff1940829474f76","condition":"contingent","relevant_dimensions":["antennae","wings"],"bee_group":{"antennae":"B","wings":"1","pattern":"X","legs":"X"},"correct":true,"bonus":1.1800000000000008},{"rt":2343.7000000029802,"stimulus":"<p>Congrats, you got everything right<br>When you're ready, click the button below to continue to the experiment.</p>","response":0,"trial_type":"html-button-response","trial_index":6,"time_elapsed":244177,"internal_node_id":"0.0-3.0-3.0","subject_id":"5ea000d6e849b0000814e9d5","study_id":"6197b3f67c2b5cd3b6d9596a","session_id":"619bef05cff1940829474f76","condition":"contingent","relevant_dimensions":["antennae","wings"],"bee_group":{"antennae":"B","wings":"1","pattern":"X","legs":"X"},"bonus":1.1800000000000008},{"rt":11238.60000000149,"stimulus":"bees-with-color/bee-B2SM.svg","response":1,"trial_type":"image-button-response","trial_index":7,"time_elapsed":255431,"internal_node_id":"0.0-4.0-0.0","subject_id":"5ea000d6e849b0000814e9d5","study_id":"6197b3f67c2b5cd3b6d9596a","session_id":"619bef05cff1940829474f76","condition":"contingent","relevant_dimensions":["antennae","wings"],"bee_group":{"antennae":"B","wings":"1","pattern":"X","legs":"X"},"action":"avoid","summary":"bad-avoid","bonus":1.1800000000000008},{"rt":6113.5,"stimulus":"\n                    <p><b>Action: <em>avoid</em></b></p>\n                    <p>This is the bee that you just saw.</p>\n                    <img src=\"bees-with-color/bee-B2SM.svg\" width=\"200\">\n                    <p><br>Your bonus pay is unchanged, and remains at $0.54.</p>\n            ","response":0,"trial_type":"html-button-response","trial_index":8,"time_elapsed":261560,"internal_node_id":"0.0-4.0-1.0","subject_id":"5ea000d6e849b0000814e9d5","study_id":"6197b3f67c2b5cd3b6d9596a","session_id":"619bef05cff1940829474f76","condition":"contingent","relevant_dimensions":["antennae","wings"],"bee_group":{"antennae":"B","wings":"1","pattern":"X","legs":"X"},"bonus":1.1800000000000008},{"rt":7815.79999999702,"stimulus":"bees-with-color/bee-B1SF.svg","response":0,"trial_type":"image-button-response","trial_index":9,"time_elapsed":269380,"internal_node_id":"0.0-4.0-0.1","subject_id":"5ea000d6e849b0000814e9d5","study_id":"6197b3f67c2b5cd3b6d9596a","session_id":"619bef05cff1940829474f76","condition":"contingent","relevant_dimensions":["antennae","wings"],"bee_group":{"antennae":"B","wings":"1","pattern":"X","legs":"X"},"action":"harvest","summary":"bad-harvest","bonus":1.1800000000000008},{"rt":5768.39999999851,"stimulus":"\n                    <p><b>Action: <em>harvest</em></b></p>\n                    <p>This is the bee that you just saw.</p>\n                    <img src=\"bees-with-color/bee-B1SF.svg\" width=\"200\">\n                    <p><span class=\"redText\">Bad choice, the bee was angry.</span><br><b>You have been stung!</b><br>Your pay has been decreased by $0.10. Your bonus pay is now $0.44.</p>\n            ","response":0,"trial_type":"html-button-response","trial_index":10,"time_elapsed":275158,"internal_node_id":"0.0-4.0-1.1","subject_id":"5ea000d6e849b0000814e9d5","study_id":"6197b3f67c2b5cd3b6d9596a","session_id":"619bef05cff1940829474f76","condition":"contingent","relevant_dimensions":["antennae","wings"],"bee_group":{"antennae":"B","wings":"1","pattern":"X","legs":"X"},"bonus":1.1800000000000008},{"rt":2491.10000000149,"stimulus":"bees-with-color/bee-B2DM.svg","response":0,"trial_type":"image-button-response","trial_index":11,"time_elapsed":277658,"internal_node_id":"0.0-4.0-0.2","subject_id":"5ea000d6e849b0000814e9d5","study_id":"6197b3f67c2b5cd3b6d9596a","session_id":"619bef05cff1940829474f76","condition":"contingent","relevant_dimensions":["antennae","wings"],"bee_group":{"antennae":"B","wings":"1","pattern":"X","legs":"X"},"action":"harvest","summary":"good-harvest","bonus":1.1800000000000008},{"rt":8569.20000000298,"stimulus":"\n                    <p><b>Action: <em>harvest</em></b></p>\n                    <p>This is the bee that you just saw.</p>\n                    <img src=\"bees-with-color/bee-B2DM.svg\" width=\"200\">\n                    <p><span class=\"greenText\"><b>Successful harvest!</b></span><br>Your pay has increased by $0.02. Your bonus pay is now $0.46.</p>\n            ","response":0,"trial_type":"html-button-response","trial_index":12,"time_elapsed":286234,"internal_node_id":"0.0-4.0-1.2","subject_id":"5ea000d6e849b0000814e9d5","study_id":"6197b3f67c2b5cd3b6d9596a","session_id":"619bef05cff1940829474f76","condition":"contingent","relevant_dimensions":["antennae","wings"],"bee_group":{"antennae":"B","wings":"1","pattern":"X","legs":"X"},"bonus":1.1800000000000008},{"rt":5373.29999999702,"stimulus":"bees-with-color/bee-B1DF.svg","response":0,"trial_type":"image-button-response","trial_index":13,"time_elapsed":291615,"internal_node_id":"0.0-4.0-0.3","subject_id":"5ea000d6e849b0000814e9d5","study_id":"6197b3f67c2b5cd3b6d9596a","session_id":"619bef05cff1940829474f76","condition":"contingent","relevant_dimensions":["antennae","wings"],"bee_group":{"antennae":"B","wings":"1","pattern":"X","legs":"X"},"action":"harvest","summary":"bad-harvest","bonus":1.1800000000000008},{"rt":5147.80000000447,"stimulus":"\n                    <p><b>Action: <em>harvest</em></b></p>\n                    <p>This is the bee that you just saw.</p>\n                    <img src=\"bees-with-color/bee-B1DF.svg\" width=\"200\">\n                    <p><span class=\"redText\">Bad choice, the bee was angry.</span><br><b>You have been stung!</b><br>Your pay has been decreased by $0.10. Your bonus pay is now $0.36.</p>\n            ","response":0,"trial_type":"html-button-response","trial_index":14,"time_elapsed":296770,"internal_node_id":"0.0-4.0-1.3","subject_id":"5ea000d6e849b0000814e9d5","study_id":"6197b3f67c2b5cd3b6d9596a","session_id":"619bef05cff1940829474f76","condition":"contingent","relevant_dimensions":["antennae","wings"],"bee_group":{"antennae":"B","wings":"1","pattern":"X","legs":"X"},"bonus":1.1800000000000008},{"rt":2126.1999999955297,"stimulus":"bees-with-color/bee-A2DF.svg","response":0,"trial_type":"image-button-response","trial_index":15,"time_elapsed":298906,"internal_node_id":"0.0-4.0-0.4","subject_id":"5ea000d6e849b0000814e9d5","study_id":"6197b3f67c2b5cd3b6d9596a","session_id":"619bef05cff1940829474f76","condition":"contingent","relevant_dimensions":["antennae","wings"],"bee_group":{"antennae":"B","wings":"1","pattern":"X","legs":"X"},"action":"harvest","summary":"good-harvest","bonus":1.1800000000000008},{"rt":1977.5999999940395,"stimulus":"\n                    <p><b>Action: <em>harvest</em></b></p>\n                    <p>This is the bee that you just saw.</p>\n                    <img src=\"bees-with-color/bee-A2DF.svg\" width=\"200\">\n                    <p><span class=\"greenText\"><b>Successful harvest!</b></span><br>Your pay has increased by $0.02. Your bonus pay is now $0.38.</p>\n            ","response":0,"trial_type":"html-button-response","trial_index":16,"time_elapsed":300891,"internal_node_id":"0.0-4.0-1.4","subject_id":"5ea000d6e849b0000814e9d5","study_id":"6197b3f67c2b5cd3b6d9596a","session_id":"619bef05cff1940829474f76","condition":"contingent","relevant_dimensions":["antennae","wings"],"bee_group":{"antennae":"B","wings":"1","pattern":"X","legs":"X"},"bonus":1.1800000000000008},{"rt":3004.1999999955297,"stimulus":"bees-with-color/bee-A1DF.svg","response":1,"trial_type":"image-button-response","trial_index":17,"time_elapsed":303904,"internal_node_id":"0.0-4.0-0.5","subject_id":"5ea000d6e849b0000814e9d5","study_id":"6197b3f67c2b5cd3b6d9596a","session_id":"619bef05cff1940829474f76","condition":"contingent","relevant_dimensions":["antennae","wings"],"bee_group":{"antennae":"B","wings":"1","pattern":"X","legs":"X"},"action":"avoid","summary":"bad-avoid","bonus":1.1800000000000008},{"rt":2188.5999999940395,"stimulus":"\n                    <p><b>Action: <em>avoid</em></b></p>\n                    <p>This is the bee that you just saw.</p>\n                    <img src=\"bees-with-color/bee-A1DF.svg\" width=\"200\">\n                    <p><br>Your bonus pay is unchanged, and remains at $0.38.</p>\n            ","response":0,"trial_type":"html-button-response","trial_index":18,"time_elapsed":306100,"internal_node_id":"0.0-4.0-1.5","subject_id":"5ea000d6e849b0000814e9d5","study_id":"6197b3f67c2b5cd3b6d9596a","session_id":"619bef05cff1940829474f76","condition":"contingent","relevant_dimensions":["antennae","wings"],"bee_group":{"antennae":"B","wings":"1","pattern":"X","legs":"X"},"bonus":1.1800000000000008},{"rt":2345.89999999851,"stimulus":"bees-with-color/bee-B2SF.svg","response":0,"trial_type":"image-button-response","trial_index":19,"time_elapsed":308455,"internal_node_id":"0.0-4.0-0.6","subject_id":"5ea000d6e849b0000814e9d5","study_id":"6197b3f67c2b5cd3b6d9596a","session_id":"619bef05cff1940829474f76","condition":"contingent","relevant_dimensions":["antennae","wings"],"bee_group":{"antennae":"B","wings":"1","pattern":"X","legs":"X"},"action":"harvest","summary":"good-harvest","bonus":1.1800000000000008},{"rt":1750.1999999955297,"stimulus":"\n                    <p><b>Action: <em>harvest</em></b></p>\n                    <p>This is the bee that you just saw.</p>\n                    <img src=\"bees-with-color/bee-B2SF.svg\" width=\"200\">\n                    <p><span class=\"greenText\"><b>Successful harvest!</b></span><br>Your pay has increased by $0.02. Your bonus pay is now $0.40.</p>\n            ","response":0,"trial_type":"html-button-response","trial_index":20,"time_elapsed":310212,"internal_node_id":"0.0-4.0-1.6","subject_id":"5ea000d6e849b0000814e9d5","study_id":"6197b3f67c2b5cd3b6d9596a","session_id":"619bef05cff1940829474f76","condition":"contingent","relevant_dimensions":["antennae","wings"],"bee_group":{"antennae":"B","wings":"1","pattern":"X","legs":"X"},"bonus":1.1800000000000008},{"rt":2283.5,"stimulus":"bees-with-color/bee-B2DF.svg","response":0,"trial_type":"image-button-response","trial_index":21,"time_elapsed":312504,"internal_node_id":"0.0-4.0-0.7","subject_id":"5ea000d6e849b0000814e9d5","study_id":"6197b3f67c2b5cd3b6d9596a","session_id":"619bef05cff1940829474f76","condition":"contingent","relevant_dimensions":["antennae","wings"],"bee_group":{"antennae":"B","wings":"1","pattern":"X","legs":"X"},"action":"harvest","summary":"good-harvest","bonus":1.1800000000000008},{"rt":1505.1000000014901,"stimulus":"\n                    <p><b>Action: <em>harvest</em></b></p>\n                    <p>This is the bee that you just saw.</p>\n                    <img src=\"bees-with-color/bee-B2DF.svg\" width=\"200\">\n                    <p><span class=\"greenText\"><b>Successful harvest!</b></span><br>Your pay has increased by $0.02. Your bonus pay is now $0.42.</p>\n            ","response":0,"trial_type":"html-button-response","trial_index":22,"time_elapsed":314016,"internal_node_id":"0.0-4.0-1.7","subject_id":"5ea000d6e849b0000814e9d5","study_id":"6197b3f67c2b5cd3b6d9596a","session_id":"619bef05cff1940829474f76","condition":"contingent","relevant_dimensions":["antennae","wings"],"bee_group":{"antennae":"B","wings":"1","pattern":"X","legs":"X"},"bonus":1.1800000000000008},{"rt":1479.3999999985099,"stimulus":"bees-with-color/bee-A2SF.svg","response":0,"trial_type":"image-button-response","trial_index":23,"time_elapsed":315505,"internal_node_id":"0.0-4.0-0.8","subject_id":"5ea000d6e849b0000814e9d5","study_id":"6197b3f67c2b5cd3b6d9596a","session_id":"619bef05cff1940829474f76","condition":"contingent","relevant_dimensions":["antennae","wings"],"bee_group":{"antennae":"B","wings":"1","pattern":"X","legs":"X"},"action":"harvest","summary":"good-harvest","bonus":1.1800000000000008},{"rt":1456.4000000059605,"stimulus":"\n                    <p><b>Action: <em>harvest</em></b></p>\n                    <p>This is the bee that you just saw.</p>\n                    <img src=\"bees-with-color/bee-A2SF.svg\" width=\"200\">\n                    <p><span class=\"greenText\"><b>Successful harvest!</b></span><br>Your pay has increased by $0.02. Your bonus pay is now $0.44.</p>\n            ","response":0,"trial_type":"html-button-response","trial_index":24,"time_elapsed":316969,"internal_node_id":"0.0-4.0-1.8","subject_id":"5ea000d6e849b0000814e9d5","study_id":"6197b3f67c2b5cd3b6d9596a","session_id":"619bef05cff1940829474f76","condition":"contingent","relevant_dimensions":["antennae","wings"],"bee_group":{"antennae":"B","wings":"1","pattern":"X","legs":"X"},"bonus":1.1800000000000008},{"rt":2234.39999999851,"stimulus":"bees-with-color/bee-A1SM.svg","response":1,"trial_type":"image-button-response","trial_index":25,"time_elapsed":319213,"internal_node_id":"0.0-4.0-0.9","subject_id":"5ea000d6e849b0000814e9d5","study_id":"6197b3f67c2b5cd3b6d9596a","session_id":"619bef05cff1940829474f76","condition":"contingent","relevant_dimensions":["antennae","wings"],"bee_group":{"antennae":"B","wings":"1","pattern":"X","legs":"X"},"action":"avoid","summary":"bad-avoid","bonus":1.1800000000000008},{"rt":1871.5,"stimulus":"\n                    <p><b>Action: <em>avoid</em></b></p>\n                    <p>This is the bee that you just saw.</p>\n                    <img src=\"bees-with-color/bee-A1SM.svg\" width=\"200\">\n                    <p><br>Your bonus pay is unchanged, and remains at $0.44.</p>\n            ","response":0,"trial_type":"html-button-response","trial_index":26,"time_elapsed":321092,"internal_node_id":"0.0-4.0-1.9","subject_id":"5ea000d6e849b0000814e9d5","study_id":"6197b3f67c2b5cd3b6d9596a","session_id":"619bef05cff1940829474f76","condition":"contingent","relevant_dimensions":["antennae","wings"],"bee_group":{"antennae":"B","wings":"1","pattern":"X","legs":"X"},"bonus":1.1800000000000008},{"rt":1540,"stimulus":"bees-with-color/bee-A2SM.svg","response":0,"trial_type":"image-button-response","trial_index":27,"time_elapsed":322632,"internal_node_id":"0.0-4.0-0.10","subject_id":"5ea000d6e849b0000814e9d5","study_id":"6197b3f67c2b5cd3b6d9596a","session_id":"619bef05cff1940829474f76","condition":"contingent","relevant_dimensions":["antennae","wings"],"bee_group":{"antennae":"B","wings":"1","pattern":"X","legs":"X"},"action":"harvest","summary":"good-harvest","bonus":1.1800000000000008},{"rt":1761.7000000029802,"stimulus":"\n                    <p><b>Action: <em>harvest</em></b></p>\n                    <p>This is the bee that you just saw.</p>\n                    <img src=\"bees-with-color/bee-A2SM.svg\" width=\"200\">\n                    <p><span class=\"greenText\"><b>Successful harvest!</b></span><br>Your pay has increased by $0.02. Your bonus pay is now $0.46.</p>\n            ","response":0,"trial_type":"html-button-response","trial_index":28,"time_elapsed":324401,"internal_node_id":"0.0-4.0-1.10","subject_id":"5ea000d6e849b0000814e9d5","study_id":"6197b3f67c2b5cd3b6d9596a","session_id":"619bef05cff1940829474f76","condition":"contingent","relevant_dimensions":["antennae","wings"],"bee_group":{"antennae":"B","wings":"1","pattern":"X","legs":"X"},"bonus":1.1800000000000008},{"rt":1408.7000000029802,"stimulus":"bees-with-color/bee-A1SF.svg","response":1,"trial_type":"image-button-response","trial_index":29,"time_elapsed":325816,"internal_node_id":"0.0-4.0-0.11","subject_id":"5ea000d6e849b0000814e9d5","study_id":"6197b3f67c2b5cd3b6d9596a","session_id":"619bef05cff1940829474f76","condition":"contingent","relevant_dimensions":["antennae","wings"],"bee_group":{"antennae":"B","wings":"1","pattern":"X","legs":"X"},"action":"avoid","summary":"bad-avoid","bonus":1.1800000000000008},{"rt":1735.1999999955297,"stimulus":"\n                    <p><b>Action: <em>avoid</em></b></p>\n                    <p>This is the bee that you just saw.</p>\n                    <img src=\"bees-with-color/bee-A1SF.svg\" width=\"200\">\n                    <p><br>Your bonus pay is unchanged, and remains at $0.46.</p>\n            ","response":0,"trial_type":"html-button-response","trial_index":30,"time_elapsed":327558,"internal_node_id":"0.0-4.0-1.11","subject_id":"5ea000d6e849b0000814e9d5","study_id":"6197b3f67c2b5cd3b6d9596a","session_id":"619bef05cff1940829474f76","condition":"contingent","relevant_dimensions":["antennae","wings"],"bee_group":{"antennae":"B","wings":"1","pattern":"X","legs":"X"},"bonus":1.1800000000000008},{"rt":2237.3000000044703,"stimulus":"bees-with-color/bee-B1SM.svg","response":1,"trial_type":"image-button-response","trial_index":31,"time_elapsed":329806,"internal_node_id":"0.0-4.0-0.12","subject_id":"5ea000d6e849b0000814e9d5","study_id":"6197b3f67c2b5cd3b6d9596a","session_id":"619bef05cff1940829474f76","condition":"contingent","relevant_dimensions":["antennae","wings"],"bee_group":{"antennae":"B","wings":"1","pattern":"X","legs":"X"},"action":"avoid","summary":"good-avoid","bonus":1.1800000000000008},{"rt":1905.5,"stimulus":"\n                    <p><b>Action: <em>avoid</em></b></p>\n                    <p>This is the bee that you just saw.</p>\n                    <img src=\"bees-with-color/bee-B1SM.svg\" width=\"200\">\n                    <p><br>Your bonus pay is unchanged, and remains at $0.46.</p>\n            ","response":0,"trial_type":"html-button-response","trial_index":32,"time_elapsed":331718,"internal_node_id":"0.0-4.0-1.12","subject_id":"5ea000d6e849b0000814e9d5","study_id":"6197b3f67c2b5cd3b6d9596a","session_id":"619bef05cff1940829474f76","condition":"contingent","relevant_dimensions":["antennae","wings"],"bee_group":{"antennae":"B","wings":"1","pattern":"X","legs":"X"},"bonus":1.1800000000000008},{"rt":1702.8999999985099,"stimulus":"bees-with-color/bee-A1DM.svg","response":1,"trial_type":"image-button-response","trial_index":33,"time_elapsed":333427,"internal_node_id":"0.0-4.0-0.13","subject_id":"5ea000d6e849b0000814e9d5","study_id":"6197b3f67c2b5cd3b6d9596a","session_id":"619bef05cff1940829474f76","condition":"contingent","relevant_dimensions":["antennae","wings"],"bee_group":{"antennae":"B","wings":"1","pattern":"X","legs":"X"},"action":"avoid","summary":"bad-avoid","bonus":1.1800000000000008},{"rt":1760.4000000059605,"stimulus":"\n                    <p><b>Action: <em>avoid</em></b></p>\n                    <p>This is the bee that you just saw.</p>\n                    <img src=\"bees-with-color/bee-A1DM.svg\" width=\"200\">\n                    <p><br>Your bonus pay is unchanged, and remains at $0.46.</p>\n            ","response":0,"trial_type":"html-button-response","trial_index":34,"time_elapsed":335196,"internal_node_id":"0.0-4.0-1.13","subject_id":"5ea000d6e849b0000814e9d5","study_id":"6197b3f67c2b5cd3b6d9596a","session_id":"619bef05cff1940829474f76","condition":"contingent","relevant_dimensions":["antennae","wings"],"bee_group":{"antennae":"B","wings":"1","pattern":"X","legs":"X"},"bonus":1.1800000000000008},{"rt":1395.1000000014901,"stimulus":"bees-with-color/bee-A2DM.svg","response":0,"trial_type":"image-button-response","trial_index":35,"time_elapsed":336600,"internal_node_id":"0.0-4.0-0.14","subject_id":"5ea000d6e849b0000814e9d5","study_id":"6197b3f67c2b5cd3b6d9596a","session_id":"619bef05cff1940829474f76","condition":"contingent","relevant_dimensions":["antennae","wings"],"bee_group":{"antennae":"B","wings":"1","pattern":"X","legs":"X"},"action":"harvest","summary":"good-harvest","bonus":1.1800000000000008},{"rt":1809.5,"stimulus":"\n                    <p><b>Action: <em>harvest</em></b></p>\n                    <p>This is the bee that you just saw.</p>\n                    <img src=\"bees-with-color/bee-A2DM.svg\" width=\"200\">\n                    <p><span class=\"greenText\"><b>Successful harvest!</b></span><br>Your pay has increased by $0.02. Your bonus pay is now $0.48.</p>\n            ","response":0,"trial_type":"html-button-response","trial_index":36,"time_elapsed":338417,"internal_node_id":"0.0-4.0-1.14","subject_id":"5ea000d6e849b0000814e9d5","study_id":"6197b3f67c2b5cd3b6d9596a","session_id":"619bef05cff1940829474f76","condition":"contingent","relevant_dimensions":["antennae","wings"],"bee_group":{"antennae":"B","wings":"1","pattern":"X","legs":"X"},"bonus":1.1800000000000008},{"rt":1553.7999999970198,"stimulus":"bees-with-color/bee-B1DM.svg","response":1,"trial_type":"image-button-response","trial_index":37,"time_elapsed":339978,"internal_node_id":"0.0-4.0-0.15","subject_id":"5ea000d6e849b0000814e9d5","study_id":"6197b3f67c2b5cd3b6d9596a","session_id":"619bef05cff1940829474f76","condition":"contingent","relevant_dimensions":["antennae","wings"],"bee_group":{"antennae":"B","wings":"1","pattern":"X","legs":"X"},"action":"avoid","summary":"good-avoid","bonus":1.1800000000000008},{"rt":1821.7999999970198,"stimulus":"\n                    <p><b>Action: <em>avoid</em></b></p>\n                    <p>This is the bee that you just saw.</p>\n                    <img src=\"bees-with-color/bee-B1DM.svg\" width=\"200\">\n                    <p><br>Your bonus pay is unchanged, and remains at $0.48.</p>\n            ","response":0,"trial_type":"html-button-response","trial_index":38,"time_elapsed":341808,"internal_node_id":"0.0-4.0-1.15","subject_id":"5ea000d6e849b0000814e9d5","study_id":"6197b3f67c2b5cd3b6d9596a","session_id":"619bef05cff1940829474f76","condition":"contingent","relevant_dimensions":["antennae","wings"],"bee_group":{"antennae":"B","wings":"1","pattern":"X","legs":"X"},"bonus":1.1800000000000008},{"rt":1554.3000000044703,"stimulus":"bees-with-color/bee-B1DM.svg","response":1,"trial_type":"image-button-response","trial_index":39,"time_elapsed":343371,"internal_node_id":"0.0-4.0-0.16","subject_id":"5ea000d6e849b0000814e9d5","study_id":"6197b3f67c2b5cd3b6d9596a","session_id":"619bef05cff1940829474f76","condition":"contingent","relevant_dimensions":["antennae","wings"],"bee_group":{"antennae":"B","wings":"1","pattern":"X","legs":"X"},"action":"avoid","summary":"good-avoid","bonus":1.1800000000000008},{"rt":1455.2000000029802,"stimulus":"\n                    <p><b>Action: <em>avoid</em></b></p>\n                    <p>This is the bee that you just saw.</p>\n                    <img src=\"bees-with-color/bee-B1DM.svg\" width=\"200\">\n                    <p><br>Your bonus pay is unchanged, and remains at $0.48.</p>\n            ","response":0,"trial_type":"html-button-response","trial_index":40,"time_elapsed":344835,"internal_node_id":"0.0-4.0-1.16","subject_id":"5ea000d6e849b0000814e9d5","study_id":"6197b3f67c2b5cd3b6d9596a","session_id":"619bef05cff1940829474f76","condition":"contingent","relevant_dimensions":["antennae","wings"],"bee_group":{"antennae":"B","wings":"1","pattern":"X","legs":"X"},"bonus":1.1800000000000008},{"rt":1991.8999999985099,"stimulus":"bees-with-color/bee-A2SM.svg","response":0,"trial_type":"image-button-response","trial_index":41,"time_elapsed":346835,"internal_node_id":"0.0-4.0-0.17","subject_id":"5ea000d6e849b0000814e9d5","study_id":"6197b3f67c2b5cd3b6d9596a","session_id":"619bef05cff1940829474f76","condition":"contingent","relevant_dimensions":["antennae","wings"],"bee_group":{"antennae":"B","wings":"1","pattern":"X","legs":"X"},"action":"harvest","summary":"good-harvest","bonus":1.1800000000000008},{"rt":1698,"stimulus":"\n                    <p><b>Action: <em>harvest</em></b></p>\n                    <p>This is the bee that you just saw.</p>\n                    <img src=\"bees-with-color/bee-A2SM.svg\" width=\"200\">\n                    <p><span class=\"greenText\"><b>Successful harvest!</b></span><br>Your pay has increased by $0.02. Your bonus pay is now $0.50.</p>\n            ","response":0,"trial_type":"html-button-response","trial_index":42,"time_elapsed":348541,"internal_node_id":"0.0-4.0-1.17","subject_id":"5ea000d6e849b0000814e9d5","study_id":"6197b3f67c2b5cd3b6d9596a","session_id":"619bef05cff1940829474f76","condition":"contingent","relevant_dimensions":["antennae","wings"],"bee_group":{"antennae":"B","wings":"1","pattern":"X","legs":"X"},"bonus":1.1800000000000008},{"rt":1733.8000000044703,"stimulus":"bees-with-color/bee-B2SF.svg","response":0,"trial_type":"image-button-response","trial_index":43,"time_elapsed":350285,"internal_node_id":"0.0-4.0-0.18","subject_id":"5ea000d6e849b0000814e9d5","study_id":"6197b3f67c2b5cd3b6d9596a","session_id":"619bef05cff1940829474f76","condition":"contingent","relevant_dimensions":["antennae","wings"],"bee_group":{"antennae":"B","wings":"1","pattern":"X","legs":"X"},"action":"harvest","summary":"good-harvest","bonus":1.1800000000000008},{"rt":1640,"stimulus":"\n                    <p><b>Action: <em>harvest</em></b></p>\n                    <p>This is the bee that you just saw.</p>\n                    <img src=\"bees-with-color/bee-B2SF.svg\" width=\"200\">\n                    <p><span class=\"greenText\"><b>Successful harvest!</b></span><br>Your pay has increased by $0.02. Your bonus pay is now $0.52.</p>\n            ","response":0,"trial_type":"html-button-response","trial_index":44,"time_elapsed":351934,"internal_node_id":"0.0-4.0-1.18","subject_id":"5ea000d6e849b0000814e9d5","study_id":"6197b3f67c2b5cd3b6d9596a","session_id":"619bef05cff1940829474f76","condition":"contingent","relevant_dimensions":["antennae","wings"],"bee_group":{"antennae":"B","wings":"1","pattern":"X","legs":"X"},"bonus":1.1800000000000008},{"rt":3004.2000000029802,"stimulus":"bees-with-color/bee-A1SM.svg","response":1,"trial_type":"image-button-response","trial_index":45,"time_elapsed":354948,"internal_node_id":"0.0-4.0-0.19","subject_id":"5ea000d6e849b0000814e9d5","study_id":"6197b3f67c2b5cd3b6d9596a","session_id":"619bef05cff1940829474f76","condition":"contingent","relevant_dimensions":["antennae","wings"],"bee_group":{"antennae":"B","wings":"1","pattern":"X","legs":"X"},"action":"avoid","summary":"bad-avoid","bonus":1.1800000000000008},{"rt":1684.8000000044703,"stimulus":"\n                    <p><b>Action: <em>avoid</em></b></p>\n                    <p>This is the bee that you just saw.</p>\n                    <img src=\"bees-with-color/bee-A1SM.svg\" width=\"200\">\n                    <p><br>Your bonus pay is unchanged, and remains at $0.52.</p>\n            ","response":0,"trial_type":"html-button-response","trial_index":46,"time_elapsed":356642,"internal_node_id":"0.0-4.0-1.19","subject_id":"5ea000d6e849b0000814e9d5","study_id":"6197b3f67c2b5cd3b6d9596a","session_id":"619bef05cff1940829474f76","condition":"contingent","relevant_dimensions":["antennae","wings"],"bee_group":{"antennae":"B","wings":"1","pattern":"X","legs":"X"},"bonus":1.1800000000000008},{"rt":1711.1999999955297,"stimulus":"bees-with-color/bee-A2DF.svg","response":0,"trial_type":"image-button-response","trial_index":47,"time_elapsed":358361,"internal_node_id":"0.0-4.0-0.20","subject_id":"5ea000d6e849b0000814e9d5","study_id":"6197b3f67c2b5cd3b6d9596a","session_id":"619bef05cff1940829474f76","condition":"contingent","relevant_dimensions":["antennae","wings"],"bee_group":{"antennae":"B","wings":"1","pattern":"X","legs":"X"},"action":"harvest","summary":"good-harvest","bonus":1.1800000000000008},{"rt":1627.5,"stimulus":"\n                    <p><b>Action: <em>harvest</em></b></p>\n                    <p>This is the bee that you just saw.</p>\n                    <img src=\"bees-with-color/bee-A2DF.svg\" width=\"200\">\n                    <p><span class=\"greenText\"><b>Successful harvest!</b></span><br>Your pay has increased by $0.02. Your bonus pay is now $0.54.</p>\n            ","response":0,"trial_type":"html-button-response","trial_index":48,"time_elapsed":359995,"internal_node_id":"0.0-4.0-1.20","subject_id":"5ea000d6e849b0000814e9d5","study_id":"6197b3f67c2b5cd3b6d9596a","session_id":"619bef05cff1940829474f76","condition":"contingent","relevant_dimensions":["antennae","wings"],"bee_group":{"antennae":"B","wings":"1","pattern":"X","legs":"X"},"bonus":1.1800000000000008},{"rt":1821.5999999940395,"stimulus":"bees-with-color/bee-A1DF.svg","response":1,"trial_type":"image-button-response","trial_index":49,"time_elapsed":361826,"internal_node_id":"0.0-4.0-0.21","subject_id":"5ea000d6e849b0000814e9d5","study_id":"6197b3f67c2b5cd3b6d9596a","session_id":"619bef05cff1940829474f76","condition":"contingent","relevant_dimensions":["antennae","wings"],"bee_group":{"antennae":"B","wings":"1","pattern":"X","legs":"X"},"action":"avoid","summary":"bad-avoid","bonus":1.1800000000000008},{"rt":1740.1000000014901,"stimulus":"\n                    <p><b>Action: <em>avoid</em></b></p>\n                    <p>This is the bee that you just saw.</p>\n                    <img src=\"bees-with-color/bee-A1DF.svg\" width=\"200\">\n                    <p><br>Your bonus pay is unchanged, and remains at $0.54.</p>\n            ","response":0,"trial_type":"html-button-response","trial_index":50,"time_elapsed":363572,"internal_node_id":"0.0-4.0-1.21","subject_id":"5ea000d6e849b0000814e9d5","study_id":"6197b3f67c2b5cd3b6d9596a","session_id":"619bef05cff1940829474f76","condition":"contingent","relevant_dimensions":["antennae","wings"],"bee_group":{"antennae":"B","wings":"1","pattern":"X","legs":"X"},"bonus":1.1800000000000008},{"rt":1615.8000000044703,"stimulus":"bees-with-color/bee-A2DM.svg","response":0,"trial_type":"image-button-response","trial_index":51,"time_elapsed":365195,"internal_node_id":"0.0-4.0-0.22","subject_id":"5ea000d6e849b0000814e9d5","study_id":"6197b3f67c2b5cd3b6d9596a","session_id":"619bef05cff1940829474f76","condition":"contingent","relevant_dimensions":["antennae","wings"],"bee_group":{"antennae":"B","wings":"1","pattern":"X","legs":"X"},"action":"harvest","summary":"good-harvest","bonus":1.1800000000000008},{"rt":1664.2999999970198,"stimulus":"\n                    <p><b>Action: <em>harvest</em></b></p>\n                    <p>This is the bee that you just saw.</p>\n                    <img src=\"bees-with-color/bee-A2DM.svg\" width=\"200\">\n                    <p><span class=\"greenText\"><b>Successful harvest!</b></span><br>Your pay has increased by $0.02. Your bonus pay is now $0.56.</p>\n            ","response":0,"trial_type":"html-button-response","trial_index":52,"time_elapsed":366865,"internal_node_id":"0.0-4.0-1.22","subject_id":"5ea000d6e849b0000814e9d5","study_id":"6197b3f67c2b5cd3b6d9596a","session_id":"619bef05cff1940829474f76","condition":"contingent","relevant_dimensions":["antennae","wings"],"bee_group":{"antennae":"B","wings":"1","pattern":"X","legs":"X"},"bonus":1.1800000000000008},{"rt":3301.10000000149,"stimulus":"bees-with-color/bee-B1SF.svg","response":0,"trial_type":"image-button-response","trial_index":53,"time_elapsed":370172,"internal_node_id":"0.0-4.0-0.23","subject_id":"5ea000d6e849b0000814e9d5","study_id":"6197b3f67c2b5cd3b6d9596a","session_id":"619bef05cff1940829474f76","condition":"contingent","relevant_dimensions":["antennae","wings"],"bee_group":{"antennae":"B","wings":"1","pattern":"X","legs":"X"},"action":"harvest","summary":"bad-harvest","bonus":1.1800000000000008},{"rt":4249.80000000447,"stimulus":"\n                    <p><b>Action: <em>harvest</em></b></p>\n                    <p>This is the bee that you just saw.</p>\n                    <img src=\"bees-with-color/bee-B1SF.svg\" width=\"200\">\n                    <p><span class=\"redText\">Bad choice, the bee was angry.</span><br><b>You have been stung!</b><br>Your pay has been decreased by $0.10. Your bonus pay is now $0.46.</p>\n            ","response":0,"trial_type":"html-button-response","trial_index":54,"time_elapsed":374428,"internal_node_id":"0.0-4.0-1.23","subject_id":"5ea000d6e849b0000814e9d5","study_id":"6197b3f67c2b5cd3b6d9596a","session_id":"619bef05cff1940829474f76","condition":"contingent","relevant_dimensions":["antennae","wings"],"bee_group":{"antennae":"B","wings":"1","pattern":"X","legs":"X"},"bonus":1.1800000000000008},{"rt":1783.5999999940395,"stimulus":"bees-with-color/bee-B2DF.svg","response":0,"trial_type":"image-button-response","trial_index":55,"time_elapsed":376220,"internal_node_id":"0.0-4.0-0.24","subject_id":"5ea000d6e849b0000814e9d5","study_id":"6197b3f67c2b5cd3b6d9596a","session_id":"619bef05cff1940829474f76","condition":"contingent","relevant_dimensions":["antennae","wings"],"bee_group":{"antennae":"B","wings":"1","pattern":"X","legs":"X"},"action":"harvest","summary":"good-harvest","bonus":1.1800000000000008},{"rt":1470.2999999970198,"stimulus":"\n                    <p><b>Action: <em>harvest</em></b></p>\n                    <p>This is the bee that you just saw.</p>\n                    <img src=\"bees-with-color/bee-B2DF.svg\" width=\"200\">\n                    <p><span class=\"greenText\"><b>Successful harvest!</b></span><br>Your pay has increased by $0.02. Your bonus pay is now $0.48.</p>\n            ","response":0,"trial_type":"html-button-response","trial_index":56,"time_elapsed":377697,"internal_node_id":"0.0-4.0-1.24","subject_id":"5ea000d6e849b0000814e9d5","study_id":"6197b3f67c2b5cd3b6d9596a","session_id":"619bef05cff1940829474f76","condition":"contingent","relevant_dimensions":["antennae","wings"],"bee_group":{"antennae":"B","wings":"1","pattern":"X","legs":"X"},"bonus":1.1800000000000008},{"rt":1348.2999999970198,"stimulus":"bees-with-color/bee-A1SF.svg","response":1,"trial_type":"image-button-response","trial_index":57,"time_elapsed":379052,"internal_node_id":"0.0-4.0-0.25","subject_id":"5ea000d6e849b0000814e9d5","study_id":"6197b3f67c2b5cd3b6d9596a","session_id":"619bef05cff1940829474f76","condition":"contingent","relevant_dimensions":["antennae","wings"],"bee_group":{"antennae":"B","wings":"1","pattern":"X","legs":"X"},"action":"avoid","summary":"bad-avoid","bonus":1.1800000000000008},{"rt":1481.9000000059605,"stimulus":"\n                    <p><b>Action: <em>avoid</em></b></p>\n                    <p>This is the bee that you just saw.</p>\n                    <img src=\"bees-with-color/bee-A1SF.svg\" width=\"200\">\n                    <p><br>Your bonus pay is unchanged, and remains at $0.48.</p>\n            ","response":0,"trial_type":"html-button-response","trial_index":58,"time_elapsed":380541,"internal_node_id":"0.0-4.0-1.25","subject_id":"5ea000d6e849b0000814e9d5","study_id":"6197b3f67c2b5cd3b6d9596a","session_id":"619bef05cff1940829474f76","condition":"contingent","relevant_dimensions":["antennae","wings"],"bee_group":{"antennae":"B","wings":"1","pattern":"X","legs":"X"},"bonus":1.1800000000000008},{"rt":1455.6000000014901,"stimulus":"bees-with-color/bee-B2DM.svg","response":0,"trial_type":"image-button-response","trial_index":59,"time_elapsed":382005,"internal_node_id":"0.0-4.0-0.26","subject_id":"5ea000d6e849b0000814e9d5","study_id":"6197b3f67c2b5cd3b6d9596a","session_id":"619bef05cff1940829474f76","condition":"contingent","relevant_dimensions":["antennae","wings"],"bee_group":{"antennae":"B","wings":"1","pattern":"X","legs":"X"},"action":"harvest","summary":"good-harvest","bonus":1.1800000000000008},{"rt":1592,"stimulus":"\n                    <p><b>Action: <em>harvest</em></b></p>\n                    <p>This is the bee that you just saw.</p>\n                    <img src=\"bees-with-color/bee-B2DM.svg\" width=\"200\">\n                    <p><span class=\"greenText\"><b>Successful harvest!</b></span><br>Your pay has increased by $0.02. Your bonus pay is now $0.50.</p>\n            ","response":0,"trial_type":"html-button-response","trial_index":60,"time_elapsed":383596,"internal_node_id":"0.0-4.0-1.26","subject_id":"5ea000d6e849b0000814e9d5","study_id":"6197b3f67c2b5cd3b6d9596a","session_id":"619bef05cff1940829474f76","condition":"contingent","relevant_dimensions":["antennae","wings"],"bee_group":{"antennae":"B","wings":"1","pattern":"X","legs":"X"},"bonus":1.1800000000000008},{"rt":1383.2000000029802,"stimulus":"bees-with-color/bee-A1DM.svg","response":1,"trial_type":"image-button-response","trial_index":61,"time_elapsed":384987,"internal_node_id":"0.0-4.0-0.27","subject_id":"5ea000d6e849b0000814e9d5","study_id":"6197b3f67c2b5cd3b6d9596a","session_id":"619bef05cff1940829474f76","condition":"contingent","relevant_dimensions":["antennae","wings"],"bee_group":{"antennae":"B","wings":"1","pattern":"X","legs":"X"},"action":"avoid","summary":"bad-avoid","bonus":1.1800000000000008},{"rt":1676.8999999985099,"stimulus":"\n                    <p><b>Action: <em>avoid</em></b></p>\n                    <p>This is the bee that you just saw.</p>\n                    <img src=\"bees-with-color/bee-A1DM.svg\" width=\"200\">\n                    <p><br>Your bonus pay is unchanged, and remains at $0.50.</p>\n            ","response":0,"trial_type":"html-button-response","trial_index":62,"time_elapsed":386672,"internal_node_id":"0.0-4.0-1.27","subject_id":"5ea000d6e849b0000814e9d5","study_id":"6197b3f67c2b5cd3b6d9596a","session_id":"619bef05cff1940829474f76","condition":"contingent","relevant_dimensions":["antennae","wings"],"bee_group":{"antennae":"B","wings":"1","pattern":"X","legs":"X"},"bonus":1.1800000000000008},{"rt":1490.7000000029802,"stimulus":"bees-with-color/bee-A2SF.svg","response":0,"trial_type":"image-button-response","trial_index":63,"time_elapsed":388171,"internal_node_id":"0.0-4.0-0.28","subject_id":"5ea000d6e849b0000814e9d5","study_id":"6197b3f67c2b5cd3b6d9596a","session_id":"619bef05cff1940829474f76","condition":"contingent","relevant_dimensions":["antennae","wings"],"bee_group":{"antennae":"B","wings":"1","pattern":"X","legs":"X"},"action":"harvest","summary":"good-harvest","bonus":1.1800000000000008},{"rt":1530.6000000014901,"stimulus":"\n                    <p><b>Action: <em>harvest</em></b></p>\n                    <p>This is the bee that you just saw.</p>\n                    <img src=\"bees-with-color/bee-A2SF.svg\" width=\"200\">\n                    <p><span class=\"greenText\"><b>Successful harvest!</b></span><br>Your pay has increased by $0.02. Your bonus pay is now $0.52.</p>\n            ","response":0,"trial_type":"html-button-response","trial_index":64,"time_elapsed":389709,"internal_node_id":"0.0-4.0-1.28","subject_id":"5ea000d6e849b0000814e9d5","study_id":"6197b3f67c2b5cd3b6d9596a","session_id":"619bef05cff1940829474f76","condition":"contingent","relevant_dimensions":["antennae","wings"],"bee_group":{"antennae":"B","wings":"1","pattern":"X","legs":"X"},"bonus":1.1800000000000008},{"rt":1555.6999999955297,"stimulus":"bees-with-color/bee-B1SM.svg","response":1,"trial_type":"image-button-response","trial_index":65,"time_elapsed":391271,"internal_node_id":"0.0-4.0-0.29","subject_id":"5ea000d6e849b0000814e9d5","study_id":"6197b3f67c2b5cd3b6d9596a","session_id":"619bef05cff1940829474f76","condition":"contingent","relevant_dimensions":["antennae","wings"],"bee_group":{"antennae":"B","wings":"1","pattern":"X","legs":"X"},"action":"avoid","summary":"good-avoid","bonus":1.1800000000000008},{"rt":1517.2999999970198,"stimulus":"\n                    <p><b>Action: <em>avoid</em></b></p>\n                    <p>This is the bee that you just saw.</p>\n                    <img src=\"bees-with-color/bee-B1SM.svg\" width=\"200\">\n                    <p><br>Your bonus pay is unchanged, and remains at $0.52.</p>\n            ","response":0,"trial_type":"html-button-response","trial_index":66,"time_elapsed":392796,"internal_node_id":"0.0-4.0-1.29","subject_id":"5ea000d6e849b0000814e9d5","study_id":"6197b3f67c2b5cd3b6d9596a","session_id":"619bef05cff1940829474f76","condition":"contingent","relevant_dimensions":["antennae","wings"],"bee_group":{"antennae":"B","wings":"1","pattern":"X","legs":"X"},"bonus":1.1800000000000008},{"rt":1418.3999999985099,"stimulus":"bees-with-color/bee-B2SM.svg","response":0,"trial_type":"image-button-response","trial_index":67,"time_elapsed":394223,"internal_node_id":"0.0-4.0-0.30","subject_id":"5ea000d6e849b0000814e9d5","study_id":"6197b3f67c2b5cd3b6d9596a","session_id":"619bef05cff1940829474f76","condition":"contingent","relevant_dimensions":["antennae","wings"],"bee_group":{"antennae":"B","wings":"1","pattern":"X","legs":"X"},"action":"harvest","summary":"good-harvest","bonus":1.1800000000000008},{"rt":1348.3999999985099,"stimulus":"\n                    <p><b>Action: <em>harvest</em></b></p>\n                    <p>This is the bee that you just saw.</p>\n                    <img src=\"bees-with-color/bee-B2SM.svg\" width=\"200\">\n                    <p><span class=\"greenText\"><b>Successful harvest!</b></span><br>Your pay has increased by $0.02. Your bonus pay is now $0.54.</p>\n            ","response":0,"trial_type":"html-button-response","trial_index":68,"time_elapsed":395579,"internal_node_id":"0.0-4.0-1.30","subject_id":"5ea000d6e849b0000814e9d5","study_id":"6197b3f67c2b5cd3b6d9596a","session_id":"619bef05cff1940829474f76","condition":"contingent","relevant_dimensions":["antennae","wings"],"bee_group":{"antennae":"B","wings":"1","pattern":"X","legs":"X"},"bonus":1.1800000000000008},{"rt":1431.6000000014901,"stimulus":"bees-with-color/bee-B1DF.svg","response":1,"trial_type":"image-button-response","trial_index":69,"time_elapsed":397018,"internal_node_id":"0.0-4.0-0.31","subject_id":"5ea000d6e849b0000814e9d5","study_id":"6197b3f67c2b5cd3b6d9596a","session_id":"619bef05cff1940829474f76","condition":"contingent","relevant_dimensions":["antennae","wings"],"bee_group":{"antennae":"B","wings":"1","pattern":"X","legs":"X"},"action":"avoid","summary":"good-avoid","bonus":1.1800000000000008},{"rt":1505.8000000044703,"stimulus":"\n                    <p><b>Action: <em>avoid</em></b></p>\n                    <p>This is the bee that you just saw.</p>\n                    <img src=\"bees-with-color/bee-B1DF.svg\" width=\"200\">\n                    <p><br>Your bonus pay is unchanged, and remains at $0.54.</p>\n            ","response":0,"trial_type":"html-button-response","trial_index":70,"time_elapsed":398531,"internal_node_id":"0.0-4.0-1.31","subject_id":"5ea000d6e849b0000814e9d5","study_id":"6197b3f67c2b5cd3b6d9596a","session_id":"619bef05cff1940829474f76","condition":"contingent","relevant_dimensions":["antennae","wings"],"bee_group":{"antennae":"B","wings":"1","pattern":"X","legs":"X"},"bonus":1.1800000000000008},{"rt":2030.4000000059605,"stimulus":"bees-with-color/bee-A1DM.svg","response":1,"trial_type":"image-button-response","trial_index":71,"time_elapsed":400570,"internal_node_id":"0.0-4.0-0.32","subject_id":"5ea000d6e849b0000814e9d5","study_id":"6197b3f67c2b5cd3b6d9596a","session_id":"619bef05cff1940829474f76","condition":"contingent","relevant_dimensions":["antennae","wings"],"bee_group":{"antennae":"B","wings":"1","pattern":"X","legs":"X"},"action":"avoid","summary":"bad-avoid","bonus":1.1800000000000008},{"rt":1455.3999999985099,"stimulus":"\n                    <p><b>Action: <em>avoid</em></b></p>\n                    <p>This is the bee that you just saw.</p>\n                    <img src=\"bees-with-color/bee-A1DM.svg\" width=\"200\">\n                    <p><br>Your bonus pay is unchanged, and remains at $0.54.</p>\n            ","response":0,"trial_type":"html-button-response","trial_index":72,"time_elapsed":402033,"internal_node_id":"0.0-4.0-1.32","subject_id":"5ea000d6e849b0000814e9d5","study_id":"6197b3f67c2b5cd3b6d9596a","session_id":"619bef05cff1940829474f76","condition":"contingent","relevant_dimensions":["antennae","wings"],"bee_group":{"antennae":"B","wings":"1","pattern":"X","legs":"X"},"bonus":1.1800000000000008},{"rt":1676.2999999970198,"stimulus":"bees-with-color/bee-B2DF.svg","response":0,"trial_type":"image-button-response","trial_index":73,"time_elapsed":403716,"internal_node_id":"0.0-4.0-0.33","subject_id":"5ea000d6e849b0000814e9d5","study_id":"6197b3f67c2b5cd3b6d9596a","session_id":"619bef05cff1940829474f76","condition":"contingent","relevant_dimensions":["antennae","wings"],"bee_group":{"antennae":"B","wings":"1","pattern":"X","legs":"X"},"action":"harvest","summary":"good-harvest","bonus":1.1800000000000008},{"rt":1543.2000000029802,"stimulus":"\n                    <p><b>Action: <em>harvest</em></b></p>\n                    <p>This is the bee that you just saw.</p>\n                    <img src=\"bees-with-color/bee-B2DF.svg\" width=\"200\">\n                    <p><span class=\"greenText\"><b>Successful harvest!</b></span><br>Your pay has increased by $0.02. Your bonus pay is now $0.56.</p>\n            ","response":0,"trial_type":"html-button-response","trial_index":74,"time_elapsed":405266,"internal_node_id":"0.0-4.0-1.33","subject_id":"5ea000d6e849b0000814e9d5","study_id":"6197b3f67c2b5cd3b6d9596a","session_id":"619bef05cff1940829474f76","condition":"contingent","relevant_dimensions":["antennae","wings"],"bee_group":{"antennae":"B","wings":"1","pattern":"X","legs":"X"},"bonus":1.1800000000000008},{"rt":1589.1999999955297,"stimulus":"bees-with-color/bee-A2SF.svg","response":0,"trial_type":"image-button-response","trial_index":75,"time_elapsed":406865,"internal_node_id":"0.0-4.0-0.34","subject_id":"5ea000d6e849b0000814e9d5","study_id":"6197b3f67c2b5cd3b6d9596a","session_id":"619bef05cff1940829474f76","condition":"contingent","relevant_dimensions":["antennae","wings"],"bee_group":{"antennae":"B","wings":"1","pattern":"X","legs":"X"},"action":"harvest","summary":"good-harvest","bonus":1.1800000000000008},{"rt":1493.2999999970198,"stimulus":"\n                    <p><b>Action: <em>harvest</em></b></p>\n                    <p>This is the bee that you just saw.</p>\n                    <img src=\"bees-with-color/bee-A2SF.svg\" width=\"200\">\n                    <p><span class=\"greenText\"><b>Successful harvest!</b></span><br>Your pay has increased by $0.02. Your bonus pay is now $0.58.</p>\n            ","response":0,"trial_type":"html-button-response","trial_index":76,"time_elapsed":408366,"internal_node_id":"0.0-4.0-1.34","subject_id":"5ea000d6e849b0000814e9d5","study_id":"6197b3f67c2b5cd3b6d9596a","session_id":"619bef05cff1940829474f76","condition":"contingent","relevant_dimensions":["antennae","wings"],"bee_group":{"antennae":"B","wings":"1","pattern":"X","legs":"X"},"bonus":1.1800000000000008},{"rt":1580.3000000044703,"stimulus":"bees-with-color/bee-A2DF.svg","response":0,"trial_type":"image-button-response","trial_index":77,"time_elapsed":409954,"internal_node_id":"0.0-4.0-0.35","subject_id":"5ea000d6e849b0000814e9d5","study_id":"6197b3f67c2b5cd3b6d9596a","session_id":"619bef05cff1940829474f76","condition":"contingent","relevant_dimensions":["antennae","wings"],"bee_group":{"antennae":"B","wings":"1","pattern":"X","legs":"X"},"action":"harvest","summary":"good-harvest","bonus":1.1800000000000008},{"rt":1527.2000000029802,"stimulus":"\n                    <p><b>Action: <em>harvest</em></b></p>\n                    <p>This is the bee that you just saw.</p>\n                    <img src=\"bees-with-color/bee-A2DF.svg\" width=\"200\">\n                    <p><span class=\"greenText\"><b>Successful harvest!</b></span><br>Your pay has increased by $0.02. Your bonus pay is now $0.60.</p>\n            ","response":0,"trial_type":"html-button-response","trial_index":78,"time_elapsed":411489,"internal_node_id":"0.0-4.0-1.35","subject_id":"5ea000d6e849b0000814e9d5","study_id":"6197b3f67c2b5cd3b6d9596a","session_id":"619bef05cff1940829474f76","condition":"contingent","relevant_dimensions":["antennae","wings"],"bee_group":{"antennae":"B","wings":"1","pattern":"X","legs":"X"},"bonus":1.1800000000000008},{"rt":2003.5999999940395,"stimulus":"bees-with-color/bee-A2DM.svg","response":0,"trial_type":"image-button-response","trial_index":79,"time_elapsed":413503,"internal_node_id":"0.0-4.0-0.36","subject_id":"5ea000d6e849b0000814e9d5","study_id":"6197b3f67c2b5cd3b6d9596a","session_id":"619bef05cff1940829474f76","condition":"contingent","relevant_dimensions":["antennae","wings"],"bee_group":{"antennae":"B","wings":"1","pattern":"X","legs":"X"},"action":"harvest","summary":"good-harvest","bonus":1.1800000000000008},{"rt":1430.9000000059605,"stimulus":"\n                    <p><b>Action: <em>harvest</em></b></p>\n                    <p>This is the bee that you just saw.</p>\n                    <img src=\"bees-with-color/bee-A2DM.svg\" width=\"200\">\n                    <p><span class=\"greenText\"><b>Successful harvest!</b></span><br>Your pay has increased by $0.02. Your bonus pay is now $0.62.</p>\n            ","response":0,"trial_type":"html-button-response","trial_index":80,"time_elapsed":414942,"internal_node_id":"0.0-4.0-1.36","subject_id":"5ea000d6e849b0000814e9d5","study_id":"6197b3f67c2b5cd3b6d9596a","session_id":"619bef05cff1940829474f76","condition":"contingent","relevant_dimensions":["antennae","wings"],"bee_group":{"antennae":"B","wings":"1","pattern":"X","legs":"X"},"bonus":1.1800000000000008},{"rt":1478.4000000059605,"stimulus":"bees-with-color/bee-A2SM.svg","response":0,"trial_type":"image-button-response","trial_index":81,"time_elapsed":416431,"internal_node_id":"0.0-4.0-0.37","subject_id":"5ea000d6e849b0000814e9d5","study_id":"6197b3f67c2b5cd3b6d9596a","session_id":"619bef05cff1940829474f76","condition":"contingent","relevant_dimensions":["antennae","wings"],"bee_group":{"antennae":"B","wings":"1","pattern":"X","legs":"X"},"action":"harvest","summary":"good-harvest","bonus":1.1800000000000008},{"rt":1589.3000000044703,"stimulus":"\n                    <p><b>Action: <em>harvest</em></b></p>\n                    <p>This is the bee that you just saw.</p>\n                    <img src=\"bees-with-color/bee-A2SM.svg\" width=\"200\">\n                    <p><span class=\"greenText\"><b>Successful harvest!</b></span><br>Your pay has increased by $0.02. Your bonus pay is now $0.64.</p>\n            ","response":0,"trial_type":"html-button-response","trial_index":82,"time_elapsed":418029,"internal_node_id":"0.0-4.0-1.37","subject_id":"5ea000d6e849b0000814e9d5","study_id":"6197b3f67c2b5cd3b6d9596a","session_id":"619bef05cff1940829474f76","condition":"contingent","relevant_dimensions":["antennae","wings"],"bee_group":{"antennae":"B","wings":"1","pattern":"X","legs":"X"},"bonus":1.1800000000000008},{"rt":1382.8000000044703,"stimulus":"bees-with-color/bee-B1SF.svg","response":1,"trial_type":"image-button-response","trial_index":83,"time_elapsed":419419,"internal_node_id":"0.0-4.0-0.38","subject_id":"5ea000d6e849b0000814e9d5","study_id":"6197b3f67c2b5cd3b6d9596a","session_id":"619bef05cff1940829474f76","condition":"contingent","relevant_dimensions":["antennae","wings"],"bee_group":{"antennae":"B","wings":"1","pattern":"X","legs":"X"},"action":"avoid","summary":"good-avoid","bonus":1.1800000000000008},{"rt":1845.3999999985099,"stimulus":"\n                    <p><b>Action: <em>avoid</em></b></p>\n                    <p>This is the bee that you just saw.</p>\n                    <img src=\"bees-with-color/bee-B1SF.svg\" width=\"200\">\n                    <p><br>Your bonus pay is unchanged, and remains at $0.64.</p>\n            ","response":0,"trial_type":"html-button-response","trial_index":84,"time_elapsed":421273,"internal_node_id":"0.0-4.0-1.38","subject_id":"5ea000d6e849b0000814e9d5","study_id":"6197b3f67c2b5cd3b6d9596a","session_id":"619bef05cff1940829474f76","condition":"contingent","relevant_dimensions":["antennae","wings"],"bee_group":{"antennae":"B","wings":"1","pattern":"X","legs":"X"},"bonus":1.1800000000000008},{"rt":1345.6000000014901,"stimulus":"bees-with-color/bee-B1SM.svg","response":1,"trial_type":"image-button-response","trial_index":85,"time_elapsed":422628,"internal_node_id":"0.0-4.0-0.39","subject_id":"5ea000d6e849b0000814e9d5","study_id":"6197b3f67c2b5cd3b6d9596a","session_id":"619bef05cff1940829474f76","condition":"contingent","relevant_dimensions":["antennae","wings"],"bee_group":{"antennae":"B","wings":"1","pattern":"X","legs":"X"},"action":"avoid","summary":"good-avoid","bonus":1.1800000000000008},{"rt":1504.9000000059605,"stimulus":"\n                    <p><b>Action: <em>avoid</em></b></p>\n                    <p>This is the bee that you just saw.</p>\n                    <img src=\"bees-with-color/bee-B1SM.svg\" width=\"200\">\n                    <p><br>Your bonus pay is unchanged, and remains at $0.64.</p>\n            ","response":0,"trial_type":"html-button-response","trial_index":86,"time_elapsed":424140,"internal_node_id":"0.0-4.0-1.39","subject_id":"5ea000d6e849b0000814e9d5","study_id":"6197b3f67c2b5cd3b6d9596a","session_id":"619bef05cff1940829474f76","condition":"contingent","relevant_dimensions":["antennae","wings"],"bee_group":{"antennae":"B","wings":"1","pattern":"X","legs":"X"},"bonus":1.1800000000000008},{"rt":1631.8000000044703,"stimulus":"bees-with-color/bee-B2SM.svg","response":0,"trial_type":"image-button-response","trial_index":87,"time_elapsed":425777,"internal_node_id":"0.0-4.0-0.40","subject_id":"5ea000d6e849b0000814e9d5","study_id":"6197b3f67c2b5cd3b6d9596a","session_id":"619bef05cff1940829474f76","condition":"contingent","relevant_dimensions":["antennae","wings"],"bee_group":{"antennae":"B","wings":"1","pattern":"X","legs":"X"},"action":"harvest","summary":"good-harvest","bonus":1.1800000000000008},{"rt":1433.1000000014901,"stimulus":"\n                    <p><b>Action: <em>harvest</em></b></p>\n                    <p>This is the bee that you just saw.</p>\n                    <img src=\"bees-with-color/bee-B2SM.svg\" width=\"200\">\n                    <p><span class=\"greenText\"><b>Successful harvest!</b></span><br>Your pay has increased by $0.02. Your bonus pay is now $0.66.</p>\n            ","response":0,"trial_type":"html-button-response","trial_index":88,"time_elapsed":427214,"internal_node_id":"0.0-4.0-1.40","subject_id":"5ea000d6e849b0000814e9d5","study_id":"6197b3f67c2b5cd3b6d9596a","session_id":"619bef05cff1940829474f76","condition":"contingent","relevant_dimensions":["antennae","wings"],"bee_group":{"antennae":"B","wings":"1","pattern":"X","legs":"X"},"bonus":1.1800000000000008},{"rt":1396.3999999985099,"stimulus":"bees-with-color/bee-B1DM.svg","response":1,"trial_type":"image-button-response","trial_index":89,"time_elapsed":428616,"internal_node_id":"0.0-4.0-0.41","subject_id":"5ea000d6e849b0000814e9d5","study_id":"6197b3f67c2b5cd3b6d9596a","session_id":"619bef05cff1940829474f76","condition":"contingent","relevant_dimensions":["antennae","wings"],"bee_group":{"antennae":"B","wings":"1","pattern":"X","legs":"X"},"action":"avoid","summary":"good-avoid","bonus":1.1800000000000008},{"rt":1657.3000000044703,"stimulus":"\n                    <p><b>Action: <em>avoid</em></b></p>\n                    <p>This is the bee that you just saw.</p>\n                    <img src=\"bees-with-color/bee-B1DM.svg\" width=\"200\">\n                    <p><br>Your bonus pay is unchanged, and remains at $0.66.</p>\n            ","response":0,"trial_type":"html-button-response","trial_index":90,"time_elapsed":430280,"internal_node_id":"0.0-4.0-1.41","subject_id":"5ea000d6e849b0000814e9d5","study_id":"6197b3f67c2b5cd3b6d9596a","session_id":"619bef05cff1940829474f76","condition":"contingent","relevant_dimensions":["antennae","wings"],"bee_group":{"antennae":"B","wings":"1","pattern":"X","legs":"X"},"bonus":1.1800000000000008},{"rt":1529.6999999955297,"stimulus":"bees-with-color/bee-B2SF.svg","response":0,"trial_type":"image-button-response","trial_index":91,"time_elapsed":431815,"internal_node_id":"0.0-4.0-0.42","subject_id":"5ea000d6e849b0000814e9d5","study_id":"6197b3f67c2b5cd3b6d9596a","session_id":"619bef05cff1940829474f76","condition":"contingent","relevant_dimensions":["antennae","wings"],"bee_group":{"antennae":"B","wings":"1","pattern":"X","legs":"X"},"action":"harvest","summary":"good-harvest","bonus":1.1800000000000008},{"rt":1495.2999999970198,"stimulus":"\n                    <p><b>Action: <em>harvest</em></b></p>\n                    <p>This is the bee that you just saw.</p>\n                    <img src=\"bees-with-color/bee-B2SF.svg\" width=\"200\">\n                    <p><span class=\"greenText\"><b>Successful harvest!</b></span><br>Your pay has increased by $0.02. Your bonus pay is now $0.68.</p>\n            ","response":0,"trial_type":"html-button-response","trial_index":92,"time_elapsed":433316,"internal_node_id":"0.0-4.0-1.42","subject_id":"5ea000d6e849b0000814e9d5","study_id":"6197b3f67c2b5cd3b6d9596a","session_id":"619bef05cff1940829474f76","condition":"contingent","relevant_dimensions":["antennae","wings"],"bee_group":{"antennae":"B","wings":"1","pattern":"X","legs":"X"},"bonus":1.1800000000000008},{"rt":1421.8000000044703,"stimulus":"bees-with-color/bee-A1DF.svg","response":1,"trial_type":"image-button-response","trial_index":93,"time_elapsed":434746,"internal_node_id":"0.0-4.0-0.43","subject_id":"5ea000d6e849b0000814e9d5","study_id":"6197b3f67c2b5cd3b6d9596a","session_id":"619bef05cff1940829474f76","condition":"contingent","relevant_dimensions":["antennae","wings"],"bee_group":{"antennae":"B","wings":"1","pattern":"X","legs":"X"},"action":"avoid","summary":"bad-avoid","bonus":1.1800000000000008},{"rt":1383.7000000029802,"stimulus":"\n                    <p><b>Action: <em>avoid</em></b></p>\n                    <p>This is the bee that you just saw.</p>\n                    <img src=\"bees-with-color/bee-A1DF.svg\" width=\"200\">\n                    <p><br>Your bonus pay is unchanged, and remains at $0.68.</p>\n            ","response":0,"trial_type":"html-button-response","trial_index":94,"time_elapsed":436136,"internal_node_id":"0.0-4.0-1.43","subject_id":"5ea000d6e849b0000814e9d5","study_id":"6197b3f67c2b5cd3b6d9596a","session_id":"619bef05cff1940829474f76","condition":"contingent","relevant_dimensions":["antennae","wings"],"bee_group":{"antennae":"B","wings":"1","pattern":"X","legs":"X"},"bonus":1.1800000000000008},{"rt":1336.5,"stimulus":"bees-with-color/bee-A1SM.svg","response":1,"trial_type":"image-button-response","trial_index":95,"time_elapsed":437478,"internal_node_id":"0.0-4.0-0.44","subject_id":"5ea000d6e849b0000814e9d5","study_id":"6197b3f67c2b5cd3b6d9596a","session_id":"619bef05cff1940829474f76","condition":"contingent","relevant_dimensions":["antennae","wings"],"bee_group":{"antennae":"B","wings":"1","pattern":"X","legs":"X"},"action":"avoid","summary":"bad-avoid","bonus":1.1800000000000008},{"rt":1383.8999999985099,"stimulus":"\n                    <p><b>Action: <em>avoid</em></b></p>\n                    <p>This is the bee that you just saw.</p>\n                    <img src=\"bees-with-color/bee-A1SM.svg\" width=\"200\">\n                    <p><br>Your bonus pay is unchanged, and remains at $0.68.</p>\n            ","response":0,"trial_type":"html-button-response","trial_index":96,"time_elapsed":438868,"internal_node_id":"0.0-4.0-1.44","subject_id":"5ea000d6e849b0000814e9d5","study_id":"6197b3f67c2b5cd3b6d9596a","session_id":"619bef05cff1940829474f76","condition":"contingent","relevant_dimensions":["antennae","wings"],"bee_group":{"antennae":"B","wings":"1","pattern":"X","legs":"X"},"bonus":1.1800000000000008},{"rt":1457.0999999940395,"stimulus":"bees-with-color/bee-A1SF.svg","response":1,"trial_type":"image-button-response","trial_index":97,"time_elapsed":440332,"internal_node_id":"0.0-4.0-0.45","subject_id":"5ea000d6e849b0000814e9d5","study_id":"6197b3f67c2b5cd3b6d9596a","session_id":"619bef05cff1940829474f76","condition":"contingent","relevant_dimensions":["antennae","wings"],"bee_group":{"antennae":"B","wings":"1","pattern":"X","legs":"X"},"action":"avoid","summary":"bad-avoid","bonus":1.1800000000000008},{"rt":1654.6000000014901,"stimulus":"\n                    <p><b>Action: <em>avoid</em></b></p>\n                    <p>This is the bee that you just saw.</p>\n                    <img src=\"bees-with-color/bee-A1SF.svg\" width=\"200\">\n                    <p><br>Your bonus pay is unchanged, and remains at $0.68.</p>\n            ","response":0,"trial_type":"html-button-response","trial_index":98,"time_elapsed":441993,"internal_node_id":"0.0-4.0-1.45","subject_id":"5ea000d6e849b0000814e9d5","study_id":"6197b3f67c2b5cd3b6d9596a","session_id":"619bef05cff1940829474f76","condition":"contingent","relevant_dimensions":["antennae","wings"],"bee_group":{"antennae":"B","wings":"1","pattern":"X","legs":"X"},"bonus":1.1800000000000008},{"rt":1580.7000000029802,"stimulus":"bees-with-color/bee-B1DF.svg","response":1,"trial_type":"image-button-response","trial_index":99,"time_elapsed":443586,"internal_node_id":"0.0-4.0-0.46","subject_id":"5ea000d6e849b0000814e9d5","study_id":"6197b3f67c2b5cd3b6d9596a","session_id":"619bef05cff1940829474f76","condition":"contingent","relevant_dimensions":["antennae","wings"],"bee_group":{"antennae":"B","wings":"1","pattern":"X","legs":"X"},"action":"avoid","summary":"good-avoid","bonus":1.1800000000000008},{"rt":1296.3999999985099,"stimulus":"\n                    <p><b>Action: <em>avoid</em></b></p>\n                    <p>This is the bee that you just saw.</p>\n                    <img src=\"bees-with-color/bee-B1DF.svg\" width=\"200\">\n                    <p><br>Your bonus pay is unchanged, and remains at $0.68.</p>\n            ","response":0,"trial_type":"html-button-response","trial_index":100,"time_elapsed":444889,"internal_node_id":"0.0-4.0-1.46","subject_id":"5ea000d6e849b0000814e9d5","study_id":"6197b3f67c2b5cd3b6d9596a","session_id":"619bef05cff1940829474f76","condition":"contingent","relevant_dimensions":["antennae","wings"],"bee_group":{"antennae":"B","wings":"1","pattern":"X","legs":"X"},"bonus":1.1800000000000008},{"rt":1407.1999999955297,"stimulus":"bees-with-color/bee-B2DM.svg","response":0,"trial_type":"image-button-response","trial_index":101,"time_elapsed":446305,"internal_node_id":"0.0-4.0-0.47","subject_id":"5ea000d6e849b0000814e9d5","study_id":"6197b3f67c2b5cd3b6d9596a","session_id":"619bef05cff1940829474f76","condition":"contingent","relevant_dimensions":["antennae","wings"],"bee_group":{"antennae":"B","wings":"1","pattern":"X","legs":"X"},"action":"harvest","summary":"good-harvest","bonus":1.1800000000000008},{"rt":1422,"stimulus":"\n                    <p><b>Action: <em>harvest</em></b></p>\n                    <p>This is the bee that you just saw.</p>\n                    <img src=\"bees-with-color/bee-B2DM.svg\" width=\"200\">\n                    <p><span class=\"greenText\"><b>Successful harvest!</b></span><br>Your pay has increased by $0.02. Your bonus pay is now $0.70.</p>\n            ","response":0,"trial_type":"html-button-response","trial_index":102,"time_elapsed":447733,"internal_node_id":"0.0-4.0-1.47","subject_id":"5ea000d6e849b0000814e9d5","study_id":"6197b3f67c2b5cd3b6d9596a","session_id":"619bef05cff1940829474f76","condition":"contingent","relevant_dimensions":["antennae","wings"],"bee_group":{"antennae":"B","wings":"1","pattern":"X","legs":"X"},"bonus":1.1800000000000008},{"rt":1494.8999999985099,"stimulus":"bees-with-color/bee-A2SF.svg","response":0,"trial_type":"image-button-response","trial_index":103,"time_elapsed":449234,"internal_node_id":"0.0-4.0-0.48","subject_id":"5ea000d6e849b0000814e9d5","study_id":"6197b3f67c2b5cd3b6d9596a","session_id":"619bef05cff1940829474f76","condition":"contingent","relevant_dimensions":["antennae","wings"],"bee_group":{"antennae":"B","wings":"1","pattern":"X","legs":"X"},"action":"harvest","summary":"good-harvest","bonus":1.1800000000000008},{"rt":1531.6000000014901,"stimulus":"\n                    <p><b>Action: <em>harvest</em></b></p>\n                    <p>This is the bee that you just saw.</p>\n                    <img src=\"bees-with-color/bee-A2SF.svg\" width=\"200\">\n                    <p><span class=\"greenText\"><b>Successful harvest!</b></span><br>Your pay has increased by $0.02. Your bonus pay is now $0.72.</p>\n            ","response":0,"trial_type":"html-button-response","trial_index":104,"time_elapsed":450772,"internal_node_id":"0.0-4.0-1.48","subject_id":"5ea000d6e849b0000814e9d5","study_id":"6197b3f67c2b5cd3b6d9596a","session_id":"619bef05cff1940829474f76","condition":"contingent","relevant_dimensions":["antennae","wings"],"bee_group":{"antennae":"B","wings":"1","pattern":"X","legs":"X"},"bonus":1.1800000000000008},{"rt":1455.1000000014901,"stimulus":"bees-with-color/bee-A1SM.svg","response":1,"trial_type":"image-button-response","trial_index":105,"time_elapsed":452235,"internal_node_id":"0.0-4.0-0.49","subject_id":"5ea000d6e849b0000814e9d5","study_id":"6197b3f67c2b5cd3b6d9596a","session_id":"619bef05cff1940829474f76","condition":"contingent","relevant_dimensions":["antennae","wings"],"bee_group":{"antennae":"B","wings":"1","pattern":"X","legs":"X"},"action":"avoid","summary":"bad-avoid","bonus":1.1800000000000008},{"rt":1555,"stimulus":"\n                    <p><b>Action: <em>avoid</em></b></p>\n                    <p>This is the bee that you just saw.</p>\n                    <img src=\"bees-with-color/bee-A1SM.svg\" width=\"200\">\n                    <p><br>Your bonus pay is unchanged, and remains at $0.72.</p>\n            ","response":0,"trial_type":"html-button-response","trial_index":106,"time_elapsed":453798,"internal_node_id":"0.0-4.0-1.49","subject_id":"5ea000d6e849b0000814e9d5","study_id":"6197b3f67c2b5cd3b6d9596a","session_id":"619bef05cff1940829474f76","condition":"contingent","relevant_dimensions":["antennae","wings"],"bee_group":{"antennae":"B","wings":"1","pattern":"X","legs":"X"},"bonus":1.1800000000000008},{"rt":1421,"stimulus":"bees-with-color/bee-A1SF.svg","response":1,"trial_type":"image-button-response","trial_index":107,"time_elapsed":455226,"internal_node_id":"0.0-4.0-0.50","subject_id":"5ea000d6e849b0000814e9d5","study_id":"6197b3f67c2b5cd3b6d9596a","session_id":"619bef05cff1940829474f76","condition":"contingent","relevant_dimensions":["antennae","wings"],"bee_group":{"antennae":"B","wings":"1","pattern":"X","legs":"X"},"action":"avoid","summary":"bad-avoid","bonus":1.1800000000000008},{"rt":1395.5999999940395,"stimulus":"\n                    <p><b>Action: <em>avoid</em></b></p>\n                    <p>This is the bee that you just saw.</p>\n                    <img src=\"bees-with-color/bee-A1SF.svg\" width=\"200\">\n                    <p><br>Your bonus pay is unchanged, and remains at $0.72.</p>\n            ","response":0,"trial_type":"html-button-response","trial_index":108,"time_elapsed":456629,"internal_node_id":"0.0-4.0-1.50","subject_id":"5ea000d6e849b0000814e9d5","study_id":"6197b3f67c2b5cd3b6d9596a","session_id":"619bef05cff1940829474f76","condition":"contingent","relevant_dimensions":["antennae","wings"],"bee_group":{"antennae":"B","wings":"1","pattern":"X","legs":"X"},"bonus":1.1800000000000008},{"rt":1726.3999999985099,"stimulus":"bees-with-color/bee-B2SM.svg","response":0,"trial_type":"image-button-response","trial_index":109,"time_elapsed":458361,"internal_node_id":"0.0-4.0-0.51","subject_id":"5ea000d6e849b0000814e9d5","study_id":"6197b3f67c2b5cd3b6d9596a","session_id":"619bef05cff1940829474f76","condition":"contingent","relevant_dimensions":["antennae","wings"],"bee_group":{"antennae":"B","wings":"1","pattern":"X","legs":"X"},"action":"harvest","summary":"good-harvest","bonus":1.1800000000000008},{"rt":1540.7000000029802,"stimulus":"\n                    <p><b>Action: <em>harvest</em></b></p>\n                    <p>This is the bee that you just saw.</p>\n                    <img src=\"bees-with-color/bee-B2SM.svg\" width=\"200\">\n                    <p><span class=\"greenText\"><b>Successful harvest!</b></span><br>Your pay has increased by $0.02. Your bonus pay is now $0.74.</p>\n            ","response":0,"trial_type":"html-button-response","trial_index":110,"time_elapsed":459909,"internal_node_id":"0.0-4.0-1.51","subject_id":"5ea000d6e849b0000814e9d5","study_id":"6197b3f67c2b5cd3b6d9596a","session_id":"619bef05cff1940829474f76","condition":"contingent","relevant_dimensions":["antennae","wings"],"bee_group":{"antennae":"B","wings":"1","pattern":"X","legs":"X"},"bonus":1.1800000000000008},{"rt":1338.3999999985099,"stimulus":"bees-with-color/bee-B1DM.svg","response":1,"trial_type":"image-button-response","trial_index":111,"time_elapsed":461254,"internal_node_id":"0.0-4.0-0.52","subject_id":"5ea000d6e849b0000814e9d5","study_id":"6197b3f67c2b5cd3b6d9596a","session_id":"619bef05cff1940829474f76","condition":"contingent","relevant_dimensions":["antennae","wings"],"bee_group":{"antennae":"B","wings":"1","pattern":"X","legs":"X"},"action":"avoid","summary":"good-avoid","bonus":1.1800000000000008},{"rt":1333.1999999955297,"stimulus":"\n                    <p><b>Action: <em>avoid</em></b></p>\n                    <p>This is the bee that you just saw.</p>\n                    <img src=\"bees-with-color/bee-B1DM.svg\" width=\"200\">\n                    <p><br>Your bonus pay is unchanged, and remains at $0.74.</p>\n            ","response":0,"trial_type":"html-button-response","trial_index":112,"time_elapsed":462595,"internal_node_id":"0.0-4.0-1.52","subject_id":"5ea000d6e849b0000814e9d5","study_id":"6197b3f67c2b5cd3b6d9596a","session_id":"619bef05cff1940829474f76","condition":"contingent","relevant_dimensions":["antennae","wings"],"bee_group":{"antennae":"B","wings":"1","pattern":"X","legs":"X"},"bonus":1.1800000000000008},{"rt":1700.7999999970198,"stimulus":"bees-with-color/bee-B1DF.svg","response":1,"trial_type":"image-button-response","trial_index":113,"time_elapsed":464303,"internal_node_id":"0.0-4.0-0.53","subject_id":"5ea000d6e849b0000814e9d5","study_id":"6197b3f67c2b5cd3b6d9596a","session_id":"619bef05cff1940829474f76","condition":"contingent","relevant_dimensions":["antennae","wings"],"bee_group":{"antennae":"B","wings":"1","pattern":"X","legs":"X"},"action":"avoid","summary":"good-avoid","bonus":1.1800000000000008},{"rt":1504.6999999955297,"stimulus":"\n                    <p><b>Action: <em>avoid</em></b></p>\n                    <p>This is the bee that you just saw.</p>\n                    <img src=\"bees-with-color/bee-B1DF.svg\" width=\"200\">\n                    <p><br>Your bonus pay is unchanged, and remains at $0.74.</p>\n            ","response":0,"trial_type":"html-button-response","trial_index":114,"time_elapsed":465816,"internal_node_id":"0.0-4.0-1.53","subject_id":"5ea000d6e849b0000814e9d5","study_id":"6197b3f67c2b5cd3b6d9596a","session_id":"619bef05cff1940829474f76","condition":"contingent","relevant_dimensions":["antennae","wings"],"bee_group":{"antennae":"B","wings":"1","pattern":"X","legs":"X"},"bonus":1.1800000000000008},{"rt":1747.6999999955297,"stimulus":"bees-with-color/bee-A2DM.svg","response":0,"trial_type":"image-button-response","trial_index":115,"time_elapsed":467574,"internal_node_id":"0.0-4.0-0.54","subject_id":"5ea000d6e849b0000814e9d5","study_id":"6197b3f67c2b5cd3b6d9596a","session_id":"619bef05cff1940829474f76","condition":"contingent","relevant_dimensions":["antennae","wings"],"bee_group":{"antennae":"B","wings":"1","pattern":"X","legs":"X"},"action":"harvest","summary":"good-harvest","bonus":1.1800000000000008},{"rt":1639.5,"stimulus":"\n                    <p><b>Action: <em>harvest</em></b></p>\n                    <p>This is the bee that you just saw.</p>\n                    <img src=\"bees-with-color/bee-A2DM.svg\" width=\"200\">\n                    <p><span class=\"greenText\"><b>Successful harvest!</b></span><br>Your pay has increased by $0.02. Your bonus pay is now $0.76.</p>\n            ","response":0,"trial_type":"html-button-response","trial_index":116,"time_elapsed":469221,"internal_node_id":"0.0-4.0-1.54","subject_id":"5ea000d6e849b0000814e9d5","study_id":"6197b3f67c2b5cd3b6d9596a","session_id":"619bef05cff1940829474f76","condition":"contingent","relevant_dimensions":["antennae","wings"],"bee_group":{"antennae":"B","wings":"1","pattern":"X","legs":"X"},"bonus":1.1800000000000008},{"rt":1442.3999999985099,"stimulus":"bees-with-color/bee-A1DM.svg","response":1,"trial_type":"image-button-response","trial_index":117,"time_elapsed":470673,"internal_node_id":"0.0-4.0-0.55","subject_id":"5ea000d6e849b0000814e9d5","study_id":"6197b3f67c2b5cd3b6d9596a","session_id":"619bef05cff1940829474f76","condition":"contingent","relevant_dimensions":["antennae","wings"],"bee_group":{"antennae":"B","wings":"1","pattern":"X","legs":"X"},"action":"avoid","summary":"bad-avoid","bonus":1.1800000000000008},{"rt":1688.8999999985099,"stimulus":"\n                    <p><b>Action: <em>avoid</em></b></p>\n                    <p>This is the bee that you just saw.</p>\n                    <img src=\"bees-with-color/bee-A1DM.svg\" width=\"200\">\n                    <p><br>Your bonus pay is unchanged, and remains at $0.76.</p>\n            ","response":0,"trial_type":"html-button-response","trial_index":118,"time_elapsed":472369,"internal_node_id":"0.0-4.0-1.55","subject_id":"5ea000d6e849b0000814e9d5","study_id":"6197b3f67c2b5cd3b6d9596a","session_id":"619bef05cff1940829474f76","condition":"contingent","relevant_dimensions":["antennae","wings"],"bee_group":{"antennae":"B","wings":"1","pattern":"X","legs":"X"},"bonus":1.1800000000000008},{"rt":1469.1999999955297,"stimulus":"bees-with-color/bee-A1DF.svg","response":1,"trial_type":"image-button-response","trial_index":119,"time_elapsed":473845,"internal_node_id":"0.0-4.0-0.56","subject_id":"5ea000d6e849b0000814e9d5","study_id":"6197b3f67c2b5cd3b6d9596a","session_id":"619bef05cff1940829474f76","condition":"contingent","relevant_dimensions":["antennae","wings"],"bee_group":{"antennae":"B","wings":"1","pattern":"X","legs":"X"},"action":"avoid","summary":"bad-avoid","bonus":1.1800000000000008},{"rt":1869.5,"stimulus":"\n                    <p><b>Action: <em>avoid</em></b></p>\n                    <p>This is the bee that you just saw.</p>\n                    <img src=\"bees-with-color/bee-A1DF.svg\" width=\"200\">\n                    <p><br>Your bonus pay is unchanged, and remains at $0.76.</p>\n            ","response":0,"trial_type":"html-button-response","trial_index":120,"time_elapsed":475723,"internal_node_id":"0.0-4.0-1.56","subject_id":"5ea000d6e849b0000814e9d5","study_id":"6197b3f67c2b5cd3b6d9596a","session_id":"619bef05cff1940829474f76","condition":"contingent","relevant_dimensions":["antennae","wings"],"bee_group":{"antennae":"B","wings":"1","pattern":"X","legs":"X"},"bonus":1.1800000000000008},{"rt":1406.7999999970198,"stimulus":"bees-with-color/bee-A2DF.svg","response":0,"trial_type":"image-button-response","trial_index":121,"time_elapsed":477139,"internal_node_id":"0.0-4.0-0.57","subject_id":"5ea000d6e849b0000814e9d5","study_id":"6197b3f67c2b5cd3b6d9596a","session_id":"619bef05cff1940829474f76","condition":"contingent","relevant_dimensions":["antennae","wings"],"bee_group":{"antennae":"B","wings":"1","pattern":"X","legs":"X"},"action":"harvest","summary":"good-harvest","bonus":1.1800000000000008},{"rt":1433.1999999955297,"stimulus":"\n                    <p><b>Action: <em>harvest</em></b></p>\n                    <p>This is the bee that you just saw.</p>\n                    <img src=\"bees-with-color/bee-A2DF.svg\" width=\"200\">\n                    <p><span class=\"greenText\"><b>Successful harvest!</b></span><br>Your pay has increased by $0.02. Your bonus pay is now $0.78.</p>\n            ","response":0,"trial_type":"html-button-response","trial_index":122,"time_elapsed":478580,"internal_node_id":"0.0-4.0-1.57","subject_id":"5ea000d6e849b0000814e9d5","study_id":"6197b3f67c2b5cd3b6d9596a","session_id":"619bef05cff1940829474f76","condition":"contingent","relevant_dimensions":["antennae","wings"],"bee_group":{"antennae":"B","wings":"1","pattern":"X","legs":"X"},"bonus":1.1800000000000008},{"rt":1478.6000000014901,"stimulus":"bees-with-color/bee-B2SF.svg","response":0,"trial_type":"image-button-response","trial_index":123,"time_elapsed":480066,"internal_node_id":"0.0-4.0-0.58","subject_id":"5ea000d6e849b0000814e9d5","study_id":"6197b3f67c2b5cd3b6d9596a","session_id":"619bef05cff1940829474f76","condition":"contingent","relevant_dimensions":["antennae","wings"],"bee_group":{"antennae":"B","wings":"1","pattern":"X","legs":"X"},"action":"harvest","summary":"good-harvest","bonus":1.1800000000000008},{"rt":1495.2999999970198,"stimulus":"\n                    <p><b>Action: <em>harvest</em></b></p>\n                    <p>This is the bee that you just saw.</p>\n                    <img src=\"bees-with-color/bee-B2SF.svg\" width=\"200\">\n                    <p><span class=\"greenText\"><b>Successful harvest!</b></span><br>Your pay has increased by $0.02. Your bonus pay is now $0.80.</p>\n            ","response":0,"trial_type":"html-button-response","trial_index":124,"time_elapsed":481568,"internal_node_id":"0.0-4.0-1.58","subject_id":"5ea000d6e849b0000814e9d5","study_id":"6197b3f67c2b5cd3b6d9596a","session_id":"619bef05cff1940829474f76","condition":"contingent","relevant_dimensions":["antennae","wings"],"bee_group":{"antennae":"B","wings":"1","pattern":"X","legs":"X"},"bonus":1.1800000000000008},{"rt":1416.1000000014901,"stimulus":"bees-with-color/bee-B1SM.svg","response":1,"trial_type":"image-button-response","trial_index":125,"time_elapsed":482995,"internal_node_id":"0.0-4.0-0.59","subject_id":"5ea000d6e849b0000814e9d5","study_id":"6197b3f67c2b5cd3b6d9596a","session_id":"619bef05cff1940829474f76","condition":"contingent","relevant_dimensions":["antennae","wings"],"bee_group":{"antennae":"B","wings":"1","pattern":"X","legs":"X"},"action":"avoid","summary":"good-avoid","bonus":1.1800000000000008},{"rt":1480.1000000014901,"stimulus":"\n                    <p><b>Action: <em>avoid</em></b></p>\n                    <p>This is the bee that you just saw.</p>\n                    <img src=\"bees-with-color/bee-B1SM.svg\" width=\"200\">\n                    <p><br>Your bonus pay is unchanged, and remains at $0.80.</p>\n            ","response":0,"trial_type":"html-button-response","trial_index":126,"time_elapsed":484484,"internal_node_id":"0.0-4.0-1.59","subject_id":"5ea000d6e849b0000814e9d5","study_id":"6197b3f67c2b5cd3b6d9596a","session_id":"619bef05cff1940829474f76","condition":"contingent","relevant_dimensions":["antennae","wings"],"bee_group":{"antennae":"B","wings":"1","pattern":"X","legs":"X"},"bonus":1.1800000000000008},{"rt":1480.7000000029802,"stimulus":"bees-with-color/bee-A2SM.svg","response":0,"trial_type":"image-button-response","trial_index":127,"time_elapsed":485973,"internal_node_id":"0.0-4.0-0.60","subject_id":"5ea000d6e849b0000814e9d5","study_id":"6197b3f67c2b5cd3b6d9596a","session_id":"619bef05cff1940829474f76","condition":"contingent","relevant_dimensions":["antennae","wings"],"bee_group":{"antennae":"B","wings":"1","pattern":"X","legs":"X"},"action":"harvest","summary":"good-harvest","bonus":1.1800000000000008},{"rt":1454.8999999985099,"stimulus":"\n                    <p><b>Action: <em>harvest</em></b></p>\n                    <p>This is the bee that you just saw.</p>\n                    <img src=\"bees-with-color/bee-A2SM.svg\" width=\"200\">\n                    <p><span class=\"greenText\"><b>Successful harvest!</b></span><br>Your pay has increased by $0.02. Your bonus pay is now $0.82.</p>\n            ","response":0,"trial_type":"html-button-response","trial_index":128,"time_elapsed":487436,"internal_node_id":"0.0-4.0-1.60","subject_id":"5ea000d6e849b0000814e9d5","study_id":"6197b3f67c2b5cd3b6d9596a","session_id":"619bef05cff1940829474f76","condition":"contingent","relevant_dimensions":["antennae","wings"],"bee_group":{"antennae":"B","wings":"1","pattern":"X","legs":"X"},"bonus":1.1800000000000008},{"rt":1490.7000000029802,"stimulus":"bees-with-color/bee-B2DM.svg","response":0,"trial_type":"image-button-response","trial_index":129,"time_elapsed":488935,"internal_node_id":"0.0-4.0-0.61","subject_id":"5ea000d6e849b0000814e9d5","study_id":"6197b3f67c2b5cd3b6d9596a","session_id":"619bef05cff1940829474f76","condition":"contingent","relevant_dimensions":["antennae","wings"],"bee_group":{"antennae":"B","wings":"1","pattern":"X","legs":"X"},"action":"harvest","summary":"good-harvest","bonus":1.1800000000000008},{"rt":1631,"stimulus":"\n                    <p><b>Action: <em>harvest</em></b></p>\n                    <p>This is the bee that you just saw.</p>\n                    <img src=\"bees-with-color/bee-B2DM.svg\" width=\"200\">\n                    <p><span class=\"greenText\"><b>Successful harvest!</b></span><br>Your pay has increased by $0.02. Your bonus pay is now $0.84.</p>\n            ","response":0,"trial_type":"html-button-response","trial_index":130,"time_elapsed":490573,"internal_node_id":"0.0-4.0-1.61","subject_id":"5ea000d6e849b0000814e9d5","study_id":"6197b3f67c2b5cd3b6d9596a","session_id":"619bef05cff1940829474f76","condition":"contingent","relevant_dimensions":["antennae","wings"],"bee_group":{"antennae":"B","wings":"1","pattern":"X","legs":"X"},"bonus":1.1800000000000008},{"rt":2298.39999999851,"stimulus":"bees-with-color/bee-B1SF.svg","response":1,"trial_type":"image-button-response","trial_index":131,"time_elapsed":492878,"internal_node_id":"0.0-4.0-0.62","subject_id":"5ea000d6e849b0000814e9d5","study_id":"6197b3f67c2b5cd3b6d9596a","session_id":"619bef05cff1940829474f76","condition":"contingent","relevant_dimensions":["antennae","wings"],"bee_group":{"antennae":"B","wings":"1","pattern":"X","legs":"X"},"action":"avoid","summary":"good-avoid","bonus":1.1800000000000008},{"rt":1263.5,"stimulus":"\n                    <p><b>Action: <em>avoid</em></b></p>\n                    <p>This is the bee that you just saw.</p>\n                    <img src=\"bees-with-color/bee-B1SF.svg\" width=\"200\">\n                    <p><br>Your bonus pay is unchanged, and remains at $0.84.</p>\n            ","response":0,"trial_type":"html-button-response","trial_index":132,"time_elapsed":494148,"internal_node_id":"0.0-4.0-1.62","subject_id":"5ea000d6e849b0000814e9d5","study_id":"6197b3f67c2b5cd3b6d9596a","session_id":"619bef05cff1940829474f76","condition":"contingent","relevant_dimensions":["antennae","wings"],"bee_group":{"antennae":"B","wings":"1","pattern":"X","legs":"X"},"bonus":1.1800000000000008},{"rt":1395.6999999955297,"stimulus":"bees-with-color/bee-B2DF.svg","response":0,"trial_type":"image-button-response","trial_index":133,"time_elapsed":495551,"internal_node_id":"0.0-4.0-0.63","subject_id":"5ea000d6e849b0000814e9d5","study_id":"6197b3f67c2b5cd3b6d9596a","session_id":"619bef05cff1940829474f76","condition":"contingent","relevant_dimensions":["antennae","wings"],"bee_group":{"antennae":"B","wings":"1","pattern":"X","legs":"X"},"action":"harvest","summary":"good-harvest","bonus":1.1800000000000008},{"rt":6692.10000000149,"stimulus":"\n                    <p><b>Action: <em>harvest</em></b></p>\n                    <p>This is the bee that you just saw.</p>\n                    <img src=\"bees-with-color/bee-B2DF.svg\" width=\"200\">\n                    <p><span class=\"greenText\"><b>Successful harvest!</b></span><br>Your pay has increased by $0.02. Your bonus pay is now $0.86.</p>\n            ","response":0,"trial_type":"html-button-response","trial_index":134,"time_elapsed":502250,"internal_node_id":"0.0-4.0-1.63","subject_id":"5ea000d6e849b0000814e9d5","study_id":"6197b3f67c2b5cd3b6d9596a","session_id":"619bef05cff1940829474f76","condition":"contingent","relevant_dimensions":["antennae","wings"],"bee_group":{"antennae":"B","wings":"1","pattern":"X","legs":"X"},"bonus":1.1800000000000008},{"rt":3082.2000000029802,"stimulus":"You have completed the first part of this experiment.<br><br>You will now begin a shorter second part, in which you will receive no feedback.<br>The same rules regarding bonus pay apply.<br><br>Press any key to begin.","response":" ","trial_type":"html-keyboard-response","trial_index":135,"time_elapsed":505332,"internal_node_id":"0.0-5.0","subject_id":"5ea000d6e849b0000814e9d5","study_id":"6197b3f67c2b5cd3b6d9596a","session_id":"619bef05cff1940829474f76","condition":"contingent","relevant_dimensions":["antennae","wings"],"bee_group":{"antennae":"B","wings":"1","pattern":"X","legs":"X"},"bonus":1.1800000000000008},{"rt":7009.60000000149,"stimulus":"bees-with-color/bee-A2DM.svg","response":0,"trial_type":"image-button-response","trial_index":136,"time_elapsed":512368,"internal_node_id":"0.0-6.0-0.0","subject_id":"5ea000d6e849b0000814e9d5","study_id":"6197b3f67c2b5cd3b6d9596a","session_id":"619bef05cff1940829474f76","condition":"contingent","relevant_dimensions":["antennae","wings"],"bee_group":{"antennae":"B","wings":"1","pattern":"X","legs":"X"},"bonus":1.1800000000000008},{"rt":3629.3000000044703,"stimulus":"bees-with-color/bee-A2DF.svg","response":0,"trial_type":"image-button-response","trial_index":137,"time_elapsed":516010,"internal_node_id":"0.0-6.0-0.1","subject_id":"5ea000d6e849b0000814e9d5","study_id":"6197b3f67c2b5cd3b6d9596a","session_id":"619bef05cff1940829474f76","condition":"contingent","relevant_dimensions":["antennae","wings"],"bee_group":{"antennae":"B","wings":"1","pattern":"X","legs":"X"},"bonus":1.1800000000000008},{"rt":3283.5,"stimulus":"bees-with-color/bee-A1DF.svg","response":1,"trial_type":"image-button-response","trial_index":138,"time_elapsed":519304,"internal_node_id":"0.0-6.0-0.2","subject_id":"5ea000d6e849b0000814e9d5","study_id":"6197b3f67c2b5cd3b6d9596a","session_id":"619bef05cff1940829474f76","condition":"contingent","relevant_dimensions":["antennae","wings"],"bee_group":{"antennae":"B","wings":"1","pattern":"X","legs":"X"},"bonus":1.1800000000000008},{"rt":2049.10000000149,"stimulus":"bees-with-color/bee-B2SM.svg","response":0,"trial_type":"image-button-response","trial_index":139,"time_elapsed":521365,"internal_node_id":"0.0-6.0-0.3","subject_id":"5ea000d6e849b0000814e9d5","study_id":"6197b3f67c2b5cd3b6d9596a","session_id":"619bef05cff1940829474f76","condition":"contingent","relevant_dimensions":["antennae","wings"],"bee_group":{"antennae":"B","wings":"1","pattern":"X","legs":"X"},"bonus":1.1800000000000008},{"rt":1308.6000000014901,"stimulus":"bees-with-color/bee-B1DF.svg","response":1,"trial_type":"image-button-response","trial_index":140,"time_elapsed":522684,"internal_node_id":"0.0-6.0-0.4","subject_id":"5ea000d6e849b0000814e9d5","study_id":"6197b3f67c2b5cd3b6d9596a","session_id":"619bef05cff1940829474f76","condition":"contingent","relevant_dimensions":["antennae","wings"],"bee_group":{"antennae":"B","wings":"1","pattern":"X","legs":"X"},"bonus":1.1800000000000008},{"rt":1270.8000000044703,"stimulus":"bees-with-color/bee-B2DM.svg","response":0,"trial_type":"image-button-response","trial_index":141,"time_elapsed":523966,"internal_node_id":"0.0-6.0-0.5","subject_id":"5ea000d6e849b0000814e9d5","study_id":"6197b3f67c2b5cd3b6d9596a","session_id":"619bef05cff1940829474f76","condition":"contingent","relevant_dimensions":["antennae","wings"],"bee_group":{"antennae":"B","wings":"1","pattern":"X","legs":"X"},"bonus":1.1800000000000008},{"rt":1269.6000000014901,"stimulus":"bees-with-color/bee-B1SF.svg","response":1,"trial_type":"image-button-response","trial_index":142,"time_elapsed":525246,"internal_node_id":"0.0-6.0-0.6","subject_id":"5ea000d6e849b0000814e9d5","study_id":"6197b3f67c2b5cd3b6d9596a","session_id":"619bef05cff1940829474f76","condition":"contingent","relevant_dimensions":["antennae","wings"],"bee_group":{"antennae":"B","wings":"1","pattern":"X","legs":"X"},"bonus":1.1800000000000008},{"rt":1173.4000000059605,"stimulus":"bees-with-color/bee-B2DF.svg","response":0,"trial_type":"image-button-response","trial_index":143,"time_elapsed":526429,"internal_node_id":"0.0-6.0-0.7","subject_id":"5ea000d6e849b0000814e9d5","study_id":"6197b3f67c2b5cd3b6d9596a","session_id":"619bef05cff1940829474f76","condition":"contingent","relevant_dimensions":["antennae","wings"],"bee_group":{"antennae":"B","wings":"1","pattern":"X","legs":"X"},"bonus":1.1800000000000008},{"rt":1371.1000000014901,"stimulus":"bees-with-color/bee-A1SF.svg","response":1,"trial_type":"image-button-response","trial_index":144,"time_elapsed":527811,"internal_node_id":"0.0-6.0-0.8","subject_id":"5ea000d6e849b0000814e9d5","study_id":"6197b3f67c2b5cd3b6d9596a","session_id":"619bef05cff1940829474f76","condition":"contingent","relevant_dimensions":["antennae","wings"],"bee_group":{"antennae":"B","wings":"1","pattern":"X","legs":"X"},"bonus":1.1800000000000008},{"rt":1269.0999999940395,"stimulus":"bees-with-color/bee-B2SF.svg","response":0,"trial_type":"image-button-response","trial_index":145,"time_elapsed":529092,"internal_node_id":"0.0-6.0-0.9","subject_id":"5ea000d6e849b0000814e9d5","study_id":"6197b3f67c2b5cd3b6d9596a","session_id":"619bef05cff1940829474f76","condition":"contingent","relevant_dimensions":["antennae","wings"],"bee_group":{"antennae":"B","wings":"1","pattern":"X","legs":"X"},"bonus":1.1800000000000008},{"rt":1288.2000000029802,"stimulus":"bees-with-color/bee-B1SM.svg","response":1,"trial_type":"image-button-response","trial_index":146,"time_elapsed":530392,"internal_node_id":"0.0-6.0-0.10","subject_id":"5ea000d6e849b0000814e9d5","study_id":"6197b3f67c2b5cd3b6d9596a","session_id":"619bef05cff1940829474f76","condition":"contingent","relevant_dimensions":["antennae","wings"],"bee_group":{"antennae":"B","wings":"1","pattern":"X","legs":"X"},"bonus":1.1800000000000008},{"rt":1665.5,"stimulus":"bees-with-color/bee-A1DM.svg","response":1,"trial_type":"image-button-response","trial_index":147,"time_elapsed":532065,"internal_node_id":"0.0-6.0-0.11","subject_id":"5ea000d6e849b0000814e9d5","study_id":"6197b3f67c2b5cd3b6d9596a","session_id":"619bef05cff1940829474f76","condition":"contingent","relevant_dimensions":["antennae","wings"],"bee_group":{"antennae":"B","wings":"1","pattern":"X","legs":"X"},"bonus":1.1800000000000008},{"rt":1331.8999999985099,"stimulus":"bees-with-color/bee-A1SM.svg","response":1,"trial_type":"image-button-response","trial_index":148,"time_elapsed":533408,"internal_node_id":"0.0-6.0-0.12","subject_id":"5ea000d6e849b0000814e9d5","study_id":"6197b3f67c2b5cd3b6d9596a","session_id":"619bef05cff1940829474f76","condition":"contingent","relevant_dimensions":["antennae","wings"],"bee_group":{"antennae":"B","wings":"1","pattern":"X","legs":"X"},"bonus":1.1800000000000008},{"rt":2514.1999999955297,"stimulus":"bees-with-color/bee-A2SF.svg","response":0,"trial_type":"image-button-response","trial_index":149,"time_elapsed":535933,"internal_node_id":"0.0-6.0-0.13","subject_id":"5ea000d6e849b0000814e9d5","study_id":"6197b3f67c2b5cd3b6d9596a","session_id":"619bef05cff1940829474f76","condition":"contingent","relevant_dimensions":["antennae","wings"],"bee_group":{"antennae":"B","wings":"1","pattern":"X","legs":"X"},"bonus":1.1800000000000008},{"rt":1379.2000000029802,"stimulus":"bees-with-color/bee-B1DM.svg","response":1,"trial_type":"image-button-response","trial_index":150,"time_elapsed":537325,"internal_node_id":"0.0-6.0-0.14","subject_id":"5ea000d6e849b0000814e9d5","study_id":"6197b3f67c2b5cd3b6d9596a","session_id":"619bef05cff1940829474f76","condition":"contingent","relevant_dimensions":["antennae","wings"],"bee_group":{"antennae":"B","wings":"1","pattern":"X","legs":"X"},"bonus":1.1800000000000008},{"rt":2062.8000000044703,"stimulus":"bees-with-color/bee-A2SM.svg","response":0,"trial_type":"image-button-response","trial_index":151,"time_elapsed":539399,"internal_node_id":"0.0-6.0-0.15","subject_id":"5ea000d6e849b0000814e9d5","study_id":"6197b3f67c2b5cd3b6d9596a","session_id":"619bef05cff1940829474f76","condition":"contingent","relevant_dimensions":["antennae","wings"],"bee_group":{"antennae":"B","wings":"1","pattern":"X","legs":"X"},"bonus":1.1800000000000008},{"rt":4577.60000000149,"stimulus":"bees-with-color/bee-B2SM.svg","response":0,"trial_type":"image-button-response","trial_index":152,"time_elapsed":543986,"internal_node_id":"0.0-6.0-0.16","subject_id":"5ea000d6e849b0000814e9d5","study_id":"6197b3f67c2b5cd3b6d9596a","session_id":"619bef05cff1940829474f76","condition":"contingent","relevant_dimensions":["antennae","wings"],"bee_group":{"antennae":"B","wings":"1","pattern":"X","legs":"X"},"bonus":1.1800000000000008},{"rt":1526.6000000014901,"stimulus":"bees-with-color/bee-A1SF.svg","response":1,"trial_type":"image-button-response","trial_index":153,"time_elapsed":545524,"internal_node_id":"0.0-6.0-0.17","subject_id":"5ea000d6e849b0000814e9d5","study_id":"6197b3f67c2b5cd3b6d9596a","session_id":"619bef05cff1940829474f76","condition":"contingent","relevant_dimensions":["antennae","wings"],"bee_group":{"antennae":"B","wings":"1","pattern":"X","legs":"X"},"bonus":1.1800000000000008},{"rt":1333,"stimulus":"bees-with-color/bee-A2SM.svg","response":0,"trial_type":"image-button-response","trial_index":154,"time_elapsed":546867,"internal_node_id":"0.0-6.0-0.18","subject_id":"5ea000d6e849b0000814e9d5","study_id":"6197b3f67c2b5cd3b6d9596a","session_id":"619bef05cff1940829474f76","condition":"contingent","relevant_dimensions":["antennae","wings"],"bee_group":{"antennae":"B","wings":"1","pattern":"X","legs":"X"},"bonus":1.1800000000000008},{"rt":1710.6000000014901,"stimulus":"bees-with-color/bee-A1DF.svg","response":1,"trial_type":"image-button-response","trial_index":155,"time_elapsed":548587,"internal_node_id":"0.0-6.0-0.19","subject_id":"5ea000d6e849b0000814e9d5","study_id":"6197b3f67c2b5cd3b6d9596a","session_id":"619bef05cff1940829474f76","condition":"contingent","relevant_dimensions":["antennae","wings"],"bee_group":{"antennae":"B","wings":"1","pattern":"X","legs":"X"},"bonus":1.1800000000000008},{"rt":1136.1000000014901,"stimulus":"bees-with-color/bee-B1DM.svg","response":1,"trial_type":"image-button-response","trial_index":156,"time_elapsed":549732,"internal_node_id":"0.0-6.0-0.20","subject_id":"5ea000d6e849b0000814e9d5","study_id":"6197b3f67c2b5cd3b6d9596a","session_id":"619bef05cff1940829474f76","condition":"contingent","relevant_dimensions":["antennae","wings"],"bee_group":{"antennae":"B","wings":"1","pattern":"X","legs":"X"},"bonus":1.1800000000000008},{"rt":1053.8999999985099,"stimulus":"bees-with-color/bee-B1SM.svg","response":1,"trial_type":"image-button-response","trial_index":157,"time_elapsed":550796,"internal_node_id":"0.0-6.0-0.21","subject_id":"5ea000d6e849b0000814e9d5","study_id":"6197b3f67c2b5cd3b6d9596a","session_id":"619bef05cff1940829474f76","condition":"contingent","relevant_dimensions":["antennae","wings"],"bee_group":{"antennae":"B","wings":"1","pattern":"X","legs":"X"},"bonus":1.1800000000000008},{"rt":1674,"stimulus":"bees-with-color/bee-A2DM.svg","response":0,"trial_type":"image-button-response","trial_index":158,"time_elapsed":552479,"internal_node_id":"0.0-6.0-0.22","subject_id":"5ea000d6e849b0000814e9d5","study_id":"6197b3f67c2b5cd3b6d9596a","session_id":"619bef05cff1940829474f76","condition":"contingent","relevant_dimensions":["antennae","wings"],"bee_group":{"antennae":"B","wings":"1","pattern":"X","legs":"X"},"bonus":1.1800000000000008},{"rt":1111.3000000044703,"stimulus":"bees-with-color/bee-B2SF.svg","response":0,"trial_type":"image-button-response","trial_index":159,"time_elapsed":553601,"internal_node_id":"0.0-6.0-0.23","subject_id":"5ea000d6e849b0000814e9d5","study_id":"6197b3f67c2b5cd3b6d9596a","session_id":"619bef05cff1940829474f76","condition":"contingent","relevant_dimensions":["antennae","wings"],"bee_group":{"antennae":"B","wings":"1","pattern":"X","legs":"X"},"bonus":1.1800000000000008},{"rt":1382.5,"stimulus":"bees-with-color/bee-A1SM.svg","response":1,"trial_type":"image-button-response","trial_index":160,"time_elapsed":554993,"internal_node_id":"0.0-6.0-0.24","subject_id":"5ea000d6e849b0000814e9d5","study_id":"6197b3f67c2b5cd3b6d9596a","session_id":"619bef05cff1940829474f76","condition":"contingent","relevant_dimensions":["antennae","wings"],"bee_group":{"antennae":"B","wings":"1","pattern":"X","legs":"X"},"bonus":1.1800000000000008},{"rt":1479.1000000014901,"stimulus":"bees-with-color/bee-A2DF.svg","response":0,"trial_type":"image-button-response","trial_index":161,"time_elapsed":556481,"internal_node_id":"0.0-6.0-0.25","subject_id":"5ea000d6e849b0000814e9d5","study_id":"6197b3f67c2b5cd3b6d9596a","session_id":"619bef05cff1940829474f76","condition":"contingent","relevant_dimensions":["antennae","wings"],"bee_group":{"antennae":"B","wings":"1","pattern":"X","legs":"X"},"bonus":1.1800000000000008},{"rt":1126.7999999970198,"stimulus":"bees-with-color/bee-A2SF.svg","response":0,"trial_type":"image-button-response","trial_index":162,"time_elapsed":557615,"internal_node_id":"0.0-6.0-0.26","subject_id":"5ea000d6e849b0000814e9d5","study_id":"6197b3f67c2b5cd3b6d9596a","session_id":"619bef05cff1940829474f76","condition":"contingent","relevant_dimensions":["antennae","wings"],"bee_group":{"antennae":"B","wings":"1","pattern":"X","legs":"X"},"bonus":1.1800000000000008},{"rt":1211.3000000044703,"stimulus":"bees-with-color/bee-B2DM.svg","response":0,"trial_type":"image-button-response","trial_index":163,"time_elapsed":558834,"internal_node_id":"0.0-6.0-0.27","subject_id":"5ea000d6e849b0000814e9d5","study_id":"6197b3f67c2b5cd3b6d9596a","sess