[{"success":true,"trial_type":"fullscreen","trial_index":0,"time_elapsed":4240,"internal_node_id":"0.0-0.0","subject_id":"6102f7a4a340c0eec430fbaa","study_id":"6197b3f67c2b5cd3b6d9596a","session_id":"6197b9eb0a2a27f7716502e4","condition":"full-information","relevant_dimensions":["pattern","legs"],"bee_group":{"antennae":"X","wings":"X","pattern":"S","legs":"F"},"bonus":0.1},{"success":true,"timeout":false,"failed_images":[],"failed_audio":[],"failed_video":[],"trial_type":"preload","trial_index":1,"time_elapsed":5170,"internal_node_id":"0.0-1.0","subject_id":"6102f7a4a340c0eec430fbaa","study_id":"6197b3f67c2b5cd3b6d9596a","session_id":"6197b9eb0a2a27f7716502e4","condition":"full-information","relevant_dimensions":["pattern","legs"],"bee_group":{"antennae":"X","wings":"X","pattern":"S","legs":"F"},"bonus":0.1},{"rt":1492.0999999642372,"stimulus":"Welcome! Press any key to begin.","response":" ","trial_type":"html-keyboard-response","trial_index":2,"time_elapsed":6665,"internal_node_id":"0.0-2.0","subject_id":"6102f7a4a340c0eec430fbaa","study_id":"6197b3f67c2b5cd3b6d9596a","session_id":"6197b9eb0a2a27f7716502e4","condition":"full-information","relevant_dimensions":["pattern","legs"],"bee_group":{"antennae":"X","wings":"X","pattern":"S","legs":"F"},"bonus":0.1},{"view_history":[{"page_index":0,"viewing_time":4360.600000023842},{"page_index":1,"viewing_time":16448.69999998808},{"page_index":2,"viewing_time":16313.100000023842},{"page_index":3,"viewing_time":15211.5},{"page_index":4,"viewing_time":5903.599999964237},{"page_index":5,"viewing_time":8514},{"page_index":6,"viewing_time":8255.400000035763},{"page_index":7,"viewing_time":6706.5},{"page_index":8,"viewing_time":6194.099999964237},{"page_index":9,"viewing_time":8422.200000047684},{"page_index":10,"viewing_time":3331.2999999523163},{"page_index":11,"viewing_time":6765.100000023842},{"page_index":12,"viewing_time":10154.399999976158},{"page_index":13,"viewing_time":1165.7000000476837},{"page_index":14,"viewing_time":1841.8999999761581}],"rt":119589,"trial_type":"instructions","trial_index":3,"time_elapsed":126253,"internal_node_id":"0.0-3.0-0.0","subject_id":"6102f7a4a340c0eec430fbaa","study_id":"6197b3f67c2b5cd3b6d9596a","session_id":"6197b9eb0a2a27f7716502e4","condition":"full-information","relevant_dimensions":["pattern","legs"],"bee_group":{"antennae":"X","wings":"X","pattern":"S","legs":"F"},"bonus":0.1},{"rt":8412.399999976158,"response":{"Q0":["Two or six legs","Stripes or spots on body","Single or double wings","Antennae or no antennae"]},"question_order":[0],"trial_type":"survey-multi-select","trial_index":4,"time_elapsed":134673,"internal_node_id":"0.0-3.0-1.0","subject_id":"6102f7a4a340c0eec430fbaa","study_id":"6197b3f67c2b5cd3b6d9596a","session_id":"6197b9eb0a2a27f7716502e4","condition":"full-information","relevant_dimensions":["pattern","legs"],"bee_group":{"antennae":"X","wings":"X","pattern":"S","legs":"F"},"correct":true,"bonus":0.1},{"rt":13027.199999988079,"response":{"Q1":"No.","Q2":"Based on the four features of the bee.","Q3":"You learn if it was friendly or dangerous, but do not alter your bonus."},"question_order":[0,1,2],"trial_type":"survey-multi-choice","trial_index":5,"time_elapsed":147704,"internal_node_id":"0.0-3.0-2.0","subject_id":"6102f7a4a340c0eec430fbaa","study_id":"6197b3f67c2b5cd3b6d9596a","session_id":"6197b9eb0a2a27f7716502e4","condition":"full-information","relevant_dimensions":["pattern","legs"],"bee_group":{"antennae":"X","wings":"X","pattern":"S","legs":"F"},"correct":true,"bonus":0.1},{"rt":3575,"stimulus":"<p>Congrats, you got everything right<br>When you're ready, click the button below to continue to the experiment.</p>","response":0,"trial_type":"html-button-response","trial_index":6,"time_elapsed":151282,"internal_node_id":"0.0-3.0-3.0","subject_id":"6102f7a4a340c0eec430fbaa","study_id":"6197b3f67c2b5cd3b6d9596a","session_id":"6197b9eb0a2a27f7716502e4","condition":"full-information","relevant_dimensions":["pattern","legs"],"bee_group":{"antennae":"X","wings":"X","pattern":"S","legs":"F"},"bonus":0.1},{"rt":2096.800000011921,"stimulus":"bees-with-color/bee-A1SF.svg","response":0,"trial_type":"image-button-response","trial_index":7,"time_elapsed":153384,"internal_node_id":"0.0-4.0-0.0","subject_id":"6102f7a4a340c0eec430fbaa","study_id":"6197b3f67c2b5cd3b6d9596a","session_id":"6197b9eb0a2a27f7716502e4","condition":"full-information","relevant_dimensions":["pattern","legs"],"bee_group":{"antennae":"X","wings":"X","pattern":"S","legs":"F"},"action":"harvest","summary":"bad-harvest","bonus":0.1},{"rt":10589.5,"stimulus":"\n                    <p><b>Action: <em>harvest</em></b></p>\n                    <p>This is the bee that you just saw.</p>\n                    <img src=\"bees-with-color/bee-A1SF.svg\" width=\"200\">\n                    <p><span class=\"redText\">Bad choice, the bee was angry.</span><br><b>You have been stung!</b><br>Your pay has been decreased by $0.10. Your bonus pay is now $0.44.</p>\n            ","response":0,"trial_type":"html-button-response","trial_index":8,"time_elapsed":163977,"internal_node_id":"0.0-4.0-1.0","subject_id":"6102f7a4a340c0eec430fbaa","study_id":"6197b3f67c2b5cd3b6d9596a","session_id":"6197b9eb0a2a27f7716502e4","condition":"full-information","relevant_dimensions":["pattern","legs"],"bee_group":{"antennae":"X","wings":"X","pattern":"S","legs":"F"},"bonus":0.1},{"rt":2108.699999988079,"stimulus":"bees-with-color/bee-B2DF.svg","response":0,"trial_type":"image-button-response","trial_index":9,"time_elapsed":166089,"internal_node_id":"0.0-4.0-0.1","subject_id":"6102f7a4a340c0eec430fbaa","study_id":"6197b3f67c2b5cd3b6d9596a","session_id":"6197b9eb0a2a27f7716502e4","condition":"full-information","relevant_dimensions":["pattern","legs"],"bee_group":{"antennae":"X","wings":"X","pattern":"S","legs":"F"},"action":"harvest","summary":"good-harvest","bonus":0.1},{"rt":17129,"stimulus":"\n                    <p><b>Action: <em>harvest</em></b></p>\n                    <p>This is the bee that you just saw.</p>\n                    <img src=\"bees-with-color/bee-B2DF.svg\" width=\"200\">\n                    <p><span class=\"greenText\"><b>Successful harvest!</b></span><br>Your pay has increased by $0.02. Your bonus pay is now $0.46.</p>\n            ","response":0,"trial_type":"html-button-response","trial_index":10,"time_elapsed":183220,"internal_node_id":"0.0-4.0-1.1","subject_id":"6102f7a4a340c0eec430fbaa","study_id":"6197b3f67c2b5cd3b6d9596a","session_id":"6197b9eb0a2a27f7716502e4","condition":"full-information","relevant_dimensions":["pattern","legs"],"bee_group":{"antennae":"X","wings":"X","pattern":"S","legs":"F"},"bonus":0.1},{"rt":2679.5,"stimulus":"bees-with-color/bee-A2SF.svg","response":0,"trial_type":"image-button-response","trial_index":11,"time_elapsed":185902,"internal_node_id":"0.0-4.0-0.2","subject_id":"6102f7a4a340c0eec430fbaa","study_id":"6197b3f67c2b5cd3b6d9596a","session_id":"6197b9eb0a2a27f7716502e4","condition":"full-information","relevant_dimensions":["pattern","legs"],"bee_group":{"antennae":"X","wings":"X","pattern":"S","legs":"F"},"action":"harvest","summary":"bad-harvest","bonus":0.1},{"rt":7324.199999988079,"stimulus":"\n                    <p><b>Action: <em>harvest</em></b></p>\n                    <p>This is the bee that you just saw.</p>\n                    <img src=\"bees-with-color/bee-A2SF.svg\" width=\"200\">\n                    <p><span class=\"redText\">Bad choice, the bee was angry.</span><br><b>You have been stung!</b><br>Your pay has been decreased by $0.10. Your bonus pay is now $0.36.</p>\n            ","response":0,"trial_type":"html-button-response","trial_index":12,"time_elapsed":193228,"internal_node_id":"0.0-4.0-1.2","subject_id":"6102f7a4a340c0eec430fbaa","study_id":"6197b3f67c2b5cd3b6d9596a","session_id":"6197b9eb0a2a27f7716502e4","condition":"full-information","relevant_dimensions":["pattern","legs"],"bee_group":{"antennae":"X","wings":"X","pattern":"S","legs":"F"},"bonus":0.1},{"rt":1799.5,"stimulus":"bees-with-color/bee-A1DM.svg","response":1,"trial_type":"image-button-response","trial_index":13,"time_elapsed":195030,"internal_node_id":"0.0-4.0-0.3","subject_id":"6102f7a4a340c0eec430fbaa","study_id":"6197b3f67c2b5cd3b6d9596a","session_id":"6197b9eb0a2a27f7716502e4","condition":"full-information","relevant_dimensions":["pattern","legs"],"bee_group":{"antennae":"X","wings":"X","pattern":"S","legs":"F"},"action":"avoid","summary":"bad-avoid","bonus":0.1},{"rt":6781.5,"stimulus":"\n                    <p><b>Action: <em>avoid</em></b></p>\n                    <p>This is the bee that you just saw.</p>\n                    <img src=\"bees-with-color/bee-A1DM.svg\" width=\"200\">\n                    <p><span class=\"redText\">Bad choice,</span> the bee was friendly.<br>Your bonus pay is unchanged, and remains at $0.36.</p>\n            ","response":0,"trial_type":"html-button-response","trial_index":14,"time_elapsed":201813,"internal_node_id":"0.0-4.0-1.3","subject_id":"6102f7a4a340c0eec430fbaa","study_id":"6197b3f67c2b5cd3b6d9596a","session_id":"6197b9eb0a2a27f7716502e4","condition":"full-information","relevant_dimensions":["pattern","legs"],"bee_group":{"antennae":"X","wings":"X","pattern":"S","legs":"F"},"bonus":0.1},{"rt":4178.300000011921,"stimulus":"bees-with-color/bee-B2DM.svg","response":1,"trial_type":"image-button-response","trial_index":15,"time_elapsed":205994,"internal_node_id":"0.0-4.0-0.4","subject_id":"6102f7a4a340c0eec430fbaa","study_id":"6197b3f67c2b5cd3b6d9596a","session_id":"6197b9eb0a2a27f7716502e4","condition":"full-information","relevant_dimensions":["pattern","legs"],"bee_group":{"antennae":"X","wings":"X","pattern":"S","legs":"F"},"action":"avoid","summary":"bad-avoid","bonus":0.1},{"rt":1766.5999999642372,"stimulus":"\n                    <p><b>Action: <em>avoid</em></b></p>\n                    <p>This is the bee that you just saw.</p>\n                    <img src=\"bees-with-color/bee-B2DM.svg\" width=\"200\">\n                    <p><span class=\"redText\">Bad choice,</span> the bee was friendly.<br>Your bonus pay is unchanged, and remains at $0.36.</p>\n            ","response":0,"trial_type":"html-button-response","trial_index":16,"time_elapsed":207762,"internal_node_id":"0.0-4.0-1.4","subject_id":"6102f7a4a340c0eec430fbaa","study_id":"6197b3f67c2b5cd3b6d9596a","session_id":"6197b9eb0a2a27f7716502e4","condition":"full-information","relevant_dimensions":["pattern","legs"],"bee_group":{"antennae":"X","wings":"X","pattern":"S","legs":"F"},"bonus":0.1},{"rt":1310.300000011921,"stimulus":"bees-with-color/bee-B1DM.svg","response":1,"trial_type":"image-button-response","trial_index":17,"time_elapsed":209075,"internal_node_id":"0.0-4.0-0.5","subject_id":"6102f7a4a340c0eec430fbaa","study_id":"6197b3f67c2b5cd3b6d9596a","session_id":"6197b9eb0a2a27f7716502e4","condition":"full-information","relevant_dimensions":["pattern","legs"],"bee_group":{"antennae":"X","wings":"X","pattern":"S","legs":"F"},"action":"avoid","summary":"bad-avoid","bonus":0.1},{"rt":1294.300000011921,"stimulus":"\n                    <p><b>Action: <em>avoid</em></b></p>\n                    <p>This is the bee that you just saw.</p>\n                    <img src=\"bees-with-color/bee-B1DM.svg\" width=\"200\">\n                    <p><span class=\"redText\">Bad choice,</span> the bee was friendly.<br>Your bonus pay is unchanged, and remains at $0.36.</p>\n            ","response":0,"trial_type":"html-button-response","trial_index":18,"time_elapsed":210370,"internal_node_id":"0.0-4.0-1.5","subject_id":"6102f7a4a340c0eec430fbaa","study_id":"6197b3f67c2b5cd3b6d9596a","session_id":"6197b9eb0a2a27f7716502e4","condition":"full-information","relevant_dimensions":["pattern","legs"],"bee_group":{"antennae":"X","wings":"X","pattern":"S","legs":"F"},"bonus":0.1},{"rt":2231.800000011921,"stimulus":"bees-with-color/bee-B1DF.svg","response":1,"trial_type":"image-button-response","trial_index":19,"time_elapsed":212604,"internal_node_id":"0.0-4.0-0.6","subject_id":"6102f7a4a340c0eec430fbaa","study_id":"6197b3f67c2b5cd3b6d9596a","session_id":"6197b9eb0a2a27f7716502e4","condition":"full-information","relevant_dimensions":["pattern","legs"],"bee_group":{"antennae":"X","wings":"X","pattern":"S","legs":"F"},"action":"avoid","summary":"bad-avoid","bonus":0.1},{"rt":1773.6000000238419,"stimulus":"\n                    <p><b>Action: <em>avoid</em></b></p>\n                    <p>This is the bee that you just saw.</p>\n                    <img src=\"bees-with-color/bee-B1DF.svg\" width=\"200\">\n                    <p><span class=\"redText\">Bad choice,</span> the bee was friendly.<br>Your bonus pay is unchanged, and remains at $0.36.</p>\n            ","response":0,"trial_type":"html-button-response","trial_index":20,"time_elapsed":214380,"internal_node_id":"0.0-4.0-1.6","subject_id":"6102f7a4a340c0eec430fbaa","study_id":"6197b3f67c2b5cd3b6d9596a","session_id":"6197b9eb0a2a27f7716502e4","condition":"full-information","relevant_dimensions":["pattern","legs"],"bee_group":{"antennae":"X","wings":"X","pattern":"S","legs":"F"},"bonus":0.1},{"rt":1815.300000011921,"stimulus":"bees-with-color/bee-A1SM.svg","response":1,"trial_type":"image-button-response","trial_index":21,"time_elapsed":216198,"internal_node_id":"0.0-4.0-0.7","subject_id":"6102f7a4a340c0eec430fbaa","study_id":"6197b3f67c2b5cd3b6d9596a","session_id":"6197b9eb0a2a27f7716502e4","condition":"full-information","relevant_dimensions":["pattern","legs"],"bee_group":{"antennae":"X","wings":"X","pattern":"S","legs":"F"},"action":"avoid","summary":"bad-avoid","bonus":0.1},{"rt":1033.2999999523163,"stimulus":"\n                    <p><b>Action: <em>avoid</em></b></p>\n                    <p>This is the bee that you just saw.</p>\n                    <img src=\"bees-with-color/bee-A1SM.svg\" width=\"200\">\n                    <p><span class=\"redText\">Bad choice,</span> the bee was friendly.<br>Your bonus pay is unchanged, and remains at $0.36.</p>\n            ","response":0,"trial_type":"html-button-response","trial_index":22,"time_elapsed":217233,"internal_node_id":"0.0-4.0-1.7","subject_id":"6102f7a4a340c0eec430fbaa","study_id":"6197b3f67c2b5cd3b6d9596a","session_id":"6197b9eb0a2a27f7716502e4","condition":"full-information","relevant_dimensions":["pattern","legs"],"bee_group":{"antennae":"X","wings":"X","pattern":"S","legs":"F"},"bonus":0.1},{"rt":1481,"stimulus":"bees-with-color/bee-A2DM.svg","response":0,"trial_type":"image-button-response","trial_index":23,"time_elapsed":218716,"internal_node_id":"0.0-4.0-0.8","subject_id":"6102f7a4a340c0eec430fbaa","study_id":"6197b3f67c2b5cd3b6d9596a","session_id":"6197b9eb0a2a27f7716502e4","condition":"full-information","relevant_dimensions":["pattern","legs"],"bee_group":{"antennae":"X","wings":"X","pattern":"S","legs":"F"},"action":"harvest","summary":"good-harvest","bonus":0.1},{"rt":1383.6000000238419,"stimulus":"\n                    <p><b>Action: <em>harvest</em></b></p>\n                    <p>This is the bee that you just saw.</p>\n                    <img src=\"bees-with-color/bee-A2DM.svg\" width=\"200\">\n                    <p><span class=\"greenText\"><b>Successful harvest!</b></span><br>Your pay has increased by $0.02. Your bonus pay is now $0.38.</p>\n            ","response":0,"trial_type":"html-button-response","trial_index":24,"time_elapsed":220101,"internal_node_id":"0.0-4.0-1.8","subject_id":"6102f7a4a340c0eec430fbaa","study_id":"6197b3f67c2b5cd3b6d9596a","session_id":"6197b9eb0a2a27f7716502e4","condition":"full-information","relevant_dimensions":["pattern","legs"],"bee_group":{"antennae":"X","wings":"X","pattern":"S","legs":"F"},"bonus":0.1},{"rt":4610.699999988079,"stimulus":"bees-with-color/bee-A1DF.svg","response":1,"trial_type":"image-button-response","trial_index":25,"time_elapsed":224714,"internal_node_id":"0.0-4.0-0.9","subject_id":"6102f7a4a340c0eec430fbaa","study_id":"6197b3f67c2b5cd3b6d9596a","session_id":"6197b9eb0a2a27f7716502e4","condition":"full-information","relevant_dimensions":["pattern","legs"],"bee_group":{"antennae":"X","wings":"X","pattern":"S","legs":"F"},"action":"avoid","summary":"bad-avoid","bonus":0.1},{"rt":2932.199999988079,"stimulus":"\n                    <p><b>Action: <em>avoid</em></b></p>\n                    <p>This is the bee that you just saw.</p>\n                    <img src=\"bees-with-color/bee-A1DF.svg\" width=\"200\">\n                    <p><span class=\"redText\">Bad choice,</span> the bee was friendly.<br>Your bonus pay is unchanged, and remains at $0.38.</p>\n            ","response":0,"trial_type":"html-button-response","trial_index":26,"time_elapsed":227649,"internal_node_id":"0.0-4.0-1.9","subject_id":"6102f7a4a340c0eec430fbaa","study_id":"6197b3f67c2b5cd3b6d9596a","session_id":"6197b9eb0a2a27f7716502e4","condition":"full-information","relevant_dimensions":["pattern","legs"],"bee_group":{"antennae":"X","wings":"X","pattern":"S","legs":"F"},"bonus":0.1},{"rt":1122.800000011921,"stimulus":"bees-with-color/bee-B2SM.svg","response":1,"trial_type":"image-button-response","trial_index":27,"time_elapsed":228773,"internal_node_id":"0.0-4.0-0.10","subject_id":"6102f7a4a340c0eec430fbaa","study_id":"6197b3f67c2b5cd3b6d9596a","session_id":"6197b9eb0a2a27f7716502e4","condition":"full-information","relevant_dimensions":["pattern","legs"],"bee_group":{"antennae":"X","wings":"X","pattern":"S","legs":"F"},"action":"avoid","summary":"bad-avoid","bonus":0.1},{"rt":2500.699999988079,"stimulus":"\n                    <p><b>Action: <em>avoid</em></b></p>\n                    <p>This is the bee that you just saw.</p>\n                    <img src=\"bees-with-color/bee-B2SM.svg\" width=\"200\">\n                    <p><span class=\"redText\">Bad choice,</span> the bee was friendly.<br>Your bonus pay is unchanged, and remains at $0.38.</p>\n            ","response":0,"trial_type":"html-button-response","trial_index":28,"time_elapsed":231275,"internal_node_id":"0.0-4.0-1.10","subject_id":"6102f7a4a340c0eec430fbaa","study_id":"6197b3f67c2b5cd3b6d9596a","session_id":"6197b9eb0a2a27f7716502e4","condition":"full-information","relevant_dimensions":["pattern","legs"],"bee_group":{"antennae":"X","wings":"X","pattern":"S","legs":"F"},"bonus":0.1},{"rt":2598.899999976158,"stimulus":"bees-with-color/bee-B1SM.svg","response":1,"trial_type":"image-button-response","trial_index":29,"time_elapsed":233876,"internal_node_id":"0.0-4.0-0.11","subject_id":"6102f7a4a340c0eec430fbaa","study_id":"6197b3f67c2b5cd3b6d9596a","session_id":"6197b9eb0a2a27f7716502e4","condition":"full-information","relevant_dimensions":["pattern","legs"],"bee_group":{"antennae":"X","wings":"X","pattern":"S","legs":"F"},"action":"avoid","summary":"bad-avoid","bonus":0.1},{"rt":1236.6000000238419,"stimulus":"\n                    <p><b>Action: <em>avoid</em></b></p>\n                    <p>This is the bee that you just saw.</p>\n                    <img src=\"bees-with-color/bee-B1SM.svg\" width=\"200\">\n                    <p><span class=\"redText\">Bad choice,</span> the bee was friendly.<br>Your bonus pay is unchanged, and remains at $0.38.</p>\n            ","response":0,"trial_type":"html-button-response","trial_index":30,"time_elapsed":235114,"internal_node_id":"0.0-4.0-1.11","subject_id":"6102f7a4a340c0eec430fbaa","study_id":"6197b3f67c2b5cd3b6d9596a","session_id":"6197b9eb0a2a27f7716502e4","condition":"full-information","relevant_dimensions":["pattern","legs"],"bee_group":{"antennae":"X","wings":"X","pattern":"S","legs":"F"},"bonus":0.1},{"rt":1042.1000000238419,"stimulus":"bees-with-color/bee-B1SF.svg","response":0,"trial_type":"image-button-response","trial_index":31,"time_elapsed":236158,"internal_node_id":"0.0-4.0-0.12","subject_id":"6102f7a4a340c0eec430fbaa","study_id":"6197b3f67c2b5cd3b6d9596a","session_id":"6197b9eb0a2a27f7716502e4","condition":"full-information","relevant_dimensions":["pattern","legs"],"bee_group":{"antennae":"X","wings":"X","pattern":"S","legs":"F"},"action":"harvest","summary":"bad-harvest","bonus":0.1},{"rt":2042.2000000476837,"stimulus":"\n                    <p><b>Action: <em>harvest</em></b></p>\n                    <p>This is the bee that you just saw.</p>\n                    <img src=\"bees-with-color/bee-B1SF.svg\" width=\"200\">\n                    <p><span class=\"redText\">Bad choice, the bee was angry.</span><br><b>You have been stung!</b><br>Your pay has been decreased by $0.10. Your bonus pay is now $0.28.</p>\n            ","response":0,"trial_type":"html-button-response","trial_index":32,"time_elapsed":238202,"internal_node_id":"0.0-4.0-1.12","subject_id":"6102f7a4a340c0eec430fbaa","study_id":"6197b3f67c2b5cd3b6d9596a","session_id":"6197b9eb0a2a27f7716502e4","condition":"full-information","relevant_dimensions":["pattern","legs"],"bee_group":{"antennae":"X","wings":"X","pattern":"S","legs":"F"},"bonus":0.1},{"rt":1219.800000011921,"stimulus":"bees-with-color/bee-B2SF.svg","response":0,"trial_type":"image-button-response","trial_index":33,"time_elapsed":239425,"internal_node_id":"0.0-4.0-0.13","subject_id":"6102f7a4a340c0eec430fbaa","study_id":"6197b3f67c2b5cd3b6d9596a","session_id":"6197b9eb0a2a27f7716502e4","condition":"full-information","relevant_dimensions":["pattern","legs"],"bee_group":{"antennae":"X","wings":"X","pattern":"S","legs":"F"},"action":"harvest","summary":"bad-harvest","bonus":0.1},{"rt":812,"stimulus":"\n                    <p><b>Action: <em>harvest</em></b></p>\n                    <p>This is the bee that you just saw.</p>\n                    <img src=\"bees-with-color/bee-B2SF.svg\" width=\"200\">\n                    <p><span class=\"redText\">Bad choice, the bee was angry.</span><br><b>You have been stung!</b><br>Your pay has been decreased by $0.10. Your bonus pay is now $0.18.</p>\n            ","response":0,"trial_type":"html-button-response","trial_index":34,"time_elapsed":240240,"internal_node_id":"0.0-4.0-1.13","subject_id":"6102f7a4a340c0eec430fbaa","study_id":"6197b3f67c2b5cd3b6d9596a","session_id":"6197b9eb0a2a27f7716502e4","condition":"full-information","relevant_dimensions":["pattern","legs"],"bee_group":{"antennae":"X","wings":"X","pattern":"S","legs":"F"},"bonus":0.1},{"rt":648.6999999880791,"stimulus":"bees-with-color/bee-A2SM.svg","response":1,"trial_type":"image-button-response","trial_index":35,"time_elapsed":240891,"internal_node_id":"0.0-4.0-0.14","subject_id":"6102f7a4a340c0eec430fbaa","study_id":"6197b3f67c2b5cd3b6d9596a","session_id":"6197b9eb0a2a27f7716502e4","condition":"full-information","relevant_dimensions":["pattern","legs"],"bee_group":{"antennae":"X","wings":"X","pattern":"S","legs":"F"},"action":"avoid","summary":"bad-avoid","bonus":0.1},{"rt":1170.5999999642372,"stimulus":"\n                    <p><b>Action: <em>avoid</em></b></p>\n                    <p>This is the bee that you just saw.</p>\n                    <img src=\"bees-with-color/bee-A2SM.svg\" width=\"200\">\n                    <p><span class=\"redText\">Bad choice,</span> the bee was friendly.<br>Your bonus pay is unchanged, and remains at $0.18.</p>\n            ","response":0,"trial_type":"html-button-response","trial_index":36,"time_elapsed":242064,"internal_node_id":"0.0-4.0-1.14","subject_id":"6102f7a4a340c0eec430fbaa","study_id":"6197b3f67c2b5cd3b6d9596a","session_id":"6197b9eb0a2a27f7716502e4","condition":"full-information","relevant_dimensions":["pattern","legs"],"bee_group":{"antennae":"X","wings":"X","pattern":"S","legs":"F"},"bonus":0.1},{"rt":1188.5,"stimulus":"bees-with-color/bee-A2DF.svg","response":0,"trial_type":"image-button-response","trial_index":37,"time_elapsed":243255,"internal_node_id":"0.0-4.0-0.15","subject_id":"6102f7a4a340c0eec430fbaa","study_id":"6197b3f67c2b5cd3b6d9596a","session_id":"6197b9eb0a2a27f7716502e4","condition":"full-information","relevant_dimensions":["pattern","legs"],"bee_group":{"antennae":"X","wings":"X","pattern":"S","legs":"F"},"action":"harvest","summary":"good-harvest","bonus":0.1},{"rt":1586.4000000357628,"stimulus":"\n                    <p><b>Action: <em>harvest</em></b></p>\n                    <p>This is the bee that you just saw.</p>\n                    <img src=\"bees-with-color/bee-A2DF.svg\" width=\"200\">\n                    <p><span class=\"greenText\"><b>Successful harvest!</b></span><br>Your pay has increased by $0.02. Your bonus pay is now $0.20.</p>\n            ","response":0,"trial_type":"html-button-response","trial_index":38,"time_elapsed":244845,"internal_node_id":"0.0-4.0-1.15","subject_id":"6102f7a4a340c0eec430fbaa","study_id":"6197b3f67c2b5cd3b6d9596a","session_id":"6197b9eb0a2a27f7716502e4","condition":"full-information","relevant_dimensions":["pattern","legs"],"bee_group":{"antennae":"X","wings":"X","pattern":"S","legs":"F"},"bonus":0.1},{"rt":8498.800000011921,"stimulus":"bees-with-color/bee-A2DM.svg","response":0,"trial_type":"image-button-response","trial_index":39,"time_elapsed":253346,"internal_node_id":"0.0-4.0-0.16","subject_id":"6102f7a4a340c0eec430fbaa","study_id":"6197b3f67c2b5cd3b6d9596a","session_id":"6197b9eb0a2a27f7716502e4","condition":"full-information","relevant_dimensions":["pattern","legs"],"bee_group":{"antennae":"X","wings":"X","pattern":"S","legs":"F"},"action":"harvest","summary":"good-harvest","bonus":0.1},{"rt":1643.8999999761581,"stimulus":"\n                    <p><b>Action: <em>harvest</em></b></p>\n                    <p>This is the bee that you just saw.</p>\n                    <img src=\"bees-with-color/bee-A2DM.svg\" width=\"200\">\n                    <p><span class=\"greenText\"><b>Successful harvest!</b></span><br>Your pay has increased by $0.02. Your bonus pay is now $0.22.</p>\n            ","response":0,"trial_type":"html-button-response","trial_index":40,"time_elapsed":254993,"internal_node_id":"0.0-4.0-1.16","subject_id":"6102f7a4a340c0eec430fbaa","study_id":"6197b3f67c2b5cd3b6d9596a","session_id":"6197b9eb0a2a27f7716502e4","condition":"full-information","relevant_dimensions":["pattern","legs"],"bee_group":{"antennae":"X","wings":"X","pattern":"S","legs":"F"},"bonus":0.1},{"rt":1177.8999999761581,"stimulus":"bees-with-color/bee-A1DF.svg","response":0,"trial_type":"image-button-response","trial_index":41,"time_elapsed":256174,"internal_node_id":"0.0-4.0-0.17","subject_id":"6102f7a4a340c0eec430fbaa","study_id":"6197b3f67c2b5cd3b6d9596a","session_id":"6197b9eb0a2a27f7716502e4","condition":"full-information","relevant_dimensions":["pattern","legs"],"bee_group":{"antennae":"X","wings":"X","pattern":"S","legs":"F"},"action":"harvest","summary":"good-harvest","bonus":0.1},{"rt":1253.199999988079,"stimulus":"\n                    <p><b>Action: <em>harvest</em></b></p>\n                    <p>This is the bee that you just saw.</p>\n                    <img src=\"bees-with-color/bee-A1DF.svg\" width=\"200\">\n                    <p><span class=\"greenText\"><b>Successful harvest!</b></span><br>Your pay has increased by $0.02. Your bonus pay is now $0.24.</p>\n            ","response":0,"trial_type":"html-button-response","trial_index":42,"time_elapsed":257429,"internal_node_id":"0.0-4.0-1.17","subject_id":"6102f7a4a340c0eec430fbaa","study_id":"6197b3f67c2b5cd3b6d9596a","session_id":"6197b9eb0a2a27f7716502e4","condition":"full-information","relevant_dimensions":["pattern","legs"],"bee_group":{"antennae":"X","wings":"X","pattern":"S","legs":"F"},"bonus":0.1},{"rt":5179.699999988079,"stimulus":"bees-with-color/bee-B2DM.svg","response":1,"trial_type":"image-button-response","trial_index":43,"time_elapsed":262611,"internal_node_id":"0.0-4.0-0.18","subject_id":"6102f7a4a340c0eec430fbaa","study_id":"6197b3f67c2b5cd3b6d9596a","session_id":"6197b9eb0a2a27f7716502e4","condition":"full-information","relevant_dimensions":["pattern","legs"],"bee_group":{"antennae":"X","wings":"X","pattern":"S","legs":"F"},"action":"avoid","summary":"bad-avoid","bonus":0.1},{"rt":1099.0999999642372,"stimulus":"\n                    <p><b>Action: <em>avoid</em></b></p>\n                    <p>This is the bee that you just saw.</p>\n                    <img src=\"bees-with-color/bee-B2DM.svg\" width=\"200\">\n                    <p><span class=\"redText\">Bad choice,</span> the bee was friendly.<br>Your bonus pay is unchanged, and remains at $0.24.</p>\n            ","response":0,"trial_type":"html-button-response","trial_index":44,"time_elapsed":263713,"internal_node_id":"0.0-4.0-1.18","subject_id":"6102f7a4a340c0eec430fbaa","study_id":"6197b3f67c2b5cd3b6d9596a","session_id":"6197b9eb0a2a27f7716502e4","condition":"full-information","relevant_dimensions":["pattern","legs"],"bee_group":{"antennae":"X","wings":"X","pattern":"S","legs":"F"},"bonus":0.1},{"rt":1903.8999999761581,"stimulus":"bees-with-color/bee-A2SF.svg","response":1,"trial_type":"image-button-response","trial_index":45,"time_elapsed":265620,"internal_node_id":"0.0-4.0-0.19","subject_id":"6102f7a4a340c0eec430fbaa","study_id":"6197b3f67c2b5cd3b6d9596a","session_id":"6197b9eb0a2a27f7716502e4","condition":"full-information","relevant_dimensions":["pattern","legs"],"bee_group":{"antennae":"X","wings":"X","pattern":"S","legs":"F"},"action":"avoid","summary":"good-avoid","bonus":0.1},{"rt":7986.399999976158,"stimulus":"\n                    <p><b>Action: <em>avoid</em></b></p>\n                    <p>This is the bee that you just saw.</p>\n                    <img src=\"bees-with-color/bee-A2SF.svg\" width=\"200\">\n                    <p><span class=\"greenText\">Good choice!</span>  This bee would have stung you.<br>Your bonus pay is unchanged, and remains at $0.24.</p>\n            ","response":0,"trial_type":"html-button-response","trial_index":46,"time_elapsed":273608,"internal_node_id":"0.0-4.0-1.19","subject_id":"6102f7a4a340c0eec430fbaa","study_id":"6197b3f67c2b5cd3b6d9596a","session_id":"6197b9eb0a2a27f7716502e4","condition":"full-information","relevant_dimensions":["pattern","legs"],"bee_group":{"antennae":"X","wings":"X","pattern":"S","legs":"F"},"bonus":0.1},{"rt":1618.6000000238419,"stimulus":"bees-with-color/bee-B2SF.svg","response":0,"trial_type":"image-button-response","trial_index":47,"time_elapsed":275230,"internal_node_id":"0.0-4.0-0.20","subject_id":"6102f7a4a340c0eec430fbaa","study_id":"6197b3f67c2b5cd3b6d9596a","session_id":"6197b9eb0a2a27f7716502e4","condition":"full-information","relevant_dimensions":["pattern","legs"],"bee_group":{"antennae":"X","wings":"X","pattern":"S","legs":"F"},"action":"harvest","summary":"bad-harvest","bonus":0.1},{"rt":7747.800000011921,"stimulus":"\n                    <p><b>Action: <em>harvest</em></b></p>\n                    <p>This is the bee that you just saw.</p>\n                    <img src=\"bees-with-color/bee-B2SF.svg\" width=\"200\">\n                    <p><span class=\"redText\">Bad choice, the bee was angry.</span><br><b>You have been stung!</b><br>Your pay has been decreased by $0.10. Your bonus pay is now $0.14.</p>\n            ","response":0,"trial_type":"html-button-response","trial_index":48,"time_elapsed":282980,"internal_node_id":"0.0-4.0-1.20","subject_id":"6102f7a4a340c0eec430fbaa","study_id":"6197b3f67c2b5cd3b6d9596a","session_id":"6197b9eb0a2a27f7716502e4","condition":"full-information","relevant_dimensions":["pattern","legs"],"bee_group":{"antennae":"X","wings":"X","pattern":"S","legs":"F"},"bonus":0.1},{"rt":1154.5,"stimulus":"bees-with-color/bee-B1SM.svg","response":0,"trial_type":"image-button-response","trial_index":49,"time_elapsed":284138,"internal_node_id":"0.0-4.0-0.21","subject_id":"6102f7a4a340c0eec430fbaa","study_id":"6197b3f67c2b5cd3b6d9596a","session_id":"6197b9eb0a2a27f7716502e4","condition":"full-information","relevant_dimensions":["pattern","legs"],"bee_group":{"antennae":"X","wings":"X","pattern":"S","legs":"F"},"action":"harvest","summary":"good-harvest","bonus":0.1},{"rt":1187.6000000238419,"stimulus":"\n                    <p><b>Action: <em>harvest</em></b></p>\n                    <p>This is the bee that you just saw.</p>\n                    <img src=\"bees-with-color/bee-B1SM.svg\" width=\"200\">\n                    <p><span class=\"greenText\"><b>Successful harvest!</b></span><br>Your pay has increased by $0.02. Your bonus pay is now $0.16.</p>\n            ","response":0,"trial_type":"html-button-response","trial_index":50,"time_elapsed":285328,"internal_node_id":"0.0-4.0-1.21","subject_id":"6102f7a4a340c0eec430fbaa","study_id":"6197b3f67c2b5cd3b6d9596a","session_id":"6197b9eb0a2a27f7716502e4","condition":"full-information","relevant_dimensions":["pattern","legs"],"bee_group":{"antennae":"X","wings":"X","pattern":"S","legs":"F"},"bonus":0.1},{"rt":2532.899999976158,"stimulus":"bees-with-color/bee-B2SM.svg","response":0,"trial_type":"image-button-response","trial_index":51,"time_elapsed":287863,"internal_node_id":"0.0-4.0-0.22","subject_id":"6102f7a4a340c0eec430fbaa","study_id":"6197b3f67c2b5cd3b6d9596a","session_id":"6197b9eb0a2a27f7716502e4","condition":"full-information","relevant_dimensions":["pattern","legs"],"bee_group":{"antennae":"X","wings":"X","pattern":"S","legs":"F"},"action":"harvest","summary":"good-harvest","bonus":0.1},{"rt":1104.300000011921,"stimulus":"\n                    <p><b>Action: <em>harvest</em></b></p>\n                    <p>This is the bee that you just saw.</p>\n                    <img src=\"bees-with-color/bee-B2SM.svg\" width=\"200\">\n                    <p><span class=\"greenText\"><b>Successful harvest!</b></span><br>Your pay has increased by $0.02. Your bonus pay is now $0.18.</p>\n            ","response":0,"trial_type":"html-button-response","trial_index":52,"time_elapsed":288970,"internal_node_id":"0.0-4.0-1.22","subject_id":"6102f7a4a340c0eec430fbaa","study_id":"6197b3f67c2b5cd3b6d9596a","session_id":"6197b9eb0a2a27f7716502e4","condition":"full-information","relevant_dimensions":["pattern","legs"],"bee_group":{"antennae":"X","wings":"X","pattern":"S","legs":"F"},"bonus":0.1},{"rt":1188.7999999523163,"stimulus":"bees-with-color/bee-B2DF.svg","response":1,"trial_type":"image-button-response","trial_index":53,"time_elapsed":290161,"internal_node_id":"0.0-4.0-0.23","subject_id":"6102f7a4a340c0eec430fbaa","study_id":"6197b3f67c2b5cd3b6d9596a","session_id":"6197b9eb0a2a27f7716502e4","condition":"full-information","relevant_dimensions":["pattern","legs"],"bee_group":{"antennae":"X","wings":"X","pattern":"S","legs":"F"},"action":"avoid","summary":"bad-avoid","bonus":0.1},{"rt":1967.7000000476837,"stimulus":"\n                    <p><b>Action: <em>avoid</em></b></p>\n                    <p>This is the bee that you just saw.</p>\n                    <img src=\"bees-with-color/bee-B2DF.svg\" width=\"200\">\n                    <p><span class=\"redText\">Bad choice,</span> the bee was friendly.<br>Your bonus pay is unchanged, and remains at $0.18.</p>\n            ","response":0,"trial_type":"html-button-response","trial_index":54,"time_elapsed":292132,"internal_node_id":"0.0-4.0-1.23","subject_id":"6102f7a4a340c0eec430fbaa","study_id":"6197b3f67c2b5cd3b6d9596a","session_id":"6197b9eb0a2a27f7716502e4","condition":"full-information","relevant_dimensions":["pattern","legs"],"bee_group":{"antennae":"X","wings":"X","pattern":"S","legs":"F"},"bonus":0.1},{"rt":2134.199999988079,"stimulus":"bees-with-color/bee-A1DM.svg","response":0,"trial_type":"image-button-response","trial_index":55,"time_elapsed":294269,"internal_node_id":"0.0-4.0-0.24","subject_id":"6102f7a4a340c0eec430fbaa","study_id":"6197b3f67c2b5cd3b6d9596a","session_id":"6197b9eb0a2a27f7716502e4","condition":"full-information","relevant_dimensions":["pattern","legs"],"bee_group":{"antennae":"X","wings":"X","pattern":"S","legs":"F"},"action":"harvest","summary":"good-harvest","bonus":0.1},{"rt":925.8000000119209,"stimulus":"\n                    <p><b>Action: <em>harvest</em></b></p>\n                    <p>This is the bee that you just saw.</p>\n                    <img src=\"bees-with-color/bee-A1DM.svg\" width=\"200\">\n                    <p><span class=\"greenText\"><b>Successful harvest!</b></span><br>Your pay has increased by $0.02. Your bonus pay is now $0.20.</p>\n            ","response":0,"trial_type":"html-button-response","trial_index":56,"time_elapsed":295197,"internal_node_id":"0.0-4.0-1.24","subject_id":"6102f7a4a340c0eec430fbaa","study_id":"6197b3f67c2b5cd3b6d9596a","session_id":"6197b9eb0a2a27f7716502e4","condition":"full-information","relevant_dimensions":["pattern","legs"],"bee_group":{"antennae":"X","wings":"X","pattern":"S","legs":"F"},"bonus":0.1},{"rt":1774.800000011921,"stimulus":"bees-with-color/bee-B1SF.svg","response":0,"trial_type":"image-button-response","trial_index":57,"time_elapsed":296974,"internal_node_id":"0.0-4.0-0.25","subject_id":"6102f7a4a340c0eec430fbaa","study_id":"6197b3f67c2b5cd3b6d9596a","session_id":"6197b9eb0a2a27f7716502e4","condition":"full-information","relevant_dimensions":["pattern","legs"],"bee_group":{"antennae":"X","wings":"X","pattern":"S","legs":"F"},"action":"harvest","summary":"bad-harvest","bonus":0.1},{"rt":5539.900000035763,"stimulus":"\n                    <p><b>Action: <em>harvest</em></b></p>\n                    <p>This is the bee that you just saw.</p>\n                    <img src=\"bees-with-color/bee-B1SF.svg\" width=\"200\">\n                    <p><span class=\"redText\">Bad choice, the bee was angry.</span><br><b>You have been stung!</b><br>Your pay has been decreased by $0.10. Your bonus pay is now $0.10.</p>\n            ","response":0,"trial_type":"html-button-response","trial_index":58,"time_elapsed":302517,"internal_node_id":"0.0-4.0-1.25","subject_id":"6102f7a4a340c0eec430fbaa","study_id":"6197b3f67c2b5cd3b6d9596a","session_id":"6197b9eb0a2a27f7716502e4","condition":"full-information","relevant_dimensions":["pattern","legs"],"bee_group":{"antennae":"X","wings":"X","pattern":"S","legs":"F"},"bonus":0.1},{"rt":1602.5,"stimulus":"bees-with-color/bee-A2DF.svg","response":0,"trial_type":"image-button-response","trial_index":59,"time_elapsed":304123,"internal_node_id":"0.0-4.0-0.26","subject_id":"6102f7a4a340c0eec430fbaa","study_id":"6197b3f67c2b5cd3b6d9596a","session_id":"6197b9eb0a2a27f7716502e4","condition":"full-information","relevant_dimensions":["pattern","legs"],"bee_group":{"antennae":"X","wings":"X","pattern":"S","legs":"F"},"action":"harvest","summary":"good-harvest","bonus":0.1},{"rt":1277.0999999642372,"stimulus":"\n                    <p><b>Action: <em>harvest</em></b></p>\n                    <p>This is the bee that you just saw.</p>\n                    <img src=\"bees-with-color/bee-A2DF.svg\" width=\"200\">\n                    <p><span class=\"greenText\"><b>Successful harvest!</b></span><br>Your pay has increased by $0.02. Your bonus pay is now $0.12.</p>\n            ","response":0,"trial_type":"html-button-response","trial_index":60,"time_elapsed":305403,"internal_node_id":"0.0-4.0-1.26","subject_id":"6102f7a4a340c0eec430fbaa","study_id":"6197b3f67c2b5cd3b6d9596a","session_id":"6197b9eb0a2a27f7716502e4","condition":"full-information","relevant_dimensions":["pattern","legs"],"bee_group":{"antennae":"X","wings":"X","pattern":"S","legs":"F"},"bonus":0.1},{"rt":1960.800000011921,"stimulus":"bees-with-color/bee-A1SF.svg","response":1,"trial_type":"image-button-response","trial_index":61,"time_elapsed":307367,"internal_node_id":"0.0-4.0-0.27","subject_id":"6102f7a4a340c0eec430fbaa","study_id":"6197b3f67c2b5cd3b6d9596a","session_id":"6197b9eb0a2a27f7716502e4","condition":"full-information","relevant_dimensions":["pattern","legs"],"bee_group":{"antennae":"X","wings":"X","pattern":"S","legs":"F"},"action":"avoid","summary":"good-avoid","bonus":0.1},{"rt":1871.699999988079,"stimulus":"\n                    <p><b>Action: <em>avoid</em></b></p>\n                    <p>This is the bee that you just saw.</p>\n                    <img src=\"bees-with-color/bee-A1SF.svg\" width=\"200\">\n                    <p><span class=\"greenText\">Good choice!</span>  This bee would have stung you.<br>Your bonus pay is unchanged, and remains at $0.12.</p>\n            ","response":0,"trial_type":"html-button-response","trial_index":62,"time_elapsed":309241,"internal_node_id":"0.0-4.0-1.27","subject_id":"6102f7a4a340c0eec430fbaa","study_id":"6197b3f67c2b5cd3b6d9596a","session_id":"6197b9eb0a2a27f7716502e4","condition":"full-information","relevant_dimensions":["pattern","legs"],"bee_group":{"antennae":"X","wings":"X","pattern":"S","legs":"F"},"bonus":0.1},{"rt":838.3999999761581,"stimulus":"bees-with-color/bee-B1DM.svg","response":0,"trial_type":"image-button-response","trial_index":63,"time_elapsed":310082,"internal_node_id":"0.0-4.0-0.28","subject_id":"6102f7a4a340c0eec430fbaa","study_id":"6197b3f67c2b5cd3b6d9596a","session_id":"6197b9eb0a2a27f7716502e4","condition":"full-information","relevant_dimensions":["pattern","legs"],"bee_group":{"antennae":"X","wings":"X","pattern":"S","legs":"F"},"action":"harvest","summary":"good-harvest","bonus":0.1},{"rt":746.5,"stimulus":"\n                    <p><b>Action: <em>harvest</em></b></p>\n                    <p>This is the bee that you just saw.</p>\n                    <img src=\"bees-with-color/bee-B1DM.svg\" width=\"200\">\n                    <p><span class=\"greenText\"><b>Successful harvest!</b></span><br>Your pay has increased by $0.02. Your bonus pay is now $0.14.</p>\n            ","response":0,"trial_type":"html-button-response","trial_index":64,"time_elapsed":310831,"internal_node_id":"0.0-4.0-1.28","subject_id":"6102f7a4a340c0eec430fbaa","study_id":"6197b3f67c2b5cd3b6d9596a","session_id":"6197b9eb0a2a27f7716502e4","condition":"full-information","relevant_dimensions":["pattern","legs"],"bee_group":{"antennae":"X","wings":"X","pattern":"S","legs":"F"},"bonus":0.1},{"rt":739.6999999880791,"stimulus":"bees-with-color/bee-B1DF.svg","response":0,"trial_type":"image-button-response","trial_index":65,"time_elapsed":311573,"internal_node_id":"0.0-4.0-0.29","subject_id":"6102f7a4a340c0eec430fbaa","study_id":"6197b3f67c2b5cd3b6d9596a","session_id":"6197b9eb0a2a27f7716502e4","condition":"full-information","relevant_dimensions":["pattern","legs"],"bee_group":{"antennae":"X","wings":"X","pattern":"S","legs":"F"},"action":"harvest","summary":"good-harvest","bonus":0.1},{"rt":1274.9000000357628,"stimulus":"\n                    <p><b>Action: <em>harvest</em></b></p>\n                    <p>This is the bee that you just saw.</p>\n                    <img src=\"bees-with-color/bee-B1DF.svg\" width=\"200\">\n                    <p><span class=\"greenText\"><b>Successful harvest!</b></span><br>Your pay has increased by $0.02. Your bonus pay is now $0.16.</p>\n            ","response":0,"trial_type":"html-button-response","trial_index":66,"time_elapsed":312850,"internal_node_id":"0.0-4.0-1.29","subject_id":"6102f7a4a340c0eec430fbaa","study_id":"6197b3f67c2b5cd3b6d9596a","session_id":"6197b9eb0a2a27f7716502e4","condition":"full-information","relevant_dimensions":["pattern","legs"],"bee_group":{"antennae":"X","wings":"X","pattern":"S","legs":"F"},"bonus":0.1},{"rt":1141.5,"stimulus":"bees-with-color/bee-A1SM.svg","response":1,"trial_type":"image-button-response","trial_index":67,"time_elapsed":313994,"internal_node_id":"0.0-4.0-0.30","subject_id":"6102f7a4a340c0eec430fbaa","study_id":"6197b3f67c2b5cd3b6d9596a","session_id":"6197b9eb0a2a27f7716502e4","condition":"full-information","relevant_dimensions":["pattern","legs"],"bee_group":{"antennae":"X","wings":"X","pattern":"S","legs":"F"},"action":"avoid","summary":"bad-avoid","bonus":0.1},{"rt":1586.5,"stimulus":"\n                    <p><b>Action: <em>avoid</em></b></p>\n                    <p>This is the bee that you just saw.</p>\n                    <img src=\"bees-with-color/bee-A1SM.svg\" width=\"200\">\n                    <p><span class=\"redText\">Bad choice,</span> the bee was friendly.<br>Your bonus pay is unchanged, and remains at $0.16.</p>\n            ","response":0,"trial_type":"html-button-response","trial_index":68,"time_elapsed":315583,"internal_node_id":"0.0-4.0-1.30","subject_id":"6102f7a4a340c0eec430fbaa","study_id":"6197b3f67c2b5cd3b6d9596a","session_id":"6197b9eb0a2a27f7716502e4","condition":"full-information","relevant_dimensions":["pattern","legs"],"bee_group":{"antennae":"X","wings":"X","pattern":"S","legs":"F"},"bonus":0.1},{"rt":1244.9000000357628,"stimulus":"bees-with-color/bee-A2SM.svg","response":0,"trial_type":"image-button-response","trial_index":69,"time_elapsed":316830,"internal_node_id":"0.0-4.0-0.31","subject_id":"6102f7a4a340c0eec430fbaa","study_id":"6197b3f67c2b5cd3b6d9596a","session_id":"6197b9eb0a2a27f7716502e4","condition":"full-information","relevant_dimensions":["pattern","legs"],"bee_group":{"antennae":"X","wings":"X","pattern":"S","legs":"F"},"action":"harvest","summary":"good-harvest","bonus":0.1},{"rt":779,"stimulus":"\n                    <p><b>Action: <em>harvest</em></b></p>\n                    <p>This is the bee that you just saw.</p>\n                    <img src=\"bees-with-color/bee-A2SM.svg\" width=\"200\">\n                    <p><span class=\"greenText\"><b>Successful harvest!</b></span><br>Your pay has increased by $0.02. Your bonus pay is now $0.18.</p>\n            ","response":0,"trial_type":"html-button-response","trial_index":70,"time_elapsed":317612,"internal_node_id":"0.0-4.0-1.31","subject_id":"6102f7a4a340c0eec430fbaa","study_id":"6197b3f67c2b5cd3b6d9596a","session_id":"6197b9eb0a2a27f7716502e4","condition":"full-information","relevant_dimensions":["pattern","legs"],"bee_group":{"antennae":"X","wings":"X","pattern":"S","legs":"F"},"bonus":0.1},{"rt":1375.300000011921,"stimulus":"bees-with-color/bee-A2DM.svg","response":0,"trial_type":"image-button-response","trial_index":71,"time_elapsed":318990,"internal_node_id":"0.0-4.0-0.32","subject_id":"6102f7a4a340c0eec430fbaa","study_id":"6197b3f67c2b5cd3b6d9596a","session_id":"6197b9eb0a2a27f7716502e4","condition":"full-information","relevant_dimensions":["pattern","legs"],"bee_group":{"antennae":"X","wings":"X","pattern":"S","legs":"F"},"action":"harvest","summary":"good-harvest","bonus":0.1},{"rt":819.6999999880791,"stimulus":"\n                    <p><b>Action: <em>harvest</em></b></p>\n                    <p>This is the bee that you just saw.</p>\n                    <img src=\"bees-with-color/bee-A2DM.svg\" width=\"200\">\n                    <p><span class=\"greenText\"><b>Successful harvest!</b></span><br>Your pay has increased by $0.02. Your bonus pay is now $0.20.</p>\n            ","response":0,"trial_type":"html-button-response","trial_index":72,"time_elapsed":319812,"internal_node_id":"0.0-4.0-1.32","subject_id":"6102f7a4a340c0eec430fbaa","study_id":"6197b3f67c2b5cd3b6d9596a","session_id":"6197b9eb0a2a27f7716502e4","condition":"full-information","relevant_dimensions":["pattern","legs"],"bee_group":{"antennae":"X","wings":"X","pattern":"S","legs":"F"},"bonus":0.1},{"rt":731.5,"stimulus":"bees-with-color/bee-A1SF.svg","response":1,"trial_type":"image-button-response","trial_index":73,"time_elapsed":320546,"internal_node_id":"0.0-4.0-0.33","subject_id":"6102f7a4a340c0eec430fbaa","study_id":"6197b3f67c2b5cd3b6d9596a","session_id":"6197b9eb0a2a27f7716502e4","condition":"full-information","relevant_dimensions":["pattern","legs"],"bee_group":{"antennae":"X","wings":"X","pattern":"S","legs":"F"},"action":"avoid","summary":"good-avoid","bonus":0.1},{"rt":2581.800000011921,"stimulus":"\n                    <p><b>Action: <em>avoid</em></b></p>\n                    <p>This is the bee that you just saw.</p>\n                    <img src=\"bees-with-color/bee-A1SF.svg\" width=\"200\">\n                    <p><span class=\"greenText\">Good choice!</span>  This bee would have stung you.<br>Your bonus pay is unchanged, and remains at $0.20.</p>\n            ","response":0,"trial_type":"html-button-response","trial_index":74,"time_elapsed":323130,"internal_node_id":"0.0-4.0-1.33","subject_id":"6102f7a4a340c0eec430fbaa","study_id":"6197b3f67c2b5cd3b6d9596a","session_id":"6197b9eb0a2a27f7716502e4","condition":"full-information","relevant_dimensions":["pattern","legs"],"bee_group":{"antennae":"X","wings":"X","pattern":"S","legs":"F"},"bonus":0.1},{"rt":1024.199999988079,"stimulus":"bees-with-color/bee-B2SF.svg","response":0,"trial_type":"image-button-response","trial_index":75,"time_elapsed":324157,"internal_node_id":"0.0-4.0-0.34","subject_id":"6102f7a4a340c0eec430fbaa","study_id":"6197b3f67c2b5cd3b6d9596a","session_id":"6197b9eb0a2a27f7716502e4","condition":"full-information","relevant_dimensions":["pattern","legs"],"bee_group":{"antennae":"X","wings":"X","pattern":"S","legs":"F"},"action":"harvest","summary":"bad-harvest","bonus":0.1},{"rt":2068.699999988079,"stimulus":"\n                    <p><b>Action: <em>harvest</em></b></p>\n                    <p>This is the bee that you just saw.</p>\n                    <img src=\"bees-with-color/bee-B2SF.svg\" width=\"200\">\n                    <p><span class=\"redText\">Bad choice, the bee was angry.</span><br><b>You have been stung!</b><br>Your pay has been decreased by $0.10. Your bonus pay is now $0.10.</p>\n            ","response":0,"trial_type":"html-button-response","trial_index":76,"time_elapsed":326228,"internal_node_id":"0.0-4.0-1.34","subject_id":"6102f7a4a340c0eec430fbaa","study_id":"6197b3f67c2b5cd3b6d9596a","session_id":"6197b9eb0a2a27f7716502e4","condition":"full-information","relevant_dimensions":["pattern","legs"],"bee_group":{"antennae":"X","wings":"X","pattern":"S","legs":"F"},"bonus":0.1},{"rt":2500.7999999523163,"stimulus":"bees-with-color/bee-A2DF.svg","response":0,"trial_type":"image-button-response","trial_index":77,"time_elapsed":328731,"internal_node_id":"0.0-4.0-0.35","subject_id":"6102f7a4a340c0eec430fbaa","study_id":"6197b3f67c2b5cd3b6d9596a","session_id":"6197b9eb0a2a27f7716502e4","condition":"full-information","relevant_dimensions":["pattern","legs"],"bee_group":{"antennae":"X","wings":"X","pattern":"S","legs":"F"},"action":"harvest","summary":"good-harvest","bonus":0.1},{"rt":772.3000000119209,"stimulus":"\n                    <p><b>Action: <em>harvest</em></b></p>\n                    <p>This is the bee that you just saw.</p>\n                    <img src=\"bees-with-color/bee-A2DF.svg\" width=\"200\">\n                    <p><span class=\"greenText\"><b>Successful harvest!</b></span><br>Your pay has increased by $0.02. Your bonus pay is now $0.12.</p>\n            ","response":0,"trial_type":"html-button-response","trial_index":78,"time_elapsed":329505,"internal_node_id":"0.0-4.0-1.35","subject_id":"6102f7a4a340c0eec430fbaa","study_id":"6197b3f67c2b5cd3b6d9596a","session_id":"6197b9eb0a2a27f7716502e4","condition":"full-information","relevant_dimensions":["pattern","legs"],"bee_group":{"antennae":"X","wings":"X","pattern":"S","legs":"F"},"bonus":0.1},{"rt":1563.5999999642372,"stimulus":"bees-with-color/bee-B1DF.svg","response":0,"trial_type":"image-button-response","trial_index":79,"time_elapsed":331070,"internal_node_id":"0.0-4.0-0.36","subject_id":"6102f7a4a340c0eec430fbaa","study_id":"6197b3f67c2b5cd3b6d9596a","session_id":"6197b9eb0a2a27f7716502e4","condition":"full-information","relevant_dimensions":["pattern","legs"],"bee_group":{"antennae":"X","wings":"X","pattern":"S","legs":"F"},"action":"harvest","summary":"good-harvest","bonus":0.1},{"rt":813.3000000119209,"stimulus":"\n                    <p><b>Action: <em>harvest</em></b></p>\n                    <p>This is the bee that you just saw.</p>\n                    <img src=\"bees-with-color/bee-B1DF.svg\" width=\"200\">\n                    <p><span class=\"greenText\"><b>Successful harvest!</b></span><br>Your pay has increased by $0.02. Your bonus pay is now $0.14.</p>\n            ","response":0,"trial_type":"html-button-response","trial_index":80,"time_elapsed":331885,"internal_node_id":"0.0-4.0-1.36","subject_id":"6102f7a4a340c0eec430fbaa","study_id":"6197b3f67c2b5cd3b6d9596a","session_id":"6197b9eb0a2a27f7716502e4","condition":"full-information","relevant_dimensions":["pattern","legs"],"bee_group":{"antennae":"X","wings":"X","pattern":"S","legs":"F"},"bonus":0.1},{"rt":1187.6000000238419,"stimulus":"bees-with-color/bee-B1SM.svg","response":1,"trial_type":"image-button-response","trial_index":81,"time_elapsed":333075,"internal_node_id":"0.0-4.0-0.37","subject_id":"6102f7a4a340c0eec430fbaa","study_id":"6197b3f67c2b5cd3b6d9596a","session_id":"6197b9eb0a2a27f7716502e4","condition":"full-information","relevant_dimensions":["pattern","legs"],"bee_group":{"antennae":"X","wings":"X","pattern":"S","legs":"F"},"action":"avoid","summary":"bad-avoid","bonus":0.1},{"rt":1392.800000011921,"stimulus":"\n                    <p><b>Action: <em>avoid</em></b></p>\n                    <p>This is the bee that you just saw.</p>\n                    <img src=\"bees-with-color/bee-B1SM.svg\" width=\"200\">\n                    <p><span class=\"redText\">Bad choice,</span> the bee was friendly.<br>Your bonus pay is unchanged, and remains at $0.14.</p>\n            ","response":0,"trial_type":"html-button-response","trial_index":82,"time_elapsed":334469,"internal_node_id":"0.0-4.0-1.37","subject_id":"6102f7a4a340c0eec430fbaa","study_id":"6197b3f67c2b5cd3b6d9596a","session_id":"6197b9eb0a2a27f7716502e4","condition":"full-information","relevant_dimensions":["pattern","legs"],"bee_group":{"antennae":"X","wings":"X","pattern":"S","legs":"F"},"bonus":0.1},{"rt":1587.5,"stimulus":"bees-with-color/bee-A1DF.svg","response":1,"trial_type":"image-button-response","trial_index":83,"time_elapsed":336058,"internal_node_id":"0.0-4.0-0.38","subject_id":"6102f7a4a340c0eec430fbaa","study_id":"6197b3f67c2b5cd3b6d9596a","session_id":"6197b9eb0a2a27f7716502e4","condition":"full-information","relevant_dimensions":["pattern","legs"],"bee_group":{"antennae":"X","wings":"X","pattern":"S","legs":"F"},"action":"avoid","summary":"bad-avoid","bonus":0.1},{"rt":1025.2999999523163,"stimulus":"\n                    <p><b>Action: <em>avoid</em></b></p>\n                    <p>This is the bee that you just saw.</p>\n                    <img src=\"bees-with-color/bee-A1DF.svg\" width=\"200\">\n                    <p><span class=\"redText\">Bad choice,</span> the bee was friendly.<br>Your bonus pay is unchanged, and remains at $0.14.</p>\n            ","response":0,"trial_type":"html-button-response","trial_index":84,"time_elapsed":337086,"internal_node_id":"0.0-4.0-1.38","subject_id":"6102f7a4a340c0eec430fbaa","study_id":"6197b3f67c2b5cd3b6d9596a","session_id":"6197b9eb0a2a27f7716502e4","condition":"full-information","relevant_dimensions":["pattern","legs"],"bee_group":{"antennae":"X","wings":"X","pattern":"S","legs":"F"},"bonus":0.1},{"rt":2052.100000023842,"stimulus":"bees-with-color/bee-A1SM.svg","response":1,"trial_type":"image-button-response","trial_index":85,"time_elapsed":339139,"internal_node_id":"0.0-4.0-0.39","subject_id":"6102f7a4a340c0eec430fbaa","study_id":"6197b3f67c2b5cd3b6d9596a","session_id":"6197b9eb0a2a27f7716502e4","condition":"full-information","relevant_dimensions":["pattern","legs"],"bee_group":{"antennae":"X","wings":"X","pattern":"S","legs":"F"},"action":"avoid","summary":"bad-avoid","bonus":0.1},{"rt":846,"stimulus":"\n                    <p><b>Action: <em>avoid</em></b></p>\n                    <p>This is the bee that you just saw.</p>\n                    <img src=\"bees-with-color/bee-A1SM.svg\" width=\"200\">\n                    <p><span class=\"redText\">Bad choice,</span> the bee was friendly.<br>Your bonus pay is unchanged, and remains at $0.14.</p>\n            ","response":0,"trial_type":"html-button-response","trial_index":86,"time_elapsed":339987,"internal_node_id":"0.0-4.0-1.39","subject_id":"6102f7a4a340c0eec430fbaa","study_id":"6197b3f67c2b5cd3b6d9596a","session_id":"6197b9eb0a2a27f7716502e4","condition":"full-information","relevant_dimensions":["pattern","legs"],"bee_group":{"antennae":"X","wings":"X","pattern":"S","legs":"F"},"bonus":0.1},{"rt":1155.8999999761581,"stimulus":"bees-with-color/bee-B2DM.svg","response":0,"trial_type":"image-button-response","trial_index":87,"time_elapsed":341145,"internal_node_id":"0.0-4.0-0.40","subject_id":"6102f7a4a340c0eec430fbaa","study_id":"6197b3f67c2b5cd3b6d9596a","session_id":"6197b9eb0a2a27f7716502e4","condition":"full-information","relevant_dimensions":["pattern","legs"],"bee_group":{"antennae":"X","wings":"X","pattern":"S","legs":"F"},"action":"harvest","summary":"good-harvest","bonus":0.1},{"rt":837.1999999880791,"stimulus":"\n                    <p><b>Action: <em>harvest</em></b></p>\n                    <p>This is the bee that you just saw.</p>\n                    <img src=\"bees-with-color/bee-B2DM.svg\" width=\"200\">\n                    <p><span class=\"greenText\"><b>Successful harvest!</b></span><br>Your pay has increased by $0.02. Your bonus pay is now $0.16.</p>\n            ","response":0,"trial_type":"html-button-response","trial_index":88,"time_elapsed":341984,"internal_node_id":"0.0-4.0-1.40","subject_id":"6102f7a4a340c0eec430fbaa","study_id":"6197b3f67c2b5cd3b6d9596a","session_id":"6197b9eb0a2a27f7716502e4","condition":"full-information","relevant_dimensions":["pattern","legs"],"bee_group":{"antennae":"X","wings":"X","pattern":"S","legs":"F"},"bonus":0.1},{"rt":1197.1000000238419,"stimulus":"bees-with-color/bee-A2SM.svg","response":1,"trial_type":"image-button-response","trial_index":89,"time_elapsed":343182,"internal_node_id":"0.0-4.0-0.41","subject_id":"6102f7a4a340c0eec430fbaa","study_id":"6197b3f67c2b5cd3b6d9596a","session_id":"6197b9eb0a2a27f7716502e4","condition":"full-information","relevant_dimensions":["pattern","legs"],"bee_group":{"antennae":"X","wings":"X","pattern":"S","legs":"F"},"action":"avoid","summary":"bad-avoid","bonus":0.1},{"rt":862.5,"stimulus":"\n                    <p><b>Action: <em>avoid</em></b></p>\n                    <p>This is the bee that you just saw.</p>\n                    <img src=\"bees-with-color/bee-A2SM.svg\" width=\"200\">\n                    <p><span class=\"redText\">Bad choice,</span> the bee was friendly.<br>Your bonus pay is unchanged, and remains at $0.16.</p>\n            ","response":0,"trial_type":"html-button-response","trial_index":90,"time_elapsed":344046,"internal_node_id":"0.0-4.0-1.41","subject_id":"6102f7a4a340c0eec430fbaa","study_id":"6197b3f67c2b5cd3b6d9596a","session_id":"6197b9eb0a2a27f7716502e4","condition":"full-information","relevant_dimensions":["pattern","legs"],"bee_group":{"antennae":"X","wings":"X","pattern":"S","legs":"F"},"bonus":0.1},{"rt":936,"stimulus":"bees-with-color/bee-B2SM.svg","response":0,"trial_type":"image-button-response","trial_index":91,"time_elapsed":344984,"internal_node_id":"0.0-4.0-0.42","subject_id":"6102f7a4a340c0eec430fbaa","study_id":"6197b3f67c2b5cd3b6d9596a","session_id":"6197b9eb0a2a27f7716502e4","condition":"full-information","relevant_dimensions":["pattern","legs"],"bee_group":{"antennae":"X","wings":"X","pattern":"S","legs":"F"},"action":"harvest","summary":"good-harvest","bonus":0.1},{"rt":870.6000000238419,"stimulus":"\n                    <p><b>Action: <em>harvest</em></b></p>\n                    <p>This is the bee that you just saw.</p>\n                    <img src=\"bees-with-color/bee-B2SM.svg\" width=\"200\">\n                    <p><span class=\"greenText\"><b>Successful harvest!</b></span><br>Your pay has increased by $0.02. Your bonus pay is now $0.18.</p>\n            ","response":0,"trial_type":"html-button-response","trial_index":92,"time_elapsed":345856,"internal_node_id":"0.0-4.0-1.42","subject_id":"6102f7a4a340c0eec430fbaa","study_id":"6197b3f67c2b5cd3b6d9596a","session_id":"6197b9eb0a2a27f7716502e4","condition":"full-information","relevant_dimensions":["pattern","legs"],"bee_group":{"antennae":"X","wings":"X","pattern":"S","legs":"F"},"bonus":0.1},{"rt":4425.399999976158,"stimulus":"bees-with-color/bee-B1SF.svg","response":1,"trial_type":"image-button-response","trial_index":93,"time_elapsed":350283,"internal_node_id":"0.0-4.0-0.43","subject_id":"6102f7a4a340c0eec430fbaa","study_id":"6197b3f67c2b5cd3b6d9596a","session_id":"6197b9eb0a2a27f7716502e4","condition":"full-information","relevant_dimensions":["pattern","legs"],"bee_group":{"antennae":"X","wings":"X","pattern":"S","legs":"F"},"action":"avoid","summary":"good-avoid","bonus":0.1},{"rt":1220.8999999761581,"stimulus":"\n                    <p><b>Action: <em>avoid</em></b></p>\n                    <p>This is the bee that you just saw.</p>\n                    <img src=\"bees-with-color/bee-B1SF.svg\" width=\"200\">\n                    <p><span class=\"greenText\">Good choice!</span>  This bee would have stung you.<br>Your bonus pay is unchanged, and remains at $0.18.</p>\n            ","response":0,"trial_type":"html-button-response","trial_index":94,"time_elapsed":351505,"internal_node_id":"0.0-4.0-1.43","subject_id":"6102f7a4a340c0eec430fbaa","study_id":"6197b3f67c2b5cd3b6d9596a","session_id":"6197b9eb0a2a27f7716502e4","condition":"full-information","relevant_dimensions":["pattern","legs"],"bee_group":{"antennae":"X","wings":"X","pattern":"S","legs":"F"},"bonus":0.1},{"rt":731.1999999880791,"stimulus":"bees-with-color/bee-B2DF.svg","response":0,"trial_type":"image-button-response","trial_index":95,"time_elapsed":352239,"internal_node_id":"0.0-4.0-0.44","subject_id":"6102f7a4a340c0eec430fbaa","study_id":"6197b3f67c2b5cd3b6d9596a","session_id":"6197b9eb0a2a27f7716502e4","condition":"full-information","relevant_dimensions":["pattern","legs"],"bee_group":{"antennae":"X","wings":"X","pattern":"S","legs":"F"},"action":"harvest","summary":"good-harvest","bonus":0.1},{"rt":1359.5,"stimulus":"\n                    <p><b>Action: <em>harvest</em></b></p>\n                    <p>This is the bee that you just saw.</p>\n                    <img src=\"bees-with-color/bee-B2DF.svg\" width=\"200\">\n                    <p><span class=\"greenText\"><b>Successful harvest!</b></span><br>Your pay has increased by $0.02. Your bonus pay is now $0.20.</p>\n            ","response":0,"trial_type":"html-button-response","trial_index":96,"time_elapsed":353600,"internal_node_id":"0.0-4.0-1.44","subject_id":"6102f7a4a340c0eec430fbaa","study_id":"6197b3f67c2b5cd3b6d9596a","session_id":"6197b9eb0a2a27f7716502e4","condition":"full-information","relevant_dimensions":["pattern","legs"],"bee_group":{"antennae":"X","wings":"X","pattern":"S","legs":"F"},"bonus":0.1},{"rt":5043.800000011921,"stimulus":"bees-with-color/bee-A2SF.svg","response":0,"trial_type":"image-button-response","trial_index":97,"time_elapsed":358645,"internal_node_id":"0.0-4.0-0.45","subject_id":"6102f7a4a340c0eec430fbaa","study_id":"6197b3f67c2b5cd3b6d9596a","session_id":"6197b9eb0a2a27f7716502e4","condition":"full-information","relevant_dimensions":["pattern","legs"],"bee_group":{"antennae":"X","wings":"X","pattern":"S","legs":"F"},"action":"harvest","summary":"bad-harvest","bonus":0.1},{"rt":958.8000000119209,"stimulus":"\n                    <p><b>Action: <em>harvest</em></b></p>\n                    <p>This is the bee that you just saw.</p>\n                    <img src=\"bees-with-color/bee-A2SF.svg\" width=\"200\">\n                    <p><span class=\"redText\">Bad choice, the bee was angry.</span><br><b>You have been stung!</b><br>Your pay has been decreased by $0.10. Your bonus pay is now $0.10.</p>\n            ","response":0,"trial_type":"html-button-response","trial_index":98,"time_elapsed":359606,"internal_node_id":"0.0-4.0-1.45","subject_id":"6102f7a4a340c0eec430fbaa","study_id":"6197b3f67c2b5cd3b6d9596a","session_id":"6197b9eb0a2a27f7716502e4","condition":"full-information","relevant_dimensions":["pattern","legs"],"bee_group":{"antennae":"X","wings":"X","pattern":"S","legs":"F"},"bonus":0.1},{"rt":998.1000000238419,"stimulus":"bees-with-color/bee-B1DM.svg","response":0,"trial_type":"image-button-response","trial_index":99,"time_elapsed":360609,"internal_node_id":"0.0-4.0-0.46","subject_id":"6102f7a4a340c0eec430fbaa","study_id":"6197b3f67c2b5cd3b6d9596a","session_id":"6197b9eb0a2a27f7716502e4","condition":"full-information","relevant_dimensions":["pattern","legs"],"bee_group":{"antennae":"X","wings":"X","pattern":"S","legs":"F"},"action":"harvest","summary":"good-harvest","bonus":0.1},{"rt":624.6999999880791,"stimulus":"\n                    <p><b>Action: <em>harvest</em></b></p>\n                    <p>This is the bee that you just saw.</p>\n                    <img src=\"bees-with-color/bee-B1DM.svg\" width=\"200\">\n                    <p><span class=\"greenText\"><b>Successful harvest!</b></span><br>Your pay has increased by $0.02. Your bonus pay is now $0.12.</p>\n            ","response":0,"trial_type":"html-button-response","trial_index":100,"time_elapsed":361236,"internal_node_id":"0.0-4.0-1.46","subject_id":"6102f7a4a340c0eec430fbaa","study_id":"6197b3f67c2b5cd3b6d9596a","session_id":"6197b9eb0a2a27f7716502e4","condition":"full-information","relevant_dimensions":["pattern","legs"],"bee_group":{"antennae":"X","wings":"X","pattern":"S","legs":"F"},"bonus":0.1},{"rt":714.8000000119209,"stimulus":"bees-with-color/bee-A1DM.svg","response":0,"trial_type":"image-button-response","trial_index":101,"time_elapsed":361953,"internal_node_id":"0.0-4.0-0.47","subject_id":"6102f7a4a340c0eec430fbaa","study_id":"6197b3f67c2b5cd3b6d9596a","session_id":"6197b9eb0a2a27f7716502e4","condition":"full-information","relevant_dimensions":["pattern","legs"],"bee_group":{"antennae":"X","wings":"X","pattern":"S","legs":"F"},"action":"harvest","summary":"good-harvest","bonus":0.1},{"rt":787.5,"stimulus":"\n                    <p><b>Action: <em>harvest</em></b></p>\n                    <p>This is the bee that you just saw.</p>\n                    <img src=\"bees-with-color/bee-A1DM.svg\" width=\"200\">\n                    <p><span class=\"greenText\"><b>Successful harvest!</b></span><br>Your pay has increased by $0.02. Your bonus pay is now $0.14.</p>\n            ","response":0,"trial_type":"html-button-response","trial_index":102,"time_elapsed":362743,"internal_node_id":"0.0-4.0-1.47","subject_id":"6102f7a4a340c0eec430fbaa","study_id":"6197b3f67c2b5cd3b6d9596a","session_id":"6197b9eb0a2a27f7716502e4","condition":"full-information","relevant_dimensions":["pattern","legs"],"bee_group":{"antennae":"X","wings":"X","pattern":"S","legs":"F"},"bonus":0.1},{"rt":927.6999999880791,"stimulus":"bees-with-color/bee-B2DM.svg","response":1,"trial_type":"image-button-response","trial_index":103,"time_elapsed":363673,"internal_node_id":"0.0-4.0-0.48","subject_id":"6102f7a4a340c0eec430fbaa","study_id":"6197b3f67c2b5cd3b6d9596a","session_id":"6197b9eb0a2a27f7716502e4","condition":"full-information","relevant_dimensions":["pattern","legs"],"bee_group":{"antennae":"X","wings":"X","pattern":"S","legs":"F"},"action":"avoid","summary":"bad-avoid","bonus":0.1},{"rt":673.5,"stimulus":"\n                    <p><b>Action: <em>avoid</em></b></p>\n                    <p>This is the bee that you just saw.</p>\n                    <img src=\"bees-with-color/bee-B2DM.svg\" width=\"200\">\n                    <p><span class=\"redText\">Bad choice,</span> the bee was friendly.<br>Your bonus pay is unchanged, and remains at $0.14.</p>\n            ","response":0,"trial_type":"html-button-response","trial_index":104,"time_elapsed":364350,"internal_node_id":"0.0-4.0-1.48","subject_id":"6102f7a4a340c0eec430fbaa","study_id":"6197b3f67c2b5cd3b6d9596a","session_id":"6197b9eb0a2a27f7716502e4","condition":"full-information","relevant_dimensions":["pattern","legs"],"bee_group":{"antennae":"X","wings":"X","pattern":"S","legs":"F"},"bonus":0.1},{"rt":1065.199999988079,"stimulus":"bees-with-color/bee-B1SM.svg","response":1,"trial_type":"image-button-response","trial_index":105,"time_elapsed":365417,"internal_node_id":"0.0-4.0-0.49","subject_id":"6102f7a4a340c0eec430fbaa","study_id":"6197b3f67c2b5cd3b6d9596a","session_id":"6197b9eb0a2a27f7716502e4","condition":"full-information","relevant_dimensions":["pattern","legs"],"bee_group":{"antennae":"X","wings":"X","pattern":"S","legs":"F"},"action":"avoid","summary":"bad-avoid","bonus":0.1},{"rt":1040.699999988079,"stimulus":"\n                    <p><b>Action: <em>avoid</em></b></p>\n                    <p>This is the bee that you just saw.</p>\n                    <img src=\"bees-with-color/bee-B1SM.svg\" width=\"200\">\n                    <p><span class=\"redText\">Bad choice,</span> the bee was friendly.<br>Your bonus pay is unchanged, and remains at $0.14.</p>\n            ","response":0,"trial_type":"html-button-response","trial_index":106,"time_elapsed":366461,"internal_node_id":"0.0-4.0-1.49","subject_id":"6102f7a4a340c0eec430fbaa","study_id":"6197b3f67c2b5cd3b6d9596a","session_id":"6197b9eb0a2a27f7716502e4","condition":"full-information","relevant_dimensions":["pattern","legs"],"bee_group":{"antennae":"X","wings":"X","pattern":"S","legs":"F"},"bonus":0.1},{"rt":1211.8999999761581,"stimulus":"bees-with-color/bee-A2DM.svg","response":1,"trial_type":"image-button-response","trial_index":107,"time_elapsed":367675,"internal_node_id":"0.0-4.0-0.50","subject_id":"6102f7a4a340c0eec430fbaa","study_id":"6197b3f67c2b5cd3b6d9596a","session_id":"6197b9eb0a2a27f7716502e4","condition":"full-information","relevant_dimensions":["pattern","legs"],"bee_group":{"antennae":"X","wings":"X","pattern":"S","legs":"F"},"action":"avoid","summary":"bad-avoid","bonus":0.1},{"rt":592.5999999642372,"stimulus":"\n                    <p><b>Action: <em>avoid</em></b></p>\n                    <p>This is the bee that you just saw.</p>\n                    <img src=\"bees-with-color/bee-A2DM.svg\" width=\"200\">\n                    <p><span class=\"redText\">Bad choice,</span> the bee was friendly.<br>Your bonus pay is unchanged, and remains at $0.14.</p>\n            ","response":0,"trial_type":"html-button-response","trial_index":108,"time_elapsed":368270,"internal_node_id":"0.0-4.0-1.50","subject_id":"6102f7a4a340c0eec430fbaa","study_id":"6197b3f67c2b5cd3b6d9596a","session_id":"6197b9eb0a2a27f7716502e4","condition":"full-information","relevant_dimensions":["pattern","legs"],"bee_group":{"antennae":"X","wings":"X","pattern":"S","legs":"F"},"bonus":0.1},{"rt":1081.8999999761581,"stimulus":"bees-with-color/bee-B1DF.svg","response":1,"trial_type":"image-button-response","trial_index":109,"time_elapsed":369354,"internal_node_id":"0.0-4.0-0.51","subject_id":"6102f7a4a340c0eec430fbaa","study_id":"6197b3f67c2b5cd3b6d9596a","session_id":"6197b9eb0a2a27f7716502e4","condition":"full-information","relevant_dimensions":["pattern","legs"],"bee_group":{"antennae":"X","wings":"X","pattern":"S","legs":"F"},"action":"avoid","summary":"bad-avoid","bonus":0.1},{"rt":583.9000000357628,"stimulus":"\n                    <p><b>Action: <em>avoid</em></b></p>\n                    <p>This is the bee that you just saw.</p>\n                    <img src=\"bees-with-color/bee-B1DF.svg\" width=\"200\">\n                    <p><span class=\"redText\">Bad choice,</span> the bee was friendly.<br>Your bonus pay is unchanged, and remains at $0.14.</p>\n            ","response":0,"trial_type":"html-button-response","trial_index":110,"time_elapsed":369941,"internal_node_id":"0.0-4.0-1.51","subject_id":"6102f7a4a340c0eec430fbaa","study_id":"6197b3f67c2b5cd3b6d9596a","session_id":"6197b9eb0a2a27f7716502e4","condition":"full-information","relevant_dimensions":["pattern","legs"],"bee_group":{"antennae":"X","wings":"X","pattern":"S","legs":"F"},"bonus":0.1},{"rt":713.8000000119209,"stimulus":"bees-with-color/bee-A1DF.svg","response":0,"trial_type":"image-button-response","trial_index":111,"time_elapsed":370657,"internal_node_id":"0.0-4.0-0.52","subject_id":"6102f7a4a340c0eec430fbaa","study_id":"6197b3f67c2b5cd3b6d9596a","session_id":"6197b9eb0a2a27f7716502e4","condition":"full-information","relevant_dimensions":["pattern","legs"],"bee_group":{"antennae":"X","wings":"X","pattern":"S","legs":"F"},"action":"harvest","summary":"good-harvest","bonus":0.1},{"rt":585.3000000119209,"stimulus":"\n                    <p><b>Action: <em>harvest</em></b></p>\n                    <p>This is the bee that you just saw.</p>\n                    <img src=\"bees-with-color/bee-A1DF.svg\" width=\"200\">\n                    <p><span class=\"greenText\"><b>Successful harvest!</b></span><br>Your pay has increased by $0.02. Your bonus pay is now $0.16.</p>\n            ","response":0,"trial_type":"html-button-response","trial_index":112,"time_elapsed":371245,"internal_node_id":"0.0-4.0-1.52","subject_id":"6102f7a4a340c0eec430fbaa","study_id":"6197b3f67c2b5cd3b6d9596a","session_id":"6197b9eb0a2a27f7716502e4","condition":"full-information","relevant_dimensions":["pattern","legs"],"bee_group":{"antennae":"X","wings":"X","pattern":"S","legs":"F"},"bonus":0.1},{"rt":918.3000000119209,"stimulus":"bees-with-color/bee-B1SF.svg","response":1,"trial_type":"image-button-response","trial_index":113,"time_elapsed":372166,"internal_node_id":"0.0-4.0-0.53","subject_id":"6102f7a4a340c0eec430fbaa","study_id":"6197b3f67c2b5cd3b6d9596a","session_id":"6197b9eb0a2a27f7716502e4","condition":"full-information","relevant_dimensions":["pattern","legs"],"bee_group":{"antennae":"X","wings":"X","pattern":"S","legs":"F"},"action":"avoid","summary":"good-avoid","bonus":0.1},{"rt":869.6000000238419,"stimulus":"\n                    <p><b>Action: <em>avoid</em></b></p>\n                    <p>This is the bee that you just saw.</p>\n                    <img src=\"bees-with-color/bee-B1SF.svg\" width=\"200\">\n                    <p><span class=\"greenText\">Good choice!</span>  This bee would have stung you.<br>Your bonus pay is unchanged, and remains at $0.16.</p>\n            ","response":0,"trial_type":"html-button-response","trial_index":114,"time_elapsed":373038,"internal_node_id":"0.0-4.0-1.53","subject_id":"6102f7a4a340c0eec430fbaa","study_id":"6197b3f67c2b5cd3b6d9596a","session_id":"6197b9eb0a2a27f7716502e4","condition":"full-information","relevant_dimensions":["pattern","legs"],"bee_group":{"antennae":"X","wings":"X","pattern":"S","legs":"F"},"bonus":0.1},{"rt":682,"stimulus":"bees-with-color/bee-A1DM.svg","response":0,"trial_type":"image-button-response","trial_index":115,"time_elapsed":373723,"internal_node_id":"0.0-4.0-0.54","subject_id":"6102f7a4a340c0eec430fbaa","study_id":"6197b3f67c2b5cd3b6d9596a","session_id":"6197b9eb0a2a27f7716502e4","condition":"full-information","relevant_dimensions":["pattern","legs"],"bee_group":{"antennae":"X","wings":"X","pattern":"S","legs":"F"},"action":"harvest","summary":"good-harvest","bonus":0.1},{"rt":698.5999999642372,"stimulus":"\n                    <p><b>Action: <em>harvest</em></b></p>\n                    <p>This is the bee that you just saw.</p>\n                    <img src=\"bees-with-color/bee-A1DM.svg\" width=\"200\">\n                    <p><span class=\"greenText\"><b>Successful harvest!</b></span><br>Your pay has increased by $0.02. Your bonus pay is now $0.18.</p>\n            ","response":0,"trial_type":"html-button-response","trial_index":116,"time_elapsed":374424,"internal_node_id":"0.0-4.0-1.54","subject_id":"6102f7a4a340c0eec430fbaa","study_id":"6197b3f67c2b5cd3b6d9596a","session_id":"6197b9eb0a2a27f7716502e4","condition":"full-information","relevant_dimensions":["pattern","legs"],"bee_group":{"antennae":"X","wings":"X","pattern":"S","legs":"F"},"bonus":0.1},{"rt":2809.699999988079,"stimulus":"bees-with-color/bee-A1SF.svg","response":0,"trial_type":"image-button-response","trial_index":117,"time_elapsed":377236,"internal_node_id":"0.0-4.0-0.55","subject_id":"6102f7a4a340c0eec430fbaa","study_id":"6197b3f67c2b5cd3b6d9596a","session_id":"6197b9eb0a2a27f7716502e4","condition":"full-information","relevant_dimensions":["pattern","legs"],"bee_group":{"antennae":"X","wings":"X","pattern":"S","legs":"F"},"action":"harvest","summary":"bad-harvest","bonus":0.1},{"rt":780,"stimulus":"\n                    <p><b>Action: <em>harvest</em></b></p>\n                    <p>This is the bee that you just saw.</p>\n                    <img src=\"bees-with-color/bee-A1SF.svg\" width=\"200\">\n                    <p><span class=\"redText\">Bad choice, the bee was angry.</span><br><b>You have been stung!</b><br>Your pay has been decreased by $0.10. Your bonus pay is now $0.08.</p>\n            ","response":0,"trial_type":"html-button-response","trial_index":118,"time_elapsed":378019,"internal_node_id":"0.0-4.0-1.55","subject_id":"6102f7a4a340c0eec430fbaa","study_id":"6197b3f67c2b5cd3b6d9596a","session_id":"6197b9eb0a2a27f7716502e4","condition":"full-information","relevant_dimensions":["pattern","legs"],"bee_group":{"antennae":"X","wings":"X","pattern":"S","legs":"F"},"bonus":0.1},{"rt":860.8000000119209,"stimulus":"bees-with-color/bee-B2SM.svg","response":0,"trial_type":"image-button-response","trial_index":119,"time_elapsed":378883,"internal_node_id":"0.0-4.0-0.56","subject_id":"6102f7a4a340c0eec430fbaa","study_id":"6197b3f67c2b5cd3b6d9596a","session_id":"6197b9eb0a2a27f7716502e4","condition":"full-information","relevant_dimensions":["pattern","legs"],"bee_group":{"antennae":"X","wings":"X","pattern":"S","legs":"F"},"action":"harvest","summary":"good-harvest","bonus":0.1},{"rt":869.6999999880791,"stimulus":"\n                    <p><b>Action: <em>harvest</em></b></p>\n                    <p>This is the bee that you just saw.</p>\n                    <img src=\"bees-with-color/bee-B2SM.svg\" width=\"200\">\n                    <p><span class=\"greenText\"><b>Successful harvest!</b></span><br>Your pay has increased by $0.02. Your bonus pay is now $0.10.</p>\n            ","response":0,"trial_type":"html-button-response","trial_index":120,"time_elapsed":379755,"internal_node_id":"0.0-4.0-1.56","subject_id":"6102f7a4a340c0eec430fbaa","study_id":"6197b3f67c2b5cd3b6d9596a","session_id":"6197b9eb0a2a27f7716502e4","condition":"full-information","relevant_dimensions":["pattern","legs"],"bee_group":{"antennae":"X","wings":"X","pattern":"S","legs":"F"},"bonus":0.1},{"rt":1056.1000000238419,"stimulus":"bees-with-color/bee-A2SF.svg","response":0,"trial_type":"image-button-response","trial_index":121,"time_elapsed":380813,"internal_node_id":"0.0-4.0-0.57","subject_id":"6102f7a4a340c0eec430fbaa","study_id":"6197b3f67c2b5cd3b6d9596a","session_id":"6197b9eb0a2a27f7716502e4","condition":"full-information","relevant_dimensions":["pattern","legs"],"bee_group":{"antennae":"X","wings":"X","pattern":"S","legs":"F"},"action":"harvest","summary":"bad-harvest","bonus":0.1},{"rt":545.1999999880791,"stimulus":"\n                    <p><b>Action: <em>harvest</em></b></p>\n                    <p>This is the bee that you just saw.</p>\n                    <img src=\"bees-with-color/bee-A2SF.svg\" width=\"200\">\n                    <p><span class=\"redText\">Bad choice, the bee was angry.</span><br><b>You have been stung!</b><br>Your pay has been decreased by $0.10. Your bonus pay is now $0.00.</p>\n            ","response":0,"trial_type":"html-button-response","trial_index":122,"time_elapsed":381361,"internal_node_id":"0.0-4.0-1.57","subject_id":"6102f7a4a340c0eec430fbaa","study_id":"6197b3f67c2b5cd3b6d9596a","session_id":"6197b9eb0a2a27f7716502e4","condition":"full-information","relevant_dimensions":["pattern","legs"],"bee_group":{"antennae":"X","wings":"X","pattern":"S","legs":"F"},"bonus":0.1},{"rt":1195.5,"stimulus":"bees-with-color/bee-A2DF.svg","response":0,"trial_type":"image-button-response","trial_index":123,"time_elapsed":382559,"internal_node_id":"0.0-4.0-0.58","subject_id":"6102f7a4a340c0eec430fbaa","study_id":"6197b3f67c2b5cd3b6d9596a","session_id":"6197b9eb0a2a27f7716502e4","condition":"full-information","relevant_dimensions":["pattern","legs"],"bee_group":{"antennae":"X","wings":"X","pattern":"S","legs":"F"},"action":"harvest","summary":"good-harvest","bonus":0.1},{"rt":722.3000000119209,"stimulus":"\n                    <p><b>Action: <em>harvest</em></b></p>\n                    <p>This is the bee that you just saw.</p>\n                    <img src=\"bees-with-color/bee-A2DF.svg\" width=\"200\">\n                    <p><span class=\"greenText\"><b>Successful harvest!</b></span><br>Your pay has increased by $0.02. Your bonus pay is now $0.02.</p>\n            ","response":0,"trial_type":"html-button-response","trial_index":124,"time_elapsed":383284,"internal_node_id":"0.0-4.0-1.58","subject_id":"6102f7a4a340c0eec430fbaa","study_id":"6197b3f67c2b5cd3b6d9596a","session_id":"6197b9eb0a2a27f7716502e4","condition":"full-information","relevant_dimensions":["pattern","legs"],"bee_group":{"antennae":"X","wings":"X","pattern":"S","legs":"F"},"bonus":0.1},{"rt":959.8000000119209,"stimulus":"bees-with-color/bee-A1SM.svg","response":0,"trial_type":"image-button-response","trial_index":125,"time_elapsed":384246,"internal_node_id":"0.0-4.0-0.59","subject_id":"6102f7a4a340c0eec430fbaa","study_id":"6197b3f67c2b5cd3b6d9596a","session_id":"6197b9eb0a2a27f7716502e4","condition":"full-information","relevant_dimensions":["pattern","legs"],"bee_group":{"antennae":"X","wings":"X","pattern":"S","legs":"F"},"action":"harvest","summary":"good-harvest","bonus":0.1},{"rt":493.89999997615814,"stimulus":"\n                    <p><b>Action: <em>harvest</em></b></p>\n                    <p>This is the bee that you just saw.</p>\n                    <img src=\"bees-with-color/bee-A1SM.svg\" width=\"200\">\n                    <p><span class=\"greenText\"><b>Successful harvest!</b></span><br>Your pay has increased by $0.02. Your bonus pay is now $0.04.</p>\n            ","response":0,"trial_type":"html-button-response","trial_index":126,"time_elapsed":384742,"internal_node_id":"0.0-4.0-1.59","subject_id":"6102f7a4a340c0eec430fbaa","study_id":"6197b3f67c2b5cd3b6d9596a","session_id":"6197b9eb0a2a27f7716502e4","condition":"full-information","relevant_dimensions":["pattern","legs"],"bee_group":{"antennae":"X","wings":"X","pattern":"S","legs":"F"},"bonus":0.1},{"rt":1384.199999988079,"stimulus":"bees-with-color/bee-B2DF.svg","response":0,"trial_type":"image-button-response","trial_index":127,"time_elapsed":386129,"internal_node_id":"0.0-4.0-0.60","subject_id":"6102f7a4a340c0eec430fbaa","study_id":"6197b3f67c2b5cd3b6d9596a","session_id":"6197b9eb0a2a27f7716502e4","condition":"full-information","relevant_dimensions":["pattern","legs"],"bee_group":{"antennae":"X","wings":"X","pattern":"S","legs":"F"},"action":"harvest","summary":"good-harvest","bonus":0.1},{"rt":535.4000000357628,"stimulus":"\n                    <p><b>Action: <em>harvest</em></b></p>\n                    <p>This is the bee that you just saw.</p>\n                    <img src=\"bees-with-color/bee-B2DF.svg\" width=\"200\">\n                    <p><span class=\"greenText\"><b>Successful harvest!</b></span><br>Your pay has increased by $0.02. Your bonus pay is now $0.06.</p>\n            ","response":0,"trial_type":"html-button-response","trial_index":128,"time_elapsed":386667,"internal_node_id":"0.0-4.0-1.60","subject_id":"6102f7a4a340c0eec430fbaa","study_id":"6197b3f67c2b5cd3b6d9596a","session_id":"6197b9eb0a2a27f7716502e4","condition":"full-information","relevant_dimensions":["pattern","legs"],"bee_group":{"antennae":"X","wings":"X","pattern":"S","legs":"F"},"bonus":0.1},{"rt":3469.5,"stimulus":"bees-with-color/bee-A2SM.svg","response":0,"trial_type":"image-button-response","trial_index":129,"time_elapsed":390139,"internal_node_id":"0.0-4.0-0.61","subject_id":"6102f7a4a340c0eec430fbaa","study_id":"6197b3f67c2b5cd3b6d9596a","session_id":"6197b9eb0a2a27f7716502e4","condition":"full-information","relevant_dimensions":["pattern","legs"],"bee_group":{"antennae":"X","wings":"X","pattern":"S","legs":"F"},"action":"harvest","summary":"good-harvest","bonus":0.1},{"rt":567.5,"stimulus":"\n                    <p><b>Action: <em>harvest</em></b></p>\n                    <p>This is the bee that you just saw.</p>\n                    <img src=\"bees-with-color/bee-A2SM.svg\" width=\"200\">\n                    <p><span class=\"greenText\"><b>Successful harvest!</b></span><br>Your pay has increased by $0.02. Your bonus pay is now $0.08.</p>\n            ","response":0,"trial_type":"html-button-response","trial_index":130,"time_elapsed":390709,"internal_node_id":"0.0-4.0-1.61","subject_id":"6102f7a4a340c0eec430fbaa","study_id":"6197b3f67c2b5cd3b6d9596a","session_id":"6197b9eb0a2a27f7716502e4","condition":"full-information","relevant_dimensions":["pattern","legs"],"bee_group":{"antennae":"X","wings":"X","pattern":"S","legs":"F"},"bonus":0.1},{"rt":4740.800000011921,"stimulus":"bees-with-color/bee-B2SF.svg","response":1,"trial_type":"image-button-response","trial_index":131,"time_elapsed":395453,"internal_node_id":"0.0-4.0-0.62","subject_id":"6102f7a4a340c0eec430fbaa","study_id":"6197b3f67c2b5cd3b6d9596a","session_id":"6197b9eb0a2a27f7716502e4","condition":"full-information","relevant_dimensions":["pattern","legs"],"bee_group":{"antennae":"X","wings":"X","pattern":"S","legs":"F"},"action":"avoid","summary":"good-avoid","bonus":0.1},{"rt":1219.5,"stimulus":"\n                    <p><b>Action: <em>avoid</em></b></p>\n                    <p>This is the bee that you just saw.</p>\n                    <img src=\"bees-with-color/bee-B2SF.svg\" width=\"200\">\n                    <p><span class=\"greenText\">Good choice!</span>  This bee would have stung you.<br>Your bonus pay is unchanged, and remains at $0.08.</p>\n            ","response":0,"trial_type":"html-button-response","trial_index":132,"time_elapsed":396676,"internal_node_id":"0.0-4.0-1.62","subject_id":"6102f7a4a340c0eec430fbaa","study_id":"6197b3f67c2b5cd3b6d9596a","session_id":"6197b9eb0a2a27f7716502e4","condition":"full-information","relevant_dimensions":["pattern","legs"],"bee_group":{"antennae":"X","wings":"X","pattern":"S","legs":"F"},"bonus":0.1},{"rt":2842.100000023842,"stimulus":"bees-with-color/bee-B1DM.svg","response":0,"trial_type":"image-button-response","trial_index":133,"time_elapsed":399521,"internal_node_id":"0.0-4.0-0.63","subject_id":"6102f7a4a340c0eec430fbaa","study_id":"6197b3f67c2b5cd3b6d9596a","session_id":"6197b9eb0a2a27f7716502e4","condition":"full-information","relevant_dimensions":["pattern","legs"],"bee_group":{"antennae":"X","wings":"X","pattern":"S","legs":"F"},"action":"harvest","summary":"good-harvest","bonus":0.1},{"rt":1080.3999999761581,"stimulus":"\n                    <p><b>Action: <em>harvest</em></b></p>\n                    <p>This is the bee that you just saw.</p>\n                    <img src=\"bees-with-color/bee-B1DM.svg\" width=\"200\">\n                    <p><span class=\"greenText\"><b>Successful harvest!</b></span><br>Your pay has increased by $0.02. Your bonus pay is now $0.10.</p>\n            ","response":0,"trial_type":"html-button-response","trial_index":134,"time_elapsed":400604,"internal_node_id":"0.0-4.0-1.63","subject_id":"6102f7a4a340c0eec430fbaa","study_id":"6197b3f67c2b5cd3b6d9596a","session_id":"6197b9eb0a2a27f7716502e4","condition":"full-information","relevant_dimensions":["pattern","legs"],"bee_group":{"antennae":"X","wings":"X","pattern":"S","legs":"F"},"bonus":0.1},{"rt":5876.900000035763,"stimulus":"You have completed the first part of this experiment.<br><br>You will now begin a shorter second part, in which you will receive no feedback.<br>The same rules regarding bonus pay apply.<br><br>Press any key to begin.","response":" ","trial_type":"html-keyboard-response","trial_index":135,"time_elapsed":406483,"internal_node_id":"0.0-5.0","subject_id":"6102f7a4a340c0eec430fbaa","study_id":"6197b3f67c2b5cd3b6d9596a","session_id":"6197b9eb0a2a27f7716502e4","condition":"full-information","relevant_dimensions":["pattern","legs"],"bee_group":{"antennae":"X","wings":"X","pattern":"S","legs":"F"},"bonus":0.1},{"rt":5910.099999964237,"stimulus":"bees-with-color/bee-A2DM.svg","response":0,"trial_type":"image-button-response","trial_index":136,"time_elapsed":412403,"internal_node_id":"0.0-6.0-0.0","subject_id":"6102f7a4a340c0eec430fbaa","study_id":"6197b3f67c2b5cd3b6d9596a","session_id":"6197b9eb0a2a27f7716502e4","condition":"full-information","relevant_dimensions":["pattern","legs"],"bee_group":{"antennae":"X","wings":"X","pattern":"S","legs":"F"},"bonus":0.1},{"rt":3475.699999988079,"stimulus":"bees-with-color/bee-B2DF.svg","response":0,"trial_type":"image-button-response","trial_index":137,"time_elapsed":415883,"internal_node_id":"0.0-6.0-0.1","subject_id":"6102f7a4a340c0eec430fbaa","study_id":"6197b3f67c2b5cd3b6d9596a","session_id":"6197b9eb0a2a27f7716502e4","condition":"full-information","relevant_dimensions":["pattern","legs"],"bee_group":{"antennae":"X","wings":"X","pattern":"S","legs":"F"},"bonus":0.1},{"rt":1877.699999988079,"stimulus":"bees-with-color/bee-B1DM.svg","response":0,"trial_type":"image-button-response","trial_index":138,"time_elapsed":417765,"internal_node_id":"0.0-6.0-0.2","subject_id":"6102f7a4a340c0eec430fbaa","study_id":"6197b3f67c2b5cd3b6d9596a","session_id":"6197b9eb0a2a27f7716502e4","condition":"full-information","relevant_dimensions":["pattern","legs"],"bee_group":{"antennae":"X","wings":"X","pattern":"S","legs":"F"},"bonus":0.1},{"rt":845,"stimulus":"bees-with-color/bee-A1DF.svg","response":1,"trial_type":"image-button-response","trial_index":139,"time_elapsed":418614,"internal_node_id":"0.0-6.0-0.3","subject_id":"6102f7a4a340c0eec430fbaa","study_id":"6197b3f67c2b5cd3b6d9596a","session_id":"6197b9eb0a2a27f7716502e4","condition":"full-information","relevant_dimensions":["pattern","legs"],"bee_group":{"antennae":"X","wings":"X","pattern":"S","legs":"F"},"bonus":0.1},{"rt":1561.699999988079,"stimulus":"bees-with-color/bee-B1SM.svg","response":0,"trial_type":"image-button-response","trial_index":140,"time_elapsed":420179,"internal_node_id":"0.0-6.0-0.4","subject_id":"6102f7a4a340c0eec430fbaa","study_id":"6197b3f67c2b5cd3b6d9596a","session_id":"6197b9eb0a2a27f7716502e4","condition":"full-information","relevant_dimensions":["pattern","legs"],"bee_group":{"antennae":"X","wings":"X","pattern":"S","legs":"F"},"bonus":0.1},{"rt":721.2999999523163,"stimulus":"bees-with-color/bee-B1DF.svg","response":1,"trial_type":"image-button-response","trial_index":141,"time_elapsed":420904,"internal_node_id":"0.0-6.0-0.5","subject_id":"6102f7a4a340c0eec430fbaa","study_id":"6197b3f67c2b5cd3b6d9596a","session_id":"6197b9eb0a2a27f7716502e4","condition":"full-information","relevant_dimensions":["pattern","legs"],"bee_group":{"antennae":"X","wings":"X","pattern":"S","legs":"F"},"bonus":0.1},{"rt":1585.7000000476837,"stimulus":"bees-with-color/bee-A1SF.svg","response":0,"trial_type":"image-button-response","trial_index":142,"time_elapsed":422493,"internal_node_id":"0.0-6.0-0.6","subject_id":"6102f7a4a340c0eec430fbaa","study_id":"6197b3f67c2b5cd3b6d9596a","session_id":"6197b9eb0a2a27f7716502e4","condition":"full-information","relevant_dimensions":["pattern","legs"],"bee_group":{"antennae":"X","wings":"X","pattern":"S","legs":"F"},"bonus":0.1},{"rt":1080.300000011921,"stimulus":"bees-with-color/bee-B2SF.svg","response":0,"trial_type":"image-button-response","trial_index":143,"time_elapsed":423577,"internal_node_id":"0.0-6.0-0.7","subject_id":"6102f7a4a340c0eec430fbaa","study_id":"6197b3f67c2b5cd3b6d9596a","session_id":"6197b9eb0a2a27f7716502e4","condition":"full-information","relevant_dimensions":["pattern","legs"],"bee_group":{"antennae":"X","wings":"X","pattern":"S","legs":"F"},"bonus":0.1},{"rt":810.8000000119209,"stimulus":"bees-with-color/bee-B2DM.svg","response":1,"trial_type":"image-button-response","trial_index":144,"time_elapsed":424392,"internal_node_id":"0.0-6.0-0.8","subject_id":"6102f7a4a340c0eec430fbaa","study_id":"6197b3f67c2b5cd3b6d9596a","session_id":"6197b9eb0a2a27f7716502e4","condition":"full-information","relevant_dimensions":["pattern","legs"],"bee_group":{"antennae":"X","wings":"X","pattern":"S","legs":"F"},"bonus":0.1},{"rt":1438.699999988079,"stimulus":"bees-with-color/bee-A2DF.svg","response":0,"trial_type":"image-button-response","trial_index":145,"time_elapsed":425835,"internal_node_id":"0.0-6.0-0.9","subject_id":"6102f7a4a340c0eec430fbaa","study_id":"6197b3f67c2b5cd3b6d9596a","session_id":"6197b9eb0a2a27f7716502e4","condition":"full-information","relevant_dimensions":["pattern","legs"],"bee_group":{"antennae":"X","wings":"X","pattern":"S","legs":"F"},"bonus":0.1},{"rt":1554,"stimulus":"bees-with-color/bee-A1SM.svg","response":1,"trial_type":"image-button-response","trial_index":146,"time_elapsed":427392,"internal_node_id":"0.0-6.0-0.10","subject_id":"6102f7a4a340c0eec430fbaa","study_id":"6197b3f67c2b5cd3b6d9596a","session_id":"6197b9eb0a2a27f7716502e4","condition":"full-information","relevant_dimensions":["pattern","legs"],"bee_group":{"antennae":"X","wings":"X","pattern":"S","legs":"F"},"bonus":0.1},{"rt":885.1999999880791,"stimulus":"bees-with-color/bee-B2SM.svg","response":0,"trial_type":"image-button-response","trial_index":147,"time_elapsed":428281,"internal_node_id":"0.0-6.0-0.11","subject_id":"6102f7a4a340c0eec430fbaa","study_id":"6197b3f67c2b5cd3b6d9596a","session_id":"6197b9eb0a2a27f7716502e4","condition":"full-information","relevant_dimensions":["pattern","legs"],"bee_group":{"antennae":"X","wings":"X","pattern":"S","legs":"F"},"bonus":0.1},{"rt":1104.699999988079,"stimulus":"bees-with-color/bee-A1DM.svg","response":1,"trial_type":"image-button-response","trial_index":148,"time_elapsed":429389,"internal_node_id":"0.0-6.0-0.12","subject_id":"6102f7a4a340c0eec430fbaa","study_id":"6197b3f67c2b5cd3b6d9596a","session_id":"6197b9eb0a2a27f7716502e4","condition":"full-information","relevant_dimensions":["pattern","legs"],"bee_group":{"antennae":"X","wings":"X","pattern":"S","legs":"F"},"bonus":0.1},{"rt":2149,"stimulus":"bees-with-color/bee-B1SF.svg","response":0,"trial_type":"image-button-response","trial_index":149,"time_elapsed":431542,"internal_node_id":"0.0-6.0-0.13","subject_id":"6102f7a4a340c0eec430fbaa","study_id":"6197b3f67c2b5cd3b6d9596a","session_id":"6197b9eb0a2a27f7716502e4","condition":"full-information","relevant_dimensions":["pattern","legs"],"bee_group":{"antennae":"X","wings":"X","pattern":"S","legs":"F"},"bonus":0.1},{"rt":997.5,"stimulus":"bees-with-color/bee-A2SM.svg","response":0,"trial_type":"image-button-response","trial_index":150,"time_elapsed":432543,"internal_node_id":"0.0-6.0-0.14","subject_id":"6102f7a4a340c0eec430fbaa","study_id":"6197b3f67c2b5cd3b6d9596a","session_id":"6197b9eb0a2a27f7716502e4","condition":"full-information","relevant_dimensions":["pattern","legs"],"bee_group":{"antennae":"X","wings":"X","pattern":"S","legs":"F"},"bonus":0.1},{"rt":925.5,"stimulus":"bees-with-color/bee-A2SF.svg","response":0,"trial_type":"image-button-response","trial_index":151,"time_elapsed":433473,"internal_node_id":"0.0-6.0-0.15","subject_id":"6102f7a4a340c0eec430fbaa","study_id":"6197b3f67c2b5cd3b6d9596a","session_id":"6197b9eb0a2a27f7716502e4","condition":"full-information","relevant_dimensions":["pattern","legs"],"bee_group":{"antennae":"X","wings":"X","pattern":"S","legs":"F"},"bonus":0.1},{"rt":501.80000001192093,"stimulus":"bees-with-color/bee-B2SM.svg","response":1,"trial_type":"image-button-response","trial_index":152,"time_elapsed":433978,"internal_node_id":"0.0-6.0-0.16","subject_id":"6102f7a4a340c0eec430fbaa","study_id":"6197b3f67c2b5cd3b6d9596a","session_id":"6197b9eb0a2a27f7716502e4","condition":"full-information","relevant_dimensions":["pattern","legs"],"bee_group":{"antennae":"X","wings":"X","pattern":"S","legs":"F"},"bonus":0.1},{"rt":1227.1000000238419,"stimulus":"bees-with-color/bee-A1SF.svg","response":0,"trial_type":"image-button-response","trial_index":153,"time_elapsed":435209,"internal_node_id":"0.0-6.0-0.17","subject_id":"6102f7a4a340c0eec430fbaa","study_id":"6197b3f67c2b5cd3b6d9596a","session_id":"6197b9eb0a2a27f7716502e4","condition":"full-information","relevant_dimensions":["pattern","legs"],"bee_group":{"antennae":"X","wings":"X","pattern":"S","legs":"F"},"bonus":0.1},{"rt":1325.699999988079,"stimulus":"bees-with-color/bee-A2SF.svg","response":0,"trial_type":"image-button-response","trial_index":154,"time_elapsed":436538,"internal_node_id":"0.0-6.0-0.18","subject_id":"6102f7a4a340c0eec430fbaa","study_id":"6197b3f67c2b5cd3b6d9596a","session_id":"6197b9eb0a2a27f7716502e4","condition":"full-information","relevant_dimensions":["pattern","legs"],"bee_group":{"antennae":"X","wings":"X","pattern":"S","legs":"F"},"bonus":0.1},{"rt":688.5,"stimulus":"bees-with-color/bee-B2DM.svg","response":1,"trial_type":"image-button-response","trial_index":155,"time_elapsed":437229,"internal_node_id":"0.0-6.0-0.19","subject_id":"6102f7a4a340c0eec430fbaa","study_id":"6197b3f67c2b5cd3b6d9596a","session_id":"6197b9eb0a2a27f7716502e4","condition":"full-information","relevant_dimensions":["pattern","legs"],"bee_group":{"antennae":"X","wings":"X","pattern":"S","legs":"F"},"bonus":0.1},{"rt":836.5,"stimulus":"bees-with-color/bee-B1DM.svg","response":1,"trial_type":"image-button-response","trial_index":156,"time_elapsed":438069,"internal_node_id":"0.0-6.0-0.20","subject_id":"6102f7a4a340c0eec430fbaa","study_id":"6197b3f67c2b5cd3b6d9596a","session_id":"6197b9eb0a2a27f7716502e4","condition":"full-information","relevant_dimensions":["pattern","legs"],"bee_group":{"antennae":"X","wings":"X","pattern":"S","legs":"F"},"bonus":0.1},{"rt":380.10000002384186,"stimulus":"bees-with-color/bee-A2DM.svg","response":0,"trial_type":"image-button-response","trial_index":157,"time_elapsed":438452,"internal_node_id":"0.0-6.0-0.21","subject_id":"6102f7a4a340c0eec430fbaa","study_id":"6197b3f67c2b5cd3b6d9596a","session_id":"6197b9eb0a2a27f7716502e4","condition":"full-information","relevant_dimensions":["pattern","legs"],"bee_group":{"antennae":"X","wings":"X","pattern":"S","legs":"F"},"bonus":0.1},{"rt":1154.699999988079,"stimulus":"bees-with-color/bee-A2DF.svg","response":1,"trial_type":"image-button-response","trial_index":158,"time_elapsed":439610,"internal_node_id":"0.0-6.0-0.22","subject_id":"6102f7a4a340c0eec430fbaa","study_id":"6197b3f67c2b5cd3b6d9596a","session_id":"6197b9eb0a2a27f7716502e4","condition":"full-information","relevant_dimensions":["pattern","legs"],"bee_group":{"antennae":"X","wings":"X","pattern":"S","legs":"F"},"bonus":0.1},{"rt":1260.1000000238419,"stimulus":"bees-with-color/bee-B2DF.svg","response":0,"trial_type":"image-button-response","trial_index":159,"time_elapsed":440874,"internal_node_id":"0.0-6.0-0.23","subject_id":"6102f7a4a340c0eec430fbaa","study_id":"6197b3f67c2b5cd3b6d9596a","session_id":"6197b9eb0a2a27f7716502e4","condition":"full-information","relevant_dimensions":["pattern","legs"],"bee_group":{"antennae":"X","wings":"X","pattern":"S","legs":"F"},"bonus":0.1},{"rt":1186.199999988079,"stimulus":"bees-with-color/bee-B2SF.svg","response":1,"trial_type":"image-button-response","trial_index":160,"time_elapsed":442063,"internal_node_id":"0.0-6.0-0.24","subject_id":"6102f7a4a340c0eec430fbaa","study_id":"6197b3f67c2b5cd3b6d9596a","session_id":"6197b9eb0a2a27f7716502e4","condition":"full-information","relevant_dimensions":["pattern","legs"],"bee_group":{"antennae":"X","wings":"X","pattern":"S","legs":"F"},"bonus":0.1},{"rt":1081.5999999642372,"stimulus":"bees-with-color/bee-B1DF.svg","response":1,"trial_type":"image-button-response","trial_index":161,"time_elapsed":443148,"internal_node_id":"0.0-6.0-0.25","subject_id":"6102f7a4a340c0eec430fbaa","study_id":"6197b3f67c2b5cd3b6d9596a","session_id":"6197b9eb0a2a27f7716502e4","condition":"full-information","relevant_dimensions":["pattern","legs"],"bee_group":{"antennae":"X","wings":"X","pattern":"S","legs":"F"},"bonus":0.1},{"rt":1292.5,"stimulus":"bees-with-color/bee-A2SM.svg","response":0,"trial_type":"image-button-response","trial_index":162,"time_elapsed":444444,"internal_node_id":"0.0-6.0-0.26","subject_id":"6102f7a4a340c0eec430fbaa","study_id":"6197b3f67c2b5cd3b6d9596a","session_id":"6197b9eb0a2a27f7716502e4","condition":"full-information","relevant_dimensions":["pattern","legs"],"bee_group":{"antennae":"X","wings":"X","pattern":"S","legs":"F"},"bonus":0.1},{"rt":844.6000000238419,"sti