[{"success":true,"trial_type":"fullscreen","trial_index":0,"time_elapsed":327536,"internal_node_id":"0.0-0.0","subject_id":"615de114da91c7b7988ddf0b","study_id":"60edd13110225f80f9f3709b","session_id":"6196c7048ed6ab1744f0d2d4","condition":"full-information","relevant_dimensions":["antennae","legs"],"bee_group":{"antennae":"A","wings":"X","pattern":"X","legs":"F"},"bonus":1.740000000000001},{"success":true,"timeout":false,"failed_images":[],"failed_audio":[],"failed_video":[],"trial_type":"preload","trial_index":1,"time_elapsed":330597,"internal_node_id":"0.0-1.0","subject_id":"615de114da91c7b7988ddf0b","study_id":"60edd13110225f80f9f3709b","session_id":"6196c7048ed6ab1744f0d2d4","condition":"full-information","relevant_dimensions":["antennae","legs"],"bee_group":{"antennae":"A","wings":"X","pattern":"X","legs":"F"},"bonus":1.740000000000001},{"rt":6545.100000023842,"stimulus":"Welcome! Press any key to begin.","response":"h","trial_type":"html-keyboard-response","trial_index":2,"time_elapsed":337144,"internal_node_id":"0.0-2.0","subject_id":"615de114da91c7b7988ddf0b","study_id":"60edd13110225f80f9f3709b","session_id":"6196c7048ed6ab1744f0d2d4","condition":"full-information","relevant_dimensions":["antennae","legs"],"bee_group":{"antennae":"A","wings":"X","pattern":"X","legs":"F"},"bonus":1.740000000000001},{"view_history":[{"page_index":0,"viewing_time":4359.5},{"page_index":1,"viewing_time":13441.899999976158},{"page_index":2,"viewing_time":16705.899999976158},{"page_index":3,"viewing_time":13386},{"page_index":4,"viewing_time":11627.800000071526},{"page_index":3,"viewing_time":4634},{"page_index":2,"viewing_time":4773.599999904633},{"page_index":3,"viewing_time":1282},{"page_index":4,"viewing_time":4338.300000071526},{"page_index":5,"viewing_time":17357.699999928474},{"page_index":6,"viewing_time":9462},{"page_index":7,"viewing_time":7366},{"page_index":8,"viewing_time":4482.5},{"page_index":7,"viewing_time":1419.7000000476837},{"page_index":8,"viewing_time":3589.7000000476837},{"page_index":9,"viewing_time":2852.0999999046326},{"page_index":8,"viewing_time":1148},{"page_index":9,"viewing_time":1427.8000000715256},{"page_index":10,"viewing_time":6136.199999928474},{"page_index":11,"viewing_time":8793.900000095367},{"page_index":12,"viewing_time":20865.799999952316},{"page_index":13,"viewing_time":1766},{"page_index":14,"viewing_time":1772.1000000238419}],"rt":162989,"trial_type":"instructions","trial_index":3,"time_elapsed":500133,"internal_node_id":"0.0-3.0-0.0","subject_id":"615de114da91c7b7988ddf0b","study_id":"60edd13110225f80f9f3709b","session_id":"6196c7048ed6ab1744f0d2d4","condition":"full-information","relevant_dimensions":["antennae","legs"],"bee_group":{"antennae":"A","wings":"X","pattern":"X","legs":"F"},"bonus":1.740000000000001},{"rt":12771.600000023842,"response":{"Q0":["Two or six legs","Stripes or spots on body","Single or double wings","Antennae or no antennae"]},"question_order":[0],"trial_type":"survey-multi-select","trial_index":4,"time_elapsed":512912,"internal_node_id":"0.0-3.0-1.0","subject_id":"615de114da91c7b7988ddf0b","study_id":"60edd13110225f80f9f3709b","session_id":"6196c7048ed6ab1744f0d2d4","condition":"full-information","relevant_dimensions":["antennae","legs"],"bee_group":{"antennae":"A","wings":"X","pattern":"X","legs":"F"},"correct":true,"bonus":1.740000000000001},{"rt":18566.400000095367,"response":{"Q1":"No.","Q2":"Based on the four features of the bee.","Q3":"You learn if it was friendly or dangerous, but do not alter your bonus."},"question_order":[0,1,2],"trial_type":"survey-multi-choice","trial_index":5,"time_elapsed":531486,"internal_node_id":"0.0-3.0-2.0","subject_id":"615de114da91c7b7988ddf0b","study_id":"60edd13110225f80f9f3709b","session_id":"6196c7048ed6ab1744f0d2d4","condition":"full-information","relevant_dimensions":["antennae","legs"],"bee_group":{"antennae":"A","wings":"X","pattern":"X","legs":"F"},"correct":true,"bonus":1.740000000000001},{"rt":2275.600000023842,"stimulus":"<p>Congrats, you got everything right<br>When you're ready, click the button below to continue to the experiment.</p>","response":0,"trial_type":"html-button-response","trial_index":6,"time_elapsed":533767,"internal_node_id":"0.0-3.0-3.0","subject_id":"615de114da91c7b7988ddf0b","study_id":"60edd13110225f80f9f3709b","session_id":"6196c7048ed6ab1744f0d2d4","condition":"full-information","relevant_dimensions":["antennae","legs"],"bee_group":{"antennae":"A","wings":"X","pattern":"X","legs":"F"},"bonus":1.740000000000001},{"rt":5374.399999976158,"stimulus":"bees-with-color/bee-B1DF.svg","response":1,"trial_type":"image-button-response","trial_index":7,"time_elapsed":539145,"internal_node_id":"0.0-4.0-0.0","subject_id":"615de114da91c7b7988ddf0b","study_id":"60edd13110225f80f9f3709b","session_id":"6196c7048ed6ab1744f0d2d4","condition":"full-information","relevant_dimensions":["antennae","legs"],"bee_group":{"antennae":"A","wings":"X","pattern":"X","legs":"F"},"action":"avoid","summary":"bad-avoid","bonus":1.740000000000001},{"rt":16836.600000023842,"stimulus":"\n                    <p><b>Action: <em>avoid</em></b></p>\n                    <p>This is the bee that you just saw.</p>\n                    <img src=\"bees-with-color/bee-B1DF.svg\" width=\"200\">\n                    <p><span class=\"redText\">Bad choice,</span> the bee was friendly.<br>Your bonus pay is unchanged, and remains at $0.54.</p>\n            ","response":0,"trial_type":"html-button-response","trial_index":8,"time_elapsed":555985,"internal_node_id":"0.0-4.0-1.0","subject_id":"615de114da91c7b7988ddf0b","study_id":"60edd13110225f80f9f3709b","session_id":"6196c7048ed6ab1744f0d2d4","condition":"full-information","relevant_dimensions":["antennae","legs"],"bee_group":{"antennae":"A","wings":"X","pattern":"X","legs":"F"},"bonus":1.740000000000001},{"rt":5466.400000095367,"stimulus":"bees-with-color/bee-A2DM.svg","response":1,"trial_type":"image-button-response","trial_index":9,"time_elapsed":561454,"internal_node_id":"0.0-4.0-0.1","subject_id":"615de114da91c7b7988ddf0b","study_id":"60edd13110225f80f9f3709b","session_id":"6196c7048ed6ab1744f0d2d4","condition":"full-information","relevant_dimensions":["antennae","legs"],"bee_group":{"antennae":"A","wings":"X","pattern":"X","legs":"F"},"action":"avoid","summary":"bad-avoid","bonus":1.740000000000001},{"rt":17199.700000047684,"stimulus":"\n                    <p><b>Action: <em>avoid</em></b></p>\n                    <p>This is the bee that you just saw.</p>\n                    <img src=\"bees-with-color/bee-A2DM.svg\" width=\"200\">\n                    <p><span class=\"redText\">Bad choice,</span> the bee was friendly.<br>Your bonus pay is unchanged, and remains at $0.54.</p>\n            ","response":0,"trial_type":"html-button-response","trial_index":10,"time_elapsed":578656,"internal_node_id":"0.0-4.0-1.1","subject_id":"615de114da91c7b7988ddf0b","study_id":"60edd13110225f80f9f3709b","session_id":"6196c7048ed6ab1744f0d2d4","condition":"full-information","relevant_dimensions":["antennae","legs"],"bee_group":{"antennae":"A","wings":"X","pattern":"X","legs":"F"},"bonus":1.740000000000001},{"rt":2151.399999976158,"stimulus":"bees-with-color/bee-B2DF.svg","response":0,"trial_type":"image-button-response","trial_index":11,"time_elapsed":580810,"internal_node_id":"0.0-4.0-0.2","subject_id":"615de114da91c7b7988ddf0b","study_id":"60edd13110225f80f9f3709b","session_id":"6196c7048ed6ab1744f0d2d4","condition":"full-information","relevant_dimensions":["antennae","legs"],"bee_group":{"antennae":"A","wings":"X","pattern":"X","legs":"F"},"action":"harvest","summary":"good-harvest","bonus":1.740000000000001},{"rt":7730.299999952316,"stimulus":"\n                    <p><b>Action: <em>harvest</em></b></p>\n                    <p>This is the bee that you just saw.</p>\n                    <img src=\"bees-with-color/bee-B2DF.svg\" width=\"200\">\n                    <p><span class=\"greenText\"><b>Successful harvest!</b></span><br>Your pay has increased by $0.02. Your bonus pay is now $0.56.</p>\n            ","response":0,"trial_type":"html-button-response","trial_index":12,"time_elapsed":588542,"internal_node_id":"0.0-4.0-1.2","subject_id":"615de114da91c7b7988ddf0b","study_id":"60edd13110225f80f9f3709b","session_id":"6196c7048ed6ab1744f0d2d4","condition":"full-information","relevant_dimensions":["antennae","legs"],"bee_group":{"antennae":"A","wings":"X","pattern":"X","legs":"F"},"bonus":1.740000000000001},{"rt":2197.899999976158,"stimulus":"bees-with-color/bee-A1SF.svg","response":1,"trial_type":"image-button-response","trial_index":13,"time_elapsed":590742,"internal_node_id":"0.0-4.0-0.3","subject_id":"615de114da91c7b7988ddf0b","study_id":"60edd13110225f80f9f3709b","session_id":"6196c7048ed6ab1744f0d2d4","condition":"full-information","relevant_dimensions":["antennae","legs"],"bee_group":{"antennae":"A","wings":"X","pattern":"X","legs":"F"},"action":"avoid","summary":"good-avoid","bonus":1.740000000000001},{"rt":5532.299999952316,"stimulus":"\n                    <p><b>Action: <em>avoid</em></b></p>\n                    <p>This is the bee that you just saw.</p>\n                    <img src=\"bees-with-color/bee-A1SF.svg\" width=\"200\">\n                    <p><span class=\"greenText\">Good choice!</span>  This bee would have stung you.<br>Your bonus pay is unchanged, and remains at $0.56.</p>\n            ","response":0,"trial_type":"html-button-response","trial_index":14,"time_elapsed":596276,"internal_node_id":"0.0-4.0-1.3","subject_id":"615de114da91c7b7988ddf0b","study_id":"60edd13110225f80f9f3709b","session_id":"6196c7048ed6ab1744f0d2d4","condition":"full-information","relevant_dimensions":["antennae","legs"],"bee_group":{"antennae":"A","wings":"X","pattern":"X","legs":"F"},"bonus":1.740000000000001},{"rt":2627.6999999284744,"stimulus":"bees-with-color/bee-A1DM.svg","response":0,"trial_type":"image-button-response","trial_index":15,"time_elapsed":598906,"internal_node_id":"0.0-4.0-0.4","subject_id":"615de114da91c7b7988ddf0b","study_id":"60edd13110225f80f9f3709b","session_id":"6196c7048ed6ab1744f0d2d4","condition":"full-information","relevant_dimensions":["antennae","legs"],"bee_group":{"antennae":"A","wings":"X","pattern":"X","legs":"F"},"action":"harvest","summary":"good-harvest","bonus":1.740000000000001},{"rt":3459.7000000476837,"stimulus":"\n                    <p><b>Action: <em>harvest</em></b></p>\n                    <p>This is the bee that you just saw.</p>\n                    <img src=\"bees-with-color/bee-A1DM.svg\" width=\"200\">\n                    <p><span class=\"greenText\"><b>Successful harvest!</b></span><br>Your pay has increased by $0.02. Your bonus pay is now $0.58.</p>\n            ","response":0,"trial_type":"html-button-response","trial_index":16,"time_elapsed":602368,"internal_node_id":"0.0-4.0-1.4","subject_id":"615de114da91c7b7988ddf0b","study_id":"60edd13110225f80f9f3709b","session_id":"6196c7048ed6ab1744f0d2d4","condition":"full-information","relevant_dimensions":["antennae","legs"],"bee_group":{"antennae":"A","wings":"X","pattern":"X","legs":"F"},"bonus":1.740000000000001},{"rt":2383.5999999046326,"stimulus":"bees-with-color/bee-A2SM.svg","response":1,"trial_type":"image-button-response","trial_index":17,"time_elapsed":604754,"internal_node_id":"0.0-4.0-0.5","subject_id":"615de114da91c7b7988ddf0b","study_id":"60edd13110225f80f9f3709b","session_id":"6196c7048ed6ab1744f0d2d4","condition":"full-information","relevant_dimensions":["antennae","legs"],"bee_group":{"antennae":"A","wings":"X","pattern":"X","legs":"F"},"action":"avoid","summary":"bad-avoid","bonus":1.740000000000001},{"rt":25124,"stimulus":"\n                    <p><b>Action: <em>avoid</em></b></p>\n                    <p>This is the bee that you just saw.</p>\n                    <img src=\"bees-with-color/bee-A2SM.svg\" width=\"200\">\n                    <p><span class=\"redText\">Bad choice,</span> the bee was friendly.<br>Your bonus pay is unchanged, and remains at $0.58.</p>\n            ","response":0,"trial_type":"html-button-response","trial_index":18,"time_elapsed":629880,"internal_node_id":"0.0-4.0-1.5","subject_id":"615de114da91c7b7988ddf0b","study_id":"60edd13110225f80f9f3709b","session_id":"6196c7048ed6ab1744f0d2d4","condition":"full-information","relevant_dimensions":["antennae","legs"],"bee_group":{"antennae":"A","wings":"X","pattern":"X","legs":"F"},"bonus":1.740000000000001},{"rt":3299.8000000715256,"stimulus":"bees-with-color/bee-B1SF.svg","response":1,"trial_type":"image-button-response","trial_index":19,"time_elapsed":633182,"internal_node_id":"0.0-4.0-0.6","subject_id":"615de114da91c7b7988ddf0b","study_id":"60edd13110225f80f9f3709b","session_id":"6196c7048ed6ab1744f0d2d4","condition":"full-information","relevant_dimensions":["antennae","legs"],"bee_group":{"antennae":"A","wings":"X","pattern":"X","legs":"F"},"action":"avoid","summary":"bad-avoid","bonus":1.740000000000001},{"rt":88399.5,"stimulus":"\n                    <p><b>Action: <em>avoid</em></b></p>\n                    <p>This is the bee that you just saw.</p>\n                    <img src=\"bees-with-color/bee-B1SF.svg\" width=\"200\">\n                    <p><span class=\"redText\">Bad choice,</span> the bee was friendly.<br>Your bonus pay is unchanged, and remains at $0.58.</p>\n            ","response":0,"trial_type":"html-button-response","trial_index":20,"time_elapsed":721584,"internal_node_id":"0.0-4.0-1.6","subject_id":"615de114da91c7b7988ddf0b","study_id":"60edd13110225f80f9f3709b","session_id":"6196c7048ed6ab1744f0d2d4","condition":"full-information","relevant_dimensions":["antennae","legs"],"bee_group":{"antennae":"A","wings":"X","pattern":"X","legs":"F"},"bonus":1.740000000000001},{"rt":14365.700000047684,"stimulus":"bees-with-color/bee-A2SF.svg","response":1,"trial_type":"image-button-response","trial_index":21,"time_elapsed":735952,"internal_node_id":"0.0-4.0-0.7","subject_id":"615de114da91c7b7988ddf0b","study_id":"60edd13110225f80f9f3709b","session_id":"6196c7048ed6ab1744f0d2d4","condition":"full-information","relevant_dimensions":["antennae","legs"],"bee_group":{"antennae":"A","wings":"X","pattern":"X","legs":"F"},"action":"avoid","summary":"good-avoid","bonus":1.740000000000001},{"rt":23385.200000047684,"stimulus":"\n                    <p><b>Action: <em>avoid</em></b></p>\n                    <p>This is the bee that you just saw.</p>\n                    <img src=\"bees-with-color/bee-A2SF.svg\" width=\"200\">\n                    <p><span class=\"greenText\">Good choice!</span>  This bee would have stung you.<br>Your bonus pay is unchanged, and remains at $0.58.</p>\n            ","response":0,"trial_type":"html-button-response","trial_index":22,"time_elapsed":759340,"internal_node_id":"0.0-4.0-1.7","subject_id":"615de114da91c7b7988ddf0b","study_id":"60edd13110225f80f9f3709b","session_id":"6196c7048ed6ab1744f0d2d4","condition":"full-information","relevant_dimensions":["antennae","legs"],"bee_group":{"antennae":"A","wings":"X","pattern":"X","legs":"F"},"bonus":1.740000000000001},{"rt":7996.299999952316,"stimulus":"bees-with-color/bee-A1DF.svg","response":0,"trial_type":"image-button-response","trial_index":23,"time_elapsed":767339,"internal_node_id":"0.0-4.0-0.8","subject_id":"615de114da91c7b7988ddf0b","study_id":"60edd13110225f80f9f3709b","session_id":"6196c7048ed6ab1744f0d2d4","condition":"full-information","relevant_dimensions":["antennae","legs"],"bee_group":{"antennae":"A","wings":"X","pattern":"X","legs":"F"},"action":"harvest","summary":"bad-harvest","bonus":1.740000000000001},{"rt":19654.5,"stimulus":"\n                    <p><b>Action: <em>harvest</em></b></p>\n                    <p>This is the bee that you just saw.</p>\n                    <img src=\"bees-with-color/bee-A1DF.svg\" width=\"200\">\n                    <p><span class=\"redText\">Bad choice, the bee was angry.</span><br><b>You have been stung!</b><br>Your pay has been decreased by $0.10. Your bonus pay is now $0.48.</p>\n            ","response":0,"trial_type":"html-button-response","trial_index":24,"time_elapsed":786996,"internal_node_id":"0.0-4.0-1.8","subject_id":"615de114da91c7b7988ddf0b","study_id":"60edd13110225f80f9f3709b","session_id":"6196c7048ed6ab1744f0d2d4","condition":"full-information","relevant_dimensions":["antennae","legs"],"bee_group":{"antennae":"A","wings":"X","pattern":"X","legs":"F"},"bonus":1.740000000000001},{"rt":9248.899999976158,"stimulus":"bees-with-color/bee-B2DM.svg","response":1,"trial_type":"image-button-response","trial_index":25,"time_elapsed":796247,"internal_node_id":"0.0-4.0-0.9","subject_id":"615de114da91c7b7988ddf0b","study_id":"60edd13110225f80f9f3709b","session_id":"6196c7048ed6ab1744f0d2d4","condition":"full-information","relevant_dimensions":["antennae","legs"],"bee_group":{"antennae":"A","wings":"X","pattern":"X","legs":"F"},"action":"avoid","summary":"bad-avoid","bonus":1.740000000000001},{"rt":21805.700000047684,"stimulus":"\n                    <p><b>Action: <em>avoid</em></b></p>\n                    <p>This is the bee that you just saw.</p>\n                    <img src=\"bees-with-color/bee-B2DM.svg\" width=\"200\">\n                    <p><span class=\"redText\">Bad choice,</span> the bee was friendly.<br>Your bonus pay is unchanged, and remains at $0.48.</p>\n            ","response":0,"trial_type":"html-button-response","trial_index":26,"time_elapsed":818055,"internal_node_id":"0.0-4.0-1.9","subject_id":"615de114da91c7b7988ddf0b","study_id":"60edd13110225f80f9f3709b","session_id":"6196c7048ed6ab1744f0d2d4","condition":"full-information","relevant_dimensions":["antennae","legs"],"bee_group":{"antennae":"A","wings":"X","pattern":"X","legs":"F"},"bonus":1.740000000000001},{"rt":8109.600000023842,"stimulus":"bees-with-color/bee-B1DM.svg","response":0,"trial_type":"image-button-response","trial_index":27,"time_elapsed":826167,"internal_node_id":"0.0-4.0-0.10","subject_id":"615de114da91c7b7988ddf0b","study_id":"60edd13110225f80f9f3709b","session_id":"6196c7048ed6ab1744f0d2d4","condition":"full-information","relevant_dimensions":["antennae","legs"],"bee_group":{"antennae":"A","wings":"X","pattern":"X","legs":"F"},"action":"harvest","summary":"good-harvest","bonus":1.740000000000001},{"rt":22576,"stimulus":"\n                    <p><b>Action: <em>harvest</em></b></p>\n                    <p>This is the bee that you just saw.</p>\n                    <img src=\"bees-with-color/bee-B1DM.svg\" width=\"200\">\n                    <p><span class=\"greenText\"><b>Successful harvest!</b></span><br>Your pay has increased by $0.02. Your bonus pay is now $0.50.</p>\n            ","response":0,"trial_type":"html-button-response","trial_index":28,"time_elapsed":848745,"internal_node_id":"0.0-4.0-1.10","subject_id":"615de114da91c7b7988ddf0b","study_id":"60edd13110225f80f9f3709b","session_id":"6196c7048ed6ab1744f0d2d4","condition":"full-information","relevant_dimensions":["antennae","legs"],"bee_group":{"antennae":"A","wings":"X","pattern":"X","legs":"F"},"bonus":1.740000000000001},{"rt":3019.5,"stimulus":"bees-with-color/bee-A1SM.svg","response":1,"trial_type":"image-button-response","trial_index":29,"time_elapsed":851767,"internal_node_id":"0.0-4.0-0.11","subject_id":"615de114da91c7b7988ddf0b","study_id":"60edd13110225f80f9f3709b","session_id":"6196c7048ed6ab1744f0d2d4","condition":"full-information","relevant_dimensions":["antennae","legs"],"bee_group":{"antennae":"A","wings":"X","pattern":"X","legs":"F"},"action":"avoid","summary":"bad-avoid","bonus":1.740000000000001},{"rt":29055.699999928474,"stimulus":"\n                    <p><b>Action: <em>avoid</em></b></p>\n                    <p>This is the bee that you just saw.</p>\n                    <img src=\"bees-with-color/bee-A1SM.svg\" width=\"200\">\n                    <p><span class=\"redText\">Bad choice,</span> the bee was friendly.<br>Your bonus pay is unchanged, and remains at $0.50.</p>\n            ","response":0,"trial_type":"html-button-response","trial_index":30,"time_elapsed":880824,"internal_node_id":"0.0-4.0-1.11","subject_id":"615de114da91c7b7988ddf0b","study_id":"60edd13110225f80f9f3709b","session_id":"6196c7048ed6ab1744f0d2d4","condition":"full-information","relevant_dimensions":["antennae","legs"],"bee_group":{"antennae":"A","wings":"X","pattern":"X","legs":"F"},"bonus":1.740000000000001},{"rt":70171.29999995232,"stimulus":"bees-with-color/bee-B2SF.svg","response":1,"trial_type":"image-button-response","trial_index":31,"time_elapsed":950998,"internal_node_id":"0.0-4.0-0.12","subject_id":"615de114da91c7b7988ddf0b","study_id":"60edd13110225f80f9f3709b","session_id":"6196c7048ed6ab1744f0d2d4","condition":"full-information","relevant_dimensions":["antennae","legs"],"bee_group":{"antennae":"A","wings":"X","pattern":"X","legs":"F"},"action":"avoid","summary":"bad-avoid","bonus":1.740000000000001},{"rt":20683.600000023842,"stimulus":"\n                    <p><b>Action: <em>avoid</em></b></p>\n                    <p>This is the bee that you just saw.</p>\n                    <img src=\"bees-with-color/bee-B2SF.svg\" width=\"200\">\n                    <p><span class=\"redText\">Bad choice,</span> the bee was friendly.<br>Your bonus pay is unchanged, and remains at $0.50.</p>\n            ","response":0,"trial_type":"html-button-response","trial_index":32,"time_elapsed":971684,"internal_node_id":"0.0-4.0-1.12","subject_id":"615de114da91c7b7988ddf0b","study_id":"60edd13110225f80f9f3709b","session_id":"6196c7048ed6ab1744f0d2d4","condition":"full-information","relevant_dimensions":["antennae","legs"],"bee_group":{"antennae":"A","wings":"X","pattern":"X","legs":"F"},"bonus":1.740000000000001},{"rt":45781.199999928474,"stimulus":"bees-with-color/bee-A2DF.svg","response":1,"trial_type":"image-button-response","trial_index":33,"time_elapsed":1017468,"internal_node_id":"0.0-4.0-0.13","subject_id":"615de114da91c7b7988ddf0b","study_id":"60edd13110225f80f9f3709b","session_id":"6196c7048ed6ab1744f0d2d4","condition":"full-information","relevant_dimensions":["antennae","legs"],"bee_group":{"antennae":"A","wings":"X","pattern":"X","legs":"F"},"action":"avoid","summary":"good-avoid","bonus":1.740000000000001},{"rt":22500.199999928474,"stimulus":"\n                    <p><b>Action: <em>avoid</em></b></p>\n                    <p>This is the bee that you just saw.</p>\n                    <img src=\"bees-with-color/bee-A2DF.svg\" width=\"200\">\n                    <p><span class=\"greenText\">Good choice!</span>  This bee would have stung you.<br>Your bonus pay is unchanged, and remains at $0.50.</p>\n            ","response":0,"trial_type":"html-button-response","trial_index":34,"time_elapsed":1039970,"internal_node_id":"0.0-4.0-1.13","subject_id":"615de114da91c7b7988ddf0b","study_id":"60edd13110225f80f9f3709b","session_id":"6196c7048ed6ab1744f0d2d4","condition":"full-information","relevant_dimensions":["antennae","legs"],"bee_group":{"antennae":"A","wings":"X","pattern":"X","legs":"F"},"bonus":1.740000000000001},{"rt":44097.299999952316,"stimulus":"bees-with-color/bee-B2SM.svg","response":0,"trial_type":"image-button-response","trial_index":35,"time_elapsed":1084070,"internal_node_id":"0.0-4.0-0.14","subject_id":"615de114da91c7b7988ddf0b","study_id":"60edd13110225f80f9f3709b","session_id":"6196c7048ed6ab1744f0d2d4","condition":"full-information","relevant_dimensions":["antennae","legs"],"bee_group":{"antennae":"A","wings":"X","pattern":"X","legs":"F"},"action":"harvest","summary":"good-harvest","bonus":1.740000000000001},{"rt":18883.899999976158,"stimulus":"\n                    <p><b>Action: <em>harvest</em></b></p>\n                    <p>This is the bee that you just saw.</p>\n                    <img src=\"bees-with-color/bee-B2SM.svg\" width=\"200\">\n                    <p><span class=\"greenText\"><b>Successful harvest!</b></span><br>Your pay has increased by $0.02. Your bonus pay is now $0.52.</p>\n            ","response":0,"trial_type":"html-button-response","trial_index":36,"time_elapsed":1102955,"internal_node_id":"0.0-4.0-1.14","subject_id":"615de114da91c7b7988ddf0b","study_id":"60edd13110225f80f9f3709b","session_id":"6196c7048ed6ab1744f0d2d4","condition":"full-information","relevant_dimensions":["antennae","legs"],"bee_group":{"antennae":"A","wings":"X","pattern":"X","legs":"F"},"bonus":1.740000000000001},{"rt":21817.299999952316,"stimulus":"bees-with-color/bee-B1SM.svg","response":0,"trial_type":"image-button-response","trial_index":37,"time_elapsed":1124775,"internal_node_id":"0.0-4.0-0.15","subject_id":"615de114da91c7b7988ddf0b","study_id":"60edd13110225f80f9f3709b","session_id":"6196c7048ed6ab1744f0d2d4","condition":"full-information","relevant_dimensions":["antennae","legs"],"bee_group":{"antennae":"A","wings":"X","pattern":"X","legs":"F"},"action":"harvest","summary":"good-harvest","bonus":1.740000000000001},{"rt":24769.899999976158,"stimulus":"\n                    <p><b>Action: <em>harvest</em></b></p>\n                    <p>This is the bee that you just saw.</p>\n                    <img src=\"bees-with-color/bee-B1SM.svg\" width=\"200\">\n                    <p><span class=\"greenText\"><b>Successful harvest!</b></span><br>Your pay has increased by $0.02. Your bonus pay is now $0.54.</p>\n            ","response":0,"trial_type":"html-button-response","trial_index":38,"time_elapsed":1149547,"internal_node_id":"0.0-4.0-1.15","subject_id":"615de114da91c7b7988ddf0b","study_id":"60edd13110225f80f9f3709b","session_id":"6196c7048ed6ab1744f0d2d4","condition":"full-information","relevant_dimensions":["antennae","legs"],"bee_group":{"antennae":"A","wings":"X","pattern":"X","legs":"F"},"bonus":1.740000000000001},{"rt":32787.89999997616,"stimulus":"bees-with-color/bee-A1SF.svg","response":1,"trial_type":"image-button-response","trial_index":39,"time_elapsed":1182337,"internal_node_id":"0.0-4.0-0.16","subject_id":"615de114da91c7b7988ddf0b","study_id":"60edd13110225f80f9f3709b","session_id":"6196c7048ed6ab1744f0d2d4","condition":"full-information","relevant_dimensions":["antennae","legs"],"bee_group":{"antennae":"A","wings":"X","pattern":"X","legs":"F"},"action":"avoid","summary":"good-avoid","bonus":1.740000000000001},{"rt":19024.199999928474,"stimulus":"\n                    <p><b>Action: <em>avoid</em></b></p>\n                    <p>This is the bee that you just saw.</p>\n                    <img src=\"bees-with-color/bee-A1SF.svg\" width=\"200\">\n                    <p><span class=\"greenText\">Good choice!</span>  This bee would have stung you.<br>Your bonus pay is unchanged, and remains at $0.54.</p>\n            ","response":0,"trial_type":"html-button-response","trial_index":40,"time_elapsed":1201363,"internal_node_id":"0.0-4.0-1.16","subject_id":"615de114da91c7b7988ddf0b","study_id":"60edd13110225f80f9f3709b","session_id":"6196c7048ed6ab1744f0d2d4","condition":"full-information","relevant_dimensions":["antennae","legs"],"bee_group":{"antennae":"A","wings":"X","pattern":"X","legs":"F"},"bonus":1.740000000000001},{"rt":15751.300000071526,"stimulus":"bees-with-color/bee-B1DF.svg","response":0,"trial_type":"image-button-response","trial_index":41,"time_elapsed":1217117,"internal_node_id":"0.0-4.0-0.17","subject_id":"615de114da91c7b7988ddf0b","study_id":"60edd13110225f80f9f3709b","session_id":"6196c7048ed6ab1744f0d2d4","condition":"full-information","relevant_dimensions":["antennae","legs"],"bee_group":{"antennae":"A","wings":"X","pattern":"X","legs":"F"},"action":"harvest","summary":"good-harvest","bonus":1.740000000000001},{"rt":19946.699999928474,"stimulus":"\n                    <p><b>Action: <em>harvest</em></b></p>\n                    <p>This is the bee that you just saw.</p>\n                    <img src=\"bees-with-color/bee-B1DF.svg\" width=\"200\">\n                    <p><span class=\"greenText\"><b>Successful harvest!</b></span><br>Your pay has increased by $0.02. Your bonus pay is now $0.56.</p>\n            ","response":0,"trial_type":"html-button-response","trial_index":42,"time_elapsed":1237065,"internal_node_id":"0.0-4.0-1.17","subject_id":"615de114da91c7b7988ddf0b","study_id":"60edd13110225f80f9f3709b","session_id":"6196c7048ed6ab1744f0d2d4","condition":"full-information","relevant_dimensions":["antennae","legs"],"bee_group":{"antennae":"A","wings":"X","pattern":"X","legs":"F"},"bonus":1.740000000000001},{"rt":22429,"stimulus":"bees-with-color/bee-A1DM.svg","response":0,"trial_type":"image-button-response","trial_index":43,"time_elapsed":1259496,"internal_node_id":"0.0-4.0-0.18","subject_id":"615de114da91c7b7988ddf0b","study_id":"60edd13110225f80f9f3709b","session_id":"6196c7048ed6ab1744f0d2d4","condition":"full-information","relevant_dimensions":["antennae","legs"],"bee_group":{"antennae":"A","wings":"X","pattern":"X","legs":"F"},"action":"harvest","summary":"good-harvest","bonus":1.740000000000001},{"rt":26586,"stimulus":"\n                    <p><b>Action: <em>harvest</em></b></p>\n                    <p>This is the bee that you just saw.</p>\n                    <img src=\"bees-with-color/bee-A1DM.svg\" width=\"200\">\n                    <p><span class=\"greenText\"><b>Successful harvest!</b></span><br>Your pay has increased by $0.02. Your bonus pay is now $0.58.</p>\n            ","response":0,"trial_type":"html-button-response","trial_index":44,"time_elapsed":1286084,"internal_node_id":"0.0-4.0-1.18","subject_id":"615de114da91c7b7988ddf0b","study_id":"60edd13110225f80f9f3709b","session_id":"6196c7048ed6ab1744f0d2d4","condition":"full-information","relevant_dimensions":["antennae","legs"],"bee_group":{"antennae":"A","wings":"X","pattern":"X","legs":"F"},"bonus":1.740000000000001},{"rt":13337.5,"stimulus":"bees-with-color/bee-B1SF.svg","response":0,"trial_type":"image-button-response","trial_index":45,"time_elapsed":1299424,"internal_node_id":"0.0-4.0-0.19","subject_id":"615de114da91c7b7988ddf0b","study_id":"60edd13110225f80f9f3709b","session_id":"6196c7048ed6ab1744f0d2d4","condition":"full-information","relevant_dimensions":["antennae","legs"],"bee_group":{"antennae":"A","wings":"X","pattern":"X","legs":"F"},"action":"harvest","summary":"good-harvest","bonus":1.740000000000001},{"rt":7745.800000071526,"stimulus":"\n                    <p><b>Action: <em>harvest</em></b></p>\n                    <p>This is the bee that you just saw.</p>\n                    <img src=\"bees-with-color/bee-B1SF.svg\" width=\"200\">\n                    <p><span class=\"greenText\"><b>Successful harvest!</b></span><br>Your pay has increased by $0.02. Your bonus pay is now $0.60.</p>\n            ","response":0,"trial_type":"html-button-response","trial_index":46,"time_elapsed":1307172,"internal_node_id":"0.0-4.0-1.19","subject_id":"615de114da91c7b7988ddf0b","study_id":"60edd13110225f80f9f3709b","session_id":"6196c7048ed6ab1744f0d2d4","condition":"full-information","relevant_dimensions":["antennae","legs"],"bee_group":{"antennae":"A","wings":"X","pattern":"X","legs":"F"},"bonus":1.740000000000001},{"rt":43789.39999997616,"stimulus":"bees-with-color/bee-A2DF.svg","response":1,"trial_type":"image-button-response","trial_index":47,"time_elapsed":1350964,"internal_node_id":"0.0-4.0-0.20","subject_id":"615de114da91c7b7988ddf0b","study_id":"60edd13110225f80f9f3709b","session_id":"6196c7048ed6ab1744f0d2d4","condition":"full-information","relevant_dimensions":["antennae","legs"],"bee_group":{"antennae":"A","wings":"X","pattern":"X","legs":"F"},"action":"avoid","summary":"good-avoid","bonus":1.740000000000001},{"rt":6040,"stimulus":"\n                    <p><b>Action: <em>avoid</em></b></p>\n                    <p>This is the bee that you just saw.</p>\n                    <img src=\"bees-with-color/bee-A2DF.svg\" width=\"200\">\n                    <p><span class=\"greenText\">Good choice!</span>  This bee would have stung you.<br>Your bonus pay is unchanged, and remains at $0.60.</p>\n            ","response":0,"trial_type":"html-button-response","trial_index":48,"time_elapsed":1357006,"internal_node_id":"0.0-4.0-1.20","subject_id":"615de114da91c7b7988ddf0b","study_id":"60edd13110225f80f9f3709b","session_id":"6196c7048ed6ab1744f0d2d4","condition":"full-information","relevant_dimensions":["antennae","legs"],"bee_group":{"antennae":"A","wings":"X","pattern":"X","legs":"F"},"bonus":1.740000000000001},{"rt":71149.20000004768,"stimulus":"bees-with-color/bee-B2SF.svg","response":0,"trial_type":"image-button-response","trial_index":49,"time_elapsed":1428157,"internal_node_id":"0.0-4.0-0.21","subject_id":"615de114da91c7b7988ddf0b","study_id":"60edd13110225f80f9f3709b","session_id":"6196c7048ed6ab1744f0d2d4","condition":"full-information","relevant_dimensions":["antennae","legs"],"bee_group":{"antennae":"A","wings":"X","pattern":"X","legs":"F"},"action":"harvest","summary":"good-harvest","bonus":1.740000000000001},{"rt":2587.899999976158,"stimulus":"\n                    <p><b>Action: <em>harvest</em></b></p>\n                    <p>This is the bee that you just saw.</p>\n                    <img src=\"bees-with-color/bee-B2SF.svg\" width=\"200\">\n                    <p><span class=\"greenText\"><b>Successful harvest!</b></span><br>Your pay has increased by $0.02. Your bonus pay is now $0.62.</p>\n            ","response":0,"trial_type":"html-button-response","trial_index":50,"time_elapsed":1430747,"internal_node_id":"0.0-4.0-1.21","subject_id":"615de114da91c7b7988ddf0b","study_id":"60edd13110225f80f9f3709b","session_id":"6196c7048ed6ab1744f0d2d4","condition":"full-information","relevant_dimensions":["antennae","legs"],"bee_group":{"antennae":"A","wings":"X","pattern":"X","legs":"F"},"bonus":1.740000000000001},{"rt":10715.800000071526,"stimulus":"bees-with-color/bee-B2SM.svg","response":0,"trial_type":"image-button-response","trial_index":51,"time_elapsed":1441466,"internal_node_id":"0.0-4.0-0.22","subject_id":"615de114da91c7b7988ddf0b","study_id":"60edd13110225f80f9f3709b","session_id":"6196c7048ed6ab1744f0d2d4","condition":"full-information","relevant_dimensions":["antennae","legs"],"bee_group":{"antennae":"A","wings":"X","pattern":"X","legs":"F"},"action":"harvest","summary":"good-harvest","bonus":1.740000000000001},{"rt":1292.7999999523163,"stimulus":"\n                    <p><b>Action: <em>harvest</em></b></p>\n                    <p>This is the bee that you just saw.</p>\n                    <img src=\"bees-with-color/bee-B2SM.svg\" width=\"200\">\n                    <p><span class=\"greenText\"><b>Successful harvest!</b></span><br>Your pay has increased by $0.02. Your bonus pay is now $0.64.</p>\n            ","response":0,"trial_type":"html-button-response","trial_index":52,"time_elapsed":1442761,"internal_node_id":"0.0-4.0-1.22","subject_id":"615de114da91c7b7988ddf0b","study_id":"60edd13110225f80f9f3709b","session_id":"6196c7048ed6ab1744f0d2d4","condition":"full-information","relevant_dimensions":["antennae","legs"],"bee_group":{"antennae":"A","wings":"X","pattern":"X","legs":"F"},"bonus":1.740000000000001},{"rt":38605.39999997616,"stimulus":"bees-with-color/bee-B2DM.svg","response":0,"trial_type":"image-button-response","trial_index":53,"time_elapsed":1481368,"internal_node_id":"0.0-4.0-0.23","subject_id":"615de114da91c7b7988ddf0b","study_id":"60edd13110225f80f9f3709b","session_id":"6196c7048ed6ab1744f0d2d4","condition":"full-information","relevant_dimensions":["antennae","legs"],"bee_group":{"antennae":"A","wings":"X","pattern":"X","legs":"F"},"action":"harvest","summary":"good-harvest","bonus":1.740000000000001},{"rt":21841.699999928474,"stimulus":"\n                    <p><b>Action: <em>harvest</em></b></p>\n                    <p>This is the bee that you just saw.</p>\n                    <img src=\"bees-with-color/bee-B2DM.svg\" width=\"200\">\n                    <p><span class=\"greenText\"><b>Successful harvest!</b></span><br>Your pay has increased by $0.02. Your bonus pay is now $0.66.</p>\n            ","response":0,"trial_type":"html-button-response","trial_index":54,"time_elapsed":1503212,"internal_node_id":"0.0-4.0-1.23","subject_id":"615de114da91c7b7988ddf0b","study_id":"60edd13110225f80f9f3709b","session_id":"6196c7048ed6ab1744f0d2d4","condition":"full-information","relevant_dimensions":["antennae","legs"],"bee_group":{"antennae":"A","wings":"X","pattern":"X","legs":"F"},"bonus":1.740000000000001},{"rt":12757.299999952316,"stimulus":"bees-with-color/bee-A2SF.svg","response":1,"trial_type":"image-button-response","trial_index":55,"time_elapsed":1515974,"internal_node_id":"0.0-4.0-0.24","subject_id":"615de114da91c7b7988ddf0b","study_id":"60edd13110225f80f9f3709b","session_id":"6196c7048ed6ab1744f0d2d4","condition":"full-information","relevant_dimensions":["antennae","legs"],"bee_group":{"antennae":"A","wings":"X","pattern":"X","legs":"F"},"action":"avoid","summary":"good-avoid","bonus":1.740000000000001},{"rt":1903.6999999284744,"stimulus":"\n                    <p><b>Action: <em>avoid</em></b></p>\n                    <p>This is the bee that you just saw.</p>\n                    <img src=\"bees-with-color/bee-A2SF.svg\" width=\"200\">\n                    <p><span class=\"greenText\">Good choice!</span>  This bee would have stung you.<br>Your bonus pay is unchanged, and remains at $0.66.</p>\n            ","response":0,"trial_type":"html-button-response","trial_index":56,"time_elapsed":1517880,"internal_node_id":"0.0-4.0-1.24","subject_id":"615de114da91c7b7988ddf0b","study_id":"60edd13110225f80f9f3709b","session_id":"6196c7048ed6ab1744f0d2d4","condition":"full-information","relevant_dimensions":["antennae","legs"],"bee_group":{"antennae":"A","wings":"X","pattern":"X","legs":"F"},"bonus":1.740000000000001},{"rt":86613.5,"stimulus":"bees-with-color/bee-B2DF.svg","response":0,"trial_type":"image-button-response","trial_index":57,"time_elapsed":1604496,"internal_node_id":"0.0-4.0-0.25","subject_id":"615de114da91c7b7988ddf0b","study_id":"60edd13110225f80f9f3709b","session_id":"6196c7048ed6ab1744f0d2d4","condition":"full-information","relevant_dimensions":["antennae","legs"],"bee_group":{"antennae":"A","wings":"X","pattern":"X","legs":"F"},"action":"harvest","summary":"good-harvest","bonus":1.740000000000001},{"rt":16335.799999952316,"stimulus":"\n                    <p><b>Action: <em>harvest</em></b></p>\n                    <p>This is the bee that you just saw.</p>\n                    <img src=\"bees-with-color/bee-B2DF.svg\" width=\"200\">\n                    <p><span class=\"greenText\"><b>Successful harvest!</b></span><br>Your pay has increased by $0.02. Your bonus pay is now $0.68.</p>\n            ","response":0,"trial_type":"html-button-response","trial_index":58,"time_elapsed":1620834,"internal_node_id":"0.0-4.0-1.25","subject_id":"615de114da91c7b7988ddf0b","study_id":"60edd13110225f80f9f3709b","session_id":"6196c7048ed6ab1744f0d2d4","condition":"full-information","relevant_dimensions":["antennae","legs"],"bee_group":{"antennae":"A","wings":"X","pattern":"X","legs":"F"},"bonus":1.740000000000001},{"rt":17123.600000023842,"stimulus":"bees-with-color/bee-B1DM.svg","response":0,"trial_type":"image-button-response","trial_index":59,"time_elapsed":1637960,"internal_node_id":"0.0-4.0-0.26","subject_id":"615de114da91c7b7988ddf0b","study_id":"60edd13110225f80f9f3709b","session_id":"6196c7048ed6ab1744f0d2d4","condition":"full-information","relevant_dimensions":["antennae","legs"],"bee_group":{"antennae":"A","wings":"X","pattern":"X","legs":"F"},"action":"harvest","summary":"good-harvest","bonus":1.740000000000001},{"rt":1608.5,"stimulus":"\n                    <p><b>Action: <em>harvest</em></b></p>\n                    <p>This is the bee that you just saw.</p>\n                    <img src=\"bees-with-color/bee-B1DM.svg\" width=\"200\">\n                    <p><span class=\"greenText\"><b>Successful harvest!</b></span><br>Your pay has increased by $0.02. Your bonus pay is now $0.70.</p>\n            ","response":0,"trial_type":"html-button-response","trial_index":60,"time_elapsed":1639570,"internal_node_id":"0.0-4.0-1.26","subject_id":"615de114da91c7b7988ddf0b","study_id":"60edd13110225f80f9f3709b","session_id":"6196c7048ed6ab1744f0d2d4","condition":"full-information","relevant_dimensions":["antennae","legs"],"bee_group":{"antennae":"A","wings":"X","pattern":"X","legs":"F"},"bonus":1.740000000000001},{"rt":16323.5,"stimulus":"bees-with-color/bee-A1SM.svg","response":0,"trial_type":"image-button-response","trial_index":61,"time_elapsed":1655896,"internal_node_id":"0.0-4.0-0.27","subject_id":"615de114da91c7b7988ddf0b","study_id":"60edd13110225f80f9f3709b","session_id":"6196c7048ed6ab1744f0d2d4","condition":"full-information","relevant_dimensions":["antennae","legs"],"bee_group":{"antennae":"A","wings":"X","pattern":"X","legs":"F"},"action":"harvest","summary":"good-harvest","bonus":1.740000000000001},{"rt":1286,"stimulus":"\n                    <p><b>Action: <em>harvest</em></b></p>\n                    <p>This is the bee that you just saw.</p>\n                    <img src=\"bees-with-color/bee-A1SM.svg\" width=\"200\">\n                    <p><span class=\"greenText\"><b>Successful harvest!</b></span><br>Your pay has increased by $0.02. Your bonus pay is now $0.72.</p>\n            ","response":0,"trial_type":"html-button-response","trial_index":62,"time_elapsed":1657184,"internal_node_id":"0.0-4.0-1.27","subject_id":"615de114da91c7b7988ddf0b","study_id":"60edd13110225f80f9f3709b","session_id":"6196c7048ed6ab1744f0d2d4","condition":"full-information","relevant_dimensions":["antennae","legs"],"bee_group":{"antennae":"A","wings":"X","pattern":"X","legs":"F"},"bonus":1.740000000000001},{"rt":111167.29999995232,"stimulus":"bees-with-color/bee-A2SM.svg","response":0,"trial_type":"image-button-response","trial_index":63,"time_elapsed":1768353,"internal_node_id":"0.0-4.0-0.28","subject_id":"615de114da91c7b7988ddf0b","study_id":"60edd13110225f80f9f3709b","session_id":"6196c7048ed6ab1744f0d2d4","condition":"full-information","relevant_dimensions":["antennae","legs"],"bee_group":{"antennae":"A","wings":"X","pattern":"X","legs":"F"},"action":"harvest","summary":"good-harvest","bonus":1.740000000000001},{"rt":23351.399999976158,"stimulus":"\n                    <p><b>Action: <em>harvest</em></b></p>\n                    <p>This is the bee that you just saw.</p>\n                    <img src=\"bees-with-color/bee-A2SM.svg\" width=\"200\">\n                    <p><span class=\"greenText\"><b>Successful harvest!</b></span><br>Your pay has increased by $0.02. Your bonus pay is now $0.74.</p>\n            ","response":0,"trial_type":"html-button-response","trial_index":64,"time_elapsed":1791707,"internal_node_id":"0.0-4.0-1.28","subject_id":"615de114da91c7b7988ddf0b","study_id":"60edd13110225f80f9f3709b","session_id":"6196c7048ed6ab1744f0d2d4","condition":"full-information","relevant_dimensions":["antennae","legs"],"bee_group":{"antennae":"A","wings":"X","pattern":"X","legs":"F"},"bonus":1.740000000000001},{"rt":14097.800000071526,"stimulus":"bees-with-color/bee-A1DF.svg","response":1,"trial_type":"image-button-response","trial_index":65,"time_elapsed":1805807,"internal_node_id":"0.0-4.0-0.29","subject_id":"615de114da91c7b7988ddf0b","study_id":"60edd13110225f80f9f3709b","session_id":"6196c7048ed6ab1744f0d2d4","condition":"full-information","relevant_dimensions":["antennae","legs"],"bee_group":{"antennae":"A","wings":"X","pattern":"X","legs":"F"},"action":"avoid","summary":"good-avoid","bonus":1.740000000000001},{"rt":1584,"stimulus":"\n                    <p><b>Action: <em>avoid</em></b></p>\n                    <p>This is the bee that you just saw.</p>\n                    <img src=\"bees-with-color/bee-A1DF.svg\" width=\"200\">\n                    <p><span class=\"greenText\">Good choice!</span>  This bee would have stung you.<br>Your bonus pay is unchanged, and remains at $0.74.</p>\n            ","response":0,"trial_type":"html-button-response","trial_index":66,"time_elapsed":1807393,"internal_node_id":"0.0-4.0-1.29","subject_id":"615de114da91c7b7988ddf0b","study_id":"60edd13110225f80f9f3709b","session_id":"6196c7048ed6ab1744f0d2d4","condition":"full-information","relevant_dimensions":["antennae","legs"],"bee_group":{"antennae":"A","wings":"X","pattern":"X","legs":"F"},"bonus":1.740000000000001},{"rt":73953.20000004768,"stimulus":"bees-with-color/bee-A2DM.svg","response":0,"trial_type":"image-button-response","trial_index":67,"time_elapsed":1881348,"internal_node_id":"0.0-4.0-0.30","subject_id":"615de114da91c7b7988ddf0b","study_id":"60edd13110225f80f9f3709b","session_id":"6196c7048ed6ab1744f0d2d4","condition":"full-information","relevant_dimensions":["antennae","legs"],"bee_group":{"antennae":"A","wings":"X","pattern":"X","legs":"F"},"action":"harvest","summary":"good-harvest","bonus":1.740000000000001},{"rt":18112.100000023842,"stimulus":"\n                    <p><b>Action: <em>harvest</em></b></p>\n                    <p>This is the bee that you just saw.</p>\n                    <img src=\"bees-with-color/bee-A2DM.svg\" width=\"200\">\n                    <p><span class=\"greenText\"><b>Successful harvest!</b></span><br>Your pay has increased by $0.02. Your bonus pay is now $0.76.</p>\n            ","response":0,"trial_type":"html-button-response","trial_index":68,"time_elapsed":1899463,"internal_node_id":"0.0-4.0-1.30","subject_id":"615de114da91c7b7988ddf0b","study_id":"60edd13110225f80f9f3709b","session_id":"6196c7048ed6ab1744f0d2d4","condition":"full-information","relevant_dimensions":["antennae","legs"],"bee_group":{"antennae":"A","wings":"X","pattern":"X","legs":"F"},"bonus":1.740000000000001},{"rt":25435.100000023842,"stimulus":"bees-with-color/bee-B1SM.svg","response":0,"trial_type":"image-button-response","trial_index":69,"time_elapsed":1924900,"internal_node_id":"0.0-4.0-0.31","subject_id":"615de114da91c7b7988ddf0b","study_id":"60edd13110225f80f9f3709b","session_id":"6196c7048ed6ab1744f0d2d4","condition":"full-information","relevant_dimensions":["antennae","legs"],"bee_group":{"antennae":"A","wings":"X","pattern":"X","legs":"F"},"action":"harvest","summary":"good-harvest","bonus":1.740000000000001},{"rt":20275.899999976158,"stimulus":"\n                    <p><b>Action: <em>harvest</em></b></p>\n                    <p>This is the bee that you just saw.</p>\n                    <img src=\"bees-with-color/bee-B1SM.svg\" width=\"200\">\n                    <p><span class=\"greenText\"><b>Successful harvest!</b></span><br>Your pay has increased by $0.02. Your bonus pay is now $0.78.</p>\n            ","response":0,"trial_type":"html-button-response","trial_index":70,"time_elapsed":1945178,"internal_node_id":"0.0-4.0-1.31","subject_id":"615de114da91c7b7988ddf0b","study_id":"60edd13110225f80f9f3709b","session_id":"6196c7048ed6ab1744f0d2d4","condition":"full-information","relevant_dimensions":["antennae","legs"],"bee_group":{"antennae":"A","wings":"X","pattern":"X","legs":"F"},"bonus":1.740000000000001},{"rt":11755.5,"stimulus":"bees-with-color/bee-B2SM.svg","response":0,"trial_type":"image-button-response","trial_index":71,"time_elapsed":1956936,"internal_node_id":"0.0-4.0-0.32","subject_id":"615de114da91c7b7988ddf0b","study_id":"60edd13110225f80f9f3709b","session_id":"6196c7048ed6ab1744f0d2d4","condition":"full-information","relevant_dimensions":["antennae","legs"],"bee_group":{"antennae":"A","wings":"X","pattern":"X","legs":"F"},"action":"harvest","summary":"good-harvest","bonus":1.740000000000001},{"rt":11904,"stimulus":"\n                    <p><b>Action: <em>harvest</em></b></p>\n                    <p>This is the bee that you just saw.</p>\n                    <img src=\"bees-with-color/bee-B2SM.svg\" width=\"200\">\n                    <p><span class=\"greenText\"><b>Successful harvest!</b></span><br>Your pay has increased by $0.02. Your bonus pay is now $0.80.</p>\n            ","response":0,"trial_type":"html-button-response","trial_index":72,"time_elapsed":1968842,"internal_node_id":"0.0-4.0-1.32","subject_id":"615de114da91c7b7988ddf0b","study_id":"60edd13110225f80f9f3709b","session_id":"6196c7048ed6ab1744f0d2d4","condition":"full-information","relevant_dimensions":["antennae","legs"],"bee_group":{"antennae":"A","wings":"X","pattern":"X","legs":"F"},"bonus":1.740000000000001},{"rt":11638.300000071526,"stimulus":"bees-with-color/bee-B2DM.svg","response":0,"trial_type":"image-button-response","trial_index":73,"time_elapsed":1980484,"internal_node_id":"0.0-4.0-0.33","subject_id":"615de114da91c7b7988ddf0b","study_id":"60edd13110225f80f9f3709b","session_id":"6196c7048ed6ab1744f0d2d4","condition":"full-information","relevant_dimensions":["antennae","legs"],"bee_group":{"antennae":"A","wings":"X","pattern":"X","legs":"F"},"action":"harvest","summary":"good-harvest","bonus":1.740000000000001},{"rt":3816.3000000715256,"stimulus":"\n                    <p><b>Action: <em>harvest</em></b></p>\n                    <p>This is the bee that you just saw.</p>\n                    <img src=\"bees-with-color/bee-B2DM.svg\" width=\"200\">\n                    <p><span class=\"greenText\"><b>Successful harvest!</b></span><br>Your pay has increased by $0.02. Your bonus pay is now $0.82.</p>\n            ","response":0,"trial_type":"html-button-response","trial_index":74,"time_elapsed":1984303,"internal_node_id":"0.0-4.0-1.33","subject_id":"615de114da91c7b7988ddf0b","study_id":"60edd13110225f80f9f3709b","session_id":"6196c7048ed6ab1744f0d2d4","condition":"full-information","relevant_dimensions":["antennae","legs"],"bee_group":{"antennae":"A","wings":"X","pattern":"X","legs":"F"},"bonus":1.740000000000001},{"rt":8428.700000047684,"stimulus":"bees-with-color/bee-A1SF.svg","response":1,"trial_type":"image-button-response","trial_index":75,"time_elapsed":1992735,"internal_node_id":"0.0-4.0-0.34","subject_id":"615de114da91c7b7988ddf0b","study_id":"60edd13110225f80f9f3709b","session_id":"6196c7048ed6ab1744f0d2d4","condition":"full-information","relevant_dimensions":["antennae","legs"],"bee_group":{"antennae":"A","wings":"X","pattern":"X","legs":"F"},"action":"avoid","summary":"good-avoid","bonus":1.740000000000001},{"rt":1409.4000000953674,"stimulus":"\n                    <p><b>Action: <em>avoid</em></b></p>\n                    <p>This is the bee that you just saw.</p>\n                    <img src=\"bees-with-color/bee-A1SF.svg\" width=\"200\">\n                    <p><span class=\"greenText\">Good choice!</span>  This bee would have stung you.<br>Your bonus pay is unchanged, and remains at $0.82.</p>\n            ","response":0,"trial_type":"html-button-response","trial_index":76,"time_elapsed":1994146,"internal_node_id":"0.0-4.0-1.34","subject_id":"615de114da91c7b7988ddf0b","study_id":"60edd13110225f80f9f3709b","session_id":"6196c7048ed6ab1744f0d2d4","condition":"full-information","relevant_dimensions":["antennae","legs"],"bee_group":{"antennae":"A","wings":"X","pattern":"X","legs":"F"},"bonus":1.740000000000001},{"rt":8981,"stimulus":"bees-with-color/bee-A1DF.svg","response":1,"trial_type":"image-button-response","trial_index":77,"time_elapsed":2003130,"internal_node_id":"0.0-4.0-0.35","subject_id":"615de114da91c7b7988ddf0b","study_id":"60edd13110225f80f9f3709b","session_id":"6196c7048ed6ab1744f0d2d4","condition":"full-information","relevant_dimensions":["antennae","legs"],"bee_group":{"antennae":"A","wings":"X","pattern":"X","legs":"F"},"action":"avoid","summary":"good-avoid","bonus":1.740000000000001},{"rt":1073.2999999523163,"stimulus":"\n                    <p><b>Action: <em>avoid</em></b></p>\n                    <p>This is the bee that you just saw.</p>\n                    <img src=\"bees-with-color/bee-A1DF.svg\" width=\"200\">\n                    <p><span class=\"greenText\">Good choice!</span>  This bee would have stung you.<br>Your bonus pay is unchanged, and remains at $0.82.</p>\n            ","response":0,"trial_type":"html-button-response","trial_index":78,"time_elapsed":2004206,"internal_node_id":"0.0-4.0-1.35","subject_id":"615de114da91c7b7988ddf0b","study_id":"60edd13110225f80f9f3709b","session_id":"6196c7048ed6ab1744f0d2d4","condition":"full-information","relevant_dimensions":["antennae","legs"],"bee_group":{"antennae":"A","wings":"X","pattern":"X","legs":"F"},"bonus":1.740000000000001},{"rt":12883.399999976158,"stimulus":"bees-with-color/bee-B1DM.svg","response":0,"trial_type":"image-button-response","trial_index":79,"time_elapsed":2017091,"internal_node_id":"0.0-4.0-0.36","subject_id":"615de114da91c7b7988ddf0b","study_id":"60edd13110225f80f9f3709b","session_id":"6196c7048ed6ab1744f0d2d4","condition":"full-information","relevant_dimensions":["antennae","legs"],"bee_group":{"antennae":"A","wings":"X","pattern":"X","legs":"F"},"action":"harvest","summary":"good-harvest","bonus":1.740000000000001},{"rt":1008.3999999761581,"stimulus":"\n                    <p><b>Action: <em>harvest</em></b></p>\n                    <p>This is the bee that you just saw.</p>\n                    <img src=\"bees-with-color/bee-B1DM.svg\" width=\"200\">\n                    <p><span class=\"greenText\"><b>Successful harvest!</b></span><br>Your pay has increased by $0.02. Your bonus pay is now $0.84.</p>\n            ","response":0,"trial_type":"html-button-response","trial_index":80,"time_elapsed":2018102,"internal_node_id":"0.0-4.0-1.36","subject_id":"615de114da91c7b7988ddf0b","study_id":"60edd13110225f80f9f3709b","session_id":"6196c7048ed6ab1744f0d2d4","condition":"full-information","relevant_dimensions":["antennae","legs"],"bee_group":{"antennae":"A","wings":"X","pattern":"X","legs":"F"},"bonus":1.740000000000001},{"rt":10513.5,"stimulus":"bees-with-color/bee-A2SM.svg","response":0,"trial_type":"image-button-response","trial_index":81,"time_elapsed":2028618,"internal_node_id":"0.0-4.0-0.37","subject_id":"615de114da91c7b7988ddf0b","study_id":"60edd13110225f80f9f3709b","session_id":"6196c7048ed6ab1744f0d2d4","condition":"full-information","relevant_dimensions":["antennae","legs"],"bee_group":{"antennae":"A","wings":"X","pattern":"X","legs":"F"},"action":"harvest","summary":"good-harvest","bonus":1.740000000000001},{"rt":13650.200000047684,"stimulus":"\n                    <p><b>Action: <em>harvest</em></b></p>\n                    <p>This is the bee that you just saw.</p>\n                    <img src=\"bees-with-color/bee-A2SM.svg\" width=\"200\">\n                    <p><span class=\"greenText\"><b>Successful harvest!</b></span><br>Your pay has increased by $0.02. Your bonus pay is now $0.86.</p>\n            ","response":0,"trial_type":"html-button-response","trial_index":82,"time_elapsed":2042269,"internal_node_id":"0.0-4.0-1.37","subject_id":"615de114da91c7b7988ddf0b","study_id":"60edd13110225f80f9f3709b","session_id":"6196c7048ed6ab1744f0d2d4","condition":"full-information","relevant_dimensions":["antennae","legs"],"bee_group":{"antennae":"A","wings":"X","pattern":"X","legs":"F"},"bonus":1.740000000000001},{"rt":35375.60000002384,"stimulus":"bees-with-color/bee-B2SF.svg","response":0,"trial_type":"image-button-response","trial_index":83,"time_elapsed":2077647,"internal_node_id":"0.0-4.0-0.38","subject_id":"615de114da91c7b7988ddf0b","study_id":"60edd13110225f80f9f3709b","session_id":"6196c7048ed6ab1744f0d2d4","condition":"full-information","relevant_dimensions":["antennae","legs"],"bee_group":{"antennae":"A","wings":"X","pattern":"X","legs":"F"},"action":"harvest","summary":"good-harvest","bonus":1.740000000000001},{"rt":7657.700000047684,"stimulus":"\n                    <p><b>Action: <em>harvest</em></b></p>\n                    <p>This is the bee that you just saw.</p>\n                    <img src=\"bees-with-color/bee-B2SF.svg\" width=\"200\">\n                    <p><span class=\"greenText\"><b>Successful harvest!</b></span><br>Your pay has increased by $0.02. Your bonus pay is now $0.88.</p>\n            ","response":0,"trial_type":"html-button-response","trial_index":84,"time_elapsed":2085307,"internal_node_id":"0.0-4.0-1.38","subject_id":"615de114da91c7b7988ddf0b","study_id":"60edd13110225f80f9f3709b","session_id":"6196c7048ed6ab1744f0d2d4","condition":"full-information","relevant_dimensions":["antennae","legs"],"bee_group":{"antennae":"A","wings":"X","pattern":"X","legs":"F"},"bonus":1.740000000000001},{"rt":16655.899999976158,"stimulus":"bees-with-color/bee-B1SF.svg","response":0,"trial_type":"image-button-response","trial_index":85,"time_elapsed":2101965,"internal_node_id":"0.0-4.0-0.39","subject_id":"615de114da91c7b7988ddf0b","study_id":"60edd13110225f80f9f3709b","session_id":"6196c7048ed6ab1744f0d2d4","condition":"full-information","relevant_dimensions":["antennae","legs"],"bee_group":{"antennae":"A","wings":"X","pattern":"X","legs":"F"},"action":"harvest","summary":"good-harvest","bonus":1.740000000000001},{"rt":1222.1000000238419,"stimulus":"\n                    <p><b>Action: <em>harvest</em></b></p>\n                    <p>This is the bee that you just saw.</p>\n                    <img src=\"bees-with-color/bee-B1SF.svg\" width=\"200\">\n                    <p><span class=\"greenText\"><b>Successful harvest!</b></span><br>Your pay has increased by $0.02. Your bonus pay is now $0.90.</p>\n            ","response":0,"trial_type":"html-button-response","trial_index":86,"time_elapsed":2103189,"internal_node_id":"0.0-4.0-1.39","subject_id":"615de114da91c7b7988ddf0b","study_id":"60edd13110225f80f9f3709b","session_id":"6196c7048ed6ab1744f0d2d4","condition":"full-information","relevant_dimensions":["antennae","legs"],"bee_group":{"antennae":"A","wings":"X","pattern":"X","legs":"F"},"bonus":1.740000000000001},{"rt":9280,"stimulus":"bees-with-color/bee-B1SM.svg","response":0,"trial_type":"image-button-response","trial_index":87,"time_elapsed":2112471,"internal_node_id":"0.0-4.0-0.40","subject_id":"615de114da91c7b7988ddf0b","study_id":"60edd13110225f80f9f3709b","session_id":"6196c7048ed6ab1744f0d2d4","condition":"full-information","relevant_dimensions":["antennae","legs"],"bee_group":{"antennae":"A","wings":"X","pattern":"X","legs":"F"},"action":"harvest","summary":"good-harvest","bonus":1.740000000000001},{"rt":1977.6000000238419,"stimulus":"\n                    <p><b>Action: <em>harvest</em></b></p>\n                    <p>This is the bee that you just saw.</p>\n                    <img src=\"bees-with-color/bee-B1SM.svg\" width=\"200\">\n                    <p><span class=\"greenText\"><b>Successful harvest!</b></span><br>Your pay has increased by $0.02. Your bonus pay is now $0.92.</p>\n            ","response":0,"trial_type":"html-button-response","trial_index":88,"time_elapsed":2114451,"internal_node_id":"0.0-4.0-1.40","subject_id":"615de114da91c7b7988ddf0b","study_id":"60edd13110225f80f9f3709b","session_id":"6196c7048ed6ab1744f0d2d4","condition":"full-information","relevant_dimensions":["antennae","legs"],"bee_group":{"antennae":"A","wings":"X","pattern":"X","legs":"F"},"bonus":1.740000000000001},{"rt":18487.900000095367,"stimulus":"bees-with-color/bee-A1SM.svg","response":0,"trial_type":"image-button-response","trial_index":89,"time_elapsed":2132941,"internal_node_id":"0.0-4.0-0.41","subject_id":"615de114da91c7b7988ddf0b","study_id":"60edd13110225f80f9f3709b","session_id":"6196c7048ed6ab1744f0d2d4","condition":"full-information","relevant_dimensions":["antennae","legs"],"bee_group":{"antennae":"A","wings":"X","pattern":"X","legs":"F"},"action":"harvest","summary":"good-harvest","bonus":1.740000000000001},{"rt":1726.3000000715256,"stimulus":"\n                    <p><b>Action: <em>harvest</em></b></p>\n                    <p>This is the bee that you just saw.</p>\n                    <img src=\"bees-with-color/bee-A1SM.svg\" width=\"200\">\n                    <p><span class=\"greenText\"><b>Successful harvest!</b></span><br>Your pay has increased by $0.02. Your bonus pay is now $0.94.</p>\n            ","response":0,"trial_type":"html-button-response","trial_index":90,"time_elapsed":2134669,"internal_node_id":"0.0-4.0-1.41","subject_id":"615de114da91c7b7988ddf0b","study_id":"60edd13110225f80f9f3709b","session_id":"6196c7048ed6ab1744f0d2d4","condition":"full-information","relevant_dimensions":["antennae","legs"],"bee_group":{"antennae":"A","wings":"X","pattern":"X","legs":"F"},"bonus":1.740000000000001},{"rt":8996.800000071526,"stimulus":"bees-with-color/bee-A2SF.svg","response":1,"trial_type":"image-button-response","trial_index":91,"time_elapsed":2143669,"internal_node_id":"0.0-4.0-0.42","subject_id":"615de114da91c7b7988ddf0b","study_id":"60edd13110225f80f9f3709b","session_id":"6196c7048ed6ab1744f0d2d4","condition":"full-information","relevant_dimensions":["antennae","legs"],"bee_group":{"antennae":"A","wings":"X","pattern":"X","legs":"F"},"action":"avoid","summary":"good-avoid","bonus":1.740000000000001},{"rt":1426.2000000476837,"stimulus":"\n                    <p><b>Action: <em>avoid</em></b></p>\n                    <p>This is the bee that you just saw.</p>\n                    <img src=\"bees-with-color/bee-A2SF.svg\" width=\"200\">\n                    <p><span class=\"greenText\">Good choice!</span>  This bee would have stung you.<br>Your bonus pay is unchanged, and remains at $0.94.</p>\n            ","response":0,"trial_type":"html-button-response","trial_index":92,"time_elapsed":2145097,"internal_node_id":"0.0-4.0-1.42","subject_id":"615de114da91c7b7988ddf0b","study_id":"60edd13110225f80f9f3709b","session_id":"6196c7048ed6ab1744f0d2d4","condition":"full-information","relevant_dimensions":["antennae","legs"],"bee_group":{"antennae":"A","wings":"X","pattern":"X","legs":"F"},"bonus":1.740000000000001},{"rt":10719.600000023842,"stimulus":"bees-with-color/bee-A2DF.svg","response":1,"trial_type":"image-button-response","trial_index":93,"time_elapsed":2155819,"internal_node_id":"0.0-4.0-0.43","subject_id":"615de114da91c7b7988ddf0b","study_id":"60edd13110225f80f9f3709b","session_id":"6196c7048ed6ab1744f0d2d4","condition":"full-information","relevant_dimensions":["antennae","legs"],"bee_group":{"antennae":"A","wings":"X","pattern":"X","legs":"F"},"action":"avoid","summary":"good-avoid","bonus":1.740000000000001},{"rt":1298.5,"stimulus":"\n                    <p><b>Action: <em>avoid</em></b></p>\n                    <p>This is the bee that you just saw.</p>\n                    <img src=\"bees-with-color/bee-A2DF.svg\" width=\"200\">\n                    <p><span class=\"greenText\">Good choice!</span>  This bee would have stung you.<br>Your bonus pay is unchanged, and remains at $0.94.</p>\n            ","response":0,"trial_type":"html-button-response","trial_index":94,"time_elapsed":2157119,"internal_node_id":"0.0-4.0-1.43","subject_id":"615de114da91c7b7988ddf0b","study_id":"60edd13110225f80f9f3709b","session_id":"6196c7048ed6ab1744f0d2d4","condition":"full-information","relevant_dimensions":["antennae","legs"],"bee_group":{"antennae":"A","wings":"X","pattern":"X","legs":"F"},"bonus":1.740000000000001},{"rt":23717.200000047684,"stimulus":"bees-with-color/bee-A1DM.svg","response":0,"trial_type":"image-button-response","trial_index":95,"time_elapsed":2180839,"internal_node_id":"0.0-4.0-0.44","subject_id":"615de114da91c7b7988ddf0b","study_id":"60edd13110225f80f9f3709b","session_id":"6196c7048ed6ab1744f0d2d4","condition":"full-information","relevant_dimensions":["antennae","legs"],"bee_group":{"antennae":"A","wings":"X","pattern":"X","legs":"F"},"action":"harvest","summary":"good-harvest","bonus":1.740000000000001},{"rt":1022,"stimulus":"\n                    <p><b>Action: <em>harvest</em></b></p>\n                    <p>This is the bee that you just saw.</p>\n                    <img src=\"bees-with-color/bee-A1DM.svg\" width=\"200\">\n                    <p><span class=\"greenText\"><b>Successful harvest!</b></span><br>Your pay has increased by $0.02. Your bonus pay is now $0.96.</p>\n            ","response":0,"trial_type":"html-button-response","trial_index":96,"time_elapsed":2181863,"internal_node_id":"0.0-4.0-1.44","subject_id":"615de114da91c7b7988ddf0b","study_id":"60edd13110225f80f9f3709b","session_id":"6196c7048ed6ab1744f0d2d4","condition":"full-information","relevant_dimensions":["antennae","legs"],"bee_group":{"antennae":"A","wings":"X","pattern":"X","legs":"F"},"bonus":1.740000000000001},{"rt":12725.599999904633,"stimulus":"bees-with-color/bee-A2DM.svg","response":0,"trial_type":"image-button-response","trial_index":97,"time_elapsed":2194591,"internal_node_id":"0.0-4.0-0.45","subject_id":"615de114da91c7b7988ddf0b","study_id":"60edd13110225f80f9f3709b","session_id":"6196c7048ed6ab1744f0d2d4","condition":"full-information","relevant_dimensions":["antennae","legs"],"bee_group":{"antennae":"A","wings":"X","pattern":"X","legs":"F"},"action":"harvest","summary":"good-harvest","bonus":1.740000000000001},{"rt":21244.100000023842,"stimulus":"\n                    <p><b>Action: <em>harvest</em></b></p>\n                    <p>This is the bee that you just saw.</p>\n                    <img src=\"bees-with-color/bee-A2DM.svg\" width=\"200\">\n                    <p><span class=\"greenText\"><b>Successful harvest!</b></span><br>Your pay has increased by $0.02. Your bonus pay is now $0.98.</p>\n            ","response":0,"trial_type":"html-button-response","trial_index":98,"time_elapsed":2215836,"internal_node_id":"0.0-4.0-1.45","subject_id":"615de114da91c7b7988ddf0b","study_id":"60edd13110225f80f9f3709b","session_id":"6196c7048ed6ab1744f0d2d4","condition":"full-information","relevant_dimensions":["antennae","legs"],"bee_group":{"antennae":"A","wings":"X","pattern":"X","legs":"F"},"bonus":1.740000000000001},{"rt":24969.299999952316,"stimulus":"bees-with-color/bee-B2DF.svg","response":0,"trial_type":"image-button-response","trial_index":99,"time_elapsed":2240811,"internal_node_id":"0.0-4.0-0.46","subject_id":"615de114da91c7b7988ddf0b","study_id":"60edd13110225f80f9f3709b","session_id":"6196c7048ed6ab1744f0d2d4","condition":"full-information","relevant_dimensions":["antennae","legs"],"bee_group":{"antennae":"A","wings":"X","pattern":"X","legs":"F"},"action":"harvest","summary":"good-harvest","bonus":1.740000000000001},{"rt":1325.8999999761581,"stimulus":"\n                    <p><b>Action: <em>harvest</em></b></p>\n                    <p>This is the bee that you just saw.</p>\n                    <img src=\"bees-with-color/bee-B2DF.svg\" width=\"200\">\n                    <p><span class=\"greenText\"><b>Successful harvest!</b></span><br>Your pay has increased by $0.02. Your bonus pay is now $1.00.</p>\n            ","response":0,"trial_type":"html-button-response","trial_index":100,"time_elapsed":2242138,"internal_node_id":"0.0-4.0-1.46","subject_id":"615de114da91c7b7988ddf0b","study_id":"60edd13110225f80f9f3709b","session_id":"6196c7048ed6ab1744f0d2d4","condition":"full-information","relevant_dimensions":["antennae","legs"],"bee_group":{"antennae":"A","wings":"X","pattern":"X","legs":"F"},"bonus":1.740000000000001},{"rt":11189.700000047684,"stimulus":"bees-with-color/bee-B1DF.svg","response":0,"trial_type":"image-button-response","trial_index":101,"time_elapsed":2253330,"internal_node_id":"0.0-4.0-0.47","subject_id":"615de114da91c7b7988ddf0b","study_id":"60edd13110225f80f9f3709b","session_id":"6196c7048ed6ab1744f0d2d4","condition":"full-information","relevant_dimensions":["antennae","legs"],"bee_group":{"antennae":"A","wings":"X","pattern":"X","legs":"F"},"action":"harvest","summary":"good-harvest","bonus":1.740000000000001},{"rt":1033.8000000715256,"stimulus":"\n                    <p><b>Action: <em>harvest</em></b></p>\n                    <p>This is the bee that you just saw.</p>\n                    <img src=\"bees-with-color/bee-B1DF.svg\" width=\"200\">\n                    <p><span class=\"greenText\"><b>Successful harvest!</b></span><br>Your pay has increased by $0.02. Your bonus pay is now $1.02.</p>\n            ","response":0,"trial_type":"html-button-response","trial_index":102,"time_elapsed":2254366,"internal_node_id":"0.0-4.0-1.47","subject_id":"615de114da91c7b7988ddf0b","study_id":"60edd13110225f80f9f3709b","session_id":"6196c7048ed6ab1744f0d2d4","condition":"full-information","relevant_dimensions":["antennae","legs"],"bee_group":{"antennae":"A","wings":"X","pattern":"X","legs":"F"},"bonus":1.740000000000001},{"rt":20585.600000023842,"stimulus":"bees-with-color/bee-B1SF.svg","response":0,"trial_type":"image-button-response","trial_index":103,"time_elapsed":2274954,"internal_node_id":"0.0-4.0-0.48","subject_id":"615de114da91c7b7988ddf0b","study_id":"60edd13110225f80f9f3709b","session_id":"6196c7048ed6ab1744f0d2d4","condition":"full-information","relevant_dimensions":["antennae","legs"],"bee_group":{"antennae":"A","wings":"X","pattern":"X","legs":"F"},"action":"harvest","summary":"good-harvest","bonus":1.740000000000001},{"rt":1132.3999999761581,"stimulus":"\n                    <p><b>Action: <em>harvest</em></b></p>\n                    <p>This is the bee that you just saw.</p>\n                    <img src=\"bees-with-color/bee-B1SF.svg\" width=\"200\">\n                    <p><span class=\"greenText\"><b>Successful harvest!</b></span><br>Your pay has increased by $0.02. Your bonus pay is now $1.04.</p>\n            ","response":0,"trial_type":"html-button-response","trial_index":104,"time_elapsed":2276088,"internal_node_id":"0.0-4.0-1.48","subject_id":"615de114da91c7b7988ddf0b","study_id":"60edd13110225f80f9f3709b","session_id":"6196c7048ed6ab1744f0d2d4","condition":"full-information","relevant_dimensions":["antennae","legs"],"bee_group":{"antennae":"A","wings":"X","pattern":"X","legs":"F"},"bonus":1.740000000000001},{"rt":14652.900000095367,"stimulus":"bees-with-color/bee-A1DM.svg","response":0,"trial_type":"image-button-response","trial_index":105,"time_elapsed":2290744,"internal_node_id":"0.0-4.0-0.49","subject_id":"615de114da91c7b7988ddf0b","study_id":"60edd13110225f80f9f3709b","session_id":"6196c7048ed6ab1744f0d2d4","condition":"full-information","relevant_dimensions":["antennae","legs"],"bee_group":{"antennae":"A","wings":"X","pattern":"X","legs":"F"},"action":"harvest","summary":"good-harvest","bonus":1.740000000000001},{"rt":1071.4000000953674,"stimulus":"\n                    <p><b>Action: <em>harvest</em></b></p>\n                    <p>This is the bee that you just saw.</p>\n                    <img src=\"bees-with-color/bee-A1DM.svg\" width=\"200\">\n                    <p><span class=\"greenText\"><b>Successful harvest!</b></span><br>Your pay has increased by $0.02. Your bonus pay is now $1.06.</p>\n            ","response":0,"trial_type":"html-button-response","trial_index":106,"time_elapsed":2291818,"internal_node_id":"0.0-4.0-1.49","subject_id":"615de114da91c7b7988ddf0b","study_id":"60edd13110225f80f9f3709b","session_id":"6196c7048ed6ab1744f0d2d4","condition":"full-information","relevant_dimensions":["antennae","legs"],"bee_group":{"antennae":"A","wings":"X","pattern":"X","legs":"F"},"bonus":1.740000000000001},{"rt":19203,"stimulus":"bees-with-color/bee-B2SF.svg","response":0,"trial_type":"image-button-response","trial_index":107,"time_elapsed":2311024,"internal_node_id":"0.0-4.0-0.50","subject_id":"615de114da91c7b7988ddf0b","study_id":"60edd13110225f80f9f3709b","session_id":"6196c7048ed6ab1744f0d2d4","condition":"full-information","relevant_dimensions":["antennae","legs"],"bee_group":{"antennae":"A","wings":"X","pattern":"X","legs":"F"},"action":"harvest","summary":"good-harvest","bonus":1.740000000000001},{"rt":2609.899999976158,"stimulus":"\n                    <p><b>Action: <em>harvest</em></b></p>\n                    <p>This is the bee that you just saw.</p>\n                    <img src=\"bees-with-color/bee-B2SF.svg\" width=\"200\">\n                    <p><span class=\"greenText\"><b>Successful harvest!</b></span><br>Your pay has increased by $0.02. Your bonus pay is now $1.08.</p>\n            ","response":0,"trial_type":"html-button-response","trial_index":108,"time_elapsed":2313636,"internal_node_id":"0.0-4.0-1.50","subject_id":"615de114da91c7b7988ddf0b","study_id":"60edd13110225f80f9f3709b","session_id":"6196c7048ed6ab1744f0d2d4","condition":"full-information","relevant_dimensions":["antennae","legs"],"bee_group":{"antennae":"A","wings":"X","pattern":"X","legs":"F"},"bonus":1.740000000000001},{"rt":5541.700000047684,"stimulus":"bees-with-color/bee-B2DM.svg","response":0,"trial_type":"image-button-response","trial_index":109,"time_elapsed":2319179,"internal_node_id":"0.0-4.0-0.51","subject_id":"615de114da91c7b7988ddf0b","study_id":"60edd13110225f80f9f3709b","session_id":"6196c7048ed6ab1744f0d2d4","condition":"full-information","relevant_dimensions":["antennae","legs"],"bee_group":{"antennae":"A","wings":"X","pattern":"X","legs":"F"},"action":"harvest","summary":"good-harvest","bonus":1.740000000000001},{"rt":10936.300000071526,"stimulus":"\n                    <p><b>Action: <em>harvest</em></b></p>\n                    <p>This is the bee that you just saw.</p>\n                    <img src=\"bees-with-color/bee-B2DM.svg\" width=\"200\">\n                    <p><span class=\"greenText\"><b>Successful harvest!</b></span><br>Your pay has increased by $0.02. Your bonus pay is now $1.10.</p>\n            ","response":0,"trial_type":"html-button-response","trial_index":110,"time_elapsed":2330117,"internal_node_id":"0.0-4.0-1.51","subject_id":"615de114da91c7b7988ddf0b","study_id":"60edd13110225f80f9f3709b","session_id":"6196c7048ed6ab1744f0d2d4","condition":"full-information","relevant_dimensions":["antennae","legs"],"bee_group":{"antennae":"A","wings":"X","pattern":"X","legs":"F"},"bonus":1.740000000000001},{"rt":12487.799999952316,"stimulus":"bees-with-color/bee-A2SF.svg","response":1,"trial_type":"image-button-response","trial_index":111,"time_elapsed":2342608,"internal_node_id":"0.0-4.0-0.52","subject_id":"615de114da91c7b7988ddf0b","study_id":"60edd13110225f80f9f3709b","session_id":"6196c7048ed6ab1744f0d2d4","condition":"full-information","relevant_dimensions":["antennae","legs"],"bee_group":{"antennae":"A","wings":"X","pattern":"X","legs":"F"},"action":"avoid","summary":"good-avoid","bonus":1.740000000000001},{"rt":1426.1999999284744,"stimulus":"\n                    <p><b>Action: <em>avoid</em></b></p>\n                    <p>This is the bee that you just saw.</p>\n                    <img src=\"bees-with-color/bee-A2SF.svg\" width=\"200\">\n                    <p><span class=\"greenText\">Good choice!</span>  This bee would have stung you.<br>Your bonus pay is unchanged, and remains at $1.10.</p>\n            ","response":0,"trial_type":"html-button-response","trial_index":112,"time_elapsed":2344036,"internal_node_id":"0.0-4.0-1.52","subject_id":"615de114da91c7b7988ddf0b","study_id":"60edd13110225f80f9f3709b","session_id":"6196c7048ed6ab1744f0d2d4","condition":"full-information","relevant_dimensions":["antennae","legs"],"bee_group":{"antennae":"A","wings":"X","pattern":"X","legs":"F"},"bonus":1.740000000000001},{"rt":12717.700000047684,"stimulus":"bees-with-color/bee-B2SM.svg","response":0,"trial_type":"image-button-response","trial_index":113,"time_elapsed":2356755,"internal_node_id":"0.0-4.0-0.53","subject_id":"615de114da91c7b7988ddf0b","study_id":"60edd13110225f80f9f3709b","session_id":"6196c7048ed6ab1744f0d2d4","condition":"full-information","relevant_dimensions":["antennae","legs"],"bee_group":{"antennae":"A","wings":"X","pattern":"X","legs":"F"},"action":"harvest","summary":"good-harvest","bonus":1.740000000000001},{"rt":994.6000000238419,"stimulus":"\n                    <p><b>Action: <em>harvest</em></b></p>\n                    <p>This is the bee that you just saw.</p>\n                    <img src=\"bees-with-color/bee-B2SM.svg\" width=\"200\">\n                    <p><span class=\"greenText\"><b>Successful harvest!</b></span><br>Your pay has increased by $0.02. Your bonus pay is now $1.12.</p>\n            ","response":0,"trial_type":"html-button-response","trial_index":114,"time_elapsed":2357752,"internal_node_id":"0.0-4.0-1.53","subject_id":"615de114da91c7b7988ddf0b","study_id":"60edd13110225f80f9f3709b","session_id":"6196c7048ed6ab1744f0d2d4","condition":"full-information","relevant_dimensions":["antennae","legs"],"bee_group":{"antennae":"A","wings":"X","pattern":"X","legs":"F"},"bonus":1.740000000000001},{"rt":9662.200000047684,"stimulus":"bees-with-color/bee-A2DF.svg","response":1,"trial_type":"image-button-response","trial_index":115,"time_elapsed":2367416,"internal_node_id":"0.0-4.0-0.54","subject_id":"615de114da91c7b7988ddf0b","study_id":"60edd13110225f80f9f3709b","session_id":"6196c7048ed6ab1744f0d2d4","condition":"full-information","relevant_dimensions":["antennae","legs"],"bee_group":{"antennae":"A","wings":"X","pattern":"X","legs":"F"},"action":"avoid","summary":"good-avoid","bonus":1.740000000000001},{"rt":1099.9000000953674,"stimulus":"\n                    <p><b>Action: <em>avoid</em></b></p>\n                    <p>This is the bee that you just saw.</p>\n                    <img src=\"bees-with-color/bee-A2DF.svg\" width=\"200\">\n                    <p><span class=\"greenText\">Good choice!</span>  This bee would have stung you.<br>Your bonus pay is unchanged, and remains at $1.12.</p>\n            ","response":0,"trial_type":"html-button-response","trial_index":116,"time_elapsed":2368517,"internal_node_id":"0.0-4.0-1.54","subject_id":"615de114da91c7b7988ddf0b","study_id":"60edd13110225f80f9f3709b","session_id":"6196c7048ed6ab1744f0d2d4","condition":"full-information","relevant_dimensions":["antennae","legs"],"bee_group":{"antennae":"A","wings":"X","pattern":"X","legs":"F"},"bonus":1.740000000000001},{"rt":21163.800000071526,"stimulus":"bees-with-color/bee-B2DF.svg","response":0,"trial_type":"image-button-response","trial_index":117,"time_elapsed":2389683,"internal_node_id":"0.0-4.0-0.55","subject_id":"615de114da91c7b7988ddf0b","study_id":"60edd13110225f80f9f3709b","session_id":"6196c7048ed6ab1744f0d2d4","condition":"full-information","relevant_dimensions":["antennae","legs"],"bee_group":{"antennae":"A","wings":"X","pattern":"X","legs":"F"},"action":"harvest","summary":"good-harvest","bonus":1.740000000000001},{"rt":1522,"stimulus":"\n                    <p><b>Action: <em>harvest</em></b></p>\n                    <p>This is the bee that you just saw.</p>\n                    <img src=\"bees-with-color/bee-B2DF.svg\" width=\"200\">\n                    <p><span class=\"greenText\"><b>Successful harvest!</b></span><br>Your pay has increased by $0.02. Your bonus pay is now $1.14.</p>\n            ","response":0,"trial_type":"html-button-response","trial_index":118,"time_elapsed":2391207,"internal_node_id":"0.0-4.0-1.55","subject_id":"615de114da91c7b7988ddf0b","study_id":"60edd13110225f80f9f3709b","session_id":"6196c7048ed6ab1744f0d2d4","condition":"full-information","relevant_dimensions":["antennae","legs"],"bee_group":{"antennae":"A","wings":"X","pattern":"X","legs":"F"},"bonus":1.740000000000001},{"rt":47660.299999952316,"stimulus":"bees-with-color/bee-A1SM.svg","response":0,"trial_type":"image-button-response","trial_index":119,"time_elapsed":2438870,"internal_node_id":"0.0-4.0-0.56","subject_id":"615de114da91c7b7988ddf0b","study_id":"60edd13110225f80f9f3709b","session_id":"6196c7048ed6ab1744f0d2d4","condition":"full-information","relevant_dimensions":["antennae","legs"],"bee_group":{"antennae":"A","wings":"X","pattern":"X","legs":"F"},"action":"harvest","summary":"good-harvest","bonus":1.740000000000001},{"rt":1343.7999999523163,"stimulus":"\n                    <p><b>Action: <em>harvest</em></b></p>\n                    <p>This is the bee that you just saw.</p>\n                    <img src=\"bees-with-color/bee-A1SM.svg\" width=\"200\">\n                    <p><span class=\"greenText\"><b>Successful harvest!</b></span><br>Your pay has increased by $0.02. Your bonus pay is now $1.16.</p>\n            ","response":0,"trial_type":"html-button-response","trial_index":120,"time_elapsed":2440215,"internal_node_id":"0.0-4.0-1.56","subject_id":"615de114da91c7b7988ddf0b","study_id":"60edd13110225f80f9f3709b","session_id":"6196c7048ed6ab1744f0d2d4","condition":"full-information","relevant_dimensions":["antennae","legs"],"bee_group":{"antennae":"A","wings":"X","pattern":"X","legs":"F"},"bonus":1.740000000000001},{"rt":26407.5,"stimulus":"bees-with-color/bee-A2DM.svg","response":0,"trial_type":"image-button-response","trial_index":121,"time_elapsed":2466625,"internal_node_id":"0.0-4.0-0.57","subject_id":"615de114da91c7b7988ddf0b","study_id":"60edd13110225f80f9f3709b","session_id":"6196c7048ed6ab1744f0d2d4","condition":"full-information","relevant_dimensions":["antennae","legs"],"bee_group":{"antennae":"A","wings":"X","pattern":"X","legs":"F"},"action":"harvest","summary":"good-harvest","bonus":1.740000000000001},{"rt":1744.1000000238419,"stimulus":"\n                    <p><b>Action: <em>harvest</em></b></p>\n                    <p>This is the bee that you just saw.</p>\n                    <img src=\"bees-with-color/bee-A2DM.svg\" width=\"200\">\n                    <p><span class=\"greenText\"><b>Successful harvest!</b></span><br>Your pay has increased by $0.02. Your bonus pay is now $1.18.</p>\n            ","response":0,"trial_type":"html-button-response","trial_index":122,"time_elapsed":2468371,"internal_node_id":"0.0-4.0-1.57","subject_id":"615de114da91c7b7988ddf0b","study_id":"60edd13110225f80f9f3709b","session_id":"6196c7048ed6ab1744f0d2d4","condition":"full-information","relevant_dimensions":["antennae","legs"],"bee_group":{"antennae":"A","wings":"X","pattern":"X","legs":"F"},"bonus":1.740000000000001},{"rt":20233.799999952316,"stimulus":"bees-with-color/bee-B1DF.svg","response":0,"trial_type":"image-button-response","trial_index":123,"time_elapsed":2488607,"internal_node_id":"0.0-4.0-0.58","subject_id":"615de114da91c7b7988ddf0b","study_id":"60edd13110225f80f9f3709b","session_id":"6196c7048ed6ab1744f0d2d4","condition":"full-information","relevant_dimensions":["antennae","legs"],"bee_group":{"antennae":"A","wings":"X","pattern":"X","legs":"F"},"action":"harvest","summary":"good-harvest","bonus":1.740000000000001},{"rt":1091.3999999761581,"stimulus":"\n                    <p><b>Action: <em>harvest</em></b></p>\n                    <p>This is the bee that you just saw.</p>\n                    <img src=\"bees-with-color/bee-B1DF.svg\" width=\"200\">\n                    <p><span class=\"greenText\"><b>Successful harvest!</b></span><br>Your pay has increased by $0.02. Your bonus pay is now $1.20.</p>\n            ","response":0,"trial_type":"html-button-response","trial_index":124,"time_elapsed":2489701,"internal_node_id":"0.0-4.0-1.58","subject_id":"615de114da91c7b7988ddf0b","study_id":"60edd13110225f80f9f3709b","session_id":"6196c7048ed6ab1744f0d2d4","condition":"full-information","relevant_dimensions":["antennae","legs"],"bee_group":{"antennae":"A","wings":"X","pattern":"X","legs":"F"},"bonus":1.740000000000001},{"rt":13491.600000023842,"stimulus":"bees-with-color/bee-A2SM.svg","response":0,"trial_type":"image-button-response","trial_index":125,"time_elapsed":2503195,"internal_node_id":"0.0-4.0-0.59","subject_id":"615de114da91c7b7988ddf0b","study_id":"60edd13110225f80f9f3709b","session_id":"6196c7048ed6ab1744f0d2d4","condition":"full-information","relevant_dimensions":["antennae","legs"],"bee_group":{"antennae":"A","wings":"X","pattern":"X","legs":"F"},"action":"harvest","summary":"good-harvest","bonus":1.740000000000001},{"rt":1313.6000000238419,"stimulus":"\n                    <p><b>Action: <em>harvest</em></b></p>\n                    <p>This is the bee that you just saw.</p>\n                    <img src=\"bees-with-color/bee-A2SM.svg\" width=\"200\">\n                    <p><span class=\"greenText\"><b>Successful harvest!</b></span><br>Your pay has increased by $0.02. Your bonus pay is now $1.22.</p>\n            ","response":0,"trial_type":"html-button-response","trial_index":126,"time_elapsed":2504511,"internal_node_id":"0.0-4.0-1.59","subject_id":"615de114da91c7b7988ddf0b","study_id":"60edd13110225f80f9f3709b","session_id":"6196c7048ed6ab1744f0d2d4","condition":"full-information","relevant_dimensions":["antennae","legs"],"bee_group":{"antennae":"A","wings":"X","pattern":"X","legs":"F"},"bonus":1.740000000000001},{"rt":9193.399999976158,"stimulus":"bees-with-color/bee-A1SF.svg","response":1,"trial_type":"image-button-response","trial_index":127,"time_elapsed":2513706,"internal_node_id":"0.0-4.0-0.60","subject_id":"615de114da91c7b7988ddf0b","study_id":"60edd13110225f80f9f3709b","session_id":"6196c7048ed6ab1744f0d2d4","condition":"full-information","relevant_dimensions":["antennae","legs"],"bee_group":{"antennae":"A","wings":"X","pattern":"X","legs":"F"},"action":"avoid","summary":"good-avoid","bonus":1.740000000000001},{"rt":1862.6999999284744,"stimulus":"\n                    <p><b>Action: <em>avoid</em></b></p>\n                    <p>This is the bee that you just saw.</p>\n                    <img src=\"bees-with-color/bee-A1SF.svg\" width=\"200\">\n                    <p><span class=\"greenText\">Good choice!</span>  This bee would have stung you.<br>Your bonus pay is unchanged, and remains at $1.22.</p>\n            ","response":0,"trial_type":"html-button-response","trial_index":128,"time_elapsed":2515571,"internal_node_id":"0.0-4.0-1.60","subject_id":"615de114da91c7b7988ddf0b","study_id":"60edd13110225f80f9f3709b","session_id":"6196c7048ed6ab1744f0d2d4","condition":"full-information","relevant_dimensions":["antennae","legs"],"bee_group":{"antennae":"A","wings":"X","pattern":"X","legs":"F"},"bonus":1.740000000000001},{"rt":14509.799999952316,"stimulus":"bees-with-color/bee-B1DM.svg","response":0,"trial_type":"image-button-response","trial_index":129,"time_elapsed":2530083,"internal_node_id":"0.0-4.0-0.61","subject_id":"615de114da91c7b7988ddf0b","study_id":"60edd13110225f80f9f3709b","session_id":"6196c7048ed6ab1744f0d2d4","condition":"full-information","relevant_dimensions":["antennae","legs"],"bee_group":{"antennae":"A","wings":"X","pattern":"X","legs":"F"},"action":"harvest","summary":"good-harvest","bonus":1.740000000000001},{"rt":1309.8999999761581,"stimulus":"\n                    <p><b>Action: <em>harvest</em></b></p>\n                    <p>This is the bee that you just saw.</p>\n                    <img src=\"bees-with-color/bee-B1DM.svg\" width=\"200\">\n                    <p><span class=\"greenText\"><b>Successful harvest!</b></span><br>Your pay has increased by $0.02. Your bonus pay is now $1.24.</p>\n            ","response":0,"trial_type":"html-button-response","trial_index":130,"time_elapsed":2531395,"internal_node_id":"0.0-4.0-1.61","subject_id":"615de114da91c7b7988ddf0b","study_id":"60edd13110225f80f9f3709b","session_id":"6196c7048ed6ab1744f0d2d4","condition":"full-information","relevant_dimensions":["antennae","legs"],"bee_group":{"antennae":"A","wings":"X","pattern":"X","legs":"F"},"bonus":1.740000000000001},{"rt":11989.699999928474,"stimulus":"bees-with-color/bee-B1SM.svg","response":0,"trial_type":"image-button-response","trial_index":131,"time_elapsed":2543387,"internal_node_id":"0.0-4.0-0.62","subject_id":"615de114da91c7b7988ddf0b","study_id":"60edd13110225f80f9f3709b","session_id":"6196c7048ed6ab1744f0d2d4","condition":"full-information","relevant_dimensions":["antennae","legs"],"bee_group":{"antennae":"A","wings":"X","pattern":"X","legs":"F"},"action":"harvest","summary":"good-harvest","bonus":1.740000000000001},{"rt":1379.8000000715256,"stimulus":"\n                    <p><b>Action: <em>harvest</em></b></p>\n                    <p>This is the bee that you just saw.</p>\n                    <img src=\"bees-with-color/bee-B1SM.svg\" width=\"200\">\n                    <p><span class=\"greenText\"><b>Successful harvest!</b></span><br>Your pay has increased by $0.02. Your bonus pay is now $1.26.</p>\n            ","response":0,"trial_type":"html-button-response","trial_index":132,"time_elapsed":2544769,"internal_node_id":"0.0-4.0-1.62","subject_id":"615de114da91c7b7988ddf0b","study_id":"60edd13110225f80f9f3709b","session_id":"6196c7048ed6ab1744f0d2d4","condition":"full-information","relevant_dimensions":["antennae","legs"],"bee_group":{"antennae":"A","wings":"X","pattern":"X","legs":"F"},"bonus":1.740000000000001},{"rt":8371.699999928474,"stimulus":"bees-with-color/bee-A1DF.svg","response":1,"trial_type":"image-button-response","trial_index":133,"time_elapsed":2553143,"internal_node_id":"0.0-4.0-0.63","subject_id":"615de114da91c7b7988ddf0b","study_id":"60edd13110225f80f9f3709b","session_id":"6196c7048ed6ab1744f0d2d4","condition":"full-information","relevant_dimensions":["antennae","legs"],"bee_group":{"antennae":"A","wings":"X","pattern":"X","legs":"F"},"action":"avoid","summary":"good-avoid","bonus":1.740000000000001},{"rt":2402.8000000715256,"stimulus":"\n                    <p><b>Action: <em>avoid</em></b></p>\n                    <p>This is the bee that you just saw.</p>\n                    <img src=\"bees-with-color/bee-A1DF.svg\" width=\"200\">\n                    <p><span class=\"greenText\">Good choice!</span>  This bee would have stung you.<br>Your bonus pay is unchanged, and remains at $1.26.</p>\n            ","response":0,"trial_type":"html-button-response","trial_index":134,"time_elapsed":2555548,"internal_node_id":"0.0-4.0-1.63","subject_id":"615de114da91c7b7988ddf0b","study_id":"60edd13110225f80f9f3709b","session_id":"6196c7048ed6ab1744f0d2d4","condition":"full-information","relevant_dimensions":["antennae","legs"],"bee_group":{"antennae":"A","wings":"X","pattern":"X","legs":"F"},"bonus":1.740000000000001},{"rt":11827.699999928474,"stimulus":"You have completed the first part of this experiment.<br><br>You will now begin a shorter second part, in which you will receive no feedback.<br>The same rules regarding bonus pay apply.<br><br>Press any key to begin.","response":"l","trial_type":"html-keyboard-response","trial_index":135,"time_elapsed":2567378,"internal_node_id":"0.0-5.0","subject_id":"615de114da91c7b7988ddf0b","study_id":"60edd13110225f80f9f3709b","session_id":"6196c7048ed6ab1744f0d2d4","condition":"full-information","relevant_dimensions":["antennae","legs"],"bee_group":{"antennae":"A","wings":"X","pattern":"X","legs":"F"},"bonus":1.740000000000001},{"rt":30925.600000023842,"stimulus":"bees-with-color/bee-B1DF.svg","response":0,"trial_type":"image-button-response","trial_index":136,"time_elapsed":2598310,"internal_node_id":"0.0-6.0-0.0","subject_id":"615de114da91c7b7988ddf0b","study_id":"60edd13110225f80f9f3709b","session_id":"6196c7048ed6ab1744f0d2d4","condition":"full-information","relevant_dimensions":["antennae","legs"],"bee_group":{"antennae":"A","wings":"X","pattern":"X","legs":"F"},"bonus":1.740000000000001},{"rt":9702.899999976158,"stimulus":"bees-with-color/bee-A1SF.svg","response":1,"trial_type":"image-button-response","trial_index":137,"time_elapsed":2608016,"internal_node_id":"0.0-6.0-0.1","subject_id":"615de114da91c7b7988ddf0b","study_id":"60edd13110225f80f9f3709b","session_id":"6196c7048ed6ab1744f0d2d4","condition":"full-information","relevant_dimensions":["antennae","legs"],"bee_group":{"antennae":"A","wings":"X","pattern":"X","legs":"F"},"bonus":1.740000000000001},{"rt":17310.400000095367,"stimulus":"bees-with-color/bee-A2DM.svg","response":0,"trial_type":"image-button-response","trial_index":138,"time_elapsed":2625330,"internal_node_id":"0.0-6.0-0.2","subject_id":"615de114da91c7b7988ddf0b","study_id":"60edd13110225f80f9f3709b","session_id":"6196c7048ed6ab1744f0d2d4","condition":"full-information","relevant_dimensions":["antennae","legs"],"bee_group":{"antennae":"A","wings":"X","pattern":"X","legs":"F"},"bonus":1.740000000000001},{"rt":11907.099999904633,"stimulus":"bees-with-color/bee-A2SF.svg","response":1,"trial_type":"image-button-response","trial_index":139,"time_elapsed":2637240,"internal_node_id":"0.0-6.0-0.3","subject_id":"615de114da91c7b7988ddf0b","study_id":"60edd13110225f80f9f3709b","session_id":"6196c7048ed6ab1744f0d2d4","condition":"full-information","relevant_dimensions":["antennae","legs"],"bee_group":{"antennae":"A","wings":"X","pattern":"X","legs":"F"},"bonus":1.740000000000001},{"rt":6717.099999904633,"stimulus":"bees-with-color/bee-B1DM.svg","response":0,"trial_type":"image-button-response","trial_index":140,"time_elapsed":2643960,"internal_node_id":"0.0-6.0-0.4","subject_id":"615de114da91c7b7988ddf0b","study_id":"60edd13110225f80f9f3709b","session_id":"6196c7048ed6ab1744f0d2d4","condition":"full-information","relevant_dimensions":["antennae","legs"],"bee_group":{"antennae":"A","wings":"X","pattern":"X","legs":"F"},"bonus":1.740000000000001},{"rt":921,"stimulus":"bees-with-color/bee-B1SM.svg","response":0,"trial_type":"image-button-response","trial_index":141,"time_elapsed":2644884,"internal_node_id":"0.0-6.0-0.5","subject_id":"615de114da91c7b7988ddf0b","study_id":"60edd13110225f80f9f3709b","session_id":"6196c7048ed6ab1744f0d2d4","condition":"full-information","relevant_dimensions":["antennae","legs"],"bee_group":{"antennae":"A","wings":"X","pattern":"X","legs":"F"},"bonus":1.740000000000001},{"rt":669,"stimulus":"bees-with-color/bee-B2DM.svg","response":0,"trial_type":"image-button-response","trial_index":142,"time_elapsed":2645556,"internal_node_id":"0.0-6.0-0.6","subject_id":"615de114da91c7b7988ddf0b","study_id":"60edd13110225f80f9f3709b","session_id":"6196c7048ed6ab1744f0d2d4","condition":"full-information","relevant_dimensions":["antennae","legs"],"bee_group":{"antennae":"A","wings":"X","pattern":"X","legs":"F"},"bonus":1.740000000000001},{"rt":633.3000000715256,"stimulus":"bees-with-color/bee-A1SM.svg","response":0,"trial_type":"image-button-response","trial_index":143,"time_elapsed":2646192,"internal_node_id":"0.0-6.0-0.7","subject_id":"615de114da91c7b7988ddf0b","study_id":"60edd13110225f80f9f3709b","session_id":"6196c7048ed6ab1744f0d2d4","condition":"full-information","relevant_dimensions":["antennae","legs"],"bee_group":{"antennae":"A","wings":"X","pattern":"X","legs":"F"},"bonus":1.740000000000001},{"rt":723.6000000238419,"stimulus":"bees-with-color/bee-A1DM.svg","response":0,"trial_type":"image-button-response","trial_index":144,"time_elapsed":2646918,"internal_node_id":"0.0-6.0-0.8","subject_id":"615de114da91c7b7988ddf0b","study_id":"60edd13110225f80f9f3709b","session_id":"6196c7048ed6ab1744f0d2d4","condition":"full-information","relevant_dimensions":["antennae","legs"],"bee_group":{"antennae":"A","wings":"X","pattern":"X","legs":"F"},"bonus":1.740000000000001},{"rt":9543.600000023842,"stimulus":"bees-with-color/bee-A1DF.svg","response":1,"trial_type":"image-button-response","trial_index":145,"time_elapsed":2656464,"internal_node_id":"0.0-6.0-0.9","subject_id":"615de114da91c7b7988ddf0b","study_id":"60edd13110225f80f9f3709b","session_id":"6196c7048ed6ab1744f0d2d4","condition":"full-information","relevant_dimensions":["antennae","legs"],"bee_group":{"antennae":"A","wings":"X","pattern":"X","legs":"F"},"bonus":1.740000000000001},{"rt":1242.6000000238419,"stimulus":"bees-with-color/bee-B2SM.svg","response":0,"trial_type":"image-button-response","trial_index":146,"time_elapsed":2657710,"internal_node_id":"0.0-6.0-0.10","subject_id":"615de114da91c7b7988ddf0b","study_id":"60edd13110225f80f9f3709b","session_id":"6196c7048ed6ab1744f0d2d4","condition":"full-information","relevant_dimensions":["antennae","legs"],"bee_group":{"antennae":"A","wings":"X","pattern":"X","legs":"F"},"bonus":1.740000000000001},{"rt":693.6000000238419,"stimulus":"bees-with-color/bee-A2SM.svg","response":0,"trial_type":"image-button-response","trial_index":147,"time_elapsed":2658406,"internal_node_id":"0.0-6.0-0.11","subject_id":"615de114da91c7b7988ddf0b","study_id":"60edd13110225f80f9f3709b","session_id":"6196c7048ed6ab1744f0d2d4","condition":"full-information","relevant_dimensions":["antennae","legs"],"bee_group":{"antennae":"A","wings":"X","pattern":"X","legs":"F"},"bonus":1.740000000000001},{"rt":9757.600000023842,"stimulus":"bees-with-color/bee-B1SF.svg","response":0,"trial_type":"image-button-response","trial_index":148,"time_elapsed":2668166,"internal_node_id":"0.0-6.0-0.12","subject_id":"615de114da91c7b7988ddf0b","study_id":"60edd13110225f80f9f3709b","session_id":"6196c7048ed6ab1744f0d2d4","condition":"full-information","relevant_dimensions":["antennae","legs"],"bee_group":{"antennae":"A","wings":"X","pattern":"X","legs":"F"},"bonus":1.740000000000001},{"rt":15108.799999952316,"stimulus":"bees-with-color/bee-B2DF.svg","response":0,"trial_type":"image-button-response","trial_index":149,"time_elapsed":2683278,"internal_node_id":"0.0-6.0-0.13","subject_id":"615de114da91c7b7988ddf0b","study_id":"60edd13110225f80f9f3709b","session_id":"6196c7048ed6ab1744f0d2d4","condition":"full-information","relevant_dimensions":["antennae","legs"],"bee_group":{"antennae":"A","wings":"X","pattern":"X","legs":"F"},"bonus":1.740000000000001},{"rt":19094.600000023842,"stimulus":"bees-with-color/bee-B2SF.svg","response":0,"trial_type":"image-button-response","trial_index":150,"time_elapsed":2702376,"internal_node_id":"0.0-6.0-0.14","subject_id":"615de114da91c7b7988ddf0b","study_id":"60edd13110225f80f9f3709b","session_id":"6196c7048ed6ab1744f0d2d4","condition":"full-information","relevant_dimensions":["antennae","legs"],"bee_group":{"antennae":"A","wings":"X","pattern":"X","legs":"F"},"bonus":1.740000000000001},{"rt":18016.599999904633,"stimulus":"bees-with-color/bee-A2DF.svg","response":1,"trial_type":"image-button-response","trial_index":151,"time_elapsed":2720396,"internal_node_id":"0.0-6.0-0.15","subject_id":"615de114da91c7b7988ddf0b","study_id":"60edd13110225f80f9f3709b","session_id":"6196c7048ed6ab1744f0d2d4","condition":"full-information","relevant_dimensions":["antennae","legs"],"bee_group":{"antennae":"A","wings":"X","pattern":"X","legs":"F"},"bonus":1.740000000000001},{"rt":9537.199999928474,"stimulus":"bees-with-color/bee-A1DF.svg","response":1,"trial_type":"image-button-response","trial_index":152,"time_elapsed":2729936,"internal_node_id":"0.0-6.0-0.16","subject_id":"615de114da91c7b7988ddf0b","study_id":"60edd13110225f80f9f3709b","session_id":"6196c7048ed6ab1744f0d2d4","condition":"full-information","relevant_dimensions":["antennae","legs"],"bee_group":{"antennae":"A","wings":"X","pattern":"X","legs":"F"},"bonus":1.740000000000001},{"rt":6467.100000023842,"stimulus":"bees-with-color/bee-A2SF.svg","response":1,"trial_type":"image-button-response","trial_index":153,"time_elapsed":2736405,"internal_node_id":"0.0-6.0-0.17","subject_id":"615de114da91c7b7988ddf0b","study_id":"60edd13110225f80f9f3709b","session_id":"6196c7048ed6ab1744f0d2d4","condition":"full-information","relevant_dimensions":["antennae","legs"],"bee_group":{"antennae":"A","wings":"X","pattern":"X","legs":"F"},"bonus":1.740000000000001},{"rt":3558.8000000715256,"stimulus":"bees-with-color/bee-B2DF.svg","response":0,"trial_type":"image-button-response","trial_index":154,"time_elapsed":2739968,"internal_node_id":"0.0-6.0-0.18","subject_id":"615de114da91c7b7988ddf0b","study_id":"60edd13110225f80f9f3709b","session_id":"6196c7048ed6ab1744f0d2d4","condition":"full-information","relevant_dimensions":["antennae","legs"],"bee_group":{"antennae":"A","wings":"X","pattern":"X","legs":"F"},"bonus":1.740000000000001},{"rt":1453.1000000238419,"stimulus":"bees-with-color/bee-B1DM.svg","response":0,"trial_type":"image-button-response","trial_index":155,"time_elapsed":2741423,"internal_node_id":"0.0-6.0-0.19","subject_id":"615de114da91c7b7988ddf0b","study_id":"60edd13110225f80f9f3709b","session_id":"6196c7048ed6ab1744f0d2d4","condition":"full-information","relevant_dimensions":["antennae","legs"],"bee_group":{"antennae":"A","wings":"X","pattern":"X","legs":"F"},"bonus":1.740000000000001},{"rt":2011.7000000476837,"stimulus":"bees-with-color/bee-B1SF.svg","response":0,"trial_type":"image-button-response","trial_index":156,"time_elapsed":2743437,"internal_node_id":"0.0-6.0-0.20","subject_id":"615de114da91c7b7988ddf0b","study_id":"60edd13110225f80f9f3709b","session_id":"6196c7048ed6ab1744f0d2d4","condition":"full-information","relevant_dimensions":["antennae","legs"],"bee_group":{"antennae":"A