[{"success":true,"trial_type":"fullscreen","trial_index":0,"time_elapsed":76463,"internal_node_id":"0.0-0.0","subject_id":"60fb0cd3aa10c5ef5100190b","study_id":"6197b3f67c2b5cd3b6d9596a","session_id":"619be31d273a25afc661353a","condition":"full-information","relevant_dimensions":["wings","pattern"],"bee_group":{"antennae":"X","wings":"2","pattern":"S","legs":"X"},"bonus":1.5800000000000014},{"success":true,"timeout":false,"failed_images":[],"failed_audio":[],"failed_video":[],"trial_type":"preload","trial_index":1,"time_elapsed":78191,"internal_node_id":"0.0-1.0","subject_id":"60fb0cd3aa10c5ef5100190b","study_id":"6197b3f67c2b5cd3b6d9596a","session_id":"619be31d273a25afc661353a","condition":"full-information","relevant_dimensions":["wings","pattern"],"bee_group":{"antennae":"X","wings":"2","pattern":"S","legs":"X"},"bonus":1.5800000000000014},{"rt":1494.5,"stimulus":"Welcome! Press any key to begin.","response":" ","trial_type":"html-keyboard-response","trial_index":2,"time_elapsed":79687,"internal_node_id":"0.0-2.0","subject_id":"60fb0cd3aa10c5ef5100190b","study_id":"6197b3f67c2b5cd3b6d9596a","session_id":"619be31d273a25afc661353a","condition":"full-information","relevant_dimensions":["wings","pattern"],"bee_group":{"antennae":"X","wings":"2","pattern":"S","legs":"X"},"bonus":1.5800000000000014},{"view_history":[{"page_index":0,"viewing_time":48737.60000000149},{"page_index":1,"viewing_time":168443.30000000075},{"page_index":2,"viewing_time":198083.19999999925},{"page_index":3,"viewing_time":187484.80000000075},{"page_index":4,"viewing_time":7322},{"page_index":5,"viewing_time":4541.800000000745},{"page_index":6,"viewing_time":18830.599999997765},{"page_index":7,"viewing_time":16540.5},{"page_index":8,"viewing_time":2074.300000000745},{"page_index":7,"viewing_time":825.8000000007451},{"page_index":8,"viewing_time":6134.099999997765},{"page_index":9,"viewing_time":5600.400000002235},{"page_index":10,"viewing_time":2720.39999999851},{"page_index":11,"viewing_time":12063.800000000745},{"page_index":12,"viewing_time":46856.300000000745},{"page_index":13,"viewing_time":82797.09999999776},{"page_index":14,"viewing_time":2567.2000000029802}],"rt":811624,"trial_type":"instructions","trial_index":3,"time_elapsed":891311,"internal_node_id":"0.0-3.0-0.0","subject_id":"60fb0cd3aa10c5ef5100190b","study_id":"6197b3f67c2b5cd3b6d9596a","session_id":"619be31d273a25afc661353a","condition":"full-information","relevant_dimensions":["wings","pattern"],"bee_group":{"antennae":"X","wings":"2","pattern":"S","legs":"X"},"bonus":1.5800000000000014},{"rt":26014.099999997765,"response":{"Q0":["Two or six legs","Stripes or spots on body","Single or double wings","Antennae or no antennae"]},"question_order":[0],"trial_type":"survey-multi-select","trial_index":4,"time_elapsed":917329,"internal_node_id":"0.0-3.0-1.0","subject_id":"60fb0cd3aa10c5ef5100190b","study_id":"6197b3f67c2b5cd3b6d9596a","session_id":"619be31d273a25afc661353a","condition":"full-information","relevant_dimensions":["wings","pattern"],"bee_group":{"antennae":"X","wings":"2","pattern":"S","legs":"X"},"correct":true,"bonus":1.5800000000000014},{"rt":76406.39999999851,"response":{"Q1":"No.","Q2":"Based on the four features of the bee.","Q3":"You do not learn if it was friendly or dangerous, and do not alter your bonus."},"question_order":[0,1,2],"trial_type":"survey-multi-choice","trial_index":5,"time_elapsed":993737,"internal_node_id":"0.0-3.0-2.0","subject_id":"60fb0cd3aa10c5ef5100190b","study_id":"6197b3f67c2b5cd3b6d9596a","session_id":"619be31d273a25afc661353a","condition":"full-information","relevant_dimensions":["wings","pattern"],"bee_group":{"antennae":"X","wings":"2","pattern":"S","legs":"X"},"correct":false,"bonus":1.5800000000000014},{"rt":3619,"stimulus":"<p>You did not answer all comprehension questions correctly.<br>Press <b>continue</b> to review the instructions again.</p>","response":0,"trial_type":"html-button-response","trial_index":6,"time_elapsed":997358,"internal_node_id":"0.0-3.0-3.0","subject_id":"60fb0cd3aa10c5ef5100190b","study_id":"6197b3f67c2b5cd3b6d9596a","session_id":"619be31d273a25afc661353a","condition":"full-information","relevant_dimensions":["wings","pattern"],"bee_group":{"antennae":"X","wings":"2","pattern":"S","legs":"X"},"bonus":1.5800000000000014},{"view_history":[{"page_index":0,"viewing_time":2711.199999999255},{"page_index":1,"viewing_time":591.6999999992549},{"page_index":2,"viewing_time":605},{"page_index":3,"viewing_time":575},{"page_index":4,"viewing_time":1311.800000000745},{"page_index":5,"viewing_time":483.1000000014901},{"page_index":6,"viewing_time":614.8999999985099},{"page_index":7,"viewing_time":1086.4000000022352},{"page_index":8,"viewing_time":407.0999999977648},{"page_index":9,"viewing_time":177.69999999925494},{"page_index":10,"viewing_time":187.20000000298023},{"page_index":11,"viewing_time":1032.5},{"page_index":10,"viewing_time":894.0999999977648},{"page_index":9,"viewing_time":704.1999999992549},{"page_index":10,"viewing_time":172.10000000149012},{"page_index":11,"viewing_time":774.1000000014901},{"page_index":12,"viewing_time":4922.599999997765},{"page_index":13,"viewing_time":1131.199999999255},{"page_index":14,"viewing_time":950}],"rt":19332.39999999851,"trial_type":"instructions","trial_index":7,"time_elapsed":1016691,"internal_node_id":"0.0-3.0-4.0-0.0","subject_id":"60fb0cd3aa10c5ef5100190b","study_id":"6197b3f67c2b5cd3b6d9596a","session_id":"619be31d273a25afc661353a","condition":"full-information","relevant_dimensions":["wings","pattern"],"bee_group":{"antennae":"X","wings":"2","pattern":"S","legs":"X"},"bonus":1.5800000000000014},{"rt":8782.5,"response":{"Q0":["Two or six legs","Stripes or spots on body","Single or double wings","Antennae or no antennae"]},"question_order":[0],"trial_type":"survey-multi-select","trial_index":8,"time_elapsed":1025475,"internal_node_id":"0.0-3.0-4.0-1.0","subject_id":"60fb0cd3aa10c5ef5100190b","study_id":"6197b3f67c2b5cd3b6d9596a","session_id":"619be31d273a25afc661353a","condition":"full-information","relevant_dimensions":["wings","pattern"],"bee_group":{"antennae":"X","wings":"2","pattern":"S","legs":"X"},"correct":true,"bonus":1.5800000000000014},{"rt":17430,"response":{"Q1":"No.","Q2":"Based on the four features of the bee.","Q3":"You learn if it was friendly or dangerous, but do not alter your bonus."},"question_order":[0,1,2],"trial_type":"survey-multi-choice","trial_index":9,"time_elapsed":1042907,"internal_node_id":"0.0-3.0-4.0-2.0","subject_id":"60fb0cd3aa10c5ef5100190b","study_id":"6197b3f67c2b5cd3b6d9596a","session_id":"619be31d273a25afc661353a","condition":"full-information","relevant_dimensions":["wings","pattern"],"bee_group":{"antennae":"X","wings":"2","pattern":"S","legs":"X"},"correct":true,"bonus":1.5800000000000014},{"rt":92742.10000000149,"stimulus":"<p>Congrats, you got everything right<br>When you're ready, click the button below to continue to the experiment.</p>","response":0,"trial_type":"html-button-response","trial_index":10,"time_elapsed":1135651,"internal_node_id":"0.0-3.0-4.0-3.0","subject_id":"60fb0cd3aa10c5ef5100190b","study_id":"6197b3f67c2b5cd3b6d9596a","session_id":"619be31d273a25afc661353a","condition":"full-information","relevant_dimensions":["wings","pattern"],"bee_group":{"antennae":"X","wings":"2","pattern":"S","legs":"X"},"bonus":1.5800000000000014},{"rt":33706,"stimulus":"bees-with-color/bee-A2SM.svg","response":0,"trial_type":"image-button-response","trial_index":11,"time_elapsed":1169360,"internal_node_id":"0.0-4.0-0.0","subject_id":"60fb0cd3aa10c5ef5100190b","study_id":"6197b3f67c2b5cd3b6d9596a","session_id":"619be31d273a25afc661353a","condition":"full-information","relevant_dimensions":["wings","pattern"],"bee_group":{"antennae":"X","wings":"2","pattern":"S","legs":"X"},"action":"harvest","summary":"bad-harvest","bonus":1.5800000000000014},{"rt":49352.699999999255,"stimulus":"\n                    <p><b>Action: <em>harvest</em></b></p>\n                    <p>This is the bee that you just saw.</p>\n                    <img src=\"bees-with-color/bee-A2SM.svg\" width=\"200\">\n                    <p><span class=\"redText\">Bad choice, the bee was angry.</span><br><b>You have been stung!</b><br>Your pay has been decreased by $0.10. Your bonus pay is now $0.44.</p>\n            ","response":0,"trial_type":"html-button-response","trial_index":12,"time_elapsed":1218716,"internal_node_id":"0.0-4.0-1.0","subject_id":"60fb0cd3aa10c5ef5100190b","study_id":"6197b3f67c2b5cd3b6d9596a","session_id":"619be31d273a25afc661353a","condition":"full-information","relevant_dimensions":["wings","pattern"],"bee_group":{"antennae":"X","wings":"2","pattern":"S","legs":"X"},"bonus":1.5800000000000014},{"rt":1690.9000000022352,"stimulus":"bees-with-color/bee-A2DF.svg","response":0,"trial_type":"image-button-response","trial_index":13,"time_elapsed":1220408,"internal_node_id":"0.0-4.0-0.1","subject_id":"60fb0cd3aa10c5ef5100190b","study_id":"6197b3f67c2b5cd3b6d9596a","session_id":"619be31d273a25afc661353a","condition":"full-information","relevant_dimensions":["wings","pattern"],"bee_group":{"antennae":"X","wings":"2","pattern":"S","legs":"X"},"action":"harvest","summary":"good-harvest","bonus":1.5800000000000014},{"rt":20267.699999999255,"stimulus":"\n                    <p><b>Action: <em>harvest</em></b></p>\n                    <p>This is the bee that you just saw.</p>\n                    <img src=\"bees-with-color/bee-A2DF.svg\" width=\"200\">\n                    <p><span class=\"greenText\"><b>Successful harvest!</b></span><br>Your pay has increased by $0.02. Your bonus pay is now $0.46.</p>\n            ","response":0,"trial_type":"html-button-response","trial_index":14,"time_elapsed":1240677,"internal_node_id":"0.0-4.0-1.1","subject_id":"60fb0cd3aa10c5ef5100190b","study_id":"6197b3f67c2b5cd3b6d9596a","session_id":"619be31d273a25afc661353a","condition":"full-information","relevant_dimensions":["wings","pattern"],"bee_group":{"antennae":"X","wings":"2","pattern":"S","legs":"X"},"bonus":1.5800000000000014},{"rt":1612.1000000014901,"stimulus":"bees-with-color/bee-A1SF.svg","response":0,"trial_type":"image-button-response","trial_index":15,"time_elapsed":1242291,"internal_node_id":"0.0-4.0-0.2","subject_id":"60fb0cd3aa10c5ef5100190b","study_id":"6197b3f67c2b5cd3b6d9596a","session_id":"619be31d273a25afc661353a","condition":"full-information","relevant_dimensions":["wings","pattern"],"bee_group":{"antennae":"X","wings":"2","pattern":"S","legs":"X"},"action":"harvest","summary":"good-harvest","bonus":1.5800000000000014},{"rt":10796.70000000298,"stimulus":"\n                    <p><b>Action: <em>harvest</em></b></p>\n                    <p>This is the bee that you just saw.</p>\n                    <img src=\"bees-with-color/bee-A1SF.svg\" width=\"200\">\n                    <p><span class=\"greenText\"><b>Successful harvest!</b></span><br>Your pay has increased by $0.02. Your bonus pay is now $0.48.</p>\n            ","response":0,"trial_type":"html-button-response","trial_index":16,"time_elapsed":1253089,"internal_node_id":"0.0-4.0-1.2","subject_id":"60fb0cd3aa10c5ef5100190b","study_id":"6197b3f67c2b5cd3b6d9596a","session_id":"619be31d273a25afc661353a","condition":"full-information","relevant_dimensions":["wings","pattern"],"bee_group":{"antennae":"X","wings":"2","pattern":"S","legs":"X"},"bonus":1.5800000000000014},{"rt":1286.300000000745,"stimulus":"bees-with-color/bee-A1DM.svg","response":0,"trial_type":"image-button-response","trial_index":17,"time_elapsed":1254377,"internal_node_id":"0.0-4.0-0.3","subject_id":"60fb0cd3aa10c5ef5100190b","study_id":"6197b3f67c2b5cd3b6d9596a","session_id":"619be31d273a25afc661353a","condition":"full-information","relevant_dimensions":["wings","pattern"],"bee_group":{"antennae":"X","wings":"2","pattern":"S","legs":"X"},"action":"harvest","summary":"good-harvest","bonus":1.5800000000000014},{"rt":37003.89999999851,"stimulus":"\n                    <p><b>Action: <em>harvest</em></b></p>\n                    <p>This is the bee that you just saw.</p>\n                    <img src=\"bees-with-color/bee-A1DM.svg\" width=\"200\">\n                    <p><span class=\"greenText\"><b>Successful harvest!</b></span><br>Your pay has increased by $0.02. Your bonus pay is now $0.50.</p>\n            ","response":0,"trial_type":"html-button-response","trial_index":18,"time_elapsed":1291382,"internal_node_id":"0.0-4.0-1.3","subject_id":"60fb0cd3aa10c5ef5100190b","study_id":"6197b3f67c2b5cd3b6d9596a","session_id":"619be31d273a25afc661353a","condition":"full-information","relevant_dimensions":["wings","pattern"],"bee_group":{"antennae":"X","wings":"2","pattern":"S","legs":"X"},"bonus":1.5800000000000014},{"rt":3657.89999999851,"stimulus":"bees-with-color/bee-B1DF.svg","response":0,"trial_type":"image-button-response","trial_index":19,"time_elapsed":1295041,"internal_node_id":"0.0-4.0-0.4","subject_id":"60fb0cd3aa10c5ef5100190b","study_id":"6197b3f67c2b5cd3b6d9596a","session_id":"619be31d273a25afc661353a","condition":"full-information","relevant_dimensions":["wings","pattern"],"bee_group":{"antennae":"X","wings":"2","pattern":"S","legs":"X"},"action":"harvest","summary":"good-harvest","bonus":1.5800000000000014},{"rt":842.3000000007451,"stimulus":"\n                    <p><b>Action: <em>harvest</em></b></p>\n                    <p>This is the bee that you just saw.</p>\n                    <img src=\"bees-with-color/bee-B1DF.svg\" width=\"200\">\n                    <p><span class=\"greenText\"><b>Successful harvest!</b></span><br>Your pay has increased by $0.02. Your bonus pay is now $0.52.</p>\n            ","response":0,"trial_type":"html-button-response","trial_index":20,"time_elapsed":1295885,"internal_node_id":"0.0-4.0-1.4","subject_id":"60fb0cd3aa10c5ef5100190b","study_id":"6197b3f67c2b5cd3b6d9596a","session_id":"619be31d273a25afc661353a","condition":"full-information","relevant_dimensions":["wings","pattern"],"bee_group":{"antennae":"X","wings":"2","pattern":"S","legs":"X"},"bonus":1.5800000000000014},{"rt":2523.5,"stimulus":"bees-with-color/bee-B1SF.svg","response":0,"trial_type":"image-button-response","trial_index":21,"time_elapsed":1298410,"internal_node_id":"0.0-4.0-0.5","subject_id":"60fb0cd3aa10c5ef5100190b","study_id":"6197b3f67c2b5cd3b6d9596a","session_id":"619be31d273a25afc661353a","condition":"full-information","relevant_dimensions":["wings","pattern"],"bee_group":{"antennae":"X","wings":"2","pattern":"S","legs":"X"},"action":"harvest","summary":"good-harvest","bonus":1.5800000000000014},{"rt":5698.800000000745,"stimulus":"\n                    <p><b>Action: <em>harvest</em></b></p>\n                    <p>This is the bee that you just saw.</p>\n                    <img src=\"bees-with-color/bee-B1SF.svg\" width=\"200\">\n                    <p><span class=\"greenText\"><b>Successful harvest!</b></span><br>Your pay has increased by $0.02. Your bonus pay is now $0.54.</p>\n            ","response":0,"trial_type":"html-button-response","trial_index":22,"time_elapsed":1304109,"internal_node_id":"0.0-4.0-1.5","subject_id":"60fb0cd3aa10c5ef5100190b","study_id":"6197b3f67c2b5cd3b6d9596a","session_id":"619be31d273a25afc661353a","condition":"full-information","relevant_dimensions":["wings","pattern"],"bee_group":{"antennae":"X","wings":"2","pattern":"S","legs":"X"},"bonus":1.5800000000000014},{"rt":6939.699999999255,"stimulus":"bees-with-color/bee-B2DM.svg","response":0,"trial_type":"image-button-response","trial_index":23,"time_elapsed":1311051,"internal_node_id":"0.0-4.0-0.6","subject_id":"60fb0cd3aa10c5ef5100190b","study_id":"6197b3f67c2b5cd3b6d9596a","session_id":"619be31d273a25afc661353a","condition":"full-information","relevant_dimensions":["wings","pattern"],"bee_group":{"antennae":"X","wings":"2","pattern":"S","legs":"X"},"action":"harvest","summary":"good-harvest","bonus":1.5800000000000014},{"rt":4691.89999999851,"stimulus":"\n                    <p><b>Action: <em>harvest</em></b></p>\n                    <p>This is the bee that you just saw.</p>\n                    <img src=\"bees-with-color/bee-B2DM.svg\" width=\"200\">\n                    <p><span class=\"greenText\"><b>Successful harvest!</b></span><br>Your pay has increased by $0.02. Your bonus pay is now $0.56.</p>\n            ","response":0,"trial_type":"html-button-response","trial_index":24,"time_elapsed":1315744,"internal_node_id":"0.0-4.0-1.6","subject_id":"60fb0cd3aa10c5ef5100190b","study_id":"6197b3f67c2b5cd3b6d9596a","session_id":"619be31d273a25afc661353a","condition":"full-information","relevant_dimensions":["wings","pattern"],"bee_group":{"antennae":"X","wings":"2","pattern":"S","legs":"X"},"bonus":1.5800000000000014},{"rt":2418.60000000149,"stimulus":"bees-with-color/bee-A2SF.svg","response":0,"trial_type":"image-button-response","trial_index":25,"time_elapsed":1318164,"internal_node_id":"0.0-4.0-0.7","subject_id":"60fb0cd3aa10c5ef5100190b","study_id":"6197b3f67c2b5cd3b6d9596a","session_id":"619be31d273a25afc661353a","condition":"full-information","relevant_dimensions":["wings","pattern"],"bee_group":{"antennae":"X","wings":"2","pattern":"S","legs":"X"},"action":"harvest","summary":"bad-harvest","bonus":1.5800000000000014},{"rt":26895.300000000745,"stimulus":"\n                    <p><b>Action: <em>harvest</em></b></p>\n                    <p>This is the bee that you just saw.</p>\n                    <img src=\"bees-with-color/bee-A2SF.svg\" width=\"200\">\n                    <p><span class=\"redText\">Bad choice, the bee was angry.</span><br><b>You have been stung!</b><br>Your pay has been decreased by $0.10. Your bonus pay is now $0.46.</p>\n            ","response":0,"trial_type":"html-button-response","trial_index":26,"time_elapsed":1345061,"internal_node_id":"0.0-4.0-1.7","subject_id":"60fb0cd3aa10c5ef5100190b","study_id":"6197b3f67c2b5cd3b6d9596a","session_id":"619be31d273a25afc661353a","condition":"full-information","relevant_dimensions":["wings","pattern"],"bee_group":{"antennae":"X","wings":"2","pattern":"S","legs":"X"},"bonus":1.5800000000000014},{"rt":3320.60000000149,"stimulus":"bees-with-color/bee-B2SF.svg","response":0,"trial_type":"image-button-response","trial_index":27,"time_elapsed":1348384,"internal_node_id":"0.0-4.0-0.8","subject_id":"60fb0cd3aa10c5ef5100190b","study_id":"6197b3f67c2b5cd3b6d9596a","session_id":"619be31d273a25afc661353a","condition":"full-information","relevant_dimensions":["wings","pattern"],"bee_group":{"antennae":"X","wings":"2","pattern":"S","legs":"X"},"action":"harvest","summary":"bad-harvest","bonus":1.5800000000000014},{"rt":14481.5,"stimulus":"\n                    <p><b>Action: <em>harvest</em></b></p>\n                    <p>This is the bee that you just saw.</p>\n                    <img src=\"bees-with-color/bee-B2SF.svg\" width=\"200\">\n                    <p><span class=\"redText\">Bad choice, the bee was angry.</span><br><b>You have been stung!</b><br>Your pay has been decreased by $0.10. Your bonus pay is now $0.36.</p>\n            ","response":0,"trial_type":"html-button-response","trial_index":28,"time_elapsed":1362867,"internal_node_id":"0.0-4.0-1.8","subject_id":"60fb0cd3aa10c5ef5100190b","study_id":"6197b3f67c2b5cd3b6d9596a","session_id":"619be31d273a25afc661353a","condition":"full-information","relevant_dimensions":["wings","pattern"],"bee_group":{"antennae":"X","wings":"2","pattern":"S","legs":"X"},"bonus":1.5800000000000014},{"rt":2300.599999997765,"stimulus":"bees-with-color/bee-B2SM.svg","response":0,"trial_type":"image-button-response","trial_index":29,"time_elapsed":1365169,"internal_node_id":"0.0-4.0-0.9","subject_id":"60fb0cd3aa10c5ef5100190b","study_id":"6197b3f67c2b5cd3b6d9596a","session_id":"619be31d273a25afc661353a","condition":"full-information","relevant_dimensions":["wings","pattern"],"bee_group":{"antennae":"X","wings":"2","pattern":"S","legs":"X"},"action":"harvest","summary":"bad-harvest","bonus":1.5800000000000014},{"rt":9757.79999999702,"stimulus":"\n                    <p><b>Action: <em>harvest</em></b></p>\n                    <p>This is the bee that you just saw.</p>\n                    <img src=\"bees-with-color/bee-B2SM.svg\" width=\"200\">\n                    <p><span class=\"redText\">Bad choice, the bee was angry.</span><br><b>You have been stung!</b><br>Your pay has been decreased by $0.10. Your bonus pay is now $0.26.</p>\n            ","response":0,"trial_type":"html-button-response","trial_index":30,"time_elapsed":1374928,"internal_node_id":"0.0-4.0-1.9","subject_id":"60fb0cd3aa10c5ef5100190b","study_id":"6197b3f67c2b5cd3b6d9596a","session_id":"619be31d273a25afc661353a","condition":"full-information","relevant_dimensions":["wings","pattern"],"bee_group":{"antennae":"X","wings":"2","pattern":"S","legs":"X"},"bonus":1.5800000000000014},{"rt":4554.60000000149,"stimulus":"bees-with-color/bee-B1SM.svg","response":0,"trial_type":"image-button-response","trial_index":31,"time_elapsed":1379484,"internal_node_id":"0.0-4.0-0.10","subject_id":"60fb0cd3aa10c5ef5100190b","study_id":"6197b3f67c2b5cd3b6d9596a","session_id":"619be31d273a25afc661353a","condition":"full-information","relevant_dimensions":["wings","pattern"],"bee_group":{"antennae":"X","wings":"2","pattern":"S","legs":"X"},"action":"harvest","summary":"good-harvest","bonus":1.5800000000000014},{"rt":753.3999999985099,"stimulus":"\n                    <p><b>Action: <em>harvest</em></b></p>\n                    <p>This is the bee that you just saw.</p>\n                    <img src=\"bees-with-color/bee-B1SM.svg\" width=\"200\">\n                    <p><span class=\"greenText\"><b>Successful harvest!</b></span><br>Your pay has increased by $0.02. Your bonus pay is now $0.28.</p>\n            ","response":0,"trial_type":"html-button-response","trial_index":32,"time_elapsed":1380239,"internal_node_id":"0.0-4.0-1.10","subject_id":"60fb0cd3aa10c5ef5100190b","study_id":"6197b3f67c2b5cd3b6d9596a","session_id":"619be31d273a25afc661353a","condition":"full-information","relevant_dimensions":["wings","pattern"],"bee_group":{"antennae":"X","wings":"2","pattern":"S","legs":"X"},"bonus":1.5800000000000014},{"rt":2226.699999999255,"stimulus":"bees-with-color/bee-A1SM.svg","response":0,"trial_type":"image-button-response","trial_index":33,"time_elapsed":1382467,"internal_node_id":"0.0-4.0-0.11","subject_id":"60fb0cd3aa10c5ef5100190b","study_id":"6197b3f67c2b5cd3b6d9596a","session_id":"619be31d273a25afc661353a","condition":"full-information","relevant_dimensions":["wings","pattern"],"bee_group":{"antennae":"X","wings":"2","pattern":"S","legs":"X"},"action":"harvest","summary":"good-harvest","bonus":1.5800000000000014},{"rt":862.6000000014901,"stimulus":"\n                    <p><b>Action: <em>harvest</em></b></p>\n                    <p>This is the bee that you just saw.</p>\n                    <img src=\"bees-with-color/bee-A1SM.svg\" width=\"200\">\n                    <p><span class=\"greenText\"><b>Successful harvest!</b></span><br>Your pay has increased by $0.02. Your bonus pay is now $0.30.</p>\n            ","response":0,"trial_type":"html-button-response","trial_index":34,"time_elapsed":1383330,"internal_node_id":"0.0-4.0-1.11","subject_id":"60fb0cd3aa10c5ef5100190b","study_id":"6197b3f67c2b5cd3b6d9596a","session_id":"619be31d273a25afc661353a","condition":"full-information","relevant_dimensions":["wings","pattern"],"bee_group":{"antennae":"X","wings":"2","pattern":"S","legs":"X"},"bonus":1.5800000000000014},{"rt":898.3000000007451,"stimulus":"bees-with-color/bee-A1DF.svg","response":0,"trial_type":"image-button-response","trial_index":35,"time_elapsed":1384230,"internal_node_id":"0.0-4.0-0.12","subject_id":"60fb0cd3aa10c5ef5100190b","study_id":"6197b3f67c2b5cd3b6d9596a","session_id":"619be31d273a25afc661353a","condition":"full-information","relevant_dimensions":["wings","pattern"],"bee_group":{"antennae":"X","wings":"2","pattern":"S","legs":"X"},"action":"harvest","summary":"good-harvest","bonus":1.5800000000000014},{"rt":664.8000000007451,"stimulus":"\n                    <p><b>Action: <em>harvest</em></b></p>\n                    <p>This is the bee that you just saw.</p>\n                    <img src=\"bees-with-color/bee-A1DF.svg\" width=\"200\">\n                    <p><span class=\"greenText\"><b>Successful harvest!</b></span><br>Your pay has increased by $0.02. Your bonus pay is now $0.32.</p>\n            ","response":0,"trial_type":"html-button-response","trial_index":36,"time_elapsed":1384896,"internal_node_id":"0.0-4.0-1.12","subject_id":"60fb0cd3aa10c5ef5100190b","study_id":"6197b3f67c2b5cd3b6d9596a","session_id":"619be31d273a25afc661353a","condition":"full-information","relevant_dimensions":["wings","pattern"],"bee_group":{"antennae":"X","wings":"2","pattern":"S","legs":"X"},"bonus":1.5800000000000014},{"rt":850,"stimulus":"bees-with-color/bee-B1DM.svg","response":0,"trial_type":"image-button-response","trial_index":37,"time_elapsed":1385747,"internal_node_id":"0.0-4.0-0.13","subject_id":"60fb0cd3aa10c5ef5100190b","study_id":"6197b3f67c2b5cd3b6d9596a","session_id":"619be31d273a25afc661353a","condition":"full-information","relevant_dimensions":["wings","pattern"],"bee_group":{"antennae":"X","wings":"2","pattern":"S","legs":"X"},"action":"harvest","summary":"good-harvest","bonus":1.5800000000000014},{"rt":418,"stimulus":"\n                    <p><b>Action: <em>harvest</em></b></p>\n                    <p>This is the bee that you just saw.</p>\n                    <img src=\"bees-with-color/bee-B1DM.svg\" width=\"200\">\n                    <p><span class=\"greenText\"><b>Successful harvest!</b></span><br>Your pay has increased by $0.02. Your bonus pay is now $0.34.</p>\n            ","response":0,"trial_type":"html-button-response","trial_index":38,"time_elapsed":1386166,"internal_node_id":"0.0-4.0-1.13","subject_id":"60fb0cd3aa10c5ef5100190b","study_id":"6197b3f67c2b5cd3b6d9596a","session_id":"619be31d273a25afc661353a","condition":"full-information","relevant_dimensions":["wings","pattern"],"bee_group":{"antennae":"X","wings":"2","pattern":"S","legs":"X"},"bonus":1.5800000000000014},{"rt":1109.0999999977648,"stimulus":"bees-with-color/bee-B2DF.svg","response":0,"trial_type":"image-button-response","trial_index":39,"time_elapsed":1387276,"internal_node_id":"0.0-4.0-0.14","subject_id":"60fb0cd3aa10c5ef5100190b","study_id":"6197b3f67c2b5cd3b6d9596a","session_id":"619be31d273a25afc661353a","condition":"full-information","relevant_dimensions":["wings","pattern"],"bee_group":{"antennae":"X","wings":"2","pattern":"S","legs":"X"},"action":"harvest","summary":"good-harvest","bonus":1.5800000000000014},{"rt":425.3999999985099,"stimulus":"\n                    <p><b>Action: <em>harvest</em></b></p>\n                    <p>This is the bee that you just saw.</p>\n                    <img src=\"bees-with-color/bee-B2DF.svg\" width=\"200\">\n                    <p><span class=\"greenText\"><b>Successful harvest!</b></span><br>Your pay has increased by $0.02. Your bonus pay is now $0.36.</p>\n            ","response":0,"trial_type":"html-button-response","trial_index":40,"time_elapsed":1387702,"internal_node_id":"0.0-4.0-1.14","subject_id":"60fb0cd3aa10c5ef5100190b","study_id":"6197b3f67c2b5cd3b6d9596a","session_id":"619be31d273a25afc661353a","condition":"full-information","relevant_dimensions":["wings","pattern"],"bee_group":{"antennae":"X","wings":"2","pattern":"S","legs":"X"},"bonus":1.5800000000000014},{"rt":2294.300000000745,"stimulus":"bees-with-color/bee-A2DM.svg","response":0,"trial_type":"image-button-response","trial_index":41,"time_elapsed":1389998,"internal_node_id":"0.0-4.0-0.15","subject_id":"60fb0cd3aa10c5ef5100190b","study_id":"6197b3f67c2b5cd3b6d9596a","session_id":"619be31d273a25afc661353a","condition":"full-information","relevant_dimensions":["wings","pattern"],"bee_group":{"antennae":"X","wings":"2","pattern":"S","legs":"X"},"action":"harvest","summary":"good-harvest","bonus":1.5800000000000014},{"rt":426.0999999977648,"stimulus":"\n                    <p><b>Action: <em>harvest</em></b></p>\n                    <p>This is the bee that you just saw.</p>\n                    <img src=\"bees-with-color/bee-A2DM.svg\" width=\"200\">\n                    <p><span class=\"greenText\"><b>Successful harvest!</b></span><br>Your pay has increased by $0.02. Your bonus pay is now $0.38.</p>\n            ","response":0,"trial_type":"html-button-response","trial_index":42,"time_elapsed":1390425,"internal_node_id":"0.0-4.0-1.15","subject_id":"60fb0cd3aa10c5ef5100190b","study_id":"6197b3f67c2b5cd3b6d9596a","session_id":"619be31d273a25afc661353a","condition":"full-information","relevant_dimensions":["wings","pattern"],"bee_group":{"antennae":"X","wings":"2","pattern":"S","legs":"X"},"bonus":1.5800000000000014},{"rt":646.3000000007451,"stimulus":"bees-with-color/bee-A2DM.svg","response":0,"trial_type":"image-button-response","trial_index":43,"time_elapsed":1391073,"internal_node_id":"0.0-4.0-0.16","subject_id":"60fb0cd3aa10c5ef5100190b","study_id":"6197b3f67c2b5cd3b6d9596a","session_id":"619be31d273a25afc661353a","condition":"full-information","relevant_dimensions":["wings","pattern"],"bee_group":{"antennae":"X","wings":"2","pattern":"S","legs":"X"},"action":"harvest","summary":"good-harvest","bonus":1.5800000000000014},{"rt":381.20000000298023,"stimulus":"\n                    <p><b>Action: <em>harvest</em></b></p>\n                    <p>This is the bee that you just saw.</p>\n                    <img src=\"bees-with-color/bee-A2DM.svg\" width=\"200\">\n                    <p><span class=\"greenText\"><b>Successful harvest!</b></span><br>Your pay has increased by $0.02. Your bonus pay is now $0.40.</p>\n            ","response":0,"trial_type":"html-button-response","trial_index":44,"time_elapsed":1391457,"internal_node_id":"0.0-4.0-1.16","subject_id":"60fb0cd3aa10c5ef5100190b","study_id":"6197b3f67c2b5cd3b6d9596a","session_id":"619be31d273a25afc661353a","condition":"full-information","relevant_dimensions":["wings","pattern"],"bee_group":{"antennae":"X","wings":"2","pattern":"S","legs":"X"},"bonus":1.5800000000000014},{"rt":757.1999999992549,"stimulus":"bees-with-color/bee-B1DM.svg","response":0,"trial_type":"image-button-response","trial_index":45,"time_elapsed":1392216,"internal_node_id":"0.0-4.0-0.17","subject_id":"60fb0cd3aa10c5ef5100190b","study_id":"6197b3f67c2b5cd3b6d9596a","session_id":"619be31d273a25afc661353a","condition":"full-information","relevant_dimensions":["wings","pattern"],"bee_group":{"antennae":"X","wings":"2","pattern":"S","legs":"X"},"action":"harvest","summary":"good-harvest","bonus":1.5800000000000014},{"rt":366.79999999701977,"stimulus":"\n                    <p><b>Action: <em>harvest</em></b></p>\n                    <p>This is the bee that you just saw.</p>\n                    <img src=\"bees-with-color/bee-B1DM.svg\" width=\"200\">\n                    <p><span class=\"greenText\"><b>Successful harvest!</b></span><br>Your pay has increased by $0.02. Your bonus pay is now $0.42.</p>\n            ","response":0,"trial_type":"html-button-response","trial_index":46,"time_elapsed":1392584,"internal_node_id":"0.0-4.0-1.17","subject_id":"60fb0cd3aa10c5ef5100190b","study_id":"6197b3f67c2b5cd3b6d9596a","session_id":"619be31d273a25afc661353a","condition":"full-information","relevant_dimensions":["wings","pattern"],"bee_group":{"antennae":"X","wings":"2","pattern":"S","legs":"X"},"bonus":1.5800000000000014},{"rt":532.3999999985099,"stimulus":"bees-with-color/bee-B2DM.svg","response":0,"trial_type":"image-button-response","trial_index":47,"time_elapsed":1393117,"internal_node_id":"0.0-4.0-0.18","subject_id":"60fb0cd3aa10c5ef5100190b","study_id":"6197b3f67c2b5cd3b6d9596a","session_id":"619be31d273a25afc661353a","condition":"full-information","relevant_dimensions":["wings","pattern"],"bee_group":{"antennae":"X","wings":"2","pattern":"S","legs":"X"},"action":"harvest","summary":"good-harvest","bonus":1.5800000000000014},{"rt":372.30000000074506,"stimulus":"\n                    <p><b>Action: <em>harvest</em></b></p>\n                    <p>This is the bee that you just saw.</p>\n                    <img src=\"bees-with-color/bee-B2DM.svg\" width=\"200\">\n                    <p><span class=\"greenText\"><b>Successful harvest!</b></span><br>Your pay has increased by $0.02. Your bonus pay is now $0.44.</p>\n            ","response":0,"trial_type":"html-button-response","trial_index":48,"time_elapsed":1393491,"internal_node_id":"0.0-4.0-1.18","subject_id":"60fb0cd3aa10c5ef5100190b","study_id":"6197b3f67c2b5cd3b6d9596a","session_id":"619be31d273a25afc661353a","condition":"full-information","relevant_dimensions":["wings","pattern"],"bee_group":{"antennae":"X","wings":"2","pattern":"S","legs":"X"},"bonus":1.5800000000000014},{"rt":1731.8999999985099,"stimulus":"bees-with-color/bee-A2SM.svg","response":1,"trial_type":"image-button-response","trial_index":49,"time_elapsed":1395224,"internal_node_id":"0.0-4.0-0.19","subject_id":"60fb0cd3aa10c5ef5100190b","study_id":"6197b3f67c2b5cd3b6d9596a","session_id":"619be31d273a25afc661353a","condition":"full-information","relevant_dimensions":["wings","pattern"],"bee_group":{"antennae":"X","wings":"2","pattern":"S","legs":"X"},"action":"avoid","summary":"good-avoid","bonus":1.5800000000000014},{"rt":951.6000000014901,"stimulus":"\n                    <p><b>Action: <em>avoid</em></b></p>\n                    <p>This is the bee that you just saw.</p>\n                    <img src=\"bees-with-color/bee-A2SM.svg\" width=\"200\">\n                    <p><span class=\"greenText\">Good choice!</span>  This bee would have stung you.<br>Your bonus pay is unchanged, and remains at $0.44.</p>\n            ","response":0,"trial_type":"html-button-response","trial_index":50,"time_elapsed":1396177,"internal_node_id":"0.0-4.0-1.19","subject_id":"60fb0cd3aa10c5ef5100190b","study_id":"6197b3f67c2b5cd3b6d9596a","session_id":"619be31d273a25afc661353a","condition":"full-information","relevant_dimensions":["wings","pattern"],"bee_group":{"antennae":"X","wings":"2","pattern":"S","legs":"X"},"bonus":1.5800000000000014},{"rt":1964.9000000022352,"stimulus":"bees-with-color/bee-A2SF.svg","response":1,"trial_type":"image-button-response","trial_index":51,"time_elapsed":1398143,"internal_node_id":"0.0-4.0-0.20","subject_id":"60fb0cd3aa10c5ef5100190b","study_id":"6197b3f67c2b5cd3b6d9596a","session_id":"619be31d273a25afc661353a","condition":"full-information","relevant_dimensions":["wings","pattern"],"bee_group":{"antennae":"X","wings":"2","pattern":"S","legs":"X"},"action":"avoid","summary":"good-avoid","bonus":1.5800000000000014},{"rt":702.9000000022352,"stimulus":"\n                    <p><b>Action: <em>avoid</em></b></p>\n                    <p>This is the bee that you just saw.</p>\n                    <img src=\"bees-with-color/bee-A2SF.svg\" width=\"200\">\n                    <p><span class=\"greenText\">Good choice!</span>  This bee would have stung you.<br>Your bonus pay is unchanged, and remains at $0.44.</p>\n            ","response":0,"trial_type":"html-button-response","trial_index":52,"time_elapsed":1398847,"internal_node_id":"0.0-4.0-1.20","subject_id":"60fb0cd3aa10c5ef5100190b","study_id":"6197b3f67c2b5cd3b6d9596a","session_id":"619be31d273a25afc661353a","condition":"full-information","relevant_dimensions":["wings","pattern"],"bee_group":{"antennae":"X","wings":"2","pattern":"S","legs":"X"},"bonus":1.5800000000000014},{"rt":1258.0999999977648,"stimulus":"bees-with-color/bee-A1SF.svg","response":0,"trial_type":"image-button-response","trial_index":53,"time_elapsed":1400106,"internal_node_id":"0.0-4.0-0.21","subject_id":"60fb0cd3aa10c5ef5100190b","study_id":"6197b3f67c2b5cd3b6d9596a","session_id":"619be31d273a25afc661353a","condition":"full-information","relevant_dimensions":["wings","pattern"],"bee_group":{"antennae":"X","wings":"2","pattern":"S","legs":"X"},"action":"harvest","summary":"good-harvest","bonus":1.5800000000000014},{"rt":422.5,"stimulus":"\n                    <p><b>Action: <em>harvest</em></b></p>\n                    <p>This is the bee that you just saw.</p>\n                    <img src=\"bees-with-color/bee-A1SF.svg\" width=\"200\">\n                    <p><span class=\"greenText\"><b>Successful harvest!</b></span><br>Your pay has increased by $0.02. Your bonus pay is now $0.46.</p>\n            ","response":0,"trial_type":"html-button-response","trial_index":54,"time_elapsed":1400529,"internal_node_id":"0.0-4.0-1.21","subject_id":"60fb0cd3aa10c5ef5100190b","study_id":"6197b3f67c2b5cd3b6d9596a","session_id":"619be31d273a25afc661353a","condition":"full-information","relevant_dimensions":["wings","pattern"],"bee_group":{"antennae":"X","wings":"2","pattern":"S","legs":"X"},"bonus":1.5800000000000014},{"rt":590,"stimulus":"bees-with-color/bee-B2DF.svg","response":0,"trial_type":"image-button-response","trial_index":55,"time_elapsed":1401121,"internal_node_id":"0.0-4.0-0.22","subject_id":"60fb0cd3aa10c5ef5100190b","study_id":"6197b3f67c2b5cd3b6d9596a","session_id":"619be31d273a25afc661353a","condition":"full-information","relevant_dimensions":["wings","pattern"],"bee_group":{"antennae":"X","wings":"2","pattern":"S","legs":"X"},"action":"harvest","summary":"good-harvest","bonus":1.5800000000000014},{"rt":507.79999999701977,"stimulus":"\n                    <p><b>Action: <em>harvest</em></b></p>\n                    <p>This is the bee that you just saw.</p>\n                    <img src=\"bees-with-color/bee-B2DF.svg\" width=\"200\">\n                    <p><span class=\"greenText\"><b>Successful harvest!</b></span><br>Your pay has increased by $0.02. Your bonus pay is now $0.48.</p>\n            ","response":0,"trial_type":"html-button-response","trial_index":56,"time_elapsed":1401630,"internal_node_id":"0.0-4.0-1.22","subject_id":"60fb0cd3aa10c5ef5100190b","study_id":"6197b3f67c2b5cd3b6d9596a","session_id":"619be31d273a25afc661353a","condition":"full-information","relevant_dimensions":["wings","pattern"],"bee_group":{"antennae":"X","wings":"2","pattern":"S","legs":"X"},"bonus":1.5800000000000014},{"rt":2848,"stimulus":"bees-with-color/bee-B1SM.svg","response":0,"trial_type":"image-button-response","trial_index":57,"time_elapsed":1404479,"internal_node_id":"0.0-4.0-0.23","subject_id":"60fb0cd3aa10c5ef5100190b","study_id":"6197b3f67c2b5cd3b6d9596a","session_id":"619be31d273a25afc661353a","condition":"full-information","relevant_dimensions":["wings","pattern"],"bee_group":{"antennae":"X","wings":"2","pattern":"S","legs":"X"},"action":"harvest","summary":"good-harvest","bonus":1.5800000000000014},{"rt":392.3999999985099,"stimulus":"\n                    <p><b>Action: <em>harvest</em></b></p>\n                    <p>This is the bee that you just saw.</p>\n                    <img src=\"bees-with-color/bee-B1SM.svg\" width=\"200\">\n                    <p><span class=\"greenText\"><b>Successful harvest!</b></span><br>Your pay has increased by $0.02. Your bonus pay is now $0.50.</p>\n            ","response":0,"trial_type":"html-button-response","trial_index":58,"time_elapsed":1404873,"internal_node_id":"0.0-4.0-1.23","subject_id":"60fb0cd3aa10c5ef5100190b","study_id":"6197b3f67c2b5cd3b6d9596a","session_id":"619be31d273a25afc661353a","condition":"full-information","relevant_dimensions":["wings","pattern"],"bee_group":{"antennae":"X","wings":"2","pattern":"S","legs":"X"},"bonus":1.5800000000000014},{"rt":1033.0999999977648,"stimulus":"bees-with-color/bee-A1DF.svg","response":0,"trial_type":"image-button-response","trial_index":59,"time_elapsed":1405907,"internal_node_id":"0.0-4.0-0.24","subject_id":"60fb0cd3aa10c5ef5100190b","study_id":"6197b3f67c2b5cd3b6d9596a","session_id":"619be31d273a25afc661353a","condition":"full-information","relevant_dimensions":["wings","pattern"],"bee_group":{"antennae":"X","wings":"2","pattern":"S","legs":"X"},"action":"harvest","summary":"good-harvest","bonus":1.5800000000000014},{"rt":390.3999999985099,"stimulus":"\n                    <p><b>Action: <em>harvest</em></b></p>\n                    <p>This is the bee that you just saw.</p>\n                    <img src=\"bees-with-color/bee-A1DF.svg\" width=\"200\">\n                    <p><span class=\"greenText\"><b>Successful harvest!</b></span><br>Your pay has increased by $0.02. Your bonus pay is now $0.52.</p>\n            ","response":0,"trial_type":"html-button-response","trial_index":60,"time_elapsed":1406299,"internal_node_id":"0.0-4.0-1.24","subject_id":"60fb0cd3aa10c5ef5100190b","study_id":"6197b3f67c2b5cd3b6d9596a","session_id":"619be31d273a25afc661353a","condition":"full-information","relevant_dimensions":["wings","pattern"],"bee_group":{"antennae":"X","wings":"2","pattern":"S","legs":"X"},"bonus":1.5800000000000014},{"rt":1067.800000000745,"stimulus":"bees-with-color/bee-B2SF.svg","response":1,"trial_type":"image-button-response","trial_index":61,"time_elapsed":1407368,"internal_node_id":"0.0-4.0-0.25","subject_id":"60fb0cd3aa10c5ef5100190b","study_id":"6197b3f67c2b5cd3b6d9596a","session_id":"619be31d273a25afc661353a","condition":"full-information","relevant_dimensions":["wings","pattern"],"bee_group":{"antennae":"X","wings":"2","pattern":"S","legs":"X"},"action":"avoid","summary":"good-avoid","bonus":1.5800000000000014},{"rt":386.80000000074506,"stimulus":"\n                    <p><b>Action: <em>avoid</em></b></p>\n                    <p>This is the bee that you just saw.</p>\n                    <img src=\"bees-with-color/bee-B2SF.svg\" width=\"200\">\n                    <p><span class=\"greenText\">Good choice!</span>  This bee would have stung you.<br>Your bonus pay is unchanged, and remains at $0.52.</p>\n            ","response":0,"trial_type":"html-button-response","trial_index":62,"time_elapsed":1407756,"internal_node_id":"0.0-4.0-1.25","subject_id":"60fb0cd3aa10c5ef5100190b","study_id":"6197b3f67c2b5cd3b6d9596a","session_id":"619be31d273a25afc661353a","condition":"full-information","relevant_dimensions":["wings","pattern"],"bee_group":{"antennae":"X","wings":"2","pattern":"S","legs":"X"},"bonus":1.5800000000000014},{"rt":864.3000000007451,"stimulus":"bees-with-color/bee-B1DF.svg","response":0,"trial_type":"image-button-response","trial_index":63,"time_elapsed":1408621,"internal_node_id":"0.0-4.0-0.26","subject_id":"60fb0cd3aa10c5ef5100190b","study_id":"6197b3f67c2b5cd3b6d9596a","session_id":"619be31d273a25afc661353a","condition":"full-information","relevant_dimensions":["wings","pattern"],"bee_group":{"antennae":"X","wings":"2","pattern":"S","legs":"X"},"action":"harvest","summary":"good-harvest","bonus":1.5800000000000014},{"rt":314.4000000022352,"stimulus":"\n                    <p><b>Action: <em>harvest</em></b></p>\n                    <p>This is the bee that you just saw.</p>\n                    <img src=\"bees-with-color/bee-B1DF.svg\" width=\"200\">\n                    <p><span class=\"greenText\"><b>Successful harvest!</b></span><br>Your pay has increased by $0.02. Your bonus pay is now $0.54.</p>\n            ","response":0,"trial_type":"html-button-response","trial_index":64,"time_elapsed":1408937,"internal_node_id":"0.0-4.0-1.26","subject_id":"60fb0cd3aa10c5ef5100190b","study_id":"6197b3f67c2b5cd3b6d9596a","session_id":"619be31d273a25afc661353a","condition":"full-information","relevant_dimensions":["wings","pattern"],"bee_group":{"antennae":"X","wings":"2","pattern":"S","legs":"X"},"bonus":1.5800000000000014},{"rt":1384.699999999255,"stimulus":"bees-with-color/bee-A1SM.svg","response":0,"trial_type":"image-button-response","trial_index":65,"time_elapsed":1410322,"internal_node_id":"0.0-4.0-0.27","subject_id":"60fb0cd3aa10c5ef5100190b","study_id":"6197b3f67c2b5cd3b6d9596a","session_id":"619be31d273a25afc661353a","condition":"full-information","relevant_dimensions":["wings","pattern"],"bee_group":{"antennae":"X","wings":"2","pattern":"S","legs":"X"},"action":"harvest","summary":"good-harvest","bonus":1.5800000000000014},{"rt":289.30000000074506,"stimulus":"\n                    <p><b>Action: <em>harvest</em></b></p>\n                    <p>This is the bee that you just saw.</p>\n                    <img src=\"bees-with-color/bee-A1SM.svg\" width=\"200\">\n                    <p><span class=\"greenText\"><b>Successful harvest!</b></span><br>Your pay has increased by $0.02. Your bonus pay is now $0.56.</p>\n            ","response":0,"trial_type":"html-button-response","trial_index":66,"time_elapsed":1410613,"internal_node_id":"0.0-4.0-1.27","subject_id":"60fb0cd3aa10c5ef5100190b","study_id":"6197b3f67c2b5cd3b6d9596a","session_id":"619be31d273a25afc661353a","condition":"full-information","relevant_dimensions":["wings","pattern"],"bee_group":{"antennae":"X","wings":"2","pattern":"S","legs":"X"},"bonus":1.5800000000000014},{"rt":666,"stimulus":"bees-with-color/bee-B1SF.svg","response":0,"trial_type":"image-button-response","trial_index":67,"time_elapsed":1411280,"internal_node_id":"0.0-4.0-0.28","subject_id":"60fb0cd3aa10c5ef5100190b","study_id":"6197b3f67c2b5cd3b6d9596a","session_id":"619be31d273a25afc661353a","condition":"full-information","relevant_dimensions":["wings","pattern"],"bee_group":{"antennae":"X","wings":"2","pattern":"S","legs":"X"},"action":"harvest","summary":"good-harvest","bonus":1.5800000000000014},{"rt":578.6999999992549,"stimulus":"\n                    <p><b>Action: <em>harvest</em></b></p>\n                    <p>This is the bee that you just saw.</p>\n                    <img src=\"bees-with-color/bee-B1SF.svg\" width=\"200\">\n                    <p><span class=\"greenText\"><b>Successful harvest!</b></span><br>Your pay has increased by $0.02. Your bonus pay is now $0.58.</p>\n            ","response":0,"trial_type":"html-button-response","trial_index":68,"time_elapsed":1411860,"internal_node_id":"0.0-4.0-1.28","subject_id":"60fb0cd3aa10c5ef5100190b","study_id":"6197b3f67c2b5cd3b6d9596a","session_id":"619be31d273a25afc661353a","condition":"full-information","relevant_dimensions":["wings","pattern"],"bee_group":{"antennae":"X","wings":"2","pattern":"S","legs":"X"},"bonus":1.5800000000000014},{"rt":1211.800000000745,"stimulus":"bees-with-color/bee-B2SM.svg","response":1,"trial_type":"image-button-response","trial_index":69,"time_elapsed":1413073,"internal_node_id":"0.0-4.0-0.29","subject_id":"60fb0cd3aa10c5ef5100190b","study_id":"6197b3f67c2b5cd3b6d9596a","session_id":"619be31d273a25afc661353a","condition":"full-information","relevant_dimensions":["wings","pattern"],"bee_group":{"antennae":"X","wings":"2","pattern":"S","legs":"X"},"action":"avoid","summary":"good-avoid","bonus":1.5800000000000014},{"rt":436.6000000014901,"stimulus":"\n                    <p><b>Action: <em>avoid</em></b></p>\n                    <p>This is the bee that you just saw.</p>\n                    <img src=\"bees-with-color/bee-B2SM.svg\" width=\"200\">\n                    <p><span class=\"greenText\">Good choice!</span>  This bee would have stung you.<br>Your bonus pay is unchanged, and remains at $0.58.</p>\n            ","response":0,"trial_type":"html-button-response","trial_index":70,"time_elapsed":1413510,"internal_node_id":"0.0-4.0-1.29","subject_id":"60fb0cd3aa10c5ef5100190b","study_id":"6197b3f67c2b5cd3b6d9596a","session_id":"619be31d273a25afc661353a","condition":"full-information","relevant_dimensions":["wings","pattern"],"bee_group":{"antennae":"X","wings":"2","pattern":"S","legs":"X"},"bonus":1.5800000000000014},{"rt":413.4000000022352,"stimulus":"bees-with-color/bee-A1DM.svg","response":0,"trial_type":"image-button-response","trial_index":71,"time_elapsed":1413925,"internal_node_id":"0.0-4.0-0.30","subject_id":"60fb0cd3aa10c5ef5100190b","study_id":"6197b3f67c2b5cd3b6d9596a","session_id":"619be31d273a25afc661353a","condition":"full-information","relevant_dimensions":["wings","pattern"],"bee_group":{"antennae":"X","wings":"2","pattern":"S","legs":"X"},"action":"harvest","summary":"good-harvest","bonus":1.5800000000000014},{"rt":469.79999999701977,"stimulus":"\n                    <p><b>Action: <em>harvest</em></b></p>\n                    <p>This is the bee that you just saw.</p>\n                    <img src=\"bees-with-color/bee-A1DM.svg\" width=\"200\">\n                    <p><span class=\"greenText\"><b>Successful harvest!</b></span><br>Your pay has increased by $0.02. Your bonus pay is now $0.60.</p>\n            ","response":0,"trial_type":"html-button-response","trial_index":72,"time_elapsed":1414396,"internal_node_id":"0.0-4.0-1.30","subject_id":"60fb0cd3aa10c5ef5100190b","study_id":"6197b3f67c2b5cd3b6d9596a","session_id":"619be31d273a25afc661353a","condition":"full-information","relevant_dimensions":["wings","pattern"],"bee_group":{"antennae":"X","wings":"2","pattern":"S","legs":"X"},"bonus":1.5800000000000014},{"rt":658.7000000029802,"stimulus":"bees-with-color/bee-A2DF.svg","response":0,"trial_type":"image-button-response","trial_index":73,"time_elapsed":1415056,"internal_node_id":"0.0-4.0-0.31","subject_id":"60fb0cd3aa10c5ef5100190b","study_id":"6197b3f67c2b5cd3b6d9596a","session_id":"619be31d273a25afc661353a","condition":"full-information","relevant_dimensions":["wings","pattern"],"bee_group":{"antennae":"X","wings":"2","pattern":"S","legs":"X"},"action":"harvest","summary":"good-harvest","bonus":1.5800000000000014},{"rt":464.5999999977648,"stimulus":"\n                    <p><b>Action: <em>harvest</em></b></p>\n                    <p>This is the bee that you just saw.</p>\n                    <img src=\"bees-with-color/bee-A2DF.svg\" width=\"200\">\n                    <p><span class=\"greenText\"><b>Successful harvest!</b></span><br>Your pay has increased by $0.02. Your bonus pay is now $0.62.</p>\n            ","response":0,"trial_type":"html-button-response","trial_index":74,"time_elapsed":1415521,"internal_node_id":"0.0-4.0-1.31","subject_id":"60fb0cd3aa10c5ef5100190b","study_id":"6197b3f67c2b5cd3b6d9596a","session_id":"619be31d273a25afc661353a","condition":"full-information","relevant_dimensions":["wings","pattern"],"bee_group":{"antennae":"X","wings":"2","pattern":"S","legs":"X"},"bonus":1.5800000000000014},{"rt":1236.5,"stimulus":"bees-with-color/bee-B1DF.svg","response":0,"trial_type":"image-button-response","trial_index":75,"time_elapsed":1416759,"internal_node_id":"0.0-4.0-0.32","subject_id":"60fb0cd3aa10c5ef5100190b","study_id":"6197b3f67c2b5cd3b6d9596a","session_id":"619be31d273a25afc661353a","condition":"full-information","relevant_dimensions":["wings","pattern"],"bee_group":{"antennae":"X","wings":"2","pattern":"S","legs":"X"},"action":"harvest","summary":"good-harvest","bonus":1.5800000000000014},{"rt":1404.1000000014901,"stimulus":"\n                    <p><b>Action: <em>harvest</em></b></p>\n                    <p>This is the bee that you just saw.</p>\n                    <img src=\"bees-with-color/bee-B1DF.svg\" width=\"200\">\n                    <p><span class=\"greenText\"><b>Successful harvest!</b></span><br>Your pay has increased by $0.02. Your bonus pay is now $0.64.</p>\n            ","response":0,"trial_type":"html-button-response","trial_index":76,"time_elapsed":1418164,"internal_node_id":"0.0-4.0-1.32","subject_id":"60fb0cd3aa10c5ef5100190b","study_id":"6197b3f67c2b5cd3b6d9596a","session_id":"619be31d273a25afc661353a","condition":"full-information","relevant_dimensions":["wings","pattern"],"bee_group":{"antennae":"X","wings":"2","pattern":"S","legs":"X"},"bonus":1.5800000000000014},{"rt":1585.8999999985099,"stimulus":"bees-with-color/bee-B2SF.svg","response":1,"trial_type":"image-button-response","trial_index":77,"time_elapsed":1419751,"internal_node_id":"0.0-4.0-0.33","subject_id":"60fb0cd3aa10c5ef5100190b","study_id":"6197b3f67c2b5cd3b6d9596a","session_id":"619be31d273a25afc661353a","condition":"full-information","relevant_dimensions":["wings","pattern"],"bee_group":{"antennae":"X","wings":"2","pattern":"S","legs":"X"},"action":"avoid","summary":"good-avoid","bonus":1.5800000000000014},{"rt":478.5,"stimulus":"\n                    <p><b>Action: <em>avoid</em></b></p>\n                    <p>This is the bee that you just saw.</p>\n                    <img src=\"bees-with-color/bee-B2SF.svg\" width=\"200\">\n                    <p><span class=\"greenText\">Good choice!</span>  This bee would have stung you.<br>Your bonus pay is unchanged, and remains at $0.64.</p>\n            ","response":0,"trial_type":"html-button-response","trial_index":78,"time_elapsed":1420231,"internal_node_id":"0.0-4.0-1.33","subject_id":"60fb0cd3aa10c5ef5100190b","study_id":"6197b3f67c2b5cd3b6d9596a","session_id":"619be31d273a25afc661353a","condition":"full-information","relevant_dimensions":["wings","pattern"],"bee_group":{"antennae":"X","wings":"2","pattern":"S","legs":"X"},"bonus":1.5800000000000014},{"rt":1279.4000000022352,"stimulus":"bees-with-color/bee-B1SM.svg","response":0,"trial_type":"image-button-response","trial_index":79,"time_elapsed":1421512,"internal_node_id":"0.0-4.0-0.34","subject_id":"60fb0cd3aa10c5ef5100190b","study_id":"6197b3f67c2b5cd3b6d9596a","session_id":"619be31d273a25afc661353a","condition":"full-information","relevant_dimensions":["wings","pattern"],"bee_group":{"antennae":"X","wings":"2","pattern":"S","legs":"X"},"action":"harvest","summary":"good-harvest","bonus":1.5800000000000014},{"rt":316.69999999925494,"stimulus":"\n                    <p><b>Action: <em>harvest</em></b></p>\n                    <p>This is the bee that you just saw.</p>\n                    <img src=\"bees-with-color/bee-B1SM.svg\" width=\"200\">\n                    <p><span class=\"greenText\"><b>Successful harvest!</b></span><br>Your pay has increased by $0.02. Your bonus pay is now $0.66.</p>\n            ","response":0,"trial_type":"html-button-response","trial_index":80,"time_elapsed":1421830,"internal_node_id":"0.0-4.0-1.34","subject_id":"60fb0cd3aa10c5ef5100190b","study_id":"6197b3f67c2b5cd3b6d9596a","session_id":"619be31d273a25afc661353a","condition":"full-information","relevant_dimensions":["wings","pattern"],"bee_group":{"antennae":"X","wings":"2","pattern":"S","legs":"X"},"bonus":1.5800000000000014},{"rt":1026,"stimulus":"bees-with-color/bee-A2DF.svg","response":0,"trial_type":"image-button-response","trial_index":81,"time_elapsed":1422857,"internal_node_id":"0.0-4.0-0.35","subject_id":"60fb0cd3aa10c5ef5100190b","study_id":"6197b3f67c2b5cd3b6d9596a","session_id":"619be31d273a25afc661353a","condition":"full-information","relevant_dimensions":["wings","pattern"],"bee_group":{"antennae":"X","wings":"2","pattern":"S","legs":"X"},"action":"harvest","summary":"good-harvest","bonus":1.5800000000000014},{"rt":275.70000000298023,"stimulus":"\n                    <p><b>Action: <em>harvest</em></b></p>\n                    <p>This is the bee that you just saw.</p>\n                    <img src=\"bees-with-color/bee-A2DF.svg\" width=\"200\">\n                    <p><span class=\"greenText\"><b>Successful harvest!</b></span><br>Your pay has increased by $0.02. Your bonus pay is now $0.68.</p>\n            ","response":0,"trial_type":"html-button-response","trial_index":82,"time_elapsed":1423134,"internal_node_id":"0.0-4.0-1.35","subject_id":"60fb0cd3aa10c5ef5100190b","study_id":"6197b3f67c2b5cd3b6d9596a","session_id":"619be31d273a25afc661353a","condition":"full-information","relevant_dimensions":["wings","pattern"],"bee_group":{"antennae":"X","wings":"2","pattern":"S","legs":"X"},"bonus":1.5800000000000014},{"rt":1075.8999999985099,"stimulus":"bees-with-color/bee-B1DM.svg","response":0,"trial_type":"image-button-response","trial_index":83,"time_elapsed":1424211,"internal_node_id":"0.0-4.0-0.36","subject_id":"60fb0cd3aa10c5ef5100190b","study_id":"6197b3f67c2b5cd3b6d9596a","session_id":"619be31d273a25afc661353a","condition":"full-information","relevant_dimensions":["wings","pattern"],"bee_group":{"antennae":"X","wings":"2","pattern":"S","legs":"X"},"action":"harvest","summary":"good-harvest","bonus":1.5800000000000014},{"rt":272.80000000074506,"stimulus":"\n                    <p><b>Action: <em>harvest</em></b></p>\n                    <p>This is the bee that you just saw.</p>\n                    <img src=\"bees-with-color/bee-B1DM.svg\" width=\"200\">\n                    <p><span class=\"greenText\"><b>Successful harvest!</b></span><br>Your pay has increased by $0.02. Your bonus pay is now $0.70.</p>\n            ","response":0,"trial_type":"html-button-response","trial_index":84,"time_elapsed":1424485,"internal_node_id":"0.0-4.0-1.36","subject_id":"60fb0cd3aa10c5ef5100190b","study_id":"6197b3f67c2b5cd3b6d9596a","session_id":"619be31d273a25afc661353a","condition":"full-information","relevant_dimensions":["wings","pattern"],"bee_group":{"antennae":"X","wings":"2","pattern":"S","legs":"X"},"bonus":1.5800000000000014},{"rt":679.8000000007451,"stimulus":"bees-with-color/bee-A1DF.svg","response":0,"trial_type":"image-button-response","trial_index":85,"time_elapsed":1425165,"internal_node_id":"0.0-4.0-0.37","subject_id":"60fb0cd3aa10c5ef5100190b","study_id":"6197b3f67c2b5cd3b6d9596a","session_id":"619be31d273a25afc661353a","condition":"full-information","relevant_dimensions":["wings","pattern"],"bee_group":{"antennae":"X","wings":"2","pattern":"S","legs":"X"},"action":"harvest","summary":"good-harvest","bonus":1.5800000000000014},{"rt":243.5,"stimulus":"\n                    <p><b>Action: <em>harvest</em></b></p>\n                    <p>This is the bee that you just saw.</p>\n                    <img src=\"bees-with-color/bee-A1DF.svg\" width=\"200\">\n                    <p><span class=\"greenText\"><b>Successful harvest!</b></span><br>Your pay has increased by $0.02. Your bonus pay is now $0.72.</p>\n            ","response":0,"trial_type":"html-button-response","trial_index":86,"time_elapsed":1425410,"internal_node_id":"0.0-4.0-1.37","subject_id":"60fb0cd3aa10c5ef5100190b","study_id":"6197b3f67c2b5cd3b6d9596a","session_id":"619be31d273a25afc661353a","condition":"full-information","relevant_dimensions":["wings","pattern"],"bee_group":{"antennae":"X","wings":"2","pattern":"S","legs":"X"},"bonus":1.5800000000000014},{"rt":923.3000000007451,"stimulus":"bees-with-color/bee-A1SF.svg","response":0,"trial_type":"image-button-response","trial_index":87,"time_elapsed":1426334,"internal_node_id":"0.0-4.0-0.38","subject_id":"60fb0cd3aa10c5ef5100190b","study_id":"6197b3f67c2b5cd3b6d9596a","session_id":"619be31d273a25afc661353a","condition":"full-information","relevant_dimensions":["wings","pattern"],"bee_group":{"antennae":"X","wings":"2","pattern":"S","legs":"X"},"action":"harvest","summary":"good-harvest","bonus":1.5800000000000014},{"rt":260.8999999985099,"stimulus":"\n                    <p><b>Action: <em>harvest</em></b></p>\n                    <p>This is the bee that you just saw.</p>\n                    <img src=\"bees-with-color/bee-A1SF.svg\" width=\"200\">\n                    <p><span class=\"greenText\"><b>Successful harvest!</b></span><br>Your pay has increased by $0.02. Your bonus pay is now $0.74.</p>\n            ","response":0,"trial_type":"html-button-response","trial_index":88,"time_elapsed":1426596,"internal_node_id":"0.0-4.0-1.38","subject_id":"60fb0cd3aa10c5ef5100190b","study_id":"6197b3f67c2b5cd3b6d9596a","session_id":"619be31d273a25afc661353a","condition":"full-information","relevant_dimensions":["wings","pattern"],"bee_group":{"antennae":"X","wings":"2","pattern":"S","legs":"X"},"bonus":1.5800000000000014},{"rt":980.9000000022352,"stimulus":"bees-with-color/bee-B2SM.svg","response":1,"trial_type":"image-button-response","trial_index":89,"time_elapsed":1427578,"internal_node_id":"0.0-4.0-0.39","subject_id":"60fb0cd3aa10c5ef5100190b","study_id":"6197b3f67c2b5cd3b6d9596a","session_id":"619be31d273a25afc661353a","condition":"full-information","relevant_dimensions":["wings","pattern"],"bee_group":{"antennae":"X","wings":"2","pattern":"S","legs":"X"},"action":"avoid","summary":"good-avoid","bonus":1.5800000000000014},{"rt":440.1000000014901,"stimulus":"\n                    <p><b>Action: <em>avoid</em></b></p>\n                    <p>This is the bee that you just saw.</p>\n                    <img src=\"bees-with-color/bee-B2SM.svg\" width=\"200\">\n                    <p><span class=\"greenText\">Good choice!</span>  This bee would have stung you.<br>Your bonus pay is unchanged, and remains at $0.74.</p>\n            ","response":0,"trial_type":"html-button-response","trial_index":90,"time_elapsed":1428019,"internal_node_id":"0.0-4.0-1.39","subject_id":"60fb0cd3aa10c5ef5100190b","study_id":"6197b3f67c2b5cd3b6d9596a","session_id":"619be31d273a25afc661353a","condition":"full-information","relevant_dimensions":["wings","pattern"],"bee_group":{"antennae":"X","wings":"2","pattern":"S","legs":"X"},"bonus":1.5800000000000014},{"rt":910.9000000022352,"stimulus":"bees-with-color/bee-A2SM.svg","response":1,"trial_type":"image-button-response","trial_index":91,"time_elapsed":1428931,"internal_node_id":"0.0-4.0-0.40","subject_id":"60fb0cd3aa10c5ef5100190b","study_id":"6197b3f67c2b5cd3b6d9596a","session_id":"619be31d273a25afc661353a","condition":"full-information","relevant_dimensions":["wings","pattern"],"bee_group":{"antennae":"X","wings":"2","pattern":"S","legs":"X"},"action":"avoid","summary":"good-avoid","bonus":1.5800000000000014},{"rt":357.30000000074506,"stimulus":"\n                    <p><b>Action: <em>avoid</em></b></p>\n                    <p>This is the bee that you just saw.</p>\n                    <img src=\"bees-with-color/bee-A2SM.svg\" width=\"200\">\n                    <p><span class=\"greenText\">Good choice!</span>  This bee would have stung you.<br>Your bonus pay is unchanged, and remains at $0.74.</p>\n            ","response":0,"trial_type":"html-button-response","trial_index":92,"time_elapsed":1429290,"internal_node_id":"0.0-4.0-1.40","subject_id":"60fb0cd3aa10c5ef5100190b","study_id":"6197b3f67c2b5cd3b6d9596a","session_id":"619be31d273a25afc661353a","condition":"full-information","relevant_dimensions":["wings","pattern"],"bee_group":{"antennae":"X","wings":"2","pattern":"S","legs":"X"},"bonus":1.5800000000000014},{"rt":1071.0999999977648,"stimulus":"bees-with-color/bee-A1SM.svg","response":0,"trial_type":"image-button-response","trial_index":93,"time_elapsed":1430362,"internal_node_id":"0.0-4.0-0.41","subject_id":"60fb0cd3aa10c5ef5100190b","study_id":"6197b3f67c2b5cd3b6d9596a","session_id":"619be31d273a25afc661353a","condition":"full-information","relevant_dimensions":["wings","pattern"],"bee_group":{"antennae":"X","wings":"2","pattern":"S","legs":"X"},"action":"harvest","summary":"good-harvest","bonus":1.5800000000000014},{"rt":262.5,"stimulus":"\n                    <p><b>Action: <em>harvest</em></b></p>\n                    <p>This is the bee that you just saw.</p>\n                    <img src=\"bees-with-color/bee-A1SM.svg\" width=\"200\">\n                    <p><span class=\"greenText\"><b>Successful harvest!</b></span><br>Your pay has increased by $0.02. Your bonus pay is now $0.76.</p>\n            ","response":0,"trial_type":"html-button-response","trial_index":94,"time_elapsed":1430626,"internal_node_id":"0.0-4.0-1.41","subject_id":"60fb0cd3aa10c5ef5100190b","study_id":"6197b3f67c2b5cd3b6d9596a","session_id":"619be31d273a25afc661353a","condition":"full-information","relevant_dimensions":["wings","pattern"],"bee_group":{"antennae":"X","wings":"2","pattern":"S","legs":"X"},"bonus":1.5800000000000014},{"rt":691.8000000007451,"stimulus":"bees-with-color/bee-A1DM.svg","response":0,"trial_type":"image-button-response","trial_index":95,"time_elapsed":1431319,"internal_node_id":"0.0-4.0-0.42","subject_id":"60fb0cd3aa10c5ef5100190b","study_id":"6197b3f67c2b5cd3b6d9596a","session_id":"619be31d273a25afc661353a","condition":"full-information","relevant_dimensions":["wings","pattern"],"bee_group":{"antennae":"X","wings":"2","pattern":"S","legs":"X"},"action":"harvest","summary":"good-harvest","bonus":1.5800000000000014},{"rt":276.80000000074506,"stimulus":"\n                    <p><b>Action: <em>harvest</em></b></p>\n                    <p>This is the bee that you just saw.</p>\n                    <img src=\"bees-with-color/bee-A1DM.svg\" width=\"200\">\n                    <p><span class=\"greenText\"><b>Successful harvest!</b></span><br>Your pay has increased by $0.02. Your bonus pay is now $0.78.</p>\n            ","response":0,"trial_type":"html-button-response","trial_index":96,"time_elapsed":1431597,"internal_node_id":"0.0-4.0-1.42","subject_id":"60fb0cd3aa10c5ef5100190b","study_id":"6197b3f67c2b5cd3b6d9596a","session_id":"619be31d273a25afc661353a","condition":"full-information","relevant_dimensions":["wings","pattern"],"bee_group":{"antennae":"X","wings":"2","pattern":"S","legs":"X"},"bonus":1.5800000000000014},{"rt":1079.4000000022352,"stimulus":"bees-with-color/bee-A2SF.svg","response":1,"trial_type":"image-button-response","trial_index":97,"time_elapsed":1432678,"internal_node_id":"0.0-4.0-0.43","subject_id":"60fb0cd3aa10c5ef5100190b","study_id":"6197b3f67c2b5cd3b6d9596a","session_id":"619be31d273a25afc661353a","condition":"full-information","relevant_dimensions":["wings","pattern"],"bee_group":{"antennae":"X","wings":"2","pattern":"S","legs":"X"},"action":"avoid","summary":"good-avoid","bonus":1.5800000000000014},{"rt":416.5,"stimulus":"\n                    <p><b>Action: <em>avoid</em></b></p>\n                    <p>This is the bee that you just saw.</p>\n                    <img src=\"bees-with-color/bee-A2SF.svg\" width=\"200\">\n                    <p><span class=\"greenText\">Good choice!</span>  This bee would have stung you.<br>Your bonus pay is unchanged, and remains at $0.78.</p>\n            ","response":0,"trial_type":"html-button-response","trial_index":98,"time_elapsed":1433095,"internal_node_id":"0.0-4.0-1.43","subject_id":"60fb0cd3aa10c5ef5100190b","study_id":"6197b3f67c2b5cd3b6d9596a","session_id":"619be31d273a25afc661353a","condition":"full-information","relevant_dimensions":["wings","pattern"],"bee_group":{"antennae":"X","wings":"2","pattern":"S","legs":"X"},"bonus":1.5800000000000014},{"rt":494.69999999925494,"stimulus":"bees-with-color/bee-B2DM.svg","response":0,"trial_type":"image-button-response","trial_index":99,"time_elapsed":1433591,"internal_node_id":"0.0-4.0-0.44","subject_id":"60fb0cd3aa10c5ef5100190b","study_id":"6197b3f67c2b5cd3b6d9596a","session_id":"619be31d273a25afc661353a","condition":"full-information","relevant_dimensions":["wings","pattern"],"bee_group":{"antennae":"X","wings":"2","pattern":"S","legs":"X"},"action":"harvest","summary":"good-harvest","bonus":1.5800000000000014},{"rt":276.69999999925494,"stimulus":"\n                    <p><b>Action: <em>harvest</em></b></p>\n                    <p>This is the bee that you just saw.</p>\n                    <img src=\"bees-with-color/bee-B2DM.svg\" width=\"200\">\n                    <p><span class=\"greenText\"><b>Successful harvest!</b></span><br>Your pay has increased by $0.02. Your bonus pay is now $0.80.</p>\n            ","response":0,"trial_type":"html-button-response","trial_index":100,"time_elapsed":1433869,"internal_node_id":"0.0-4.0-1.44","subject_id":"60fb0cd3aa10c5ef5100190b","study_id":"6197b3f67c2b5cd3b6d9596a","session_id":"619be31d273a25afc661353a","condition":"full-information","relevant_dimensions":["wings","pattern"],"bee_group":{"antennae":"X","wings":"2","pattern":"S","legs":"X"},"bonus":1.5800000000000014},{"rt":638,"stimulus":"bees-with-color/bee-B2DF.svg","response":0,"trial_type":"image-button-response","trial_index":101,"time_elapsed":1434508,"internal_node_id":"0.0-4.0-0.45","subject_id":"60fb0cd3aa10c5ef5100190b","study_id":"6197b3f67c2b5cd3b6d9596a","session_id":"619be31d273a25afc661353a","condition":"full-information","relevant_dimensions":["wings","pattern"],"bee_group":{"antennae":"X","wings":"2","pattern":"S","legs":"X"},"action":"harvest","summary":"good-harvest","bonus":1.5800000000000014},{"rt":582.6000000014901,"stimulus":"\n                    <p><b>Action: <em>harvest</em></b></p>\n                    <p>This is the bee that you just saw.</p>\n                    <img src=\"bees-with-color/bee-B2DF.svg\" width=\"200\">\n                    <p><span class=\"greenText\"><b>Successful harvest!</b></span><br>Your pay has increased by $0.02. Your bonus pay is now $0.82.</p>\n            ","response":0,"trial_type":"html-button-response","trial_index":102,"time_elapsed":1435092,"internal_node_id":"0.0-4.0-1.45","subject_id":"60fb0cd3aa10c5ef5100190b","study_id":"6197b3f67c2b5cd3b6d9596a","session_id":"619be31d273a25afc661353a","condition":"full-information","relevant_dimensions":["wings","pattern"],"bee_group":{"antennae":"X","wings":"2","pattern":"S","legs":"X"},"bonus":1.5800000000000014},{"rt":988.1999999992549,"stimulus":"bees-with-color/bee-B1SF.svg","response":0,"trial_type":"image-button-response","trial_index":103,"time_elapsed":1436081,"internal_node_id":"0.0-4.0-0.46","subject_id":"60fb0cd3aa10c5ef5100190b","study_id":"6197b3f67c2b5cd3b6d9596a","session_id":"619be31d273a25afc661353a","condition":"full-information","relevant_dimensions":["wings","pattern"],"bee_group":{"antennae":"X","wings":"2","pattern":"S","legs":"X"},"action":"harvest","summary":"good-harvest","bonus":1.5800000000000014},{"rt":236.29999999701977,"stimulus":"\n                    <p><b>Action: <em>harvest</em></b></p>\n                    <p>This is the bee that you just saw.</p>\n                    <img src=\"bees-with-color/bee-B1SF.svg\" width=\"200\">\n                    <p><span class=\"greenText\"><b>Successful harvest!</b></span><br>Your pay has increased by $0.02. Your bonus pay is now $0.84.</p>\n            ","response":0,"trial_type":"html-button-response","trial_index":104,"time_elapsed":1436318,"internal_node_id":"0.0-4.0-1.46","subject_id":"60fb0cd3aa10c5ef5100190b","study_id":"6197b3f67c2b5cd3b6d9596a","session_id":"619be31d273a25afc661353a","condition":"full-information","relevant_dimensions":["wings","pattern"],"bee_group":{"antennae":"X","wings":"2","pattern":"S","legs":"X"},"bonus":1.5800000000000014},{"rt":974.5999999977648,"stimulus":"bees-with-color/bee-A2DM.svg","response":0,"trial_type":"image-button-response","trial_index":105,"time_elapsed":1437294,"internal_node_id":"0.0-4.0-0.47","subject_id":"60fb0cd3aa10c5ef5100190b","study_id":"6197b3f67c2b5cd3b6d9596a","session_id":"619be31d273a25afc661353a","condition":"full-information","relevant_dimensions":["wings","pattern"],"bee_group":{"antennae":"X","wings":"2","pattern":"S","legs":"X"},"action":"harvest","summary":"good-harvest","bonus":1.5800000000000014},{"rt":885.8999999985099,"stimulus":"\n                    <p><b>Action: <em>harvest</em></b></p>\n                    <p>This is the bee that you just saw.</p>\n                    <img src=\"bees-with-color/bee-A2DM.svg\" width=\"200\">\n                    <p><span class=\"greenText\"><b>Successful harvest!</b></span><br>Your pay has increased by $0.02. Your bonus pay is now $0.86.</p>\n            ","response":0,"trial_type":"html-button-response","trial_index":106,"time_elapsed":1438181,"internal_node_id":"0.0-4.0-1.47","subject_id":"60fb0cd3aa10c5ef5100190b","study_id":"6197b3f67c2b5cd3b6d9596a","session_id":"619be31d273a25afc661353a","condition":"full-information","relevant_dimensions":["wings","pattern"],"bee_group":{"antennae":"X","wings":"2","pattern":"S","legs":"X"},"bonus":1.5800000000000014},{"rt":1279.5,"stimulus":"bees-with-color/bee-A2SM.svg","response":1,"trial_type":"image-button-response","trial_index":107,"time_elapsed":1439462,"internal_node_id":"0.0-4.0-0.48","subject_id":"60fb0cd3aa10c5ef5100190b","study_id":"6197b3f67c2b5cd3b6d9596a","session_id":"619be31d273a25afc661353a","condition":"full-information","relevant_dimensions":["wings","pattern"],"bee_group":{"antennae":"X","wings":"2","pattern":"S","legs":"X"},"action":"avoid","summary":"good-avoid","bonus":1.5800000000000014},{"rt":541,"stimulus":"\n                    <p><b>Action: <em>avoid</em></b></p>\n                    <p>This is the bee that you just saw.</p>\n                    <img src=\"bees-with-color/bee-A2SM.svg\" width=\"200\">\n                    <p><span class=\"greenText\">Good choice!</span>  This bee would have stung you.<br>Your bonus pay is unchanged, and remains at $0.86.</p>\n            ","response":0,"trial_type":"html-button-response","trial_index":108,"time_elapsed":1440004,"internal_node_id":"0.0-4.0-1.48","subject_id":"60fb0cd3aa10c5ef5100190b","study_id":"6197b3f67c2b5cd3b6d9596a","session_id":"619be31d273a25afc661353a","condition":"full-information","relevant_dimensions":["wings","pattern"],"bee_group":{"antennae":"X","wings":"2","pattern":"S","legs":"X"},"bonus":1.5800000000000014},{"rt":1253.800000000745,"stimulus":"bees-with-color/bee-A1SM.svg","response":0,"trial_type":"image-button-response","trial_index":109,"time_elapsed":1441259,"internal_node_id":"0.0-4.0-0.49","subject_id":"60fb0cd3aa10c5ef5100190b","study_id":"6197b3f67c2b5cd3b6d9596a","session_id":"619be31d273a25afc661353a","condition":"full-information","relevant_dimensions":["wings","pattern"],"bee_group":{"antennae":"X","wings":"2","pattern":"S","legs":"X"},"action":"harvest","summary":"good-harvest","bonus":1.5800000000000014},{"rt":245.39999999850988,"stimulus":"\n                    <p><b>Action: <em>harvest</em></b></p>\n                    <p>This is the bee that you just saw.</p>\n                    <img src=\"bees-with-color/bee-A1SM.svg\" width=\"200\">\n                    <p><span class=\"greenText\"><b>Successful harvest!</b></span><br>Your pay has increased by $0.02. Your bonus pay is now $0.88.</p>\n            ","response":0,"trial_type":"html-button-response","trial_index":110,"time_elapsed":1441506,"internal_node_id":"0.0-4.0-1.49","subject_id":"60fb0cd3aa10c5ef5100190b","study_id":"6197b3f67c2b5cd3b6d9596a","session_id":"619be31d273a25afc661353a","condition":"full-information","relevant_dimensions":["wings","pattern"],"bee_group":{"antennae":"X","wings":"2","pattern":"S","legs":"X"},"bonus":1.5800000000000014},{"rt":909.1000000014901,"stimulus":"bees-with-color/bee-A2DF.svg","response":0,"trial_type":"image-button-response","trial_index":111,"time_elapsed":1442416,"internal_node_id":"0.0-4.0-0.50","subject_id":"60fb0cd3aa10c5ef5100190b","study_id":"6197b3f67c2b5cd3b6d9596a","session_id":"619be31d273a25afc661353a","condition":"full-information","relevant_dimensions":["wings","pattern"],"bee_group":{"antennae":"X","wings":"2","pattern":"S","legs":"X"},"action":"harvest","summary":"good-harvest","bonus":1.5800000000000014},{"rt":250.60000000149012,"stimulus":"\n                    <p><b>Action: <em>harvest</em></b></p>\n                    <p>This is the bee that you just saw.</p>\n                    <img src=\"bees-with-color/bee-A2DF.svg\" width=\"200\">\n                    <p><span class=\"greenText\"><b>Successful harvest!</b></span><br>Your pay has increased by $0.02. Your bonus pay is now $0.90.</p>\n            ","response":0,"trial_type":"html-button-response","trial_index":112,"time_elapsed":1442668,"internal_node_id":"0.0-4.0-1.50","subject_id":"60fb0cd3aa10c5ef5100190b","study_id":"6197b3f67c2b5cd3b6d9596a","session_id":"619be31d273a25afc661353a","condition":"full-information","relevant_dimensions":["wings","pattern"],"bee_group":{"antennae":"X","wings":"2","pattern":"S","legs":"X"},"bonus":1.5800000000000014},{"rt":798.6000000014901,"stimulus":"bees-with-color/bee-A2DM.svg","response":0,"trial_type":"image-button-response","trial_index":113,"time_elapsed":1443468,"internal_node_id":"0.0-4.0-0.51","subject_id":"60fb0cd3aa10c5ef5100190b","study_id":"6197b3f67c2b5cd3b6d9596a","session_id":"619be31d273a25afc661353a","condition":"full-information","relevant_dimensions":["wings","pattern"],"bee_group":{"antennae":"X","wings":"2","pattern":"S","legs":"X"},"action":"harvest","summary":"good-harvest","bonus":1.5800000000000014},{"rt":290.5999999977648,"stimulus":"\n                    <p><b>Action: <em>harvest</em></b></p>\n                    <p>This is the bee that you just saw.</p>\n                    <img src=\"bees-with-color/bee-A2DM.svg\" width=\"200\">\n                    <p><span class=\"greenText\"><b>Successful harvest!</b></span><br>Your pay has increased by $0.02. Your bonus pay is now $0.92.</p>\n            ","response":0,"trial_type":"html-button-response","trial_index":114,"time_elapsed":1443759,"internal_node_id":"0.0-4.0-1.51","subject_id":"60fb0cd3aa10c5ef5100190b","study_id":"6197b3f67c2b5cd3b6d9596a","session_id":"619be31d273a25afc661353a","condition":"full-information","relevant_dimensions":["wings","pattern"],"bee_group":{"antennae":"X","wings":"2","pattern":"S","legs":"X"},"bonus":1.5800000000000014},{"rt":959.4000000022352,"stimulus":"bees-with-color/bee-A2SF.svg","response":1,"trial_type":"image-button-response","trial_index":115,"time_elapsed":1444720,"internal_node_id":"0.0-4.0-0.52","subject_id":"60fb0cd3aa10c5ef5100190b","study_id":"6197b3f67c2b5cd3b6d9596a","session_id":"619be31d273a25afc661353a","condition":"full-information","relevant_dimensions":["wings","pattern"],"bee_group":{"antennae":"X","wings":"2","pattern":"S","legs":"X"},"action":"avoid","summary":"good-avoid","bonus":1.5800000000000014},{"rt":580.6999999992549,"stimulus":"\n                    <p><b>Action: <em>avoid</em></b></p>\n                    <p>This is the bee that you just saw.</p>\n                    <img src=\"bees-with-color/bee-A2SF.svg\" width=\"200\">\n                    <p><span class=\"greenText\">Good choice!</span>  This bee would have stung you.<br>Your bonus pay is unchanged, and remains at $0.92.</p>\n            ","response":0,"trial_type":"html-button-response","trial_index":116,"time_elapsed":1445302,"internal_node_id":"0.0-4.0-1.52","subject_id":"60fb0cd3aa10c5ef5100190b","study_id":"6197b3f67c2b5cd3b6d9596a","session_id":"619be31d273a25afc661353a","condition":"full-information","relevant_dimensions":["wings","pattern"],"bee_group":{"antennae":"X","wings":"2","pattern":"S","legs":"X"},"bonus":1.5800000000000014},{"rt":475.79999999701977,"stimulus":"bees-with-color/bee-A1DM.svg","response":0,"trial_type":"image-button-response","trial_index":117,"time_elapsed":1445779,"internal_node_id":"0.0-4.0-0.53","subject_id":"60fb0cd3aa10c5ef5100190b","study_id":"6197b3f67c2b5cd3b6d9596a","session_id":"619be31d273a25afc661353a","condition":"full-information","relevant_dimensions":["wings","pattern"],"bee_group":{"antennae":"X","wings":"2","pattern":"S","legs":"X"},"action":"harvest","summary":"good-harvest","bonus":1.5800000000000014},{"rt":428.6000000014901,"stimulus":"\n                    <p><b>Action: <em>harvest</em></b></p>\n                    <p>This is the bee that you just saw.</p>\n                    <img src=\"bees-with-color/bee-A1DM.svg\" width=\"200\">\n                    <p><span class=\"greenText\"><b>Successful harvest!</b></span><br>Your pay has increased by $0.02. Your bonus pay is now $0.94.</p>\n            ","response":0,"trial_type":"html-button-response","trial_index":118,"time_elapsed":1446209,"internal_node_id":"0.0-4.0-1.53","subject_id":"60fb0cd3aa10c5ef5100190b","study_id":"6197b3f67c2b5cd3b6d9596a","session_id":"619be31d273a25afc661353a","condition":"full-information","relevant_dimensions":["wings","pattern"],"bee_group":{"antennae":"X","wings":"2","pattern":"S","legs":"X"},"bonus":1.5800000000000014},{"rt":553,"stimulus":"bees-with-color/bee-B1SM.svg","response":0,"trial_type":"image-button-response","trial_index":119,"time_elapsed":1446763,"internal_node_id":"0.0-4.0-0.54","subject_id":"60fb0cd3aa10c5ef5100190b","study_id":"6197b3f67c2b5cd3b6d9596a","session_id":"619be31d273a25afc661353a","condition":"full-information","relevant_dimensions":["wings","pattern"],"bee_group":{"antennae":"X","wings":"2","pattern":"S","legs":"X"},"action":"harvest","summary":"good-harvest","bonus":1.5800000000000014},{"rt":241.89999999850988,"stimulus":"\n                    <p><b>Action: <em>harvest</em></b></p>\n                    <p>This is the bee that you just saw.</p>\n                    <img src=\"bees-with-color/bee-B1SM.svg\" width=\"200\">\n                    <p><span class=\"greenText\"><b>Successful harvest!</b></span><br>Your pay has increased by $0.02. Your bonus pay is now $0.96.</p>\n            ","response":0,"trial_type":"html-button-response","trial_index":120,"time_elapsed":1447006,"internal_node_id":"0.0-4.0-1.54","subject_id":"60fb0cd3aa10c5ef5100190b","study_id":"6197b3f67c2b5cd3b6d9596a","session_id":"619be31d273a25afc661353a","condition":"full-information","relevant_dimensions":["wings","pattern"],"bee_group":{"antennae":"X","wings":"2","pattern":"S","legs":"X"},"bonus":1.5800000000000014},{"rt":579,"stimulus":"bees-with-color/bee-A1DF.svg","response":0,"trial_type":"image-button-response","trial_index":121,"time_elapsed":1447586,"internal_node_id":"0.0-4.0-0.55","subject_id":"60fb0cd3aa10c5ef5100190b","study_id":"6197b3f67c2b5cd3b6d9596a","session_id":"619be31d273a25afc661353a","condition":"full-information","relevant_dimensions":["wings","pattern"],"bee_group":{"antennae":"X","wings":"2","pattern":"S","legs":"X"},"action":"harvest","summary":"good-harvest","bonus":1.5800000000000014},{"rt":239.79999999701977,"stimulus":"\n                    <p><b>Action: <em>harvest</em></b></p>\n                    <p>This is the bee that you just saw.</p>\n                    <img src=\"bees-with-color/bee-A1DF.svg\" width=\"200\">\n                    <p><span class=\"greenText\"><b>Successful harvest!</b></span><br>Your pay has increased by $0.02. Your bonus pay is now $0.98.</p>\n            ","response":0,"trial_type":"html-button-response","trial_index":122,"time_elapsed":1447827,"internal_node_id":"0.0-4.0-1.55","subject_id":"60fb0cd3aa10c5ef5100190b","study_id":"6197b3f67c2b5cd3b6d9596a","session_id":"619be31d273a25afc661353a","condition":"full-information","relevant_dimensions":["wings","pattern"],"bee_group":{"antennae":"X","wings":"2","pattern":"S","legs":"X"},"bonus":1.5800000000000014},{"rt":864.7000000029802,"stimulus":"bees-with-color/bee-B1SF.svg","response":0,"trial_type":"image-button-response","trial_index":123,"time_elapsed":1448693,"internal_node_id":"0.0-4.0-0.56","subject_id":"60fb0cd3aa10c5ef5100190b","study_id":"6197b3f67c2b5cd3b6d9596a","session_id":"619be31d273a25afc661353a","condition":"full-information","relevant_dimensions":["wings","pattern"],"bee_group":{"antennae":"X","wings":"2","pattern":"S","legs":"X"},"action":"harvest","summary":"good-harvest","bonus":1.5800000000000014},{"rt":348.80000000074506,"stimulus":"\n                    <p><b>Action: <em>harvest</em></b></p>\n                    <p>This is the bee that you just saw.</p>\n                    <img src=\"bees-with-color/bee-B1SF.svg\" width=\"200\">\n                    <p><span class=\"greenText\"><b>Successful harvest!</b></span><br>Your pay has increased by $0.02. Your bonus pay is now $1.00.</p>\n            ","response":0,"trial_type":"html-button-response","trial_index":124,"time_elapsed":1449043,"internal_node_id":"0.0-4.0-1.56","subject_id":"60fb0cd3aa10c5ef5100190b","study_id":"6197b3f67c2b5cd3b6d9596a","session_id":"619be31d273a25afc661353a","condition":"full-information","relevant_dimensions":["wings","pattern"],"bee_group":{"antennae":"X","wings":"2","pattern":"S","legs":"X"},"bonus":1.5800000000000014},{"rt":841.6000000014901,"stimulus":"bees-with-color/bee-B2DM.svg","response":0,"trial_type":"image-button-response","trial_index":125,"time_elapsed":1449885,"internal_node_id":"0.0-4.0-0.57","subject_id":"60fb0cd3aa10c5ef5100190b","study_id":"6197b3f67c2b5cd3b6d9596a","session_id":"619be31d273a25afc661353a","condition":"full-information","relevant_dimensions":["wings","pattern"],"bee_group":{"antennae":"X","wings":"2","pattern":"S","legs":"X"},"action":"harvest","summary":"good-harvest","bonus":1.5800000000000014},{"rt":269.80000000074506,"stimulus":"\n                    <p><b>Action: <em>harvest</em></b></p>\n                    <p>This is the bee that you just saw.</p>\n                    <img src=\"bees-with-color/bee-B2DM.svg\" width=\"200\">\n                    <p><span class=\"greenText\"><b>Successful harvest!</b></span><br>Your pay has increased by $0.02. Your bonus pay is now $1.02.</p>\n            ","response":0,"trial_type":"html-button-response","trial_index":126,"time_elapsed":1450156,"internal_node_id":"0.0-4.0-1.57","subject_id":"60fb0cd3aa10c5ef5100190b","study_id":"6197b3f67c2b5cd3b6d9596a","session_id":"619be31d273a25afc661353a","condition":"full-information","relevant_dimensions":["wings","pattern"],"bee_group":{"antennae":"X","wings":"2","pattern":"S","legs":"X"},"bonus":1.5800000000000014},{"rt":658.8999999985099,"stimulus":"bees-with-color/bee-A1SF.svg","response":0,"trial_type":"image-button-response","trial_index":127,"time_elapsed":1450816,"internal_node_id":"0.0-4.0-0.58","subject_id":"60fb0cd3aa10c5ef5100190b","study_id":"6197b3f67c2b5cd3b6d9596a","session_id":"619be31d273a25afc661353a","condition":"full-information","relevant_dimensions":["wings","pattern"],"bee_group":{"antennae":"X","wings":"2","pattern":"S","legs":"X"},"action":"harvest","summary":"good-harvest","bonus":1.5800000000000014},{"rt":374.70000000298023,"stimulus":"\n                    <p><b>Action: <em>harvest</em></b></p>\n                    <p>This is the bee that you just saw.</p>\n                    <img src=\"bees-with-color/bee-A1SF.svg\" width=\"200\">\n                    <p><span class=\"greenText\"><b>Successful harvest!</b></span><br>Your pay has increased by $0.02. Your bonus pay is now $1.04.</p>\n            ","response":0,"trial_type":"html-button-response","trial_index":128,"time_elapsed":1451192,"internal_node_id":"0.0-4.0-1.58","subject_id":"60fb0cd3aa10c5ef5100190b","study_id":"6197b3f67c2b5cd3b6d9596a","session_id":"619be31d273a25afc661353a","condition":"full-information","relevant_dimensions":["wings","pattern"],"bee_group":{"antennae":"X","wings":"2","pattern":"S","legs":"X"},"bonus":1.5800000000000014},{"rt":809.0999999977648,"stimulus":"bees-with-color/bee-B2SM.svg","response":1,"trial_type":"image-button-response","trial_index":129,"time_elapsed":1452002,"internal_node_id":"0.0-4.0-0.59","subject_id":"60fb0cd3aa10c5ef5100190b","study_id":"6197b3f67c2b5cd3b6d9596a","session_id":"619be31d273a25afc661353a","condition":"full-information","relevant_dimensions":["wings","pattern"],"bee_group":{"antennae":"X","wings":"2","pattern":"S","legs":"X"},"action":"avoid","summary":"good-avoid","bonus":1.5800000000000014},{"rt":383.29999999701977,"stimulus":"\n                    <p><b>Action: <em>avoid</em></b></p>\n                    <p>This is the bee that you just saw.</p>\n                    <img src=\"bees-with-color/bee-B2SM.svg\" width=\"200\">\n                    <p><span class=\"greenText\">Good choice!</span>  This bee would have stung you.<br>Your bonus pay is unchanged, and remains at $1.04.</p>\n            ","response":0,"trial_type":"html-button-response","trial_index":130,"time_elapsed":1452387,"internal_node_id":"0.0-4.0-1.59","subject_id":"60fb0cd3aa10c5ef5100190b","study_id":"6197b3f67c2b5cd3b6d9596a","session_id":"619be31d273a25afc661353a","condition":"full-information","relevant_dimensions":["wings","pattern"],"bee_group":{"antennae":"X","wings":"2","pattern":"S","legs":"X"},"bonus":1.5800000000000014},{"rt":606.7999999970198,"stimulus":"bees-with-color/bee-B1DF.svg","response":0,"trial_type":"image-button-response","trial_index":131,"time_elapsed":1452995,"internal_node_id":"0.0-4.0-0.60","subject_id":"60fb0cd3aa10c5ef5100190b","study_id":"6197b3f67c2b5cd3b6d9596a","session_id":"619be31d273a25afc661353a","condition":"full-information","relevant_dimensions":["wings","pattern"],"bee_group":{"antennae":"X","wings":"2","pattern":"S","legs":"X"},"action":"harvest","summary":"good-harvest","bonus":1.5800000000000014},{"rt":260.6000000014901,"stimulus":"\n                    <p><b>Action: <em>harvest</em></b></p>\n                    <p>This is the bee that you just saw.</p>\n                    <img src=\"bees-with-color/bee-B1DF.svg\" width=\"200\">\n                    <p><span class=\"greenText\"><b>Successful harvest!</b></span><br>Your pay has increased by $0.02. Your bonus pay is now $1.06.</p>\n            ","response":0,"trial_type":"html-button-response","trial_index":132,"time_elapsed":1453257,"internal_node_id":"0.0-4.0-1.60","subject_id":"60fb0cd3aa10c5ef5100190b","study_id":"6197b3f67c2b5cd3b6d9596a","session_id":"619be31d273a25afc661353a","condition":"full-information","relevant_dimensions":["wings","pattern"],"bee_group":{"antennae":"X","wings":"2","pattern":"S","legs":"X"},"bonus":1.5800000000000014},{"rt":905.5,"stimulus":"bees-with-color/bee-B1DM.svg","response":0,"trial_type":"image-button-response","trial_index":133,"time_elapsed":1454164,"internal_node_id":"0.0-4.0-0.61","subject_id":"60fb0cd3aa10c5ef5100190b","study_id":"6197b3f67c2b5cd3b6d9596a","session_id":"619be31d273a25afc661353a","condition":"full-information","relevant_dimensions":["wings","pattern"],"bee_group":{"antennae":"X","wings":"2","pattern":"S","legs":"X"},"action":"harvest","summary":"good-harvest","bonus":1.5800000000000014},{"rt":237.30000000074506,"stimulus":"\n                    <p><b>Action: <em>harvest</em></b></p>\n                    <p>This is the bee that you just saw.</p>\n                    <img src=\"bees-with-color/bee-B1DM.svg\" width=\"200\">\n                    <p><span class=\"greenText\"><b>Successful harvest!</b></span><br>Your pay has increased by $0.02. Your bonus pay is now $1.08.</p>\n            ","response":0,"trial_type":"html-button-response","trial_index":134,"time_elapsed":1454402,"internal_node_id":"0.0-4.0-1.61","subject_id":"60fb0cd3aa10c5ef5100190b","study_id":"6197b3f67c2b5cd3b6d9596a","session_id":"619be31d273a25afc661353a","condition":"full-information","relevant_dimensions":["wings","pattern"],"bee_group":{"antennae":"X","wings":"2","pattern":"S","legs":"X"},"bonus":1.5800000000000014},{"rt":947.6999999992549,"stimulus":"bees-with-color/bee-B2SF.svg","response":1,"trial_type":"image-button-response","trial_index":135,"time_elapsed":1455351,"internal_node_id":"0.0-4.0-0.62","subject_id":"60fb0cd3aa10c5ef5100190b","study_id":"6197b3f67c2b5cd3b6d9596a","session_id":"619be31d273a25afc661353a","condition":"full-information","relevant_dimensions":["wings","pattern"],"bee_group":{"antennae":"X","wings":"2","pattern":"S","legs":"X"},"action":"avoid","summary":"good-avoid","bonus":1.5800000000000014},{"rt":498,"stimulus":"\n                    <p><b>Action: <em>avoid</em></b></p>\n                    <p>This is the bee that you just saw.</p>\n                    <img src=\"bees-with-color/bee-B2SF.svg\" width=\"200\">\n                    <p><span class=\"greenText\">Good choice!</span>  This bee would have stung you.<br>Your bonus pay is unchanged, and remains at $1.08.</p>\n            ","response":0,"trial_type":"html-button-response","trial_index":136,"time_elapsed":1455850,"internal_node_id":"0.0-4.0-1.62","subject_id":"60fb0cd3aa10c5ef5100190b","study_id":"6197b3f67c2b5cd3b6d9596a","session_id":"619be31d273a25afc661353a","condition":"full-information","relevant_dimensions":["wings","pattern"],"bee_group":{"antennae":"X","wings":"2","pattern":"S","legs":"X"},"bonus":1.5800000000000014},{"rt":430.5,"stimulus":"bees-with-color/bee-B2DF.svg","response":0,"trial_type":"image-button-response","trial_index":137,"time_elapsed":1456282,"internal_node_id":"0.0-4.0-0.63","subject_id":"60fb0cd3aa10c5ef5100190b","study_id":"6197b3f67c2b5cd3b6d9596a","session_id":"619be31d273a25afc661353a","condition":"full-information","relevant_dimensions":["wings","pattern"],"bee_group":{"antennae":"X","wings":"2","pattern":"S","legs":"X"},"action":"harvest","summary":"good-harvest","bonus":1.5800000000000014},{"rt":448.5,"stimulus":"\n                    <p><b>Action: <em>harvest</em></b></p>\n                    <p>This is the bee that you just saw.</p>\n                    <img src=\"bees-with-color/bee-B2DF.svg\" width=\"200\">\n                    <p><span class=\"greenText\"><b>Successful harvest!</b></span><br>Your pay has increased by $0.02. Your bonus pay is now $1.10.</p>\n            ","response":0,"trial_type":"html-button-response","trial_index":138,"time_elapsed":1456732,"internal_node_id":"0.0-4.0-1.63","subject_id":"60fb0cd3aa10c5ef5100190b","study_id":"6197b3f67c2b5cd3b6d9596a","session_id":"619be31d273a25afc661353a","condition":"full-information","relevant_dimensions":["wings","pattern"],"bee_group":{"antennae":"X","wings":"2","pattern":"S","legs":"X"},"bonus":1.5800000000000014},{"rt":12023.599999997765,"stimulus":"You have completed the first part of this experiment.<br><br>You will now begin a shorter second part, in which you will receive no feedback.<br>The same rules regarding bonus pay apply.<br><br>Press any key to begin.","response":" ","trial_type":"html-keyboard-response","trial_index":139,"time_elapsed":1468756,"internal_node_id":"0.0-5.0","subject_id":"60fb0cd3aa10c5ef5100190b","study_id":"6197b3f67c2b5cd3b6d9596a","session_id":"619be31d273a25afc661353a","condition":"full-information","relevant_dimensions":["wings","pattern"],"bee_group":{"antennae":"X","wings":"2","pattern":"S","legs":"X"},"bonus":1.5800000000000014},{"rt":2775.099999997765,"stimulus":"bees-with-color/bee-B2SM.svg","response":1,"trial_type":"image-button-response","trial_index":140,"time_elapsed":1471540,"internal_node_id":"0.0-6.0-0.0","subject_id":"60fb0cd3aa10c5ef5100190b","study_id":"6197b3f67c2b5cd3b6d9596a","session_id":"619be31d273a25afc661353a","condition":"full-information","relevant_dimensions":["wings","pattern"],"bee_group":{"antennae":"X","wings":"2","pattern":"S","legs":"X"},"bonus":1.5800000000000014},{"rt":3857.300000000745,"stimulus":"bees-with-color/bee-B1SM.svg","response":0,"trial_type":"image-button-response","trial_index":141,"time_elapsed":1475399,"internal_node_id":"0.0-6.0-0.1","subject_id":"60fb0cd3aa10c5ef5100190b","study_id":"6197b3f67c2b5cd3b6d9596a","session_id":"619be31d273a25afc661353a","condition":"full-information","relevant_dimensions":["wings","pattern"],"bee_group":{"antennae":"X","wings":"2","pattern":"S","legs":"X"},"bonus":1.5800000000000014},{"rt":2777.199999999255,"stimulus":"bees-with-color/bee-A1SF.svg","response":0,"trial_type":"image-button-response","trial_index":142,"time_elapsed":1478179,"internal_node_id":"0.0-6.0-0.2","subject_id":"60fb0cd3aa10c5ef5100190b","study_id":"6197b3f67c2b5cd3b6d9596a","session_id":"619be31d273a25afc661353a","condition":"full-information","relevant_dimensions":["wings","pattern"],"bee_group":{"antennae":"X","wings":"2","pattern":"S","legs":"X"},"bonus":1.5800000000000014},{"rt":921.8999999985099,"stimulus":"bees-with-color/bee-B1DM.svg","response":0,"trial_type":"image-button-response","trial_index":143,"time_elapsed":1479102,"internal_node_id":"0.0-6.0-0.3","subject_id":"60fb0cd3aa10c5ef5100190b","study_id":"6197b3f67c2b5cd3b6d9596a","session_id":"619be31d273a25afc661353a","condition":"full-information","relevant_dimensions":["wings","pattern"],"bee_group":{"antennae":"X","wings":"2","pattern":"S","legs":"X"},"bonus":1.5800000000000014},{"rt":803.8999999985099,"stimulus":"bees-with-color/bee-A1DF.svg","response":0,"trial_type":"image-button-response","trial_index":144,"time_elapsed":1479908,"internal_node_id":"0.0-6.0-0.4","subject_id":"60fb0cd3aa10c5ef5100190b","study_id":"6197b3f67c2b5cd3b6d9596a","session_id":"619be31d273a25afc661353a","condition":"full-information","relevant_dimensions":["wings","pattern"],"bee_group":{"antennae":"X","wings":"2","pattern":"S","legs":"X"},"bonus":1.5800000000000014},{"rt":810.8000000007451,"stimulus":"bees-with-color/bee-A2DF.svg","response":0,"trial_type":"image-button-response","trial_index":145,"time_elapsed":1480720,"internal_node_id":"0.0-6.0-0.5","subject_id":"60fb0cd3aa10c5ef5100190b","study_id":"6197b3f67c2b5cd3b6d9596a","session_id":"619be31d273a25afc661353a","condition":"full-information","relevant_dimensions":["wings","pattern"],"bee_group":{"antennae":"X","wings":"2","pattern":"S","legs":"X"},"bonus":1.5800000000000014},{"rt":903.8000000007451,"stimulus":"bees-with-color/bee-A2SM.svg","response":1,"trial_type":"image-button-response","trial_index":146,"time_elapsed":1481625,"internal_node_id":"0.0-6.0-0.6","subject_id":"60fb0cd3aa10c5ef5100190b","study_id":"6197b3f67c2b5cd3b6d9596a","session_id":"619be31d273a25afc661353a","condition":"full-information","relevant_dimensions":["wings","pattern"],"bee_group":{"antennae":"X","wings":"2","pattern":"S","legs":"X"},"bonus":1.5800000000000014},{"rt":638.9000000022352,"stimulus":"bees-with-color/bee-A1DM.svg","response":0,"trial_type":"image-button-response","trial_index":147,"time_elapsed":1482266,"internal_node_id":"0.0-6.0-0.7","subject_id":"60fb0cd3aa10c5ef5100190b","study_id":"6197b3f67c2b5cd3b6d9596a","session_id":"619be31d273a25afc661353a","condition":"full-information","relevant_dimensions":["wings","pattern"],"bee_group":{"antennae":"X","wings":"2","pattern":"S","legs":"X"},"bonus":1.5800000000000014},{"rt":580.3999999985099,"stimulus":"bees-with-color/bee-A2DM.svg","response":0,"trial_type":"image-button-response","trial_index":148,"time_elapsed":1482848,"internal_node_id":"0.0-6.0-0.8","subject_id":"60fb0cd3aa10c5ef5100190b","study_id":"6197b3f67c2b5cd3b6d9596a","session_id":"619be31d273a25afc661353a","condition":"full-information","relevant_dimensions":["wings","pattern"],"bee_group":{"antennae":"X","wings":"2","pattern":"S","legs":"X"},"bonus":1.5800000000000014},{"rt":790.5999999977648,"stimulus":"bees-with-color/bee-B2SF.svg","response":1,"trial_type":"image-button-response","trial_index":149,"time_elapsed":1483640,"internal_node_id":"0.0-6.0-0.9","subject_id":"60fb0cd3aa10c5ef5100190b","study_id":"6197b3f67c2b5cd3b6d9596a","session_id":"619be31d273a25afc661353a","condition":"full-information","relevant_dimensions":["wings","pattern"],"bee_group":{"antennae":"X","wings":"2","pattern":"S","legs":"X"},"bonus":1.5800000000000014},{"rt":608.6000000014901,"stimulus":"bees-with-color/bee-B2DM.svg","response":0,"trial_type":"image-button-response","trial_index":150,"time_elapsed":1484251,"internal_node_id":"0.0-6.0-0.10","subject_id":"60fb0cd3aa10c5ef5100190b","study_id":"6197b3f67c2b5cd3b6d9596a","session_id":"619be31d273a25afc661353a","condition":"full-information","relevant_dimensions":["wings","pattern"],"bee_group":{"antennae":"X","wings":"2","pattern":"S","legs":"X"},"bonus":1.5800000000000014},{"rt":577.3999999985099,"stimulus":"bees-with-color/bee-B1DF.svg","response":0,"trial_type":"image-button-response","trial_index":151,"time_elapsed":1484830,"internal_node_id":"0.0-6.0-0.11","subject_id":"60fb0cd3aa10c5ef5100190b","study_id":"6197b3f67c2b5cd3b6d9596a","session_id":"619be31d273a25afc661353a","condition":"full-information","relevant_dimensions":["wings","pattern"],"bee_group":{"antennae":"X","wings":"2","pattern":"S","legs":"X"},"bonus":1.5800000000000014},{"rt":846.6000000014901,"stimulus":"bees-with-color/bee-B1SF.svg","response":0,"trial_type":"image-button-response","trial_index":152,"time_elapsed":1485678,"internal_node_id":"0.0-6.0-0.12","subject_id":"60fb0cd3aa10c5ef5100190b","study_id":"6197b3f67c2b5cd3b6d9596a","session_id":"619be31d273a25afc661353a","condition":"full-information","relevant_dimensions":["wings","pattern"],"bee_group":{"antennae":"X","wings":"2","pattern":"S","legs":"X"},"bonus":1.5800000000000014},{"rt":688.8000000007451,"stimulus":"bees-with-color/bee-B2DF.svg","response":0,"trial_type":"image-button-response","trial_index":153,"time_elapsed":1486368,"internal_node_id":"0.0-6.0-0.13","subject_id":"60fb0cd3aa10c5ef5100190b","study_id":"6197b3f67c2b5cd3b6d9596a","session_id":"619be31d273a25afc661353a","condition":"full-information","relevant_dimensions":["wings","pattern"],"bee_group":{"antennae":"X","wings":"2","pattern":"S","legs":"X"},"bonus":1.5800000000000014},{"rt":852.1999999992549,"stimulus":"bees-with-color/bee-A2SF.svg","response":1,"trial_type":"