[{"success":true,"trial_type":"fullscreen","trial_index":0,"time_elapsed":12903,"internal_node_id":"0.0-0.0","subject_id":"60b14c72faad384ddb2eb66c","study_id":"60edd13110225f80f9f3709b","session_id":"6196c4a5802110ba8a94fb38","condition":"full-information","relevant_dimensions":["antennae","wings"],"bee_group":{"antennae":"A","wings":"2","pattern":"X","legs":"X"},"bonus":0.800000000000001},{"success":true,"timeout":false,"failed_images":[],"failed_audio":[],"failed_video":[],"trial_type":"preload","trial_index":1,"time_elapsed":16672,"internal_node_id":"0.0-1.0","subject_id":"60b14c72faad384ddb2eb66c","study_id":"60edd13110225f80f9f3709b","session_id":"6196c4a5802110ba8a94fb38","condition":"full-information","relevant_dimensions":["antennae","wings"],"bee_group":{"antennae":"A","wings":"2","pattern":"X","legs":"X"},"bonus":0.800000000000001},{"rt":2554.10000000149,"stimulus":"Welcome! Press any key to begin.","response":" ","trial_type":"html-keyboard-response","trial_index":2,"time_elapsed":19227,"internal_node_id":"0.0-2.0","subject_id":"60b14c72faad384ddb2eb66c","study_id":"60edd13110225f80f9f3709b","session_id":"6196c4a5802110ba8a94fb38","condition":"full-information","relevant_dimensions":["antennae","wings"],"bee_group":{"antennae":"A","wings":"2","pattern":"X","legs":"X"},"bonus":0.800000000000001},{"view_history":[{"page_index":0,"viewing_time":2561},{"page_index":1,"viewing_time":7252},{"page_index":2,"viewing_time":4246.89999999851},{"page_index":3,"viewing_time":9853.10000000149},{"page_index":4,"viewing_time":5813.10000000149},{"page_index":5,"viewing_time":3714.89999999851},{"page_index":6,"viewing_time":4133},{"page_index":7,"viewing_time":3844.89999999851},{"page_index":8,"viewing_time":4834.20000000298},{"page_index":9,"viewing_time":3583.89999999851},{"page_index":10,"viewing_time":1798.1000000014901},{"page_index":11,"viewing_time":8012},{"page_index":12,"viewing_time":9707.79999999702},{"page_index":13,"viewing_time":1054.8999999985099},{"page_index":14,"viewing_time":1091.2000000029802}],"rt":71501.20000000298,"trial_type":"instructions","trial_index":3,"time_elapsed":90729,"internal_node_id":"0.0-3.0-0.0","subject_id":"60b14c72faad384ddb2eb66c","study_id":"60edd13110225f80f9f3709b","session_id":"6196c4a5802110ba8a94fb38","condition":"full-information","relevant_dimensions":["antennae","wings"],"bee_group":{"antennae":"A","wings":"2","pattern":"X","legs":"X"},"bonus":0.800000000000001},{"rt":12493.79999999702,"response":{"Q0":["Two or six legs","Stripes or spots on body","Single or double wings","Antennae or no antennae"]},"question_order":[0],"trial_type":"survey-multi-select","trial_index":4,"time_elapsed":103227,"internal_node_id":"0.0-3.0-1.0","subject_id":"60b14c72faad384ddb2eb66c","study_id":"60edd13110225f80f9f3709b","session_id":"6196c4a5802110ba8a94fb38","condition":"full-information","relevant_dimensions":["antennae","wings"],"bee_group":{"antennae":"A","wings":"2","pattern":"X","legs":"X"},"correct":true,"bonus":0.800000000000001},{"rt":22716.10000000149,"response":{"Q1":"No.","Q2":"Based on the four features of the bee.","Q3":"You learn if it was friendly or dangerous, but do not alter your bonus."},"question_order":[0,1,2],"trial_type":"survey-multi-choice","trial_index":5,"time_elapsed":125947,"internal_node_id":"0.0-3.0-2.0","subject_id":"60b14c72faad384ddb2eb66c","study_id":"60edd13110225f80f9f3709b","session_id":"6196c4a5802110ba8a94fb38","condition":"full-information","relevant_dimensions":["antennae","wings"],"bee_group":{"antennae":"A","wings":"2","pattern":"X","legs":"X"},"correct":true,"bonus":0.800000000000001},{"rt":2215.2000000029802,"stimulus":"<p>Congrats, you got everything right<br>When you're ready, click the button below to continue to the experiment.</p>","response":0,"trial_type":"html-button-response","trial_index":6,"time_elapsed":128166,"internal_node_id":"0.0-3.0-3.0","subject_id":"60b14c72faad384ddb2eb66c","study_id":"60edd13110225f80f9f3709b","session_id":"6196c4a5802110ba8a94fb38","condition":"full-information","relevant_dimensions":["antennae","wings"],"bee_group":{"antennae":"A","wings":"2","pattern":"X","legs":"X"},"bonus":0.800000000000001},{"rt":5662.20000000298,"stimulus":"bees-with-color/bee-B1SM.svg","response":0,"trial_type":"image-button-response","trial_index":7,"time_elapsed":133830,"internal_node_id":"0.0-4.0-0.0","subject_id":"60b14c72faad384ddb2eb66c","study_id":"60edd13110225f80f9f3709b","session_id":"6196c4a5802110ba8a94fb38","condition":"full-information","relevant_dimensions":["antennae","wings"],"bee_group":{"antennae":"A","wings":"2","pattern":"X","legs":"X"},"action":"harvest","summary":"good-harvest","bonus":0.800000000000001},{"rt":5449.89999999851,"stimulus":"\n                    <p><b>Action: <em>harvest</em></b></p>\n                    <p>This is the bee that you just saw.</p>\n                    <img src=\"bees-with-color/bee-B1SM.svg\" width=\"200\">\n                    <p><span class=\"greenText\"><b>Successful harvest!</b></span><br>Your pay has increased by $0.02. Your bonus pay is now $0.56.</p>\n            ","response":0,"trial_type":"html-button-response","trial_index":8,"time_elapsed":139282,"internal_node_id":"0.0-4.0-1.0","subject_id":"60b14c72faad384ddb2eb66c","study_id":"60edd13110225f80f9f3709b","session_id":"6196c4a5802110ba8a94fb38","condition":"full-information","relevant_dimensions":["antennae","wings"],"bee_group":{"antennae":"A","wings":"2","pattern":"X","legs":"X"},"bonus":0.800000000000001},{"rt":5822.29999999702,"stimulus":"bees-with-color/bee-B2DM.svg","response":0,"trial_type":"image-button-response","trial_index":9,"time_elapsed":145105,"internal_node_id":"0.0-4.0-0.1","subject_id":"60b14c72faad384ddb2eb66c","study_id":"60edd13110225f80f9f3709b","session_id":"6196c4a5802110ba8a94fb38","condition":"full-information","relevant_dimensions":["antennae","wings"],"bee_group":{"antennae":"A","wings":"2","pattern":"X","legs":"X"},"action":"harvest","summary":"good-harvest","bonus":0.800000000000001},{"rt":5020.60000000149,"stimulus":"\n                    <p><b>Action: <em>harvest</em></b></p>\n                    <p>This is the bee that you just saw.</p>\n                    <img src=\"bees-with-color/bee-B2DM.svg\" width=\"200\">\n                    <p><span class=\"greenText\"><b>Successful harvest!</b></span><br>Your pay has increased by $0.02. Your bonus pay is now $0.58.</p>\n            ","response":0,"trial_type":"html-button-response","trial_index":10,"time_elapsed":150127,"internal_node_id":"0.0-4.0-1.1","subject_id":"60b14c72faad384ddb2eb66c","study_id":"60edd13110225f80f9f3709b","session_id":"6196c4a5802110ba8a94fb38","condition":"full-information","relevant_dimensions":["antennae","wings"],"bee_group":{"antennae":"A","wings":"2","pattern":"X","legs":"X"},"bonus":0.800000000000001},{"rt":4883.19999999553,"stimulus":"bees-with-color/bee-B1SF.svg","response":1,"trial_type":"image-button-response","trial_index":11,"time_elapsed":155012,"internal_node_id":"0.0-4.0-0.2","subject_id":"60b14c72faad384ddb2eb66c","study_id":"60edd13110225f80f9f3709b","session_id":"6196c4a5802110ba8a94fb38","condition":"full-information","relevant_dimensions":["antennae","wings"],"bee_group":{"antennae":"A","wings":"2","pattern":"X","legs":"X"},"action":"avoid","summary":"bad-avoid","bonus":0.800000000000001},{"rt":3395.8000000044703,"stimulus":"\n                    <p><b>Action: <em>avoid</em></b></p>\n                    <p>This is the bee that you just saw.</p>\n                    <img src=\"bees-with-color/bee-B1SF.svg\" width=\"200\">\n                    <p><span class=\"redText\">Bad choice,</span> the bee was friendly.<br>Your bonus pay is unchanged, and remains at $0.58.</p>\n            ","response":0,"trial_type":"html-button-response","trial_index":12,"time_elapsed":158410,"internal_node_id":"0.0-4.0-1.2","subject_id":"60b14c72faad384ddb2eb66c","study_id":"60edd13110225f80f9f3709b","session_id":"6196c4a5802110ba8a94fb38","condition":"full-information","relevant_dimensions":["antennae","wings"],"bee_group":{"antennae":"A","wings":"2","pattern":"X","legs":"X"},"bonus":0.800000000000001},{"rt":3480.60000000149,"stimulus":"bees-with-color/bee-B1DM.svg","response":0,"trial_type":"image-button-response","trial_index":13,"time_elapsed":161892,"internal_node_id":"0.0-4.0-0.3","subject_id":"60b14c72faad384ddb2eb66c","study_id":"60edd13110225f80f9f3709b","session_id":"6196c4a5802110ba8a94fb38","condition":"full-information","relevant_dimensions":["antennae","wings"],"bee_group":{"antennae":"A","wings":"2","pattern":"X","legs":"X"},"action":"harvest","summary":"good-harvest","bonus":0.800000000000001},{"rt":833,"stimulus":"\n                    <p><b>Action: <em>harvest</em></b></p>\n                    <p>This is the bee that you just saw.</p>\n                    <img src=\"bees-with-color/bee-B1DM.svg\" width=\"200\">\n                    <p><span class=\"greenText\"><b>Successful harvest!</b></span><br>Your pay has increased by $0.02. Your bonus pay is now $0.60.</p>\n            ","response":0,"trial_type":"html-button-response","trial_index":14,"time_elapsed":162726,"internal_node_id":"0.0-4.0-1.3","subject_id":"60b14c72faad384ddb2eb66c","study_id":"60edd13110225f80f9f3709b","session_id":"6196c4a5802110ba8a94fb38","condition":"full-information","relevant_dimensions":["antennae","wings"],"bee_group":{"antennae":"A","wings":"2","pattern":"X","legs":"X"},"bonus":0.800000000000001},{"rt":2670.60000000149,"stimulus":"bees-with-color/bee-A1SM.svg","response":0,"trial_type":"image-button-response","trial_index":15,"time_elapsed":165398,"internal_node_id":"0.0-4.0-0.4","subject_id":"60b14c72faad384ddb2eb66c","study_id":"60edd13110225f80f9f3709b","session_id":"6196c4a5802110ba8a94fb38","condition":"full-information","relevant_dimensions":["antennae","wings"],"bee_group":{"antennae":"A","wings":"2","pattern":"X","legs":"X"},"action":"harvest","summary":"good-harvest","bonus":0.800000000000001},{"rt":2205.89999999851,"stimulus":"\n                    <p><b>Action: <em>harvest</em></b></p>\n                    <p>This is the bee that you just saw.</p>\n                    <img src=\"bees-with-color/bee-A1SM.svg\" width=\"200\">\n                    <p><span class=\"greenText\"><b>Successful harvest!</b></span><br>Your pay has increased by $0.02. Your bonus pay is now $0.62.</p>\n            ","response":0,"trial_type":"html-button-response","trial_index":16,"time_elapsed":167605,"internal_node_id":"0.0-4.0-1.4","subject_id":"60b14c72faad384ddb2eb66c","study_id":"60edd13110225f80f9f3709b","session_id":"6196c4a5802110ba8a94fb38","condition":"full-information","relevant_dimensions":["antennae","wings"],"bee_group":{"antennae":"A","wings":"2","pattern":"X","legs":"X"},"bonus":0.800000000000001},{"rt":3941.7999999970198,"stimulus":"bees-with-color/bee-A2DM.svg","response":1,"trial_type":"image-button-response","trial_index":17,"time_elapsed":171548,"internal_node_id":"0.0-4.0-0.5","subject_id":"60b14c72faad384ddb2eb66c","study_id":"60edd13110225f80f9f3709b","session_id":"6196c4a5802110ba8a94fb38","condition":"full-information","relevant_dimensions":["antennae","wings"],"bee_group":{"antennae":"A","wings":"2","pattern":"X","legs":"X"},"action":"avoid","summary":"good-avoid","bonus":0.800000000000001},{"rt":2135.39999999851,"stimulus":"\n                    <p><b>Action: <em>avoid</em></b></p>\n                    <p>This is the bee that you just saw.</p>\n                    <img src=\"bees-with-color/bee-A2DM.svg\" width=\"200\">\n                    <p><span class=\"greenText\">Good choice!</span>  This bee would have stung you.<br>Your bonus pay is unchanged, and remains at $0.62.</p>\n            ","response":0,"trial_type":"html-button-response","trial_index":18,"time_elapsed":173685,"internal_node_id":"0.0-4.0-1.5","subject_id":"60b14c72faad384ddb2eb66c","study_id":"60edd13110225f80f9f3709b","session_id":"6196c4a5802110ba8a94fb38","condition":"full-information","relevant_dimensions":["antennae","wings"],"bee_group":{"antennae":"A","wings":"2","pattern":"X","legs":"X"},"bonus":0.800000000000001},{"rt":3041.5,"stimulus":"bees-with-color/bee-A2DF.svg","response":1,"trial_type":"image-button-response","trial_index":19,"time_elapsed":176728,"internal_node_id":"0.0-4.0-0.6","subject_id":"60b14c72faad384ddb2eb66c","study_id":"60edd13110225f80f9f3709b","session_id":"6196c4a5802110ba8a94fb38","condition":"full-information","relevant_dimensions":["antennae","wings"],"bee_group":{"antennae":"A","wings":"2","pattern":"X","legs":"X"},"action":"avoid","summary":"good-avoid","bonus":0.800000000000001},{"rt":2463.2000000029802,"stimulus":"\n                    <p><b>Action: <em>avoid</em></b></p>\n                    <p>This is the bee that you just saw.</p>\n                    <img src=\"bees-with-color/bee-A2DF.svg\" width=\"200\">\n                    <p><span class=\"greenText\">Good choice!</span>  This bee would have stung you.<br>Your bonus pay is unchanged, and remains at $0.62.</p>\n            ","response":0,"trial_type":"html-button-response","trial_index":20,"time_elapsed":179192,"internal_node_id":"0.0-4.0-1.6","subject_id":"60b14c72faad384ddb2eb66c","study_id":"60edd13110225f80f9f3709b","session_id":"6196c4a5802110ba8a94fb38","condition":"full-information","relevant_dimensions":["antennae","wings"],"bee_group":{"antennae":"A","wings":"2","pattern":"X","legs":"X"},"bonus":0.800000000000001},{"rt":2246.89999999851,"stimulus":"bees-with-color/bee-B2DF.svg","response":0,"trial_type":"image-button-response","trial_index":21,"time_elapsed":181440,"internal_node_id":"0.0-4.0-0.7","subject_id":"60b14c72faad384ddb2eb66c","study_id":"60edd13110225f80f9f3709b","session_id":"6196c4a5802110ba8a94fb38","condition":"full-information","relevant_dimensions":["antennae","wings"],"bee_group":{"antennae":"A","wings":"2","pattern":"X","legs":"X"},"action":"harvest","summary":"good-harvest","bonus":0.800000000000001},{"rt":1230,"stimulus":"\n                    <p><b>Action: <em>harvest</em></b></p>\n                    <p>This is the bee that you just saw.</p>\n                    <img src=\"bees-with-color/bee-B2DF.svg\" width=\"200\">\n                    <p><span class=\"greenText\"><b>Successful harvest!</b></span><br>Your pay has increased by $0.02. Your bonus pay is now $0.64.</p>\n            ","response":0,"trial_type":"html-button-response","trial_index":22,"time_elapsed":182671,"internal_node_id":"0.0-4.0-1.7","subject_id":"60b14c72faad384ddb2eb66c","study_id":"60edd13110225f80f9f3709b","session_id":"6196c4a5802110ba8a94fb38","condition":"full-information","relevant_dimensions":["antennae","wings"],"bee_group":{"antennae":"A","wings":"2","pattern":"X","legs":"X"},"bonus":0.800000000000001},{"rt":1812.2999999970198,"stimulus":"bees-with-color/bee-A1DF.svg","response":1,"trial_type":"image-button-response","trial_index":23,"time_elapsed":184485,"internal_node_id":"0.0-4.0-0.8","subject_id":"60b14c72faad384ddb2eb66c","study_id":"60edd13110225f80f9f3709b","session_id":"6196c4a5802110ba8a94fb38","condition":"full-information","relevant_dimensions":["antennae","wings"],"bee_group":{"antennae":"A","wings":"2","pattern":"X","legs":"X"},"action":"avoid","summary":"bad-avoid","bonus":0.800000000000001},{"rt":1049.6000000014901,"stimulus":"\n                    <p><b>Action: <em>avoid</em></b></p>\n                    <p>This is the bee that you just saw.</p>\n                    <img src=\"bees-with-color/bee-A1DF.svg\" width=\"200\">\n                    <p><span class=\"redText\">Bad choice,</span> the bee was friendly.<br>Your bonus pay is unchanged, and remains at $0.64.</p>\n            ","response":0,"trial_type":"html-button-response","trial_index":24,"time_elapsed":185536,"internal_node_id":"0.0-4.0-1.8","subject_id":"60b14c72faad384ddb2eb66c","study_id":"60edd13110225f80f9f3709b","session_id":"6196c4a5802110ba8a94fb38","condition":"full-information","relevant_dimensions":["antennae","wings"],"bee_group":{"antennae":"A","wings":"2","pattern":"X","legs":"X"},"bonus":0.800000000000001},{"rt":1442.3000000044703,"stimulus":"bees-with-color/bee-B2SM.svg","response":0,"trial_type":"image-button-response","trial_index":25,"time_elapsed":186979,"internal_node_id":"0.0-4.0-0.9","subject_id":"60b14c72faad384ddb2eb66c","study_id":"60edd13110225f80f9f3709b","session_id":"6196c4a5802110ba8a94fb38","condition":"full-information","relevant_dimensions":["antennae","wings"],"bee_group":{"antennae":"A","wings":"2","pattern":"X","legs":"X"},"action":"harvest","summary":"good-harvest","bonus":0.800000000000001},{"rt":1045.8000000044703,"stimulus":"\n                    <p><b>Action: <em>harvest</em></b></p>\n                    <p>This is the bee that you just saw.</p>\n                    <img src=\"bees-with-color/bee-B2SM.svg\" width=\"200\">\n                    <p><span class=\"greenText\"><b>Successful harvest!</b></span><br>Your pay has increased by $0.02. Your bonus pay is now $0.66.</p>\n            ","response":0,"trial_type":"html-button-response","trial_index":26,"time_elapsed":188026,"internal_node_id":"0.0-4.0-1.9","subject_id":"60b14c72faad384ddb2eb66c","study_id":"60edd13110225f80f9f3709b","session_id":"6196c4a5802110ba8a94fb38","condition":"full-information","relevant_dimensions":["antennae","wings"],"bee_group":{"antennae":"A","wings":"2","pattern":"X","legs":"X"},"bonus":0.800000000000001},{"rt":1981,"stimulus":"bees-with-color/bee-A1DM.svg","response":0,"trial_type":"image-button-response","trial_index":27,"time_elapsed":190008,"internal_node_id":"0.0-4.0-0.10","subject_id":"60b14c72faad384ddb2eb66c","study_id":"60edd13110225f80f9f3709b","session_id":"6196c4a5802110ba8a94fb38","condition":"full-information","relevant_dimensions":["antennae","wings"],"bee_group":{"antennae":"A","wings":"2","pattern":"X","legs":"X"},"action":"harvest","summary":"good-harvest","bonus":0.800000000000001},{"rt":843,"stimulus":"\n                    <p><b>Action: <em>harvest</em></b></p>\n                    <p>This is the bee that you just saw.</p>\n                    <img src=\"bees-with-color/bee-A1DM.svg\" width=\"200\">\n                    <p><span class=\"greenText\"><b>Successful harvest!</b></span><br>Your pay has increased by $0.02. Your bonus pay is now $0.68.</p>\n            ","response":0,"trial_type":"html-button-response","trial_index":28,"time_elapsed":190852,"internal_node_id":"0.0-4.0-1.10","subject_id":"60b14c72faad384ddb2eb66c","study_id":"60edd13110225f80f9f3709b","session_id":"6196c4a5802110ba8a94fb38","condition":"full-information","relevant_dimensions":["antennae","wings"],"bee_group":{"antennae":"A","wings":"2","pattern":"X","legs":"X"},"bonus":0.800000000000001},{"rt":1417,"stimulus":"bees-with-color/bee-A1SF.svg","response":0,"trial_type":"image-button-response","trial_index":29,"time_elapsed":192270,"internal_node_id":"0.0-4.0-0.11","subject_id":"60b14c72faad384ddb2eb66c","study_id":"60edd13110225f80f9f3709b","session_id":"6196c4a5802110ba8a94fb38","condition":"full-information","relevant_dimensions":["antennae","wings"],"bee_group":{"antennae":"A","wings":"2","pattern":"X","legs":"X"},"action":"harvest","summary":"good-harvest","bonus":0.800000000000001},{"rt":656.6000000014901,"stimulus":"\n                    <p><b>Action: <em>harvest</em></b></p>\n                    <p>This is the bee that you just saw.</p>\n                    <img src=\"bees-with-color/bee-A1SF.svg\" width=\"200\">\n                    <p><span class=\"greenText\"><b>Successful harvest!</b></span><br>Your pay has increased by $0.02. Your bonus pay is now $0.70.</p>\n            ","response":0,"trial_type":"html-button-response","trial_index":30,"time_elapsed":192928,"internal_node_id":"0.0-4.0-1.11","subject_id":"60b14c72faad384ddb2eb66c","study_id":"60edd13110225f80f9f3709b","session_id":"6196c4a5802110ba8a94fb38","condition":"full-information","relevant_dimensions":["antennae","wings"],"bee_group":{"antennae":"A","wings":"2","pattern":"X","legs":"X"},"bonus":0.800000000000001},{"rt":2105.89999999851,"stimulus":"bees-with-color/bee-B2SF.svg","response":0,"trial_type":"image-button-response","trial_index":31,"time_elapsed":195035,"internal_node_id":"0.0-4.0-0.12","subject_id":"60b14c72faad384ddb2eb66c","study_id":"60edd13110225f80f9f3709b","session_id":"6196c4a5802110ba8a94fb38","condition":"full-information","relevant_dimensions":["antennae","wings"],"bee_group":{"antennae":"A","wings":"2","pattern":"X","legs":"X"},"action":"harvest","summary":"good-harvest","bonus":0.800000000000001},{"rt":1018,"stimulus":"\n                    <p><b>Action: <em>harvest</em></b></p>\n                    <p>This is the bee that you just saw.</p>\n                    <img src=\"bees-with-color/bee-B2SF.svg\" width=\"200\">\n                    <p><span class=\"greenText\"><b>Successful harvest!</b></span><br>Your pay has increased by $0.02. Your bonus pay is now $0.72.</p>\n            ","response":0,"trial_type":"html-button-response","trial_index":32,"time_elapsed":196054,"internal_node_id":"0.0-4.0-1.12","subject_id":"60b14c72faad384ddb2eb66c","study_id":"60edd13110225f80f9f3709b","session_id":"6196c4a5802110ba8a94fb38","condition":"full-information","relevant_dimensions":["antennae","wings"],"bee_group":{"antennae":"A","wings":"2","pattern":"X","legs":"X"},"bonus":0.800000000000001},{"rt":1545.7000000029802,"stimulus":"bees-with-color/bee-B1DF.svg","response":1,"trial_type":"image-button-response","trial_index":33,"time_elapsed":197601,"internal_node_id":"0.0-4.0-0.13","subject_id":"60b14c72faad384ddb2eb66c","study_id":"60edd13110225f80f9f3709b","session_id":"6196c4a5802110ba8a94fb38","condition":"full-information","relevant_dimensions":["antennae","wings"],"bee_group":{"antennae":"A","wings":"2","pattern":"X","legs":"X"},"action":"avoid","summary":"bad-avoid","bonus":0.800000000000001},{"rt":935.1000000014901,"stimulus":"\n                    <p><b>Action: <em>avoid</em></b></p>\n                    <p>This is the bee that you just saw.</p>\n                    <img src=\"bees-with-color/bee-B1DF.svg\" width=\"200\">\n                    <p><span class=\"redText\">Bad choice,</span> the bee was friendly.<br>Your bonus pay is unchanged, and remains at $0.72.</p>\n            ","response":0,"trial_type":"html-button-response","trial_index":34,"time_elapsed":198537,"internal_node_id":"0.0-4.0-1.13","subject_id":"60b14c72faad384ddb2eb66c","study_id":"60edd13110225f80f9f3709b","session_id":"6196c4a5802110ba8a94fb38","condition":"full-information","relevant_dimensions":["antennae","wings"],"bee_group":{"antennae":"A","wings":"2","pattern":"X","legs":"X"},"bonus":0.800000000000001},{"rt":1087.3000000044703,"stimulus":"bees-with-color/bee-A2SM.svg","response":0,"trial_type":"image-button-response","trial_index":35,"time_elapsed":199625,"internal_node_id":"0.0-4.0-0.14","subject_id":"60b14c72faad384ddb2eb66c","study_id":"60edd13110225f80f9f3709b","session_id":"6196c4a5802110ba8a94fb38","condition":"full-information","relevant_dimensions":["antennae","wings"],"bee_group":{"antennae":"A","wings":"2","pattern":"X","legs":"X"},"action":"harvest","summary":"bad-harvest","bonus":0.800000000000001},{"rt":2345.60000000149,"stimulus":"\n                    <p><b>Action: <em>harvest</em></b></p>\n                    <p>This is the bee that you just saw.</p>\n                    <img src=\"bees-with-color/bee-A2SM.svg\" width=\"200\">\n                    <p><span class=\"redText\">Bad choice, the bee was angry.</span><br><b>You have been stung!</b><br>Your pay has been decreased by $0.10. Your bonus pay is now $0.62.</p>\n            ","response":0,"trial_type":"html-button-response","trial_index":36,"time_elapsed":201972,"internal_node_id":"0.0-4.0-1.14","subject_id":"60b14c72faad384ddb2eb66c","study_id":"60edd13110225f80f9f3709b","session_id":"6196c4a5802110ba8a94fb38","condition":"full-information","relevant_dimensions":["antennae","wings"],"bee_group":{"antennae":"A","wings":"2","pattern":"X","legs":"X"},"bonus":0.800000000000001},{"rt":1220.1000000014901,"stimulus":"bees-with-color/bee-A2SF.svg","response":0,"trial_type":"image-button-response","trial_index":37,"time_elapsed":203193,"internal_node_id":"0.0-4.0-0.15","subject_id":"60b14c72faad384ddb2eb66c","study_id":"60edd13110225f80f9f3709b","session_id":"6196c4a5802110ba8a94fb38","condition":"full-information","relevant_dimensions":["antennae","wings"],"bee_group":{"antennae":"A","wings":"2","pattern":"X","legs":"X"},"action":"harvest","summary":"bad-harvest","bonus":0.800000000000001},{"rt":10559.10000000149,"stimulus":"\n                    <p><b>Action: <em>harvest</em></b></p>\n                    <p>This is the bee that you just saw.</p>\n                    <img src=\"bees-with-color/bee-A2SF.svg\" width=\"200\">\n                    <p><span class=\"redText\">Bad choice, the bee was angry.</span><br><b>You have been stung!</b><br>Your pay has been decreased by $0.10. Your bonus pay is now $0.52.</p>\n            ","response":0,"trial_type":"html-button-response","trial_index":38,"time_elapsed":213753,"internal_node_id":"0.0-4.0-1.15","subject_id":"60b14c72faad384ddb2eb66c","study_id":"60edd13110225f80f9f3709b","session_id":"6196c4a5802110ba8a94fb38","condition":"full-information","relevant_dimensions":["antennae","wings"],"bee_group":{"antennae":"A","wings":"2","pattern":"X","legs":"X"},"bonus":0.800000000000001},{"rt":2255.5,"stimulus":"bees-with-color/bee-B1DM.svg","response":0,"trial_type":"image-button-response","trial_index":39,"time_elapsed":216010,"internal_node_id":"0.0-4.0-0.16","subject_id":"60b14c72faad384ddb2eb66c","study_id":"60edd13110225f80f9f3709b","session_id":"6196c4a5802110ba8a94fb38","condition":"full-information","relevant_dimensions":["antennae","wings"],"bee_group":{"antennae":"A","wings":"2","pattern":"X","legs":"X"},"action":"harvest","summary":"good-harvest","bonus":0.800000000000001},{"rt":648,"stimulus":"\n                    <p><b>Action: <em>harvest</em></b></p>\n                    <p>This is the bee that you just saw.</p>\n                    <img src=\"bees-with-color/bee-B1DM.svg\" width=\"200\">\n                    <p><span class=\"greenText\"><b>Successful harvest!</b></span><br>Your pay has increased by $0.02. Your bonus pay is now $0.54.</p>\n            ","response":0,"trial_type":"html-button-response","trial_index":40,"time_elapsed":216659,"internal_node_id":"0.0-4.0-1.16","subject_id":"60b14c72faad384ddb2eb66c","study_id":"60edd13110225f80f9f3709b","session_id":"6196c4a5802110ba8a94fb38","condition":"full-information","relevant_dimensions":["antennae","wings"],"bee_group":{"antennae":"A","wings":"2","pattern":"X","legs":"X"},"bonus":0.800000000000001},{"rt":1552.5,"stimulus":"bees-with-color/bee-B1DF.svg","response":0,"trial_type":"image-button-response","trial_index":41,"time_elapsed":218212,"internal_node_id":"0.0-4.0-0.17","subject_id":"60b14c72faad384ddb2eb66c","study_id":"60edd13110225f80f9f3709b","session_id":"6196c4a5802110ba8a94fb38","condition":"full-information","relevant_dimensions":["antennae","wings"],"bee_group":{"antennae":"A","wings":"2","pattern":"X","legs":"X"},"action":"harvest","summary":"good-harvest","bonus":0.800000000000001},{"rt":593.7999999970198,"stimulus":"\n                    <p><b>Action: <em>harvest</em></b></p>\n                    <p>This is the bee that you just saw.</p>\n                    <img src=\"bees-with-color/bee-B1DF.svg\" width=\"200\">\n                    <p><span class=\"greenText\"><b>Successful harvest!</b></span><br>Your pay has increased by $0.02. Your bonus pay is now $0.56.</p>\n            ","response":0,"trial_type":"html-button-response","trial_index":42,"time_elapsed":218807,"internal_node_id":"0.0-4.0-1.17","subject_id":"60b14c72faad384ddb2eb66c","study_id":"60edd13110225f80f9f3709b","session_id":"6196c4a5802110ba8a94fb38","condition":"full-information","relevant_dimensions":["antennae","wings"],"bee_group":{"antennae":"A","wings":"2","pattern":"X","legs":"X"},"bonus":0.800000000000001},{"rt":4263.10000000149,"stimulus":"bees-with-color/bee-B2DF.svg","response":0,"trial_type":"image-button-response","trial_index":43,"time_elapsed":223071,"internal_node_id":"0.0-4.0-0.18","subject_id":"60b14c72faad384ddb2eb66c","study_id":"60edd13110225f80f9f3709b","session_id":"6196c4a5802110ba8a94fb38","condition":"full-information","relevant_dimensions":["antennae","wings"],"bee_group":{"antennae":"A","wings":"2","pattern":"X","legs":"X"},"action":"harvest","summary":"good-harvest","bonus":0.800000000000001},{"rt":551.8999999985099,"stimulus":"\n                    <p><b>Action: <em>harvest</em></b></p>\n                    <p>This is the bee that you just saw.</p>\n                    <img src=\"bees-with-color/bee-B2DF.svg\" width=\"200\">\n                    <p><span class=\"greenText\"><b>Successful harvest!</b></span><br>Your pay has increased by $0.02. Your bonus pay is now $0.58.</p>\n            ","response":0,"trial_type":"html-button-response","trial_index":44,"time_elapsed":223623,"internal_node_id":"0.0-4.0-1.18","subject_id":"60b14c72faad384ddb2eb66c","study_id":"60edd13110225f80f9f3709b","session_id":"6196c4a5802110ba8a94fb38","condition":"full-information","relevant_dimensions":["antennae","wings"],"bee_group":{"antennae":"A","wings":"2","pattern":"X","legs":"X"},"bonus":0.800000000000001},{"rt":1889.5,"stimulus":"bees-with-color/bee-A2SF.svg","response":1,"trial_type":"image-button-response","trial_index":45,"time_elapsed":225514,"internal_node_id":"0.0-4.0-0.19","subject_id":"60b14c72faad384ddb2eb66c","study_id":"60edd13110225f80f9f3709b","session_id":"6196c4a5802110ba8a94fb38","condition":"full-information","relevant_dimensions":["antennae","wings"],"bee_group":{"antennae":"A","wings":"2","pattern":"X","legs":"X"},"action":"avoid","summary":"good-avoid","bonus":0.800000000000001},{"rt":839,"stimulus":"\n                    <p><b>Action: <em>avoid</em></b></p>\n                    <p>This is the bee that you just saw.</p>\n                    <img src=\"bees-with-color/bee-A2SF.svg\" width=\"200\">\n                    <p><span class=\"greenText\">Good choice!</span>  This bee would have stung you.<br>Your bonus pay is unchanged, and remains at $0.58.</p>\n            ","response":0,"trial_type":"html-button-response","trial_index":46,"time_elapsed":226355,"internal_node_id":"0.0-4.0-1.19","subject_id":"60b14c72faad384ddb2eb66c","study_id":"60edd13110225f80f9f3709b","session_id":"6196c4a5802110ba8a94fb38","condition":"full-information","relevant_dimensions":["antennae","wings"],"bee_group":{"antennae":"A","wings":"2","pattern":"X","legs":"X"},"bonus":0.800000000000001},{"rt":2231.5,"stimulus":"bees-with-color/bee-A1SF.svg","response":0,"trial_type":"image-button-response","trial_index":47,"time_elapsed":228587,"internal_node_id":"0.0-4.0-0.20","subject_id":"60b14c72faad384ddb2eb66c","study_id":"60edd13110225f80f9f3709b","session_id":"6196c4a5802110ba8a94fb38","condition":"full-information","relevant_dimensions":["antennae","wings"],"bee_group":{"antennae":"A","wings":"2","pattern":"X","legs":"X"},"action":"harvest","summary":"good-harvest","bonus":0.800000000000001},{"rt":635.8999999985099,"stimulus":"\n                    <p><b>Action: <em>harvest</em></b></p>\n                    <p>This is the bee that you just saw.</p>\n                    <img src=\"bees-with-color/bee-A1SF.svg\" width=\"200\">\n                    <p><span class=\"greenText\"><b>Successful harvest!</b></span><br>Your pay has increased by $0.02. Your bonus pay is now $0.60.</p>\n            ","response":0,"trial_type":"html-button-response","trial_index":48,"time_elapsed":229225,"internal_node_id":"0.0-4.0-1.20","subject_id":"60b14c72faad384ddb2eb66c","study_id":"60edd13110225f80f9f3709b","session_id":"6196c4a5802110ba8a94fb38","condition":"full-information","relevant_dimensions":["antennae","wings"],"bee_group":{"antennae":"A","wings":"2","pattern":"X","legs":"X"},"bonus":0.800000000000001},{"rt":938,"stimulus":"bees-with-color/bee-B1SF.svg","response":0,"trial_type":"image-button-response","trial_index":49,"time_elapsed":230164,"internal_node_id":"0.0-4.0-0.21","subject_id":"60b14c72faad384ddb2eb66c","study_id":"60edd13110225f80f9f3709b","session_id":"6196c4a5802110ba8a94fb38","condition":"full-information","relevant_dimensions":["antennae","wings"],"bee_group":{"antennae":"A","wings":"2","pattern":"X","legs":"X"},"action":"harvest","summary":"good-harvest","bonus":0.800000000000001},{"rt":614.7000000029802,"stimulus":"\n                    <p><b>Action: <em>harvest</em></b></p>\n                    <p>This is the bee that you just saw.</p>\n                    <img src=\"bees-with-color/bee-B1SF.svg\" width=\"200\">\n                    <p><span class=\"greenText\"><b>Successful harvest!</b></span><br>Your pay has increased by $0.02. Your bonus pay is now $0.62.</p>\n            ","response":0,"trial_type":"html-button-response","trial_index":50,"time_elapsed":230779,"internal_node_id":"0.0-4.0-1.21","subject_id":"60b14c72faad384ddb2eb66c","study_id":"60edd13110225f80f9f3709b","session_id":"6196c4a5802110ba8a94fb38","condition":"full-information","relevant_dimensions":["antennae","wings"],"bee_group":{"antennae":"A","wings":"2","pattern":"X","legs":"X"},"bonus":0.800000000000001},{"rt":3561.2000000029802,"stimulus":"bees-with-color/bee-B2SM.svg","response":1,"trial_type":"image-button-response","trial_index":51,"time_elapsed":234341,"internal_node_id":"0.0-4.0-0.22","subject_id":"60b14c72faad384ddb2eb66c","study_id":"60edd13110225f80f9f3709b","session_id":"6196c4a5802110ba8a94fb38","condition":"full-information","relevant_dimensions":["antennae","wings"],"bee_group":{"antennae":"A","wings":"2","pattern":"X","legs":"X"},"action":"avoid","summary":"bad-avoid","bonus":0.800000000000001},{"rt":723.8999999985099,"stimulus":"\n                    <p><b>Action: <em>avoid</em></b></p>\n                    <p>This is the bee that you just saw.</p>\n                    <img src=\"bees-with-color/bee-B2SM.svg\" width=\"200\">\n                    <p><span class=\"redText\">Bad choice,</span> the bee was friendly.<br>Your bonus pay is unchanged, and remains at $0.62.</p>\n            ","response":0,"trial_type":"html-button-response","trial_index":52,"time_elapsed":235066,"internal_node_id":"0.0-4.0-1.22","subject_id":"60b14c72faad384ddb2eb66c","study_id":"60edd13110225f80f9f3709b","session_id":"6196c4a5802110ba8a94fb38","condition":"full-information","relevant_dimensions":["antennae","wings"],"bee_group":{"antennae":"A","wings":"2","pattern":"X","legs":"X"},"bonus":0.800000000000001},{"rt":2308.10000000149,"stimulus":"bees-with-color/bee-A2DM.svg","response":1,"trial_type":"image-button-response","trial_index":53,"time_elapsed":237375,"internal_node_id":"0.0-4.0-0.23","subject_id":"60b14c72faad384ddb2eb66c","study_id":"60edd13110225f80f9f3709b","session_id":"6196c4a5802110ba8a94fb38","condition":"full-information","relevant_dimensions":["antennae","wings"],"bee_group":{"antennae":"A","wings":"2","pattern":"X","legs":"X"},"action":"avoid","summary":"good-avoid","bonus":0.800000000000001},{"rt":665.1000000014901,"stimulus":"\n                    <p><b>Action: <em>avoid</em></b></p>\n                    <p>This is the bee that you just saw.</p>\n                    <img src=\"bees-with-color/bee-A2DM.svg\" width=\"200\">\n                    <p><span class=\"greenText\">Good choice!</span>  This bee would have stung you.<br>Your bonus pay is unchanged, and remains at $0.62.</p>\n            ","response":0,"trial_type":"html-button-response","trial_index":54,"time_elapsed":238041,"internal_node_id":"0.0-4.0-1.23","subject_id":"60b14c72faad384ddb2eb66c","study_id":"60edd13110225f80f9f3709b","session_id":"6196c4a5802110ba8a94fb38","condition":"full-information","relevant_dimensions":["antennae","wings"],"bee_group":{"antennae":"A","wings":"2","pattern":"X","legs":"X"},"bonus":0.800000000000001},{"rt":1168,"stimulus":"bees-with-color/bee-A1DF.svg","response":0,"trial_type":"image-button-response","trial_index":55,"time_elapsed":239210,"internal_node_id":"0.0-4.0-0.24","subject_id":"60b14c72faad384ddb2eb66c","study_id":"60edd13110225f80f9f3709b","session_id":"6196c4a5802110ba8a94fb38","condition":"full-information","relevant_dimensions":["antennae","wings"],"bee_group":{"antennae":"A","wings":"2","pattern":"X","legs":"X"},"action":"harvest","summary":"good-harvest","bonus":0.800000000000001},{"rt":539,"stimulus":"\n                    <p><b>Action: <em>harvest</em></b></p>\n                    <p>This is the bee that you just saw.</p>\n                    <img src=\"bees-with-color/bee-A1DF.svg\" width=\"200\">\n                    <p><span class=\"greenText\"><b>Successful harvest!</b></span><br>Your pay has increased by $0.02. Your bonus pay is now $0.64.</p>\n            ","response":0,"trial_type":"html-button-response","trial_index":56,"time_elapsed":239750,"internal_node_id":"0.0-4.0-1.24","subject_id":"60b14c72faad384ddb2eb66c","study_id":"60edd13110225f80f9f3709b","session_id":"6196c4a5802110ba8a94fb38","condition":"full-information","relevant_dimensions":["antennae","wings"],"bee_group":{"antennae":"A","wings":"2","pattern":"X","legs":"X"},"bonus":0.800000000000001},{"rt":3903.3000000044703,"stimulus":"bees-with-color/bee-A1DM.svg","response":0,"trial_type":"image-button-response","trial_index":57,"time_elapsed":243655,"internal_node_id":"0.0-4.0-0.25","subject_id":"60b14c72faad384ddb2eb66c","study_id":"60edd13110225f80f9f3709b","session_id":"6196c4a5802110ba8a94fb38","condition":"full-information","relevant_dimensions":["antennae","wings"],"bee_group":{"antennae":"A","wings":"2","pattern":"X","legs":"X"},"action":"harvest","summary":"good-harvest","bonus":0.800000000000001},{"rt":682.8000000044703,"stimulus":"\n                    <p><b>Action: <em>harvest</em></b></p>\n                    <p>This is the bee that you just saw.</p>\n                    <img src=\"bees-with-color/bee-A1DM.svg\" width=\"200\">\n                    <p><span class=\"greenText\"><b>Successful harvest!</b></span><br>Your pay has increased by $0.02. Your bonus pay is now $0.66.</p>\n            ","response":0,"trial_type":"html-button-response","trial_index":58,"time_elapsed":244339,"internal_node_id":"0.0-4.0-1.25","subject_id":"60b14c72faad384ddb2eb66c","study_id":"60edd13110225f80f9f3709b","session_id":"6196c4a5802110ba8a94fb38","condition":"full-information","relevant_dimensions":["antennae","wings"],"bee_group":{"antennae":"A","wings":"2","pattern":"X","legs":"X"},"bonus":0.800000000000001},{"rt":2009.7000000029802,"stimulus":"bees-with-color/bee-B2DM.svg","response":1,"trial_type":"image-button-response","trial_index":59,"time_elapsed":246349,"internal_node_id":"0.0-4.0-0.26","subject_id":"60b14c72faad384ddb2eb66c","study_id":"60edd13110225f80f9f3709b","session_id":"6196c4a5802110ba8a94fb38","condition":"full-information","relevant_dimensions":["antennae","wings"],"bee_group":{"antennae":"A","wings":"2","pattern":"X","legs":"X"},"action":"avoid","summary":"bad-avoid","bonus":0.800000000000001},{"rt":663,"stimulus":"\n                    <p><b>Action: <em>avoid</em></b></p>\n                    <p>This is the bee that you just saw.</p>\n                    <img src=\"bees-with-color/bee-B2DM.svg\" width=\"200\">\n                    <p><span class=\"redText\">Bad choice,</span> the bee was friendly.<br>Your bonus pay is unchanged, and remains at $0.66.</p>\n            ","response":0,"trial_type":"html-button-response","trial_index":60,"time_elapsed":247013,"internal_node_id":"0.0-4.0-1.26","subject_id":"60b14c72faad384ddb2eb66c","study_id":"60edd13110225f80f9f3709b","session_id":"6196c4a5802110ba8a94fb38","condition":"full-information","relevant_dimensions":["antennae","wings"],"bee_group":{"antennae":"A","wings":"2","pattern":"X","legs":"X"},"bonus":0.800000000000001},{"rt":1033,"stimulus":"bees-with-color/bee-A2DF.svg","response":0,"trial_type":"image-button-response","trial_index":61,"time_elapsed":248047,"internal_node_id":"0.0-4.0-0.27","subject_id":"60b14c72faad384ddb2eb66c","study_id":"60edd13110225f80f9f3709b","session_id":"6196c4a5802110ba8a94fb38","condition":"full-information","relevant_dimensions":["antennae","wings"],"bee_group":{"antennae":"A","wings":"2","pattern":"X","legs":"X"},"action":"harvest","summary":"bad-harvest","bonus":0.800000000000001},{"rt":751.7999999970198,"stimulus":"\n                    <p><b>Action: <em>harvest</em></b></p>\n                    <p>This is the bee that you just saw.</p>\n                    <img src=\"bees-with-color/bee-A2DF.svg\" width=\"200\">\n                    <p><span class=\"redText\">Bad choice, the bee was angry.</span><br><b>You have been stung!</b><br>Your pay has been decreased by $0.10. Your bonus pay is now $0.56.</p>\n            ","response":0,"trial_type":"html-button-response","trial_index":62,"time_elapsed":248800,"internal_node_id":"0.0-4.0-1.27","subject_id":"60b14c72faad384ddb2eb66c","study_id":"60edd13110225f80f9f3709b","session_id":"6196c4a5802110ba8a94fb38","condition":"full-information","relevant_dimensions":["antennae","wings"],"bee_group":{"antennae":"A","wings":"2","pattern":"X","legs":"X"},"bonus":0.800000000000001},{"rt":1782.2000000029802,"stimulus":"bees-with-color/bee-A1SM.svg","response":0,"trial_type":"image-button-response","trial_index":63,"time_elapsed":250584,"internal_node_id":"0.0-4.0-0.28","subject_id":"60b14c72faad384ddb2eb66c","study_id":"60edd13110225f80f9f3709b","session_id":"6196c4a5802110ba8a94fb38","condition":"full-information","relevant_dimensions":["antennae","wings"],"bee_group":{"antennae":"A","wings":"2","pattern":"X","legs":"X"},"action":"harvest","summary":"good-harvest","bonus":0.800000000000001},{"rt":517.9000000059605,"stimulus":"\n                    <p><b>Action: <em>harvest</em></b></p>\n                    <p>This is the bee that you just saw.</p>\n                    <img src=\"bees-with-color/bee-A1SM.svg\" width=\"200\">\n                    <p><span class=\"greenText\"><b>Successful harvest!</b></span><br>Your pay has increased by $0.02. Your bonus pay is now $0.58.</p>\n            ","response":0,"trial_type":"html-button-response","trial_index":64,"time_elapsed":251103,"internal_node_id":"0.0-4.0-1.28","subject_id":"60b14c72faad384ddb2eb66c","study_id":"60edd13110225f80f9f3709b","session_id":"6196c4a5802110ba8a94fb38","condition":"full-information","relevant_dimensions":["antennae","wings"],"bee_group":{"antennae":"A","wings":"2","pattern":"X","legs":"X"},"bonus":0.800000000000001},{"rt":3967,"stimulus":"bees-with-color/bee-A2SM.svg","response":1,"trial_type":"image-button-response","trial_index":65,"time_elapsed":255071,"internal_node_id":"0.0-4.0-0.29","subject_id":"60b14c72faad384ddb2eb66c","study_id":"60edd13110225f80f9f3709b","session_id":"6196c4a5802110ba8a94fb38","condition":"full-information","relevant_dimensions":["antennae","wings"],"bee_group":{"antennae":"A","wings":"2","pattern":"X","legs":"X"},"action":"avoid","summary":"good-avoid","bonus":0.800000000000001},{"rt":607.1000000014901,"stimulus":"\n                    <p><b>Action: <em>avoid</em></b></p>\n                    <p>This is the bee that you just saw.</p>\n                    <img src=\"bees-with-color/bee-A2SM.svg\" width=\"200\">\n                    <p><span class=\"greenText\">Good choice!</span>  This bee would have stung you.<br>Your bonus pay is unchanged, and remains at $0.58.</p>\n            ","response":0,"trial_type":"html-button-response","trial_index":66,"time_elapsed":255679,"internal_node_id":"0.0-4.0-1.29","subject_id":"60b14c72faad384ddb2eb66c","study_id":"60edd13110225f80f9f3709b","session_id":"6196c4a5802110ba8a94fb38","condition":"full-information","relevant_dimensions":["antennae","wings"],"bee_group":{"antennae":"A","wings":"2","pattern":"X","legs":"X"},"bonus":0.800000000000001},{"rt":768.9000000059605,"stimulus":"bees-with-color/bee-B2SF.svg","response":0,"trial_type":"image-button-response","trial_index":67,"time_elapsed":256449,"internal_node_id":"0.0-4.0-0.30","subject_id":"60b14c72faad384ddb2eb66c","study_id":"60edd13110225f80f9f3709b","session_id":"6196c4a5802110ba8a94fb38","condition":"full-information","relevant_dimensions":["antennae","wings"],"bee_group":{"antennae":"A","wings":"2","pattern":"X","legs":"X"},"action":"harvest","summary":"good-harvest","bonus":0.800000000000001},{"rt":444.80000000447035,"stimulus":"\n                    <p><b>Action: <em>harvest</em></b></p>\n                    <p>This is the bee that you just saw.</p>\n                    <img src=\"bees-with-color/bee-B2SF.svg\" width=\"200\">\n                    <p><span class=\"greenText\"><b>Successful harvest!</b></span><br>Your pay has increased by $0.02. Your bonus pay is now $0.60.</p>\n            ","response":0,"trial_type":"html-button-response","trial_index":68,"time_elapsed":256895,"internal_node_id":"0.0-4.0-1.30","subject_id":"60b14c72faad384ddb2eb66c","study_id":"60edd13110225f80f9f3709b","session_id":"6196c4a5802110ba8a94fb38","condition":"full-information","relevant_dimensions":["antennae","wings"],"bee_group":{"antennae":"A","wings":"2","pattern":"X","legs":"X"},"bonus":0.800000000000001},{"rt":1777.0999999940395,"stimulus":"bees-with-color/bee-B1SM.svg","response":0,"trial_type":"image-button-response","trial_index":69,"time_elapsed":258673,"internal_node_id":"0.0-4.0-0.31","subject_id":"60b14c72faad384ddb2eb66c","study_id":"60edd13110225f80f9f3709b","session_id":"6196c4a5802110ba8a94fb38","condition":"full-information","relevant_dimensions":["antennae","wings"],"bee_group":{"antennae":"A","wings":"2","pattern":"X","legs":"X"},"action":"harvest","summary":"good-harvest","bonus":0.800000000000001},{"rt":584,"stimulus":"\n                    <p><b>Action: <em>harvest</em></b></p>\n                    <p>This is the bee that you just saw.</p>\n                    <img src=\"bees-with-color/bee-B1SM.svg\" width=\"200\">\n                    <p><span class=\"greenText\"><b>Successful harvest!</b></span><br>Your pay has increased by $0.02. Your bonus pay is now $0.62.</p>\n            ","response":0,"trial_type":"html-button-response","trial_index":70,"time_elapsed":259258,"internal_node_id":"0.0-4.0-1.31","subject_id":"60b14c72faad384ddb2eb66c","study_id":"60edd13110225f80f9f3709b","session_id":"6196c4a5802110ba8a94fb38","condition":"full-information","relevant_dimensions":["antennae","wings"],"bee_group":{"antennae":"A","wings":"2","pattern":"X","legs":"X"},"bonus":0.800000000000001},{"rt":1277.7999999970198,"stimulus":"bees-with-color/bee-A2DM.svg","response":1,"trial_type":"image-button-response","trial_index":71,"time_elapsed":260536,"internal_node_id":"0.0-4.0-0.32","subject_id":"60b14c72faad384ddb2eb66c","study_id":"60edd13110225f80f9f3709b","session_id":"6196c4a5802110ba8a94fb38","condition":"full-information","relevant_dimensions":["antennae","wings"],"bee_group":{"antennae":"A","wings":"2","pattern":"X","legs":"X"},"action":"avoid","summary":"good-avoid","bonus":0.800000000000001},{"rt":570,"stimulus":"\n                    <p><b>Action: <em>avoid</em></b></p>\n                    <p>This is the bee that you just saw.</p>\n                    <img src=\"bees-with-color/bee-A2DM.svg\" width=\"200\">\n                    <p><span class=\"greenText\">Good choice!</span>  This bee would have stung you.<br>Your bonus pay is unchanged, and remains at $0.62.</p>\n            ","response":0,"trial_type":"html-button-response","trial_index":72,"time_elapsed":261107,"internal_node_id":"0.0-4.0-1.32","subject_id":"60b14c72faad384ddb2eb66c","study_id":"60edd13110225f80f9f3709b","session_id":"6196c4a5802110ba8a94fb38","condition":"full-information","relevant_dimensions":["antennae","wings"],"bee_group":{"antennae":"A","wings":"2","pattern":"X","legs":"X"},"bonus":0.800000000000001},{"rt":1099.8999999985099,"stimulus":"bees-with-color/bee-B1DF.svg","response":0,"trial_type":"image-button-response","trial_index":73,"time_elapsed":262208,"internal_node_id":"0.0-4.0-0.33","subject_id":"60b14c72faad384ddb2eb66c","study_id":"60edd13110225f80f9f3709b","session_id":"6196c4a5802110ba8a94fb38","condition":"full-information","relevant_dimensions":["antennae","wings"],"bee_group":{"antennae":"A","wings":"2","pattern":"X","legs":"X"},"action":"harvest","summary":"good-harvest","bonus":0.800000000000001},{"rt":1237.1000000014901,"stimulus":"\n                    <p><b>Action: <em>harvest</em></b></p>\n                    <p>This is the bee that you just saw.</p>\n                    <img src=\"bees-with-color/bee-B1DF.svg\" width=\"200\">\n                    <p><span class=\"greenText\"><b>Successful harvest!</b></span><br>Your pay has increased by $0.02. Your bonus pay is now $0.64.</p>\n            ","response":0,"trial_type":"html-button-response","trial_index":74,"time_elapsed":263447,"internal_node_id":"0.0-4.0-1.33","subject_id":"60b14c72faad384ddb2eb66c","study_id":"60edd13110225f80f9f3709b","session_id":"6196c4a5802110ba8a94fb38","condition":"full-information","relevant_dimensions":["antennae","wings"],"bee_group":{"antennae":"A","wings":"2","pattern":"X","legs":"X"},"bonus":0.800000000000001},{"rt":2911,"stimulus":"bees-with-color/bee-A2SF.svg","response":0,"trial_type":"image-button-response","trial_index":75,"time_elapsed":266358,"internal_node_id":"0.0-4.0-0.34","subject_id":"60b14c72faad384ddb2eb66c","study_id":"60edd13110225f80f9f3709b","session_id":"6196c4a5802110ba8a94fb38","condition":"full-information","relevant_dimensions":["antennae","wings"],"bee_group":{"antennae":"A","wings":"2","pattern":"X","legs":"X"},"action":"harvest","summary":"bad-harvest","bonus":0.800000000000001},{"rt":1959,"stimulus":"\n                    <p><b>Action: <em>harvest</em></b></p>\n                    <p>This is the bee that you just saw.</p>\n                    <img src=\"bees-with-color/bee-A2SF.svg\" width=\"200\">\n                    <p><span class=\"redText\">Bad choice, the bee was angry.</span><br><b>You have been stung!</b><br>Your pay has been decreased by $0.10. Your bonus pay is now $0.54.</p>\n            ","response":0,"trial_type":"html-button-response","trial_index":76,"time_elapsed":268318,"internal_node_id":"0.0-4.0-1.34","subject_id":"60b14c72faad384ddb2eb66c","study_id":"60edd13110225f80f9f3709b","session_id":"6196c4a5802110ba8a94fb38","condition":"full-information","relevant_dimensions":["antennae","wings"],"bee_group":{"antennae":"A","wings":"2","pattern":"X","legs":"X"},"bonus":0.800000000000001},{"rt":1750.8000000044703,"stimulus":"bees-with-color/bee-B2SF.svg","response":0,"trial_type":"image-button-response","trial_index":77,"time_elapsed":270070,"internal_node_id":"0.0-4.0-0.35","subject_id":"60b14c72faad384ddb2eb66c","study_id":"60edd13110225f80f9f3709b","session_id":"6196c4a5802110ba8a94fb38","condition":"full-information","relevant_dimensions":["antennae","wings"],"bee_group":{"antennae":"A","wings":"2","pattern":"X","legs":"X"},"action":"harvest","summary":"good-harvest","bonus":0.800000000000001},{"rt":476.30000000447035,"stimulus":"\n                    <p><b>Action: <em>harvest</em></b></p>\n                    <p>This is the bee that you just saw.</p>\n                    <img src=\"bees-with-color/bee-B2SF.svg\" width=\"200\">\n                    <p><span class=\"greenText\"><b>Successful harvest!</b></span><br>Your pay has increased by $0.02. Your bonus pay is now $0.56.</p>\n            ","response":0,"trial_type":"html-button-response","trial_index":78,"time_elapsed":270548,"internal_node_id":"0.0-4.0-1.35","subject_id":"60b14c72faad384ddb2eb66c","study_id":"60edd13110225f80f9f3709b","session_id":"6196c4a5802110ba8a94fb38","condition":"full-information","relevant_dimensions":["antennae","wings"],"bee_group":{"antennae":"A","wings":"2","pattern":"X","legs":"X"},"bonus":0.800000000000001},{"rt":1280.8999999985099,"stimulus":"bees-with-color/bee-B1SF.svg","response":0,"trial_type":"image-button-response","trial_index":79,"time_elapsed":271829,"internal_node_id":"0.0-4.0-0.36","subject_id":"60b14c72faad384ddb2eb66c","study_id":"60edd13110225f80f9f3709b","session_id":"6196c4a5802110ba8a94fb38","condition":"full-information","relevant_dimensions":["antennae","wings"],"bee_group":{"antennae":"A","wings":"2","pattern":"X","legs":"X"},"action":"harvest","summary":"good-harvest","bonus":0.800000000000001},{"rt":477.20000000298023,"stimulus":"\n                    <p><b>Action: <em>harvest</em></b></p>\n                    <p>This is the bee that you just saw.</p>\n                    <img src=\"bees-with-color/bee-B1SF.svg\" width=\"200\">\n                    <p><span class=\"greenText\"><b>Successful harvest!</b></span><br>Your pay has increased by $0.02. Your bonus pay is now $0.58.</p>\n            ","response":0,"trial_type":"html-button-response","trial_index":80,"time_elapsed":272308,"internal_node_id":"0.0-4.0-1.36","subject_id":"60b14c72faad384ddb2eb66c","study_id":"60edd13110225f80f9f3709b","session_id":"6196c4a5802110ba8a94fb38","condition":"full-information","relevant_dimensions":["antennae","wings"],"bee_group":{"antennae":"A","wings":"2","pattern":"X","legs":"X"},"bonus":0.800000000000001},{"rt":1667,"stimulus":"bees-with-color/bee-B1SM.svg","response":1,"trial_type":"image-button-response","trial_index":81,"time_elapsed":273976,"internal_node_id":"0.0-4.0-0.37","subject_id":"60b14c72faad384ddb2eb66c","study_id":"60edd13110225f80f9f3709b","session_id":"6196c4a5802110ba8a94fb38","condition":"full-information","relevant_dimensions":["antennae","wings"],"bee_group":{"antennae":"A","wings":"2","pattern":"X","legs":"X"},"action":"avoid","summary":"bad-avoid","bonus":0.800000000000001},{"rt":699.7999999970198,"stimulus":"\n                    <p><b>Action: <em>avoid</em></b></p>\n                    <p>This is the bee that you just saw.</p>\n                    <img src=\"bees-with-color/bee-B1SM.svg\" width=\"200\">\n                    <p><span class=\"redText\">Bad choice,</span> the bee was friendly.<br>Your bonus pay is unchanged, and remains at $0.58.</p>\n            ","response":0,"trial_type":"html-button-response","trial_index":82,"time_elapsed":274676,"internal_node_id":"0.0-4.0-1.37","subject_id":"60b14c72faad384ddb2eb66c","study_id":"60edd13110225f80f9f3709b","session_id":"6196c4a5802110ba8a94fb38","condition":"full-information","relevant_dimensions":["antennae","wings"],"bee_group":{"antennae":"A","wings":"2","pattern":"X","legs":"X"},"bonus":0.800000000000001},{"rt":1478.1000000014901,"stimulus":"bees-with-color/bee-A1DF.svg","response":0,"trial_type":"image-button-response","trial_index":83,"time_elapsed":276155,"internal_node_id":"0.0-4.0-0.38","subject_id":"60b14c72faad384ddb2eb66c","study_id":"60edd13110225f80f9f3709b","session_id":"6196c4a5802110ba8a94fb38","condition":"full-information","relevant_dimensions":["antennae","wings"],"bee_group":{"antennae":"A","wings":"2","pattern":"X","legs":"X"},"action":"harvest","summary":"good-harvest","bonus":0.800000000000001},{"rt":580,"stimulus":"\n                    <p><b>Action: <em>harvest</em></b></p>\n                    <p>This is the bee that you just saw.</p>\n                    <img src=\"bees-with-color/bee-A1DF.svg\" width=\"200\">\n                    <p><span class=\"greenText\"><b>Successful harvest!</b></span><br>Your pay has increased by $0.02. Your bonus pay is now $0.60.</p>\n            ","response":0,"trial_type":"html-button-response","trial_index":84,"time_elapsed":276737,"internal_node_id":"0.0-4.0-1.38","subject_id":"60b14c72faad384ddb2eb66c","study_id":"60edd13110225f80f9f3709b","session_id":"6196c4a5802110ba8a94fb38","condition":"full-information","relevant_dimensions":["antennae","wings"],"bee_group":{"antennae":"A","wings":"2","pattern":"X","legs":"X"},"bonus":0.800000000000001},{"rt":1057,"stimulus":"bees-with-color/bee-A1SM.svg","response":1,"trial_type":"image-button-response","trial_index":85,"time_elapsed":277794,"internal_node_id":"0.0-4.0-0.39","subject_id":"60b14c72faad384ddb2eb66c","study_id":"60edd13110225f80f9f3709b","session_id":"6196c4a5802110ba8a94fb38","condition":"full-information","relevant_dimensions":["antennae","wings"],"bee_group":{"antennae":"A","wings":"2","pattern":"X","legs":"X"},"action":"avoid","summary":"bad-avoid","bonus":0.800000000000001},{"rt":591.2000000029802,"stimulus":"\n                    <p><b>Action: <em>avoid</em></b></p>\n                    <p>This is the bee that you just saw.</p>\n                    <img src=\"bees-with-color/bee-A1SM.svg\" width=\"200\">\n                    <p><span class=\"redText\">Bad choice,</span> the bee was friendly.<br>Your bonus pay is unchanged, and remains at $0.60.</p>\n            ","response":0,"trial_type":"html-button-response","trial_index":86,"time_elapsed":278387,"internal_node_id":"0.0-4.0-1.39","subject_id":"60b14c72faad384ddb2eb66c","study_id":"60edd13110225f80f9f3709b","session_id":"6196c4a5802110ba8a94fb38","condition":"full-information","relevant_dimensions":["antennae","wings"],"bee_group":{"antennae":"A","wings":"2","pattern":"X","legs":"X"},"bonus":0.800000000000001},{"rt":1413.1000000014901,"stimulus":"bees-with-color/bee-A2DF.svg","response":1,"trial_type":"image-button-response","trial_index":87,"time_elapsed":279801,"internal_node_id":"0.0-4.0-0.40","subject_id":"60b14c72faad384ddb2eb66c","study_id":"60edd13110225f80f9f3709b","session_id":"6196c4a5802110ba8a94fb38","condition":"full-information","relevant_dimensions":["antennae","wings"],"bee_group":{"antennae":"A","wings":"2","pattern":"X","legs":"X"},"action":"avoid","summary":"good-avoid","bonus":0.800000000000001},{"rt":593,"stimulus":"\n                    <p><b>Action: <em>avoid</em></b></p>\n                    <p>This is the bee that you just saw.</p>\n                    <img src=\"bees-with-color/bee-A2DF.svg\" width=\"200\">\n                    <p><span class=\"greenText\">Good choice!</span>  This bee would have stung you.<br>Your bonus pay is unchanged, and remains at $0.60.</p>\n            ","response":0,"trial_type":"html-button-response","trial_index":88,"time_elapsed":280395,"internal_node_id":"0.0-4.0-1.40","subject_id":"60b14c72faad384ddb2eb66c","study_id":"60edd13110225f80f9f3709b","session_id":"6196c4a5802110ba8a94fb38","condition":"full-information","relevant_dimensions":["antennae","wings"],"bee_group":{"antennae":"A","wings":"2","pattern":"X","legs":"X"},"bonus":0.800000000000001},{"rt":1555,"stimulus":"bees-with-color/bee-A2SM.svg","response":1,"trial_type":"image-button-response","trial_index":89,"time_elapsed":281951,"internal_node_id":"0.0-4.0-0.41","subject_id":"60b14c72faad384ddb2eb66c","study_id":"60edd13110225f80f9f3709b","session_id":"6196c4a5802110ba8a94fb38","condition":"full-information","relevant_dimensions":["antennae","wings"],"bee_group":{"antennae":"A","wings":"2","pattern":"X","legs":"X"},"action":"avoid","summary":"good-avoid","bonus":0.800000000000001},{"rt":469.8999999985099,"stimulus":"\n                    <p><b>Action: <em>avoid</em></b></p>\n                    <p>This is the bee that you just saw.</p>\n                    <img src=\"bees-with-color/bee-A2SM.svg\" width=\"200\">\n                    <p><span class=\"greenText\">Good choice!</span>  This bee would have stung you.<br>Your bonus pay is unchanged, and remains at $0.60.</p>\n            ","response":0,"trial_type":"html-button-response","trial_index":90,"time_elapsed":282422,"internal_node_id":"0.0-4.0-1.41","subject_id":"60b14c72faad384ddb2eb66c","study_id":"60edd13110225f80f9f3709b","session_id":"6196c4a5802110ba8a94fb38","condition":"full-information","relevant_dimensions":["antennae","wings"],"bee_group":{"antennae":"A","wings":"2","pattern":"X","legs":"X"},"bonus":0.800000000000001},{"rt":709.1999999955297,"stimulus":"bees-with-color/bee-A1SF.svg","response":0,"trial_type":"image-button-response","trial_index":91,"time_elapsed":283132,"internal_node_id":"0.0-4.0-0.42","subject_id":"60b14c72faad384ddb2eb66c","study_id":"60edd13110225f80f9f3709b","session_id":"6196c4a5802110ba8a94fb38","condition":"full-information","relevant_dimensions":["antennae","wings"],"bee_group":{"antennae":"A","wings":"2","pattern":"X","legs":"X"},"action":"harvest","summary":"good-harvest","bonus":0.800000000000001},{"rt":508.3999999985099,"stimulus":"\n                    <p><b>Action: <em>harvest</em></b></p>\n                    <p>This is the bee that you just saw.</p>\n                    <img src=\"bees-with-color/bee-A1SF.svg\" width=\"200\">\n                    <p><span class=\"greenText\"><b>Successful harvest!</b></span><br>Your pay has increased by $0.02. Your bonus pay is now $0.62.</p>\n            ","response":0,"trial_type":"html-button-response","trial_index":92,"time_elapsed":283642,"internal_node_id":"0.0-4.0-1.42","subject_id":"60b14c72faad384ddb2eb66c","study_id":"60edd13110225f80f9f3709b","session_id":"6196c4a5802110ba8a94fb38","condition":"full-information","relevant_dimensions":["antennae","wings"],"bee_group":{"antennae":"A","wings":"2","pattern":"X","legs":"X"},"bonus":0.800000000000001},{"rt":1732.1000000014901,"stimulus":"bees-with-color/bee-B1DM.svg","response":0,"trial_type":"image-button-response","trial_index":93,"time_elapsed":285375,"internal_node_id":"0.0-4.0-0.43","subject_id":"60b14c72faad384ddb2eb66c","study_id":"60edd13110225f80f9f3709b","session_id":"6196c4a5802110ba8a94fb38","condition":"full-information","relevant_dimensions":["antennae","wings"],"bee_group":{"antennae":"A","wings":"2","pattern":"X","legs":"X"},"action":"harvest","summary":"good-harvest","bonus":0.800000000000001},{"rt":478.8999999985099,"stimulus":"\n                    <p><b>Action: <em>harvest</em></b></p>\n                    <p>This is the bee that you just saw.</p>\n                    <img src=\"bees-with-color/bee-B1DM.svg\" width=\"200\">\n                    <p><span class=\"greenText\"><b>Successful harvest!</b></span><br>Your pay has increased by $0.02. Your bonus pay is now $0.64.</p>\n            ","response":0,"trial_type":"html-button-response","trial_index":94,"time_elapsed":285855,"internal_node_id":"0.0-4.0-1.43","subject_id":"60b14c72faad384ddb2eb66c","study_id":"60edd13110225f80f9f3709b","session_id":"6196c4a5802110ba8a94fb38","condition":"full-information","relevant_dimensions":["antennae","wings"],"bee_group":{"antennae":"A","wings":"2","pattern":"X","legs":"X"},"bonus":0.800000000000001},{"rt":1708.1000000014901,"stimulus":"bees-with-color/bee-A1DM.svg","response":1,"trial_type":"image-button-response","trial_index":95,"time_elapsed":287564,"internal_node_id":"0.0-4.0-0.44","subject_id":"60b14c72faad384ddb2eb66c","study_id":"60edd13110225f80f9f3709b","session_id":"6196c4a5802110ba8a94fb38","condition":"full-information","relevant_dimensions":["antennae","wings"],"bee_group":{"antennae":"A","wings":"2","pattern":"X","legs":"X"},"action":"avoid","summary":"bad-avoid","bonus":0.800000000000001},{"rt":789.0999999940395,"stimulus":"\n                    <p><b>Action: <em>avoid</em></b></p>\n                    <p>This is the bee that you just saw.</p>\n                    <img src=\"bees-with-color/bee-A1DM.svg\" width=\"200\">\n                    <p><span class=\"redText\">Bad choice,</span> the bee was friendly.<br>Your bonus pay is unchanged, and remains at $0.64.</p>\n            ","response":0,"trial_type":"html-button-response","trial_index":96,"time_elapsed":288354,"internal_node_id":"0.0-4.0-1.44","subject_id":"60b14c72faad384ddb2eb66c","study_id":"60edd13110225f80f9f3709b","session_id":"6196c4a5802110ba8a94fb38","condition":"full-information","relevant_dimensions":["antennae","wings"],"bee_group":{"antennae":"A","wings":"2","pattern":"X","legs":"X"},"bonus":0.800000000000001},{"rt":1301.8000000044703,"stimulus":"bees-with-color/bee-B2SM.svg","response":1,"trial_type":"image-button-response","trial_index":97,"time_elapsed":289657,"internal_node_id":"0.0-4.0-0.45","subject_id":"60b14c72faad384ddb2eb66c","study_id":"60edd13110225f80f9f3709b","session_id":"6196c4a5802110ba8a94fb38","condition":"full-information","relevant_dimensions":["antennae","wings"],"bee_group":{"antennae":"A","wings":"2","pattern":"X","legs":"X"},"action":"avoid","summary":"bad-avoid","bonus":0.800000000000001},{"rt":745.9000000059605,"stimulus":"\n                    <p><b>Action: <em>avoid</em></b></p>\n                    <p>This is the bee that you just saw.</p>\n                    <img src=\"bees-with-color/bee-B2SM.svg\" width=\"200\">\n                    <p><span class=\"redText\">Bad choice,</span> the bee was friendly.<br>Your bonus pay is unchanged, and remains at $0.64.</p>\n            ","response":0,"trial_type":"html-button-response","trial_index":98,"time_elapsed":290404,"internal_node_id":"0.0-4.0-1.45","subject_id":"60b14c72faad384ddb2eb66c","study_id":"60edd13110225f80f9f3709b","session_id":"6196c4a5802110ba8a94fb38","condition":"full-information","relevant_dimensions":["antennae","wings"],"bee_group":{"antennae":"A","wings":"2","pattern":"X","legs":"X"},"bonus":0.800000000000001},{"rt":1183.8000000044703,"stimulus":"bees-with-color/bee-B2DM.svg","response":1,"trial_type":"image-button-response","trial_index":99,"time_elapsed":291589,"internal_node_id":"0.0-4.0-0.46","subject_id":"60b14c72faad384ddb2eb66c","study_id":"60edd13110225f80f9f3709b","session_id":"6196c4a5802110ba8a94fb38","condition":"full-information","relevant_dimensions":["antennae","wings"],"bee_group":{"antennae":"A","wings":"2","pattern":"X","legs":"X"},"action":"avoid","summary":"bad-avoid","bonus":0.800000000000001},{"rt":544,"stimulus":"\n                    <p><b>Action: <em>avoid</em></b></p>\n                    <p>This is the bee that you just saw.</p>\n                    <img src=\"bees-with-color/bee-B2DM.svg\" width=\"200\">\n                    <p><span class=\"redText\">Bad choice,</span> the bee was friendly.<br>Your bonus pay is unchanged, and remains at $0.64.</p>\n            ","response":0,"trial_type":"html-button-response","trial_index":100,"time_elapsed":292134,"internal_node_id":"0.0-4.0-1.46","subject_id":"60b14c72faad384ddb2eb66c","study_id":"60edd13110225f80f9f3709b","session_id":"6196c4a5802110ba8a94fb38","condition":"full-information","relevant_dimensions":["antennae","wings"],"bee_group":{"antennae":"A","wings":"2","pattern":"X","legs":"X"},"bonus":0.800000000000001},{"rt":1036.7999999970198,"stimulus":"bees-with-color/bee-B2DF.svg","response":1,"trial_type":"image-button-response","trial_index":101,"time_elapsed":293172,"internal_node_id":"0.0-4.0-0.47","subject_id":"60b14c72faad384ddb2eb66c","study_id":"60edd13110225f80f9f3709b","session_id":"6196c4a5802110ba8a94fb38","condition":"full-information","relevant_dimensions":["antennae","wings"],"bee_group":{"antennae":"A","wings":"2","pattern":"X","legs":"X"},"action":"avoid","summary":"bad-avoid","bonus":0.800000000000001},{"rt":566.1000000014901,"stimulus":"\n                    <p><b>Action: <em>avoid</em></b></p>\n                    <p>This is the bee that you just saw.</p>\n                    <img src=\"bees-with-color/bee-B2DF.svg\" width=\"200\">\n                    <p><span class=\"redText\">Bad choice,</span> the bee was friendly.<br>Your bonus pay is unchanged, and remains at $0.64.</p>\n            ","response":0,"trial_type":"html-button-response","trial_index":102,"time_elapsed":293739,"internal_node_id":"0.0-4.0-1.47","subject_id":"60b14c72faad384ddb2eb66c","study_id":"60edd13110225f80f9f3709b","session_id":"6196c4a5802110ba8a94fb38","condition":"full-information","relevant_dimensions":["antennae","wings"],"bee_group":{"antennae":"A","wings":"2","pattern":"X","legs":"X"},"bonus":0.800000000000001},{"rt":1071.3999999985099,"stimulus":"bees-with-color/bee-A2DF.svg","response":1,"trial_type":"image-button-response","trial_index":103,"time_elapsed":294811,"internal_node_id":"0.0-4.0-0.48","subject_id":"60b14c72faad384ddb2eb66c","study_id":"60edd13110225f80f9f3709b","session_id":"6196c4a5802110ba8a94fb38","condition":"full-information","relevant_dimensions":["antennae","wings"],"bee_group":{"antennae":"A","wings":"2","pattern":"X","legs":"X"},"action":"avoid","summary":"good-avoid","bonus":0.800000000000001},{"rt":681.0999999940395,"stimulus":"\n                    <p><b>Action: <em>avoid</em></b></p>\n                    <p>This is the bee that you just saw.</p>\n                    <img src=\"bees-with-color/bee-A2DF.svg\" width=\"200\">\n                    <p><span class=\"greenText\">Good choice!</span>  This bee would have stung you.<br>Your bonus pay is unchanged, and remains at $0.64.</p>\n            ","response":0,"trial_type":"html-button-response","trial_index":104,"time_elapsed":295493,"internal_node_id":"0.0-4.0-1.48","subject_id":"60b14c72faad384ddb2eb66c","study_id":"60edd13110225f80f9f3709b","session_id":"6196c4a5802110ba8a94fb38","condition":"full-information","relevant_dimensions":["antennae","wings"],"bee_group":{"antennae":"A","wings":"2","pattern":"X","legs":"X"},"bonus":0.800000000000001},{"rt":1356.8000000044703,"stimulus":"bees-with-color/bee-B2DM.svg","response":1,"trial_type":"image-button-response","trial_index":105,"time_elapsed":296851,"internal_node_id":"0.0-4.0-0.49","subject_id":"60b14c72faad384ddb2eb66c","study_id":"60edd13110225f80f9f3709b","session_id":"6196c4a5802110ba8a94fb38","condition":"full-information","relevant_dimensions":["antennae","wings"],"bee_group":{"antennae":"A","wings":"2","pattern":"X","legs":"X"},"action":"avoid","summary":"bad-avoid","bonus":0.800000000000001},{"rt":519.2000000029802,"stimulus":"\n                    <p><b>Action: <em>avoid</em></b></p>\n                    <p>This is the bee that you just saw.</p>\n                    <img src=\"bees-with-color/bee-B2DM.svg\" width=\"200\">\n                    <p><span class=\"redText\">Bad choice,</span> the bee was friendly.<br>Your bonus pay is unchanged, and remains at $0.64.</p>\n            ","response":0,"trial_type":"html-button-response","trial_index":106,"time_elapsed":297371,"internal_node_id":"0.0-4.0-1.49","subject_id":"60b14c72faad384ddb2eb66c","study_id":"60edd13110225f80f9f3709b","session_id":"6196c4a5802110ba8a94fb38","condition":"full-information","relevant_dimensions":["antennae","wings"],"bee_group":{"antennae":"A","wings":"2","pattern":"X","legs":"X"},"bonus":0.800000000000001},{"rt":1128,"stimulus":"bees-with-color/bee-A1DM.svg","response":1,"trial_type":"image-button-response","trial_index":107,"time_elapsed":298500,"internal_node_id":"0.0-4.0-0.50","subject_id":"60b14c72faad384ddb2eb66c","study_id":"60edd13110225f80f9f3709b","session_id":"6196c4a5802110ba8a94fb38","condition":"full-information","relevant_dimensions":["antennae","wings"],"bee_group":{"antennae":"A","wings":"2","pattern":"X","legs":"X"},"action":"avoid","summary":"bad-avoid","bonus":0.800000000000001},{"rt":570.3000000044703,"stimulus":"\n                    <p><b>Action: <em>avoid</em></b></p>\n                    <p>This is the bee that you just saw.</p>\n                    <img src=\"bees-with-color/bee-A1DM.svg\" width=\"200\">\n                    <p><span class=\"redText\">Bad choice,</span> the bee was friendly.<br>Your bonus pay is unchanged, and remains at $0.64.</p>\n            ","response":0,"trial_type":"html-button-response","trial_index":108,"time_elapsed":299071,"internal_node_id":"0.0-4.0-1.50","subject_id":"60b14c72faad384ddb2eb66c","study_id":"60edd13110225f80f9f3709b","session_id":"6196c4a5802110ba8a94fb38","condition":"full-information","relevant_dimensions":["antennae","wings"],"bee_group":{"antennae":"A","wings":"2","pattern":"X","legs":"X"},"bonus":0.800000000000001},{"rt":1143.1000000014901,"stimulus":"bees-with-color/bee-B2SF.svg","response":0,"trial_type":"image-button-response","trial_index":109,"time_elapsed":300215,"internal_node_id":"0.0-4.0-0.51","subject_id":"60b14c72faad384ddb2eb66c","study_id":"60edd13110225f80f9f3709b","session_id":"6196c4a5802110ba8a94fb38","condition":"full-information","relevant_dimensions":["antennae","wings"],"bee_group":{"antennae":"A","wings":"2","pattern":"X","legs":"X"},"action":"harvest","summary":"good-harvest","bonus":0.800000000000001},{"rt":477.20000000298023,"stimulus":"\n                    <p><b>Action: <em>harvest</em></b></p>\n                    <p>This is the bee that you just saw.</p>\n                    <img src=\"bees-with-color/bee-B2SF.svg\" width=\"200\">\n                    <p><span class=\"greenText\"><b>Successful harvest!</b></span><br>Your pay has increased by $0.02. Your bonus pay is now $0.66.</p>\n            ","response":0,"trial_type":"html-button-response","trial_index":110,"time_elapsed":300693,"internal_node_id":"0.0-4.0-1.51","subject_id":"60b14c72faad384ddb2eb66c","study_id":"60edd13110225f80f9f3709b","session_id":"6196c4a5802110ba8a94fb38","condition":"full-information","relevant_dimensions":["antennae","wings"],"bee_group":{"antennae":"A","wings":"2","pattern":"X","legs":"X"},"bonus":0.800000000000001},{"rt":880.1000000014901,"stimulus":"bees-with-color/bee-B1SF.svg","response":0,"trial_type":"image-button-response","trial_index":111,"time_elapsed":301574,"internal_node_id":"0.0-4.0-0.52","subject_id":"60b14c72faad384ddb2eb66c","study_id":"60edd13110225f80f9f3709b","session_id":"6196c4a5802110ba8a94fb38","condition":"full-information","relevant_dimensions":["antennae","wings"],"bee_group":{"antennae":"A","wings":"2","pattern":"X","legs":"X"},"action":"harvest","summary":"good-harvest","bonus":0.800000000000001},{"rt":755,"stimulus":"\n                    <p><b>Action: <em>harvest</em></b></p>\n                    <p>This is the bee that you just saw.</p>\n                    <img src=\"bees-with-color/bee-B1SF.svg\" width=\"200\">\n                    <p><span class=\"greenText\"><b>Successful harvest!</b></span><br>Your pay has increased by $0.02. Your bonus pay is now $0.68.</p>\n            ","response":0,"trial_type":"html-button-response","trial_index":112,"time_elapsed":302330,"internal_node_id":"0.0-4.0-1.52","subject_id":"60b14c72faad384ddb2eb66c","study_id":"60edd13110225f80f9f3709b","session_id":"6196c4a5802110ba8a94fb38","condition":"full-information","relevant_dimensions":["antennae","wings"],"bee_group":{"antennae":"A","wings":"2","pattern":"X","legs":"X"},"bonus":0.800000000000001},{"rt":1811.1000000014901,"stimulus":"bees-with-color/bee-A2SF.svg","response":1,"trial_type":"image-button-response","trial_index":113,"time_elapsed":304142,"internal_node_id":"0.0-4.0-0.53","subject_id":"60b14c72faad384ddb2eb66c","study_id":"60edd13110225f80f9f3709b","session_id":"6196c4a5802110ba8a94fb38","condition":"full-information","relevant_dimensions":["antennae","wings"],"bee_group":{"antennae":"A","wings":"2","pattern":"X","legs":"X"},"action":"avoid","summary":"good-avoid","bonus":0.800000000000001},{"rt":482,"stimulus":"\n                    <p><b>Action: <em>avoid</em></b></p>\n                    <p>This is the bee that you just saw.</p>\n                    <img src=\"bees-with-color/bee-A2SF.svg\" width=\"200\">\n                    <p><span class=\"greenText\">Good choice!</span>  This bee would have stung you.<br>Your bonus pay is unchanged, and remains at $0.68.</p>\n            ","response":0,"trial_type":"html-button-response","trial_index":114,"time_elapsed":304625,"internal_node_id":"0.0-4.0-1.53","subject_id":"60b14c72faad384ddb2eb66c","study_id":"60edd13110225f80f9f3709b","session_id":"6196c4a5802110ba8a94fb38","condition":"full-information","relevant_dimensions":["antennae","wings"],"bee_group":{"antennae":"A","wings":"2","pattern":"X","legs":"X"},"bonus":0.800000000000001},{"rt":771,"stimulus":"bees-with-color/bee-A1SF.svg","response":0,"trial_type":"image-button-response","trial_index":115,"time_elapsed":305397,"internal_node_id":"0.0-4.0-0.54","subject_id":"60b14c72faad384ddb2eb66c","study_id":"60edd13110225f80f9f3709b","session_id":"6196c4a5802110ba8a94fb38","condition":"full-information","relevant_dimensions":["antennae","wings"],"bee_group":{"antennae":"A","wings":"2","pattern":"X","legs":"X"},"action":"harvest","summary":"good-harvest","bonus":0.800000000000001},{"rt":537.9000000059605,"stimulus":"\n                    <p><b>Action: <em>harvest</em></b></p>\n                    <p>This is the bee that you just saw.</p>\n                    <img src=\"bees-with-color/bee-A1SF.svg\" width=\"200\">\n                    <p><span class=\"greenText\"><b>Successful harvest!</b></span><br>Your pay has increased by $0.02. Your bonus pay is now $0.70.</p>\n            ","response":0,"trial_type":"html-button-response","trial_index":116,"time_elapsed":305936,"internal_node_id":"0.0-4.0-1.54","subject_id":"60b14c72faad384ddb2eb66c","study_id":"60edd13110225f80f9f3709b","session_id":"6196c4a5802110ba8a94fb38","condition":"full-information","relevant_dimensions":["antennae","wings"],"bee_group":{"antennae":"A","wings":"2","pattern":"X","legs":"X"},"bonus":0.800000000000001},{"rt":3022.9000000059605,"stimulus":"bees-with-color/bee-A1SM.svg","response":0,"trial_type":"image-button-response","trial_index":117,"time_elapsed":308960,"internal_node_id":"0.0-4.0-0.55","subject_id":"60b14c72faad384ddb2eb66c","study_id":"60edd13110225f80f9f3709b","session_id":"6196c4a5802110ba8a94fb38","condition":"full-information","relevant_dimensions":["antennae","wings"],"bee_group":{"antennae":"A","wings":"2","pattern":"X","legs":"X"},"action":"harvest","summary":"good-harvest","bonus":0.800000000000001},{"rt":373.8999999985099,"stimulus":"\n                    <p><b>Action: <em>harvest</em></b></p>\n                    <p>This is the bee that you just saw.</p>\n                    <img src=\"bees-with-color/bee-A1SM.svg\" width=\"200\">\n                    <p><span class=\"greenText\"><b>Successful harvest!</b></span><br>Your pay has increased by $0.02. Your bonus pay is now $0.72.</p>\n            ","response":0,"trial_type":"html-button-response","trial_index":118,"time_elapsed":309335,"internal_node_id":"0.0-4.0-1.55","subject_id":"60b14c72faad384ddb2eb66c","study_id":"60edd13110225f80f9f3709b","session_id":"6196c4a5802110ba8a94fb38","condition":"full-information","relevant_dimensions":["antennae","wings"],"bee_group":{"antennae":"A","wings":"2","pattern":"X","legs":"X"},"bonus":0.800000000000001},{"rt":1367.1000000014901,"stimulus":"bees-with-color/bee-A2DM.svg","response":1,"trial_type":"image-button-response","trial_index":119,"time_elapsed":310703,"internal_node_id":"0.0-4.0-0.56","subject_id":"60b14c72faad384ddb2eb66c","study_id":"60edd13110225f80f9f3709b","session_id":"6196c4a5802110ba8a94fb38","condition":"full-information","relevant_dimensions":["antennae","wings"],"bee_group":{"antennae":"A","wings":"2","pattern":"X","legs":"X"},"action":"avoid","summary":"good-avoid","bonus":0.800000000000001},{"rt":435.5,"stimulus":"\n                    <p><b>Action: <em>avoid</em></b></p>\n                    <p>This is the bee that you just saw.</p>\n                    <img src=\"bees-with-color/bee-A2DM.svg\" width=\"200\">\n                    <p><span class=\"greenText\">Good choice!</span>  This bee would have stung you.<br>Your bonus pay is unchanged, and remains at $0.72.</p>\n            ","response":0,"trial_type":"html-button-response","trial_index":120,"time_elapsed":311140,"internal_node_id":"0.0-4.0-1.56","subject_id":"60b14c72faad384ddb2eb66c","study_id":"60edd13110225f80f9f3709b","session_id":"6196c4a5802110ba8a94fb38","condition":"full-information","relevant_dimensions":["antennae","wings"],"bee_group":{"antennae":"A","wings":"2","pattern":"X","legs":"X"},"bonus":0.800000000000001},{"rt":699.2000000029802,"stimulus":"bees-with-color/bee-B1SM.svg","response":0,"trial_type":"image-button-response","trial_index":121,"time_elapsed":311840,"internal_node_id":"0.0-4.0-0.57","subject_id":"60b14c72faad384ddb2eb66c","study_id":"60edd13110225f80f9f3709b","session_id":"6196c4a5802110ba8a94fb38","condition":"full-information","relevant_dimensions":["antennae","wings"],"bee_group":{"antennae":"A","wings":"2","pattern":"X","legs":"X"},"action":"harvest","summary":"good-harvest","bonus":0.800000000000001},{"rt":534.1999999955297,"stimulus":"\n                    <p><b>Action: <em>harvest</em></b></p>\n                    <p>This is the bee that you just saw.</p>\n                    <img src=\"bees-with-color/bee-B1SM.svg\" width=\"200\">\n                    <p><span class=\"greenText\"><b>Successful harvest!</b></span><br>Your pay has increased by $0.02. Your bonus pay is now $0.74.</p>\n            ","response":0,"trial_type":"html-button-response","trial_index":122,"time_elapsed":312375,"internal_node_id":"0.0-4.0-1.57","subject_id":"60b14c72faad384ddb2eb66c","study_id":"60edd13110225f80f9f3709b","session_id":"6196c4a5802110ba8a94fb38","condition":"full-information","relevant_dimensions":["antennae","wings"],"bee_group":{"antennae":"A","wings":"2","pattern":"X","legs":"X"},"bonus":0.800000000000001},{"rt":2553.0999999940395,"stimulus":"bees-with-color/bee-B2DF.svg","response":0,"trial_type":"image-button-response","trial_index":123,"time_elapsed":314929,"internal_node_id":"0.0-4.0-0.58","subject_id":"60b14c72faad384ddb2eb66c","study_id":"60edd13110225f80f9f3709b","session_id":"6196c4a5802110ba8a94fb38","condition":"full-information","relevant_dimensions":["antennae","wings"],"bee_group":{"antennae":"A","wings":"2","pattern":"X","legs":"X"},"action":"harvest","summary":"good-harvest","bonus":0.800000000000001},{"rt":481.80000000447035,"stimulus":"\n                    <p><b>Action: <em>harvest</em></b></p>\n                    <p>This is the bee that you just saw.</p>\n                    <img src=\"bees-with-color/bee-B2DF.svg\" width=\"200\">\n                    <p><span class=\"greenText\"><b>Successful harvest!</b></span><br>Your pay has increased by $0.02. Your bonus pay is now $0.76.</p>\n            ","response":0,"trial_type":"html-button-response","trial_index":124,"time_elapsed":315412,"internal_node_id":"0.0-4.0-1.58","subject_id":"60b14c72faad384ddb2eb66c","study_id":"60edd13110225f80f9f3709b","session_id":"6196c4a5802110ba8a94fb38","condition":"full-information","relevant_dimensions":["antennae","wings"],"bee_group":{"antennae":"A","wings":"2","pattern":"X","legs":"X"},"bonus":0.800000000000001},{"rt":1352.4000000059605,"stimulus":"bees-with-color/bee-B2SM.svg","response":1,"trial_type":"image-button-response","trial_index":125,"time_elapsed":316765,"internal_node_id":"0.0-4.0-0.59","subject_id":"60b14c72faad384ddb2eb66c","study_id":"60edd13110225f80f9f3709b","session_id":"6196c4a5802110ba8a94fb38","condition":"full-information","relevant_dimensions":["antennae","wings"],"bee_group":{"antennae":"A","wings":"2","pattern":"X","legs":"X"},"action":"avoid","summary":"bad-avoid","bonus":0.800000000000001},{"rt":763.8000000044703,"stimulus":"\n                    <p><b>Action: <em>avoid</em></b></p>\n                    <p>This is the bee that you just saw.</p>\n                    <img src=\"bees-with-color/bee-B2SM.svg\" width=\"200\">\n                    <p><span class=\"redText\">Bad choice,</span> the bee was friendly.<br>Your bonus pay is unchanged, and remains at $0.76.</p>\n            ","response":0,"trial_type":"html-button-response","trial_index":126,"time_elapsed":317530,"internal_node_id":"0.0-4.0-1.59","subject_id":"60b14c72faad384ddb2eb66c","study_id":"60edd13110225f80f9f3709b","session_id":"6196c4a5802110ba8a94fb38","condition":"full-information","relevant_dimensions":["antennae","wings"],"bee_group":{"antennae":"A","wings":"2","pattern":"X","legs":"X"},"bonus":0.800000000000001},{"rt":875,"stimulus":"bees-with-color/bee-B1DF.svg","response":0,"trial_type":"image-button-response","trial_index":127,"time_elapsed":318406,"internal_node_id":"0.0-4.0-0.60","subject_id":"60b14c72faad384ddb2eb66c","study_id":"60edd13110225f80f9f3709b","session_id":"6196c4a5802110ba8a94fb38","condition":"full-information","relevant_dimensions":["antennae","wings"],"bee_group":{"antennae":"A","wings":"2","pattern":"X","legs":"X"},"action":"harvest","summary":"good-harvest","bonus":0.800000000000001},{"rt":443.1000000014901,"stimulus":"\n                    <p><b>Action: <em>harvest</em></b></p>\n                    <p>This is the bee that you just saw.</p>\n                    <img src=\"bees-with-color/bee-B1DF.svg\" width=\"200\">\n                    <p><span class=\"greenText\"><b>Successful harvest!</b></span><br>Your pay has increased by $0.02. Your bonus pay is now $0.78.</p>\n            ","response":0,"trial_type":"html-button-response","trial_index":128,"time_elapsed":318850,"internal_node_id":"0.0-4.0-1.60","subject_id":"60b14c72faad384ddb2eb66c","study_id":"60edd13110225f80f9f3709b","session_id":"6196c4a5802110ba8a94fb38","condition":"full-information","relevant_dimensions":["antennae","wings"],"bee_group":{"antennae":"A","wings":"2","pattern":"X","legs":"X"},"bonus":0.800000000000001},{"rt":2278.1999999955297,"stimulus":"bees-with-color/bee-A1DF.svg","response":0,"trial_type":"image-button-response","trial_index":129,"time_elapsed":321129,"internal_node_id":"0.0-4.0-0.61","subject_id":"60b14c72faad384ddb2eb66c","study_id":"60edd13110225f80f9f3709b","session_id":"6196c4a5802110ba8a94fb38","condition":"full-information","relevant_dimensions":["antennae","wings"],"bee_group":{"antennae":"A","wings":"2","pattern":"X","legs":"X"},"action":"harvest","summary":"good-harvest","bonus":0.800000000000001},{"rt":419.8999999985099,"stimulus":"\n                    <p><b>Action: <em>harvest</em></b></p>\n                    <p>This is the bee that you just saw.</p>\n                    <img src=\"bees-with-color/bee-A1DF.svg\" width=\"200\">\n                    <p><span class=\"greenText\"><b>Successful harvest!</b></span><br>Your pay has increased by $0.02. Your bonus pay is now $0.80.</p>\n            ","response":0,"trial_type":"html-button-response","trial_index":130,"time_elapsed":321550,"internal_node_id":"0.0-4.0-1.61","subject_id":"60b14c72faad384ddb2eb66c","study_id":"60edd13110225f80f9f3709b","session_id":"6196c4a5802110ba8a94fb38","condition":"full-information","relevant_dimensions":["antennae","wings"],"bee_group":{"antennae":"A","wings":"2","pattern":"X","legs":"X"},"bonus":0.800000000000001},{"rt":1230.2000000029802,"stimulus":"bees-with-color/bee-B1DM.svg","response":1,"trial_type":"image-button-response","trial_index":131,"time_elapsed":322781,"internal_node_id":"0.0-4.0-0.62","subject_id":"60b14c72faad384ddb2eb66c","study_id":"60edd13110225f80f9f3709b","session_id":"6196c4a5802110ba8a94fb38","condition":"full-information","relevant_dimensions":["antennae","wings"],"bee_group":{"antennae":"A","wings":"2","pattern":"X","legs":"X"},"action":"avoid","summary":"bad-avoid","bonus":0.800000000000001},{"rt":412.90000000596046,"stimulus":"\n                    <p><b>Action: <em>avoid</em></b></p>\n                    <p>This is the bee that you just saw.</p>\n                    <img src=\"bees-with-color/bee-B1DM.svg\" width=\"200\">\n                    <p><span class=\"redText\">Bad choice,</span> the bee was friendly.<br>Your bonus pay is unchanged, and remains at $0.80.</p>\n            ","response":0,"trial_type":"html-button-response","trial_index":132,"time_elapsed":323195,"internal_node_id":"0.0-4.0-1.62","subject_id":"60b14c72faad384ddb2eb66c","study_id":"60edd13110225f80f9f3709b","session_id":"6196c4a5802110ba8a94fb38","condition":"full-information","relevant_dimensions":["antennae","wings"],"bee_group":{"antennae":"A","wings":"2","pattern":"X","legs":"X"},"bonus":0.800000000000001},{"rt":1399.1000000014901,"stimulus":"bees-with-color/bee-A2SM.svg","response":1,"trial_type":"image-button-response","trial_index":133,"time_elapsed":324595,"internal_node_id":"0.0-4.0-0.63","subject_id":"60b14c72faad384ddb2eb66c","study_id":"60edd13110225f80f9f3709b","session_id":"6196c4a5802110ba8a94fb38","condition":"full-information","relevant_dimensions":["antennae","wings"],"bee_group":{"antennae":"A","wings":"2","pattern":"X","legs":"X"},"action":"avoid","summary":"good-avoid","bonus":0.800000000000001},{"rt":397.80000000447035,"stimulus":"\n                    <p><b>Action: <em>avoid</em></b></p>\n                    <p>This is the bee that you just saw.</p>\n                    <img src=\"bees-with-color/bee-A2SM.svg\" width=\"200\">\n                    <p><span class=\"greenText\">Good choice!</span>  This bee would have stung you.<br>Your bonus pay is unchanged, and remains at $0.80.</p>\n            ","response":0,"trial_type":"html-button-response","trial_index":134,"time_elapsed":324994,"internal_node_id":"0.0-4.0-1.63","subject_id":"60b14c72faad384ddb2eb66c","study_id":"60edd13110225f80f9f3709b","session_id":"6196c4a5802110ba8a94fb38","condition":"full-information","relevant_dimensions":["antennae","wings"],"bee_group":{"antennae":"A","wings":"2","pattern":"X","legs":"X"},"bonus":0.800000000000001},{"rt":6302,"stimulus":"You have completed the first part of this experiment.<br><br>You will now begin a shorter second part, in which you will receive no feedback.<br>The same rules regarding bonus pay apply.<br><br>Press any key to begin.","response":" ","trial_type":"html-keyboard-response","trial_index":135,"time_elapsed":331297,"internal_node_id":"0.0-5.0","subject_id":"60b14c72faad384ddb2eb66c","study_id":"60edd13110225f80f9f3709b","session_id":"6196c4a5802110ba8a94fb38","condition":"full-information","relevant_dimensions":["antennae","wings"],"bee_group":{"antennae":"A","wings":"2","pattern":"X","legs":"X"},"bonus":0.800000000000001},{"rt":4267.5999999940395,"stimulus":"bees-with-color/bee-B2DM.svg","response":1,"trial_type":"image-button-response","trial_index":136,"time_elapsed":335569,"internal_node_id":"0.0-6.0-0.0","subject_id":"60b14c72faad384ddb2eb66c","study_id":"60edd13110225f80f9f3709b","session_id":"6196c4a5802110ba8a94fb38","condition":"full-information","relevant_dimensions":["antennae","wings"],"bee_group":{"antennae":"A","wings":"2","pattern":"X","legs":"X"},"bonus":0.800000000000001},{"rt":900.3000000044703,"stimulus":"bees-with-color/bee-B2SF.svg","response":0,"trial_type":"image-button-response","trial_index":137,"time_elapsed":336472,"internal_node_id":"0.0-6.0-0.1","subject_id":"60b14c72faad384ddb2eb66c","study_id":"60edd13110225f80f9f3709b","session_id":"6196c4a5802110ba8a94fb38","condition":"full-information","relevant_dimensions":["antennae","wings"],"bee_group":{"antennae":"A","wings":"2","pattern":"X","legs":"X"},"bonus":0.800000000000001},{"rt":2079.6999999955297,"stimulus":"bees-with-color/bee-A1DM.svg","response":0,"trial_type":"image-button-response","trial_index":138,"time_elapsed":338553,"internal_node_id":"0.0-6.0-0.2","subject_id":"60b14c72faad384ddb2eb66c","study_id":"60edd13110225f80f9f3709b","session_id":"6196c4a5802110ba8a94fb38","condition":"full-information","relevant_dimensions":["antennae","wings"],"bee_group":{"antennae":"A","wings":"2","pattern":"X","legs":"X"},"bonus":0.800000000000001},{"rt":2869.2999999970198,"stimulus":"bees-with-color/bee-A1SF.svg","response":0,"trial_type":"image-button-response","trial_index":139,"time_elapsed":341424,"internal_node_id":"0.0-6.0-0.3","subject_id":"60b14c72faad384ddb2eb66c","study_id":"60edd13110225f80f9f3709b","session_id":"6196c4a5802110ba8a94fb38","condition":"full-information","relevant_dimensions":["antennae","wings"],"bee_group":{"antennae":"A","wings":"2","pattern":"X","legs":"X"},"bonus":0.800000000000001},{"rt":1216.5,"stimulus":"bees-with-color/bee-B1SF.svg","response":0,"trial_type":"image-button-response","trial_index":140,"time_elapsed":342643,"internal_node_id":"0.0-6.0-0.4","subject_id":"60b14c72faad384ddb2eb66c","study_id":"60edd13110225f80f9f3709b","session_id":"6196c4a5802110ba8a94fb38","condition":"full-information","relevant_dimensions":["antennae","wings"],"bee_group":{"antennae":"A","wings":"2","pattern":"X","legs":"X"},"bonus":0.800000000000001},{"rt":1287.0999999940395,"stimulus":"bees-with-color/bee-B2DF.svg","response":1,"trial_type":"image-button-response","trial_index":141,"time_elapsed":343931,"internal_node_id":"0.0-6.0-0.5","subject_id":"60b14c72faad384ddb2eb66c","study_id":"60edd13110225f80f9f3709b","session_id":"6196c4a5802110ba8a94fb38","condition":"full-information","relevant_dimensions":["antennae","wings"],"bee_group":{"antennae":"A","wings":"2","pattern":"X","legs":"X"},"bonus":0.800000000000001},{"rt":866.2000000029802,"stimulus":"bees-with-color/bee-A2DF.svg","response":1,"trial_type":"image-button-response","trial_index":142,"time_elapsed":344799,"internal_node_id":"0.0-6.0-0.6","subject_id":"60b14c72faad384ddb2eb66c","study_id":"60edd13110225f80f9f3709b","session_id":"6196c4a5802110ba8a94fb38","condition":"full-information","relevant_dimensions":["antennae","wings"],"bee_group":{"antennae":"A","wings":"2","pattern":"X","legs":"X"},"bonus":0.800000000000001},{"rt":1051.5,"stimulus":"bees-with-color/bee-A2DM.svg","response":1,"trial_type":"image-button-response","trial_index":143,"time_elapsed":345852,"internal_node_id":"0.0-6.0-0.7","subject_id":"60b14c72faad384ddb2eb66c","study_id":"60edd13110225f80f9f3709b","session_id":"6196c4a5802110ba8a94fb38","condition":"full-information","relevant_dimensions":["antennae","wings"],"bee_group":{"antennae":"A","wings":"2","pattern":"X","legs":"X"},"bonus":0.800000000000001},{"rt":1462.3000000044703,"stimulus":"bees-with-color/bee-A2SM.svg","response":1,"trial_type":"image-button-response","trial_index":144,"time_elapsed":347316,"internal_node_id":"0.0-6.0-0.8","subject_id":"60b14c72faad384ddb2eb66c","study_id":"60edd13110225f80f9f3709b","session_id":"6196c4a5802110ba8a94fb38","condition":"full-information","relevant_dimensions":["antennae","wings"],"bee_group":{"antennae":"A","wings":"2","pattern":"X","legs":"X"},"bonus":0.800000000000001},{"rt":836.3999999985099,"stimulus":"bees-with-color/bee-A1SM.svg","response":0,"trial_type":"image-button-response","trial_index":145,"time_elapsed":348154,"internal_node_id":"0.0-6.0-0.9","subject_id":"60b14c72faad384ddb2eb66c","study_id":"60edd13110225f80f9f3709b","session_id":"6196c4a5802110ba8a94fb38","condition":"full-information","relevant_dimensions":["antennae","wings"],"bee_group":{"antennae":"A","wings":"2","pattern":"X","legs":"X"},"bonus":0.800000000000001},{"rt":931.9000000059605,"stimulus":"bees-with-color/bee-A2SF.svg","response":0,"trial_type":"image-button-response","trial_index":146,"time_elapsed":349087,"internal_node_id":"0.0-6.0-0.10","subject_id":"60b14c72faad384ddb2eb66c","study_id":"60edd13110225f80f9f3709b","session_id":"6196c4a5802110ba8a94fb38","condition":"full-information","relevant_dimensions":["antennae","wings"],"bee_group":{"antennae":"A","wings":"2","pattern":"X","legs":"X"},"bonus":0.800000000000001},{"rt":4000.6999999955297,"stimulus":"bees-with-color/bee-B1DF.svg","response":0,"trial_type":"image-button-response","trial_index":147,"time_elapsed":353089,"internal_node_id":"0.0-6.0-0.11","subject_id":"60b14c72faad384ddb2eb66c","study_id":"60edd13110225f80f9f3709b","session_id":"6196c4a5802110ba8a94fb38","condition":"full-information","relevant_dimensions":["antennae","wings"],"bee_group":{"antennae":"A","wings":"2","pattern":"X","legs":"X"},"bonus":0.800000000000001},{"rt":1551.1000000014901,"stimulus":"bees-with-color/bee-B1DM.svg","response":0,"trial_type":"image-button-response","trial_index":148,"time_elapsed":354642,"internal_node_id":"0.0-6.0-0.12","subject_id":"60b14c72faad384ddb2eb66c","study_id":"60edd13110225f80f9f3709b","session_id":"6196c4a5802110ba8a94fb38","condition":"full-information","relevant_dimensions":["antennae","wings"],"bee_group":{"antennae":"A","wings":"2","pattern":"X","legs":"X"},"bonus":0.800000000000001},{"rt":2739.7999999970198,"stimulus":"bees-with-color/bee-B1SM.svg","response":1,"trial_type":"image-button-response","trial_index":149,"time_elapsed":357384,"internal_node_id":"0.0-6.0-0.13","subject_id":"60b14c72faad384ddb2eb66c","study_id":"60edd13110225f80f9f3709b","session_id":"6196c4a5802110ba8a94fb38","condition":"full-information","relevant_dimensions":["antennae","wings"],"bee_group":{"antennae":"A","wings":"2","pattern":"X","legs":"X"},"bonus":0.800000000000001},{"rt":862.5,"stimulus":"bees-with-color/bee-B2SM.svg","response":1,"trial_type":"image-button-response","trial_index":150,"time_elapsed":358247,"internal_node_id":"0.0-6.0-0.14","subject_id":"60b14c72faad384ddb2eb66c","study_id":"60edd13110225f80f9f3709b","session_id":"6196c4a5802110ba8a94fb38","condition":"full-information","relevant_dimensions":["antennae","wings"],"bee_group":{"antennae":"A","wings":"2","pattern":"X","legs":"X"},"bonus":0.800000000000001},{"rt":996.7999999970198,"stimulus":"bees-with-color/bee-A1DF.svg","response":0,"trial_type":"image-button-response","trial_index":151,"time_elapsed":359245,"internal_node_id":"0.0-6.0-0.15","subject_id":"60b14c72faad384ddb2eb66c","study_id":"60edd13110225f80f9f3709b","session_id":"6196c4a5802110ba8a94fb38","condition":"full-information","relevant_dimensions":["antennae","wings"],"bee_group":{"antennae":"A","wings":"2","pattern":"X","legs":"X"},"bonus":0.800000000000001},{"rt":1518.5,"stimulus":"bees-with-color/bee-A1SF.svg","response":0,"trial_type":"image-button-response","trial_index":152,"time_elapsed":360765,"internal_node_id":"0.0-6.0-0.16","subject_id":"60b14c72faad384ddb2eb66c","study_id":"60edd13110225f80f9f3709b","session_id":"6196c4a5802110ba8a94fb38","condition":"full-information","relevant_dimensions":["antennae","wings"],"bee_group":{"antennae":"A","wings":"2","pattern":"X","legs":"X"},"bonus":0.800000000000001},{"rt":1208.9000000059605,"stimulus":"bees-with-color/bee-A1DM.svg","response":1,"trial_type":"image-button-response","trial_index":153,"time_elapsed":361975,"internal_node_id":"0.0-6.0-0.17","subject_id":"60b14c72faad384ddb2eb66c","study_id":"60edd13110225f80f9f3709b","session_id":"6196c4a5802110ba8a94fb38","condition":"full-information","relevant_dimensions":["antennae","wings"],"bee_group":{"antennae":"A","wings":"2","pattern":"X","legs":"X"},"bonus":0.800000000000001},{"rt":1188.5,"stimulus":"bees-with-color/bee-B2SF.svg","response":0,"trial_type":"image-button-response","trial_index":154,"time_elapsed":363165,"internal_node_id":"0.0-6.0-0.18","subject_id":"60b14c72faad384ddb2eb66c","study_id":"60edd13110225f80f9f3709b","session_id":"6196c4a5802110ba8a94fb38","condition":"full-information","relevant_dimensions":["antennae","wings"],"bee_group":{"antennae":"A","wings":"2","pattern":"X","legs":"X"},"bonus":0.800000000000001},{"rt":1940.1999999955297,"stimulus":"bees-with-color/bee-B1DF.svg","response":0,"trial_type":"image-button-response","trial_index":155,"time_elapsed":365106,"internal_node_id":"0.0-6.0-0.19","subject_id":"60b14c72faad384ddb2eb66c","study_id":"60edd13110225f80f9f3709b","session_id":"6196c4a5802110ba8a94fb38","condition":"full-information","relevant_dimensions":["antennae","wings"],"bee_group":{"antennae":"A","wings":"2","pattern":"X","legs":"X"},"bonus":0.800000000000001},{"rt":926.7999999970198,"stimulus":"bees-with-color/bee-A2DM.svg","response":1,"trial_type":"image-button-response","trial_index":156,"time_elapsed":366034,"internal_node_id":"0.0-6.0-0.20","subject_id":"60b14c72faad384ddb2eb66c","study_id":"60edd13110225f80f9f3709b","session_id":"6196c4a5802110ba8a94fb38","condition":"full-information","relevant_dimensions":["antennae","wings"],"bee_group":{"antennae":"A","wings":"2","pattern":"X","legs":"X"},"bonus":0.800000000000001},{"rt":1731.6000000014901,"stimulus":"bees-with-color/bee-A2SM.svg","response":1,"trial_type":"image-button-response","trial_index":157,"time_elapsed":367767,"internal_node_id":"0.0-6.0-0.21","subject_id":"60b14c72faad384ddb2eb66c","study_id":"60edd13110225f80f9f3709b","session_id":"6196c4a5802110ba8a94fb38","condition":"full-information","relevant_dimensions":["antennae","wings"],"bee_group":{"antennae":"A","wings":"2","pattern":"X","legs":"X"},"bonus":0.800000000000001},{"rt":2497.89999999851,"stimulus":"bees-wi