[{"success":true,"trial_type":"fullscreen","trial_index":0,"time_elapsed":2927,"internal_node_id":"0.0-0.0","subject_id":"5a9067894eecca0001dd1427","study_id":"6197b3f67c2b5cd3b6d9596a","session_id":"619be5905bad46d4f91daa99","condition":"full-information","relevant_dimensions":["wings","legs"],"bee_group":{"antennae":"X","wings":"2","pattern":"X","legs":"F"},"bonus":0.32000000000000095},{"success":true,"timeout":false,"failed_images":[],"failed_audio":[],"failed_video":[],"trial_type":"preload","trial_index":1,"time_elapsed":3793,"internal_node_id":"0.0-1.0","subject_id":"5a9067894eecca0001dd1427","study_id":"6197b3f67c2b5cd3b6d9596a","session_id":"619be5905bad46d4f91daa99","condition":"full-information","relevant_dimensions":["wings","legs"],"bee_group":{"antennae":"X","wings":"2","pattern":"X","legs":"F"},"bonus":0.32000000000000095},{"rt":2387,"stimulus":"Welcome! Press any key to begin.","response":" ","trial_type":"html-keyboard-response","trial_index":2,"time_elapsed":6180,"internal_node_id":"0.0-2.0","subject_id":"5a9067894eecca0001dd1427","study_id":"6197b3f67c2b5cd3b6d9596a","session_id":"619be5905bad46d4f91daa99","condition":"full-information","relevant_dimensions":["wings","legs"],"bee_group":{"antennae":"X","wings":"2","pattern":"X","legs":"F"},"bonus":0.32000000000000095},{"view_history":[{"page_index":0,"viewing_time":2676},{"page_index":1,"viewing_time":8606},{"page_index":2,"viewing_time":7728},{"page_index":3,"viewing_time":8760},{"page_index":4,"viewing_time":5457},{"page_index":5,"viewing_time":4440},{"page_index":6,"viewing_time":7273},{"page_index":7,"viewing_time":5086},{"page_index":8,"viewing_time":5761},{"page_index":9,"viewing_time":2231},{"page_index":10,"viewing_time":1793},{"page_index":11,"viewing_time":6143},{"page_index":12,"viewing_time":7936},{"page_index":13,"viewing_time":984},{"page_index":14,"viewing_time":1345}],"rt":76219,"trial_type":"instructions","trial_index":3,"time_elapsed":82399,"internal_node_id":"0.0-3.0-0.0","subject_id":"5a9067894eecca0001dd1427","study_id":"6197b3f67c2b5cd3b6d9596a","session_id":"619be5905bad46d4f91daa99","condition":"full-information","relevant_dimensions":["wings","legs"],"bee_group":{"antennae":"X","wings":"2","pattern":"X","legs":"F"},"bonus":0.32000000000000095},{"rt":22081,"response":{"Q0":["Two or six legs","Stripes or spots on body","Single or double wings","Antennae or no antennae"]},"question_order":[0],"trial_type":"survey-multi-select","trial_index":4,"time_elapsed":104484,"internal_node_id":"0.0-3.0-1.0","subject_id":"5a9067894eecca0001dd1427","study_id":"6197b3f67c2b5cd3b6d9596a","session_id":"619be5905bad46d4f91daa99","condition":"full-information","relevant_dimensions":["wings","legs"],"bee_group":{"antennae":"X","wings":"2","pattern":"X","legs":"F"},"correct":true,"bonus":0.32000000000000095},{"rt":19160,"response":{"Q1":"No.","Q2":"Based on the four features of the bee.","Q3":"You do not learn if it was friendly or dangerous, and do not alter your bonus."},"question_order":[0,1,2],"trial_type":"survey-multi-choice","trial_index":5,"time_elapsed":123647,"internal_node_id":"0.0-3.0-2.0","subject_id":"5a9067894eecca0001dd1427","study_id":"6197b3f67c2b5cd3b6d9596a","session_id":"619be5905bad46d4f91daa99","condition":"full-information","relevant_dimensions":["wings","legs"],"bee_group":{"antennae":"X","wings":"2","pattern":"X","legs":"F"},"correct":false,"bonus":0.32000000000000095},{"rt":2733,"stimulus":"<p>You did not answer all comprehension questions correctly.<br>Press <b>continue</b> to review the instructions again.</p>","response":0,"trial_type":"html-button-response","trial_index":6,"time_elapsed":126382,"internal_node_id":"0.0-3.0-3.0","subject_id":"5a9067894eecca0001dd1427","study_id":"6197b3f67c2b5cd3b6d9596a","session_id":"619be5905bad46d4f91daa99","condition":"full-information","relevant_dimensions":["wings","legs"],"bee_group":{"antennae":"X","wings":"2","pattern":"X","legs":"F"},"bonus":0.32000000000000095},{"view_history":[{"page_index":0,"viewing_time":918},{"page_index":1,"viewing_time":1537},{"page_index":2,"viewing_time":952},{"page_index":3,"viewing_time":544},{"page_index":4,"viewing_time":1032},{"page_index":5,"viewing_time":840},{"page_index":6,"viewing_time":689},{"page_index":7,"viewing_time":2663},{"page_index":8,"viewing_time":1772},{"page_index":9,"viewing_time":1012},{"page_index":10,"viewing_time":1039},{"page_index":11,"viewing_time":1033},{"page_index":12,"viewing_time":1857},{"page_index":13,"viewing_time":871},{"page_index":14,"viewing_time":552}],"rt":17312,"trial_type":"instructions","trial_index":7,"time_elapsed":143695,"internal_node_id":"0.0-3.0-4.0-0.0","subject_id":"5a9067894eecca0001dd1427","study_id":"6197b3f67c2b5cd3b6d9596a","session_id":"619be5905bad46d4f91daa99","condition":"full-information","relevant_dimensions":["wings","legs"],"bee_group":{"antennae":"X","wings":"2","pattern":"X","legs":"F"},"bonus":0.32000000000000095},{"rt":10581,"response":{"Q0":["Two or six legs","Stripes or spots on body","Single or double wings","Antennae or no antennae"]},"question_order":[0],"trial_type":"survey-multi-select","trial_index":8,"time_elapsed":154279,"internal_node_id":"0.0-3.0-4.0-1.0","subject_id":"5a9067894eecca0001dd1427","study_id":"6197b3f67c2b5cd3b6d9596a","session_id":"619be5905bad46d4f91daa99","condition":"full-information","relevant_dimensions":["wings","legs"],"bee_group":{"antennae":"X","wings":"2","pattern":"X","legs":"F"},"correct":true,"bonus":0.32000000000000095},{"rt":20374,"response":{"Q1":"No.","Q2":"Based on the four features of the bee.","Q3":"You learn if it was friendly or dangerous, but do not alter your bonus."},"question_order":[0,1,2],"trial_type":"survey-multi-choice","trial_index":9,"time_elapsed":174654,"internal_node_id":"0.0-3.0-4.0-2.0","subject_id":"5a9067894eecca0001dd1427","study_id":"6197b3f67c2b5cd3b6d9596a","session_id":"619be5905bad46d4f91daa99","condition":"full-information","relevant_dimensions":["wings","legs"],"bee_group":{"antennae":"X","wings":"2","pattern":"X","legs":"F"},"correct":true,"bonus":0.32000000000000095},{"rt":1367,"stimulus":"<p>Congrats, you got everything right<br>When you're ready, click the button below to continue to the experiment.</p>","response":0,"trial_type":"html-button-response","trial_index":10,"time_elapsed":176022,"internal_node_id":"0.0-3.0-4.0-3.0","subject_id":"5a9067894eecca0001dd1427","study_id":"6197b3f67c2b5cd3b6d9596a","session_id":"619be5905bad46d4f91daa99","condition":"full-information","relevant_dimensions":["wings","legs"],"bee_group":{"antennae":"X","wings":"2","pattern":"X","legs":"F"},"bonus":0.32000000000000095},{"rt":4751,"stimulus":"bees-with-color/bee-A2DF.svg","response":1,"trial_type":"image-button-response","trial_index":11,"time_elapsed":180775,"internal_node_id":"0.0-4.0-0.0","subject_id":"5a9067894eecca0001dd1427","study_id":"6197b3f67c2b5cd3b6d9596a","session_id":"619be5905bad46d4f91daa99","condition":"full-information","relevant_dimensions":["wings","legs"],"bee_group":{"antennae":"X","wings":"2","pattern":"X","legs":"F"},"action":"avoid","summary":"good-avoid","bonus":0.32000000000000095},{"rt":15995,"stimulus":"\n                    <p><b>Action: <em>avoid</em></b></p>\n                    <p>This is the bee that you just saw.</p>\n                    <img src=\"bees-with-color/bee-A2DF.svg\" width=\"200\">\n                    <p><span class=\"greenText\">Good choice!</span>  This bee would have stung you.<br>Your bonus pay is unchanged, and remains at $0.54.</p>\n            ","response":0,"trial_type":"html-button-response","trial_index":12,"time_elapsed":196791,"internal_node_id":"0.0-4.0-1.0","subject_id":"5a9067894eecca0001dd1427","study_id":"6197b3f67c2b5cd3b6d9596a","session_id":"619be5905bad46d4f91daa99","condition":"full-information","relevant_dimensions":["wings","legs"],"bee_group":{"antennae":"X","wings":"2","pattern":"X","legs":"F"},"bonus":0.32000000000000095},{"rt":1812,"stimulus":"bees-with-color/bee-B2SF.svg","response":0,"trial_type":"image-button-response","trial_index":13,"time_elapsed":198607,"internal_node_id":"0.0-4.0-0.1","subject_id":"5a9067894eecca0001dd1427","study_id":"6197b3f67c2b5cd3b6d9596a","session_id":"619be5905bad46d4f91daa99","condition":"full-information","relevant_dimensions":["wings","legs"],"bee_group":{"antennae":"X","wings":"2","pattern":"X","legs":"F"},"action":"harvest","summary":"bad-harvest","bonus":0.32000000000000095},{"rt":6862,"stimulus":"\n                    <p><b>Action: <em>harvest</em></b></p>\n                    <p>This is the bee that you just saw.</p>\n                    <img src=\"bees-with-color/bee-B2SF.svg\" width=\"200\">\n                    <p><span class=\"redText\">Bad choice, the bee was angry.</span><br><b>You have been stung!</b><br>Your pay has been decreased by $0.10. Your bonus pay is now $0.44.</p>\n            ","response":0,"trial_type":"html-button-response","trial_index":14,"time_elapsed":205470,"internal_node_id":"0.0-4.0-1.1","subject_id":"5a9067894eecca0001dd1427","study_id":"6197b3f67c2b5cd3b6d9596a","session_id":"619be5905bad46d4f91daa99","condition":"full-information","relevant_dimensions":["wings","legs"],"bee_group":{"antennae":"X","wings":"2","pattern":"X","legs":"F"},"bonus":0.32000000000000095},{"rt":1808,"stimulus":"bees-with-color/bee-A2SM.svg","response":0,"trial_type":"image-button-response","trial_index":15,"time_elapsed":207278,"internal_node_id":"0.0-4.0-0.2","subject_id":"5a9067894eecca0001dd1427","study_id":"6197b3f67c2b5cd3b6d9596a","session_id":"619be5905bad46d4f91daa99","condition":"full-information","relevant_dimensions":["wings","legs"],"bee_group":{"antennae":"X","wings":"2","pattern":"X","legs":"F"},"action":"harvest","summary":"good-harvest","bonus":0.32000000000000095},{"rt":5294,"stimulus":"\n                    <p><b>Action: <em>harvest</em></b></p>\n                    <p>This is the bee that you just saw.</p>\n                    <img src=\"bees-with-color/bee-A2SM.svg\" width=\"200\">\n                    <p><span class=\"greenText\"><b>Successful harvest!</b></span><br>Your pay has increased by $0.02. Your bonus pay is now $0.46.</p>\n            ","response":0,"trial_type":"html-button-response","trial_index":16,"time_elapsed":212573,"internal_node_id":"0.0-4.0-1.2","subject_id":"5a9067894eecca0001dd1427","study_id":"6197b3f67c2b5cd3b6d9596a","session_id":"619be5905bad46d4f91daa99","condition":"full-information","relevant_dimensions":["wings","legs"],"bee_group":{"antennae":"X","wings":"2","pattern":"X","legs":"F"},"bonus":0.32000000000000095},{"rt":1656,"stimulus":"bees-with-color/bee-B1SM.svg","response":0,"trial_type":"image-button-response","trial_index":17,"time_elapsed":214230,"internal_node_id":"0.0-4.0-0.3","subject_id":"5a9067894eecca0001dd1427","study_id":"6197b3f67c2b5cd3b6d9596a","session_id":"619be5905bad46d4f91daa99","condition":"full-information","relevant_dimensions":["wings","legs"],"bee_group":{"antennae":"X","wings":"2","pattern":"X","legs":"F"},"action":"harvest","summary":"good-harvest","bonus":0.32000000000000095},{"rt":4159,"stimulus":"\n                    <p><b>Action: <em>harvest</em></b></p>\n                    <p>This is the bee that you just saw.</p>\n                    <img src=\"bees-with-color/bee-B1SM.svg\" width=\"200\">\n                    <p><span class=\"greenText\"><b>Successful harvest!</b></span><br>Your pay has increased by $0.02. Your bonus pay is now $0.48.</p>\n            ","response":0,"trial_type":"html-button-response","trial_index":18,"time_elapsed":218390,"internal_node_id":"0.0-4.0-1.3","subject_id":"5a9067894eecca0001dd1427","study_id":"6197b3f67c2b5cd3b6d9596a","session_id":"619be5905bad46d4f91daa99","condition":"full-information","relevant_dimensions":["wings","legs"],"bee_group":{"antennae":"X","wings":"2","pattern":"X","legs":"F"},"bonus":0.32000000000000095},{"rt":2335,"stimulus":"bees-with-color/bee-B1DM.svg","response":1,"trial_type":"image-button-response","trial_index":19,"time_elapsed":220726,"internal_node_id":"0.0-4.0-0.4","subject_id":"5a9067894eecca0001dd1427","study_id":"6197b3f67c2b5cd3b6d9596a","session_id":"619be5905bad46d4f91daa99","condition":"full-information","relevant_dimensions":["wings","legs"],"bee_group":{"antennae":"X","wings":"2","pattern":"X","legs":"F"},"action":"avoid","summary":"bad-avoid","bonus":0.32000000000000095},{"rt":6613,"stimulus":"\n                    <p><b>Action: <em>avoid</em></b></p>\n                    <p>This is the bee that you just saw.</p>\n                    <img src=\"bees-with-color/bee-B1DM.svg\" width=\"200\">\n                    <p><span class=\"redText\">Bad choice,</span> the bee was friendly.<br>Your bonus pay is unchanged, and remains at $0.48.</p>\n            ","response":0,"trial_type":"html-button-response","trial_index":20,"time_elapsed":227341,"internal_node_id":"0.0-4.0-1.4","subject_id":"5a9067894eecca0001dd1427","study_id":"6197b3f67c2b5cd3b6d9596a","session_id":"619be5905bad46d4f91daa99","condition":"full-information","relevant_dimensions":["wings","legs"],"bee_group":{"antennae":"X","wings":"2","pattern":"X","legs":"F"},"bonus":0.32000000000000095},{"rt":1984,"stimulus":"bees-with-color/bee-B1DF.svg","response":1,"trial_type":"image-button-response","trial_index":21,"time_elapsed":229327,"internal_node_id":"0.0-4.0-0.5","subject_id":"5a9067894eecca0001dd1427","study_id":"6197b3f67c2b5cd3b6d9596a","session_id":"619be5905bad46d4f91daa99","condition":"full-information","relevant_dimensions":["wings","legs"],"bee_group":{"antennae":"X","wings":"2","pattern":"X","legs":"F"},"action":"avoid","summary":"bad-avoid","bonus":0.32000000000000095},{"rt":6158,"stimulus":"\n                    <p><b>Action: <em>avoid</em></b></p>\n                    <p>This is the bee that you just saw.</p>\n                    <img src=\"bees-with-color/bee-B1DF.svg\" width=\"200\">\n                    <p><span class=\"redText\">Bad choice,</span> the bee was friendly.<br>Your bonus pay is unchanged, and remains at $0.48.</p>\n            ","response":0,"trial_type":"html-button-response","trial_index":22,"time_elapsed":235486,"internal_node_id":"0.0-4.0-1.5","subject_id":"5a9067894eecca0001dd1427","study_id":"6197b3f67c2b5cd3b6d9596a","session_id":"619be5905bad46d4f91daa99","condition":"full-information","relevant_dimensions":["wings","legs"],"bee_group":{"antennae":"X","wings":"2","pattern":"X","legs":"F"},"bonus":0.32000000000000095},{"rt":14585,"stimulus":"bees-with-color/bee-A1SF.svg","response":0,"trial_type":"image-button-response","trial_index":23,"time_elapsed":250072,"internal_node_id":"0.0-4.0-0.6","subject_id":"5a9067894eecca0001dd1427","study_id":"6197b3f67c2b5cd3b6d9596a","session_id":"619be5905bad46d4f91daa99","condition":"full-information","relevant_dimensions":["wings","legs"],"bee_group":{"antennae":"X","wings":"2","pattern":"X","legs":"F"},"action":"harvest","summary":"good-harvest","bonus":0.32000000000000095},{"rt":5045,"stimulus":"\n                    <p><b>Action: <em>harvest</em></b></p>\n                    <p>This is the bee that you just saw.</p>\n                    <img src=\"bees-with-color/bee-A1SF.svg\" width=\"200\">\n                    <p><span class=\"greenText\"><b>Successful harvest!</b></span><br>Your pay has increased by $0.02. Your bonus pay is now $0.50.</p>\n            ","response":0,"trial_type":"html-button-response","trial_index":24,"time_elapsed":255118,"internal_node_id":"0.0-4.0-1.6","subject_id":"5a9067894eecca0001dd1427","study_id":"6197b3f67c2b5cd3b6d9596a","session_id":"619be5905bad46d4f91daa99","condition":"full-information","relevant_dimensions":["wings","legs"],"bee_group":{"antennae":"X","wings":"2","pattern":"X","legs":"F"},"bonus":0.32000000000000095},{"rt":1311,"stimulus":"bees-with-color/bee-A1SM.svg","response":0,"trial_type":"image-button-response","trial_index":25,"time_elapsed":256430,"internal_node_id":"0.0-4.0-0.7","subject_id":"5a9067894eecca0001dd1427","study_id":"6197b3f67c2b5cd3b6d9596a","session_id":"619be5905bad46d4f91daa99","condition":"full-information","relevant_dimensions":["wings","legs"],"bee_group":{"antennae":"X","wings":"2","pattern":"X","legs":"F"},"action":"harvest","summary":"good-harvest","bonus":0.32000000000000095},{"rt":5999,"stimulus":"\n                    <p><b>Action: <em>harvest</em></b></p>\n                    <p>This is the bee that you just saw.</p>\n                    <img src=\"bees-with-color/bee-A1SM.svg\" width=\"200\">\n                    <p><span class=\"greenText\"><b>Successful harvest!</b></span><br>Your pay has increased by $0.02. Your bonus pay is now $0.52.</p>\n            ","response":0,"trial_type":"html-button-response","trial_index":26,"time_elapsed":262430,"internal_node_id":"0.0-4.0-1.7","subject_id":"5a9067894eecca0001dd1427","study_id":"6197b3f67c2b5cd3b6d9596a","session_id":"619be5905bad46d4f91daa99","condition":"full-information","relevant_dimensions":["wings","legs"],"bee_group":{"antennae":"X","wings":"2","pattern":"X","legs":"F"},"bonus":0.32000000000000095},{"rt":1046,"stimulus":"bees-with-color/bee-A1DF.svg","response":1,"trial_type":"image-button-response","trial_index":27,"time_elapsed":263478,"internal_node_id":"0.0-4.0-0.8","subject_id":"5a9067894eecca0001dd1427","study_id":"6197b3f67c2b5cd3b6d9596a","session_id":"619be5905bad46d4f91daa99","condition":"full-information","relevant_dimensions":["wings","legs"],"bee_group":{"antennae":"X","wings":"2","pattern":"X","legs":"F"},"action":"avoid","summary":"bad-avoid","bonus":0.32000000000000095},{"rt":2327,"stimulus":"\n                    <p><b>Action: <em>avoid</em></b></p>\n                    <p>This is the bee that you just saw.</p>\n                    <img src=\"bees-with-color/bee-A1DF.svg\" width=\"200\">\n                    <p><span class=\"redText\">Bad choice,</span> the bee was friendly.<br>Your bonus pay is unchanged, and remains at $0.52.</p>\n            ","response":0,"trial_type":"html-button-response","trial_index":28,"time_elapsed":265806,"internal_node_id":"0.0-4.0-1.8","subject_id":"5a9067894eecca0001dd1427","study_id":"6197b3f67c2b5cd3b6d9596a","session_id":"619be5905bad46d4f91daa99","condition":"full-information","relevant_dimensions":["wings","legs"],"bee_group":{"antennae":"X","wings":"2","pattern":"X","legs":"F"},"bonus":0.32000000000000095},{"rt":1337,"stimulus":"bees-with-color/bee-B2SM.svg","response":1,"trial_type":"image-button-response","trial_index":29,"time_elapsed":267144,"internal_node_id":"0.0-4.0-0.9","subject_id":"5a9067894eecca0001dd1427","study_id":"6197b3f67c2b5cd3b6d9596a","session_id":"619be5905bad46d4f91daa99","condition":"full-information","relevant_dimensions":["wings","legs"],"bee_group":{"antennae":"X","wings":"2","pattern":"X","legs":"F"},"action":"avoid","summary":"bad-avoid","bonus":0.32000000000000095},{"rt":1196,"stimulus":"\n                    <p><b>Action: <em>avoid</em></b></p>\n                    <p>This is the bee that you just saw.</p>\n                    <img src=\"bees-with-color/bee-B2SM.svg\" width=\"200\">\n                    <p><span class=\"redText\">Bad choice,</span> the bee was friendly.<br>Your bonus pay is unchanged, and remains at $0.52.</p>\n            ","response":0,"trial_type":"html-button-response","trial_index":30,"time_elapsed":268342,"internal_node_id":"0.0-4.0-1.9","subject_id":"5a9067894eecca0001dd1427","study_id":"6197b3f67c2b5cd3b6d9596a","session_id":"619be5905bad46d4f91daa99","condition":"full-information","relevant_dimensions":["wings","legs"],"bee_group":{"antennae":"X","wings":"2","pattern":"X","legs":"F"},"bonus":0.32000000000000095},{"rt":903,"stimulus":"bees-with-color/bee-A2SF.svg","response":1,"trial_type":"image-button-response","trial_index":31,"time_elapsed":269246,"internal_node_id":"0.0-4.0-0.10","subject_id":"5a9067894eecca0001dd1427","study_id":"6197b3f67c2b5cd3b6d9596a","session_id":"619be5905bad46d4f91daa99","condition":"full-information","relevant_dimensions":["wings","legs"],"bee_group":{"antennae":"X","wings":"2","pattern":"X","legs":"F"},"action":"avoid","summary":"good-avoid","bonus":0.32000000000000095},{"rt":1014,"stimulus":"\n                    <p><b>Action: <em>avoid</em></b></p>\n                    <p>This is the bee that you just saw.</p>\n                    <img src=\"bees-with-color/bee-A2SF.svg\" width=\"200\">\n                    <p><span class=\"greenText\">Good choice!</span>  This bee would have stung you.<br>Your bonus pay is unchanged, and remains at $0.52.</p>\n            ","response":0,"trial_type":"html-button-response","trial_index":32,"time_elapsed":270262,"internal_node_id":"0.0-4.0-1.10","subject_id":"5a9067894eecca0001dd1427","study_id":"6197b3f67c2b5cd3b6d9596a","session_id":"619be5905bad46d4f91daa99","condition":"full-information","relevant_dimensions":["wings","legs"],"bee_group":{"antennae":"X","wings":"2","pattern":"X","legs":"F"},"bonus":0.32000000000000095},{"rt":1072,"stimulus":"bees-with-color/bee-B2DM.svg","response":1,"trial_type":"image-button-response","trial_index":33,"time_elapsed":271335,"internal_node_id":"0.0-4.0-0.11","subject_id":"5a9067894eecca0001dd1427","study_id":"6197b3f67c2b5cd3b6d9596a","session_id":"619be5905bad46d4f91daa99","condition":"full-information","relevant_dimensions":["wings","legs"],"bee_group":{"antennae":"X","wings":"2","pattern":"X","legs":"F"},"action":"avoid","summary":"bad-avoid","bonus":0.32000000000000095},{"rt":896,"stimulus":"\n                    <p><b>Action: <em>avoid</em></b></p>\n                    <p>This is the bee that you just saw.</p>\n                    <img src=\"bees-with-color/bee-B2DM.svg\" width=\"200\">\n                    <p><span class=\"redText\">Bad choice,</span> the bee was friendly.<br>Your bonus pay is unchanged, and remains at $0.52.</p>\n            ","response":0,"trial_type":"html-button-response","trial_index":34,"time_elapsed":272229,"internal_node_id":"0.0-4.0-1.11","subject_id":"5a9067894eecca0001dd1427","study_id":"6197b3f67c2b5cd3b6d9596a","session_id":"619be5905bad46d4f91daa99","condition":"full-information","relevant_dimensions":["wings","legs"],"bee_group":{"antennae":"X","wings":"2","pattern":"X","legs":"F"},"bonus":0.32000000000000095},{"rt":1408,"stimulus":"bees-with-color/bee-B1SF.svg","response":0,"trial_type":"image-button-response","trial_index":35,"time_elapsed":273638,"internal_node_id":"0.0-4.0-0.12","subject_id":"5a9067894eecca0001dd1427","study_id":"6197b3f67c2b5cd3b6d9596a","session_id":"619be5905bad46d4f91daa99","condition":"full-information","relevant_dimensions":["wings","legs"],"bee_group":{"antennae":"X","wings":"2","pattern":"X","legs":"F"},"action":"harvest","summary":"good-harvest","bonus":0.32000000000000095},{"rt":1015,"stimulus":"\n                    <p><b>Action: <em>harvest</em></b></p>\n                    <p>This is the bee that you just saw.</p>\n                    <img src=\"bees-with-color/bee-B1SF.svg\" width=\"200\">\n                    <p><span class=\"greenText\"><b>Successful harvest!</b></span><br>Your pay has increased by $0.02. Your bonus pay is now $0.54.</p>\n            ","response":0,"trial_type":"html-button-response","trial_index":36,"time_elapsed":274654,"internal_node_id":"0.0-4.0-1.12","subject_id":"5a9067894eecca0001dd1427","study_id":"6197b3f67c2b5cd3b6d9596a","session_id":"619be5905bad46d4f91daa99","condition":"full-information","relevant_dimensions":["wings","legs"],"bee_group":{"antennae":"X","wings":"2","pattern":"X","legs":"F"},"bonus":0.32000000000000095},{"rt":1495,"stimulus":"bees-with-color/bee-B2DF.svg","response":1,"trial_type":"image-button-response","trial_index":37,"time_elapsed":276150,"internal_node_id":"0.0-4.0-0.13","subject_id":"5a9067894eecca0001dd1427","study_id":"6197b3f67c2b5cd3b6d9596a","session_id":"619be5905bad46d4f91daa99","condition":"full-information","relevant_dimensions":["wings","legs"],"bee_group":{"antennae":"X","wings":"2","pattern":"X","legs":"F"},"action":"avoid","summary":"good-avoid","bonus":0.32000000000000095},{"rt":1847,"stimulus":"\n                    <p><b>Action: <em>avoid</em></b></p>\n                    <p>This is the bee that you just saw.</p>\n                    <img src=\"bees-with-color/bee-B2DF.svg\" width=\"200\">\n                    <p><span class=\"greenText\">Good choice!</span>  This bee would have stung you.<br>Your bonus pay is unchanged, and remains at $0.54.</p>\n            ","response":0,"trial_type":"html-button-response","trial_index":38,"time_elapsed":277997,"internal_node_id":"0.0-4.0-1.13","subject_id":"5a9067894eecca0001dd1427","study_id":"6197b3f67c2b5cd3b6d9596a","session_id":"619be5905bad46d4f91daa99","condition":"full-information","relevant_dimensions":["wings","legs"],"bee_group":{"antennae":"X","wings":"2","pattern":"X","legs":"F"},"bonus":0.32000000000000095},{"rt":1344,"stimulus":"bees-with-color/bee-A2DM.svg","response":1,"trial_type":"image-button-response","trial_index":39,"time_elapsed":279343,"internal_node_id":"0.0-4.0-0.14","subject_id":"5a9067894eecca0001dd1427","study_id":"6197b3f67c2b5cd3b6d9596a","session_id":"619be5905bad46d4f91daa99","condition":"full-information","relevant_dimensions":["wings","legs"],"bee_group":{"antennae":"X","wings":"2","pattern":"X","legs":"F"},"action":"avoid","summary":"bad-avoid","bonus":0.32000000000000095},{"rt":901,"stimulus":"\n                    <p><b>Action: <em>avoid</em></b></p>\n                    <p>This is the bee that you just saw.</p>\n                    <img src=\"bees-with-color/bee-A2DM.svg\" width=\"200\">\n                    <p><span class=\"redText\">Bad choice,</span> the bee was friendly.<br>Your bonus pay is unchanged, and remains at $0.54.</p>\n            ","response":0,"trial_type":"html-button-response","trial_index":40,"time_elapsed":280245,"internal_node_id":"0.0-4.0-1.14","subject_id":"5a9067894eecca0001dd1427","study_id":"6197b3f67c2b5cd3b6d9596a","session_id":"619be5905bad46d4f91daa99","condition":"full-information","relevant_dimensions":["wings","legs"],"bee_group":{"antennae":"X","wings":"2","pattern":"X","legs":"F"},"bonus":0.32000000000000095},{"rt":1159,"stimulus":"bees-with-color/bee-A1DM.svg","response":0,"trial_type":"image-button-response","trial_index":41,"time_elapsed":281406,"internal_node_id":"0.0-4.0-0.15","subject_id":"5a9067894eecca0001dd1427","study_id":"6197b3f67c2b5cd3b6d9596a","session_id":"619be5905bad46d4f91daa99","condition":"full-information","relevant_dimensions":["wings","legs"],"bee_group":{"antennae":"X","wings":"2","pattern":"X","legs":"F"},"action":"harvest","summary":"good-harvest","bonus":0.32000000000000095},{"rt":1247,"stimulus":"\n                    <p><b>Action: <em>harvest</em></b></p>\n                    <p>This is the bee that you just saw.</p>\n                    <img src=\"bees-with-color/bee-A1DM.svg\" width=\"200\">\n                    <p><span class=\"greenText\"><b>Successful harvest!</b></span><br>Your pay has increased by $0.02. Your bonus pay is now $0.56.</p>\n            ","response":0,"trial_type":"html-button-response","trial_index":42,"time_elapsed":282653,"internal_node_id":"0.0-4.0-1.15","subject_id":"5a9067894eecca0001dd1427","study_id":"6197b3f67c2b5cd3b6d9596a","session_id":"619be5905bad46d4f91daa99","condition":"full-information","relevant_dimensions":["wings","legs"],"bee_group":{"antennae":"X","wings":"2","pattern":"X","legs":"F"},"bonus":0.32000000000000095},{"rt":2479,"stimulus":"bees-with-color/bee-B2DM.svg","response":0,"trial_type":"image-button-response","trial_index":43,"time_elapsed":285133,"internal_node_id":"0.0-4.0-0.16","subject_id":"5a9067894eecca0001dd1427","study_id":"6197b3f67c2b5cd3b6d9596a","session_id":"619be5905bad46d4f91daa99","condition":"full-information","relevant_dimensions":["wings","legs"],"bee_group":{"antennae":"X","wings":"2","pattern":"X","legs":"F"},"action":"harvest","summary":"good-harvest","bonus":0.32000000000000095},{"rt":919,"stimulus":"\n                    <p><b>Action: <em>harvest</em></b></p>\n                    <p>This is the bee that you just saw.</p>\n                    <img src=\"bees-with-color/bee-B2DM.svg\" width=\"200\">\n                    <p><span class=\"greenText\"><b>Successful harvest!</b></span><br>Your pay has increased by $0.02. Your bonus pay is now $0.58.</p>\n            ","response":0,"trial_type":"html-button-response","trial_index":44,"time_elapsed":286053,"internal_node_id":"0.0-4.0-1.16","subject_id":"5a9067894eecca0001dd1427","study_id":"6197b3f67c2b5cd3b6d9596a","session_id":"619be5905bad46d4f91daa99","condition":"full-information","relevant_dimensions":["wings","legs"],"bee_group":{"antennae":"X","wings":"2","pattern":"X","legs":"F"},"bonus":0.32000000000000095},{"rt":2089,"stimulus":"bees-with-color/bee-A2SM.svg","response":1,"trial_type":"image-button-response","trial_index":45,"time_elapsed":288143,"internal_node_id":"0.0-4.0-0.17","subject_id":"5a9067894eecca0001dd1427","study_id":"6197b3f67c2b5cd3b6d9596a","session_id":"619be5905bad46d4f91daa99","condition":"full-information","relevant_dimensions":["wings","legs"],"bee_group":{"antennae":"X","wings":"2","pattern":"X","legs":"F"},"action":"avoid","summary":"bad-avoid","bonus":0.32000000000000095},{"rt":1462,"stimulus":"\n                    <p><b>Action: <em>avoid</em></b></p>\n                    <p>This is the bee that you just saw.</p>\n                    <img src=\"bees-with-color/bee-A2SM.svg\" width=\"200\">\n                    <p><span class=\"redText\">Bad choice,</span> the bee was friendly.<br>Your bonus pay is unchanged, and remains at $0.58.</p>\n            ","response":0,"trial_type":"html-button-response","trial_index":46,"time_elapsed":289605,"internal_node_id":"0.0-4.0-1.17","subject_id":"5a9067894eecca0001dd1427","study_id":"6197b3f67c2b5cd3b6d9596a","session_id":"619be5905bad46d4f91daa99","condition":"full-information","relevant_dimensions":["wings","legs"],"bee_group":{"antennae":"X","wings":"2","pattern":"X","legs":"F"},"bonus":0.32000000000000095},{"rt":999,"stimulus":"bees-with-color/bee-A2DM.svg","response":1,"trial_type":"image-button-response","trial_index":47,"time_elapsed":290606,"internal_node_id":"0.0-4.0-0.18","subject_id":"5a9067894eecca0001dd1427","study_id":"6197b3f67c2b5cd3b6d9596a","session_id":"619be5905bad46d4f91daa99","condition":"full-information","relevant_dimensions":["wings","legs"],"bee_group":{"antennae":"X","wings":"2","pattern":"X","legs":"F"},"action":"avoid","summary":"bad-avoid","bonus":0.32000000000000095},{"rt":792,"stimulus":"\n                    <p><b>Action: <em>avoid</em></b></p>\n                    <p>This is the bee that you just saw.</p>\n                    <img src=\"bees-with-color/bee-A2DM.svg\" width=\"200\">\n                    <p><span class=\"redText\">Bad choice,</span> the bee was friendly.<br>Your bonus pay is unchanged, and remains at $0.58.</p>\n            ","response":0,"trial_type":"html-button-response","trial_index":48,"time_elapsed":291399,"internal_node_id":"0.0-4.0-1.18","subject_id":"5a9067894eecca0001dd1427","study_id":"6197b3f67c2b5cd3b6d9596a","session_id":"619be5905bad46d4f91daa99","condition":"full-information","relevant_dimensions":["wings","legs"],"bee_group":{"antennae":"X","wings":"2","pattern":"X","legs":"F"},"bonus":0.32000000000000095},{"rt":597,"stimulus":"bees-with-color/bee-A1DM.svg","response":1,"trial_type":"image-button-response","trial_index":49,"time_elapsed":291997,"internal_node_id":"0.0-4.0-0.19","subject_id":"5a9067894eecca0001dd1427","study_id":"6197b3f67c2b5cd3b6d9596a","session_id":"619be5905bad46d4f91daa99","condition":"full-information","relevant_dimensions":["wings","legs"],"bee_group":{"antennae":"X","wings":"2","pattern":"X","legs":"F"},"action":"avoid","summary":"bad-avoid","bonus":0.32000000000000095},{"rt":727,"stimulus":"\n                    <p><b>Action: <em>avoid</em></b></p>\n                    <p>This is the bee that you just saw.</p>\n                    <img src=\"bees-with-color/bee-A1DM.svg\" width=\"200\">\n                    <p><span class=\"redText\">Bad choice,</span> the bee was friendly.<br>Your bonus pay is unchanged, and remains at $0.58.</p>\n            ","response":0,"trial_type":"html-button-response","trial_index":50,"time_elapsed":292726,"internal_node_id":"0.0-4.0-1.19","subject_id":"5a9067894eecca0001dd1427","study_id":"6197b3f67c2b5cd3b6d9596a","session_id":"619be5905bad46d4f91daa99","condition":"full-information","relevant_dimensions":["wings","legs"],"bee_group":{"antennae":"X","wings":"2","pattern":"X","legs":"F"},"bonus":0.32000000000000095},{"rt":519,"stimulus":"bees-with-color/bee-A1SF.svg","response":1,"trial_type":"image-button-response","trial_index":51,"time_elapsed":293245,"internal_node_id":"0.0-4.0-0.20","subject_id":"5a9067894eecca0001dd1427","study_id":"6197b3f67c2b5cd3b6d9596a","session_id":"619be5905bad46d4f91daa99","condition":"full-information","relevant_dimensions":["wings","legs"],"bee_group":{"antennae":"X","wings":"2","pattern":"X","legs":"F"},"action":"avoid","summary":"bad-avoid","bonus":0.32000000000000095},{"rt":3153,"stimulus":"\n                    <p><b>Action: <em>avoid</em></b></p>\n                    <p>This is the bee that you just saw.</p>\n                    <img src=\"bees-with-color/bee-A1SF.svg\" width=\"200\">\n                    <p><span class=\"redText\">Bad choice,</span> the bee was friendly.<br>Your bonus pay is unchanged, and remains at $0.58.</p>\n            ","response":0,"trial_type":"html-button-response","trial_index":52,"time_elapsed":296399,"internal_node_id":"0.0-4.0-1.20","subject_id":"5a9067894eecca0001dd1427","study_id":"6197b3f67c2b5cd3b6d9596a","session_id":"619be5905bad46d4f91daa99","condition":"full-information","relevant_dimensions":["wings","legs"],"bee_group":{"antennae":"X","wings":"2","pattern":"X","legs":"F"},"bonus":0.32000000000000095},{"rt":910,"stimulus":"bees-with-color/bee-B2SF.svg","response":1,"trial_type":"image-button-response","trial_index":53,"time_elapsed":297310,"internal_node_id":"0.0-4.0-0.21","subject_id":"5a9067894eecca0001dd1427","study_id":"6197b3f67c2b5cd3b6d9596a","session_id":"619be5905bad46d4f91daa99","condition":"full-information","relevant_dimensions":["wings","legs"],"bee_group":{"antennae":"X","wings":"2","pattern":"X","legs":"F"},"action":"avoid","summary":"good-avoid","bonus":0.32000000000000095},{"rt":848,"stimulus":"\n                    <p><b>Action: <em>avoid</em></b></p>\n                    <p>This is the bee that you just saw.</p>\n                    <img src=\"bees-with-color/bee-B2SF.svg\" width=\"200\">\n                    <p><span class=\"greenText\">Good choice!</span>  This bee would have stung you.<br>Your bonus pay is unchanged, and remains at $0.58.</p>\n            ","response":0,"trial_type":"html-button-response","trial_index":54,"time_elapsed":298158,"internal_node_id":"0.0-4.0-1.21","subject_id":"5a9067894eecca0001dd1427","study_id":"6197b3f67c2b5cd3b6d9596a","session_id":"619be5905bad46d4f91daa99","condition":"full-information","relevant_dimensions":["wings","legs"],"bee_group":{"antennae":"X","wings":"2","pattern":"X","legs":"F"},"bonus":0.32000000000000095},{"rt":654,"stimulus":"bees-with-color/bee-B2SM.svg","response":0,"trial_type":"image-button-response","trial_index":55,"time_elapsed":298813,"internal_node_id":"0.0-4.0-0.22","subject_id":"5a9067894eecca0001dd1427","study_id":"6197b3f67c2b5cd3b6d9596a","session_id":"619be5905bad46d4f91daa99","condition":"full-information","relevant_dimensions":["wings","legs"],"bee_group":{"antennae":"X","wings":"2","pattern":"X","legs":"F"},"action":"harvest","summary":"good-harvest","bonus":0.32000000000000095},{"rt":943,"stimulus":"\n                    <p><b>Action: <em>harvest</em></b></p>\n                    <p>This is the bee that you just saw.</p>\n                    <img src=\"bees-with-color/bee-B2SM.svg\" width=\"200\">\n                    <p><span class=\"greenText\"><b>Successful harvest!</b></span><br>Your pay has increased by $0.02. Your bonus pay is now $0.60.</p>\n            ","response":0,"trial_type":"html-button-response","trial_index":56,"time_elapsed":299759,"internal_node_id":"0.0-4.0-1.22","subject_id":"5a9067894eecca0001dd1427","study_id":"6197b3f67c2b5cd3b6d9596a","session_id":"619be5905bad46d4f91daa99","condition":"full-information","relevant_dimensions":["wings","legs"],"bee_group":{"antennae":"X","wings":"2","pattern":"X","legs":"F"},"bonus":0.32000000000000095},{"rt":56831,"stimulus":"bees-with-color/bee-A2SF.svg","response":1,"trial_type":"image-button-response","trial_index":57,"time_elapsed":356590,"internal_node_id":"0.0-4.0-0.23","subject_id":"5a9067894eecca0001dd1427","study_id":"6197b3f67c2b5cd3b6d9596a","session_id":"619be5905bad46d4f91daa99","condition":"full-information","relevant_dimensions":["wings","legs"],"bee_group":{"antennae":"X","wings":"2","pattern":"X","legs":"F"},"action":"avoid","summary":"good-avoid","bonus":0.32000000000000095},{"rt":1030,"stimulus":"\n                    <p><b>Action: <em>avoid</em></b></p>\n                    <p>This is the bee that you just saw.</p>\n                    <img src=\"bees-with-color/bee-A2SF.svg\" width=\"200\">\n                    <p><span class=\"greenText\">Good choice!</span>  This bee would have stung you.<br>Your bonus pay is unchanged, and remains at $0.60.</p>\n            ","response":0,"trial_type":"html-button-response","trial_index":58,"time_elapsed":357621,"internal_node_id":"0.0-4.0-1.23","subject_id":"5a9067894eecca0001dd1427","study_id":"6197b3f67c2b5cd3b6d9596a","session_id":"619be5905bad46d4f91daa99","condition":"full-information","relevant_dimensions":["wings","legs"],"bee_group":{"antennae":"X","wings":"2","pattern":"X","legs":"F"},"bonus":0.32000000000000095},{"rt":1007,"stimulus":"bees-with-color/bee-B2DF.svg","response":0,"trial_type":"image-button-response","trial_index":59,"time_elapsed":358630,"internal_node_id":"0.0-4.0-0.24","subject_id":"5a9067894eecca0001dd1427","study_id":"6197b3f67c2b5cd3b6d9596a","session_id":"619be5905bad46d4f91daa99","condition":"full-information","relevant_dimensions":["wings","legs"],"bee_group":{"antennae":"X","wings":"2","pattern":"X","legs":"F"},"action":"harvest","summary":"bad-harvest","bonus":0.32000000000000095},{"rt":855,"stimulus":"\n                    <p><b>Action: <em>harvest</em></b></p>\n                    <p>This is the bee that you just saw.</p>\n                    <img src=\"bees-with-color/bee-B2DF.svg\" width=\"200\">\n                    <p><span class=\"redText\">Bad choice, the bee was angry.</span><br><b>You have been stung!</b><br>Your pay has been decreased by $0.10. Your bonus pay is now $0.50.</p>\n            ","response":0,"trial_type":"html-button-response","trial_index":60,"time_elapsed":359485,"internal_node_id":"0.0-4.0-1.24","subject_id":"5a9067894eecca0001dd1427","study_id":"6197b3f67c2b5cd3b6d9596a","session_id":"619be5905bad46d4f91daa99","condition":"full-information","relevant_dimensions":["wings","legs"],"bee_group":{"antennae":"X","wings":"2","pattern":"X","legs":"F"},"bonus":0.32000000000000095},{"rt":943,"stimulus":"bees-with-color/bee-B1SF.svg","response":1,"trial_type":"image-button-response","trial_index":61,"time_elapsed":360429,"internal_node_id":"0.0-4.0-0.25","subject_id":"5a9067894eecca0001dd1427","study_id":"6197b3f67c2b5cd3b6d9596a","session_id":"619be5905bad46d4f91daa99","condition":"full-information","relevant_dimensions":["wings","legs"],"bee_group":{"antennae":"X","wings":"2","pattern":"X","legs":"F"},"action":"avoid","summary":"bad-avoid","bonus":0.32000000000000095},{"rt":959,"stimulus":"\n                    <p><b>Action: <em>avoid</em></b></p>\n                    <p>This is the bee that you just saw.</p>\n                    <img src=\"bees-with-color/bee-B1SF.svg\" width=\"200\">\n                    <p><span class=\"redText\">Bad choice,</span> the bee was friendly.<br>Your bonus pay is unchanged, and remains at $0.50.</p>\n            ","response":0,"trial_type":"html-button-response","trial_index":62,"time_elapsed":361389,"internal_node_id":"0.0-4.0-1.25","subject_id":"5a9067894eecca0001dd1427","study_id":"6197b3f67c2b5cd3b6d9596a","session_id":"619be5905bad46d4f91daa99","condition":"full-information","relevant_dimensions":["wings","legs"],"bee_group":{"antennae":"X","wings":"2","pattern":"X","legs":"F"},"bonus":0.32000000000000095},{"rt":1184,"stimulus":"bees-with-color/bee-B1DM.svg","response":1,"trial_type":"image-button-response","trial_index":63,"time_elapsed":362575,"internal_node_id":"0.0-4.0-0.26","subject_id":"5a9067894eecca0001dd1427","study_id":"6197b3f67c2b5cd3b6d9596a","session_id":"619be5905bad46d4f91daa99","condition":"full-information","relevant_dimensions":["wings","legs"],"bee_group":{"antennae":"X","wings":"2","pattern":"X","legs":"F"},"action":"avoid","summary":"bad-avoid","bonus":0.32000000000000095},{"rt":806,"stimulus":"\n                    <p><b>Action: <em>avoid</em></b></p>\n                    <p>This is the bee that you just saw.</p>\n                    <img src=\"bees-with-color/bee-B1DM.svg\" width=\"200\">\n                    <p><span class=\"redText\">Bad choice,</span> the bee was friendly.<br>Your bonus pay is unchanged, and remains at $0.50.</p>\n            ","response":0,"trial_type":"html-button-response","trial_index":64,"time_elapsed":363381,"internal_node_id":"0.0-4.0-1.26","subject_id":"5a9067894eecca0001dd1427","study_id":"6197b3f67c2b5cd3b6d9596a","session_id":"619be5905bad46d4f91daa99","condition":"full-information","relevant_dimensions":["wings","legs"],"bee_group":{"antennae":"X","wings":"2","pattern":"X","legs":"F"},"bonus":0.32000000000000095},{"rt":559,"stimulus":"bees-with-color/bee-A1SM.svg","response":1,"trial_type":"image-button-response","trial_index":65,"time_elapsed":363941,"internal_node_id":"0.0-4.0-0.27","subject_id":"5a9067894eecca0001dd1427","study_id":"6197b3f67c2b5cd3b6d9596a","session_id":"619be5905bad46d4f91daa99","condition":"full-information","relevant_dimensions":["wings","legs"],"bee_group":{"antennae":"X","wings":"2","pattern":"X","legs":"F"},"action":"avoid","summary":"bad-avoid","bonus":0.32000000000000095},{"rt":655,"stimulus":"\n                    <p><b>Action: <em>avoid</em></b></p>\n                    <p>This is the bee that you just saw.</p>\n                    <img src=\"bees-with-color/bee-A1SM.svg\" width=\"200\">\n                    <p><span class=\"redText\">Bad choice,</span> the bee was friendly.<br>Your bonus pay is unchanged, and remains at $0.50.</p>\n            ","response":0,"trial_type":"html-button-response","trial_index":66,"time_elapsed":364597,"internal_node_id":"0.0-4.0-1.27","subject_id":"5a9067894eecca0001dd1427","study_id":"6197b3f67c2b5cd3b6d9596a","session_id":"619be5905bad46d4f91daa99","condition":"full-information","relevant_dimensions":["wings","legs"],"bee_group":{"antennae":"X","wings":"2","pattern":"X","legs":"F"},"bonus":0.32000000000000095},{"rt":447,"stimulus":"bees-with-color/bee-B1DF.svg","response":1,"trial_type":"image-button-response","trial_index":67,"time_elapsed":365045,"internal_node_id":"0.0-4.0-0.28","subject_id":"5a9067894eecca0001dd1427","study_id":"6197b3f67c2b5cd3b6d9596a","session_id":"619be5905bad46d4f91daa99","condition":"full-information","relevant_dimensions":["wings","legs"],"bee_group":{"antennae":"X","wings":"2","pattern":"X","legs":"F"},"action":"avoid","summary":"bad-avoid","bonus":0.32000000000000095},{"rt":551,"stimulus":"\n                    <p><b>Action: <em>avoid</em></b></p>\n                    <p>This is the bee that you just saw.</p>\n                    <img src=\"bees-with-color/bee-B1DF.svg\" width=\"200\">\n                    <p><span class=\"redText\">Bad choice,</span> the bee was friendly.<br>Your bonus pay is unchanged, and remains at $0.50.</p>\n            ","response":0,"trial_type":"html-button-response","trial_index":68,"time_elapsed":365597,"internal_node_id":"0.0-4.0-1.28","subject_id":"5a9067894eecca0001dd1427","study_id":"6197b3f67c2b5cd3b6d9596a","session_id":"619be5905bad46d4f91daa99","condition":"full-information","relevant_dimensions":["wings","legs"],"bee_group":{"antennae":"X","wings":"2","pattern":"X","legs":"F"},"bonus":0.32000000000000095},{"rt":919,"stimulus":"bees-with-color/bee-A1DF.svg","response":1,"trial_type":"image-button-response","trial_index":69,"time_elapsed":366517,"internal_node_id":"0.0-4.0-0.29","subject_id":"5a9067894eecca0001dd1427","study_id":"6197b3f67c2b5cd3b6d9596a","session_id":"619be5905bad46d4f91daa99","condition":"full-information","relevant_dimensions":["wings","legs"],"bee_group":{"antennae":"X","wings":"2","pattern":"X","legs":"F"},"action":"avoid","summary":"bad-avoid","bonus":0.32000000000000095},{"rt":2423,"stimulus":"\n                    <p><b>Action: <em>avoid</em></b></p>\n                    <p>This is the bee that you just saw.</p>\n                    <img src=\"bees-with-color/bee-A1DF.svg\" width=\"200\">\n                    <p><span class=\"redText\">Bad choice,</span> the bee was friendly.<br>Your bonus pay is unchanged, and remains at $0.50.</p>\n            ","response":0,"trial_type":"html-button-response","trial_index":70,"time_elapsed":368941,"internal_node_id":"0.0-4.0-1.29","subject_id":"5a9067894eecca0001dd1427","study_id":"6197b3f67c2b5cd3b6d9596a","session_id":"619be5905bad46d4f91daa99","condition":"full-information","relevant_dimensions":["wings","legs"],"bee_group":{"antennae":"X","wings":"2","pattern":"X","legs":"F"},"bonus":0.32000000000000095},{"rt":415,"stimulus":"bees-with-color/bee-A2DF.svg","response":0,"trial_type":"image-button-response","trial_index":71,"time_elapsed":369357,"internal_node_id":"0.0-4.0-0.30","subject_id":"5a9067894eecca0001dd1427","study_id":"6197b3f67c2b5cd3b6d9596a","session_id":"619be5905bad46d4f91daa99","condition":"full-information","relevant_dimensions":["wings","legs"],"bee_group":{"antennae":"X","wings":"2","pattern":"X","legs":"F"},"action":"harvest","summary":"bad-harvest","bonus":0.32000000000000095},{"rt":2650,"stimulus":"\n                    <p><b>Action: <em>harvest</em></b></p>\n                    <p>This is the bee that you just saw.</p>\n                    <img src=\"bees-with-color/bee-A2DF.svg\" width=\"200\">\n                    <p><span class=\"redText\">Bad choice, the bee was angry.</span><br><b>You have been stung!</b><br>Your pay has been decreased by $0.10. Your bonus pay is now $0.40.</p>\n            ","response":0,"trial_type":"html-button-response","trial_index":72,"time_elapsed":372008,"internal_node_id":"0.0-4.0-1.30","subject_id":"5a9067894eecca0001dd1427","study_id":"6197b3f67c2b5cd3b6d9596a","session_id":"619be5905bad46d4f91daa99","condition":"full-information","relevant_dimensions":["wings","legs"],"bee_group":{"antennae":"X","wings":"2","pattern":"X","legs":"F"},"bonus":0.32000000000000095},{"rt":717,"stimulus":"bees-with-color/bee-B1SM.svg","response":1,"trial_type":"image-button-response","trial_index":73,"time_elapsed":372727,"internal_node_id":"0.0-4.0-0.31","subject_id":"5a9067894eecca0001dd1427","study_id":"6197b3f67c2b5cd3b6d9596a","session_id":"619be5905bad46d4f91daa99","condition":"full-information","relevant_dimensions":["wings","legs"],"bee_group":{"antennae":"X","wings":"2","pattern":"X","legs":"F"},"action":"avoid","summary":"bad-avoid","bonus":0.32000000000000095},{"rt":751,"stimulus":"\n                    <p><b>Action: <em>avoid</em></b></p>\n                    <p>This is the bee that you just saw.</p>\n                    <img src=\"bees-with-color/bee-B1SM.svg\" width=\"200\">\n                    <p><span class=\"redText\">Bad choice,</span> the bee was friendly.<br>Your bonus pay is unchanged, and remains at $0.40.</p>\n            ","response":0,"trial_type":"html-button-response","trial_index":74,"time_elapsed":373479,"internal_node_id":"0.0-4.0-1.31","subject_id":"5a9067894eecca0001dd1427","study_id":"6197b3f67c2b5cd3b6d9596a","session_id":"619be5905bad46d4f91daa99","condition":"full-information","relevant_dimensions":["wings","legs"],"bee_group":{"antennae":"X","wings":"2","pattern":"X","legs":"F"},"bonus":0.32000000000000095},{"rt":591,"stimulus":"bees-with-color/bee-A1DM.svg","response":0,"trial_type":"image-button-response","trial_index":75,"time_elapsed":374070,"internal_node_id":"0.0-4.0-0.32","subject_id":"5a9067894eecca0001dd1427","study_id":"6197b3f67c2b5cd3b6d9596a","session_id":"619be5905bad46d4f91daa99","condition":"full-information","relevant_dimensions":["wings","legs"],"bee_group":{"antennae":"X","wings":"2","pattern":"X","legs":"F"},"action":"harvest","summary":"good-harvest","bonus":0.32000000000000095},{"rt":1135,"stimulus":"\n                    <p><b>Action: <em>harvest</em></b></p>\n                    <p>This is the bee that you just saw.</p>\n                    <img src=\"bees-with-color/bee-A1DM.svg\" width=\"200\">\n                    <p><span class=\"greenText\"><b>Successful harvest!</b></span><br>Your pay has increased by $0.02. Your bonus pay is now $0.42.</p>\n            ","response":0,"trial_type":"html-button-response","trial_index":76,"time_elapsed":375206,"internal_node_id":"0.0-4.0-1.32","subject_id":"5a9067894eecca0001dd1427","study_id":"6197b3f67c2b5cd3b6d9596a","session_id":"619be5905bad46d4f91daa99","condition":"full-information","relevant_dimensions":["wings","legs"],"bee_group":{"antennae":"X","wings":"2","pattern":"X","legs":"F"},"bonus":0.32000000000000095},{"rt":37511,"stimulus":"bees-with-color/bee-A2SF.svg","response":0,"trial_type":"image-button-response","trial_index":77,"time_elapsed":412717,"internal_node_id":"0.0-4.0-0.33","subject_id":"5a9067894eecca0001dd1427","study_id":"6197b3f67c2b5cd3b6d9596a","session_id":"619be5905bad46d4f91daa99","condition":"full-information","relevant_dimensions":["wings","legs"],"bee_group":{"antennae":"X","wings":"2","pattern":"X","legs":"F"},"action":"harvest","summary":"bad-harvest","bonus":0.32000000000000095},{"rt":903,"stimulus":"\n                    <p><b>Action: <em>harvest</em></b></p>\n                    <p>This is the bee that you just saw.</p>\n                    <img src=\"bees-with-color/bee-A2SF.svg\" width=\"200\">\n                    <p><span class=\"redText\">Bad choice, the bee was angry.</span><br><b>You have been stung!</b><br>Your pay has been decreased by $0.10. Your bonus pay is now $0.32.</p>\n            ","response":0,"trial_type":"html-button-response","trial_index":78,"time_elapsed":413621,"internal_node_id":"0.0-4.0-1.33","subject_id":"5a9067894eecca0001dd1427","study_id":"6197b3f67c2b5cd3b6d9596a","session_id":"619be5905bad46d4f91daa99","condition":"full-information","relevant_dimensions":["wings","legs"],"bee_group":{"antennae":"X","wings":"2","pattern":"X","legs":"F"},"bonus":0.32000000000000095},{"rt":1439,"stimulus":"bees-with-color/bee-B1SF.svg","response":1,"trial_type":"image-button-response","trial_index":79,"time_elapsed":415061,"internal_node_id":"0.0-4.0-0.34","subject_id":"5a9067894eecca0001dd1427","study_id":"6197b3f67c2b5cd3b6d9596a","session_id":"619be5905bad46d4f91daa99","condition":"full-information","relevant_dimensions":["wings","legs"],"bee_group":{"antennae":"X","wings":"2","pattern":"X","legs":"F"},"action":"avoid","summary":"bad-avoid","bonus":0.32000000000000095},{"rt":799,"stimulus":"\n                    <p><b>Action: <em>avoid</em></b></p>\n                    <p>This is the bee that you just saw.</p>\n                    <img src=\"bees-with-color/bee-B1SF.svg\" width=\"200\">\n                    <p><span class=\"redText\">Bad choice,</span> the bee was friendly.<br>Your bonus pay is unchanged, and remains at $0.32.</p>\n            ","response":0,"trial_type":"html-button-response","trial_index":80,"time_elapsed":415861,"internal_node_id":"0.0-4.0-1.34","subject_id":"5a9067894eecca0001dd1427","study_id":"6197b3f67c2b5cd3b6d9596a","session_id":"619be5905bad46d4f91daa99","condition":"full-information","relevant_dimensions":["wings","legs"],"bee_group":{"antennae":"X","wings":"2","pattern":"X","legs":"F"},"bonus":0.32000000000000095},{"rt":703,"stimulus":"bees-with-color/bee-A2SM.svg","response":0,"trial_type":"image-button-response","trial_index":81,"time_elapsed":416565,"internal_node_id":"0.0-4.0-0.35","subject_id":"5a9067894eecca0001dd1427","study_id":"6197b3f67c2b5cd3b6d9596a","session_id":"619be5905bad46d4f91daa99","condition":"full-information","relevant_dimensions":["wings","legs"],"bee_group":{"antennae":"X","wings":"2","pattern":"X","legs":"F"},"action":"harvest","summary":"good-harvest","bonus":0.32000000000000095},{"rt":911,"stimulus":"\n                    <p><b>Action: <em>harvest</em></b></p>\n                    <p>This is the bee that you just saw.</p>\n                    <img src=\"bees-with-color/bee-A2SM.svg\" width=\"200\">\n                    <p><span class=\"greenText\"><b>Successful harvest!</b></span><br>Your pay has increased by $0.02. Your bonus pay is now $0.34.</p>\n            ","response":0,"trial_type":"html-button-response","trial_index":82,"time_elapsed":417477,"internal_node_id":"0.0-4.0-1.35","subject_id":"5a9067894eecca0001dd1427","study_id":"6197b3f67c2b5cd3b6d9596a","session_id":"619be5905bad46d4f91daa99","condition":"full-information","relevant_dimensions":["wings","legs"],"bee_group":{"antennae":"X","wings":"2","pattern":"X","legs":"F"},"bonus":0.32000000000000095},{"rt":4711,"stimulus":"bees-with-color/bee-A1SF.svg","response":0,"trial_type":"image-button-response","trial_index":83,"time_elapsed":422190,"internal_node_id":"0.0-4.0-0.36","subject_id":"5a9067894eecca0001dd1427","study_id":"6197b3f67c2b5cd3b6d9596a","session_id":"619be5905bad46d4f91daa99","condition":"full-information","relevant_dimensions":["wings","legs"],"bee_group":{"antennae":"X","wings":"2","pattern":"X","legs":"F"},"action":"harvest","summary":"good-harvest","bonus":0.32000000000000095},{"rt":911,"stimulus":"\n                    <p><b>Action: <em>harvest</em></b></p>\n                    <p>This is the bee that you just saw.</p>\n                    <img src=\"bees-with-color/bee-A1SF.svg\" width=\"200\">\n                    <p><span class=\"greenText\"><b>Successful harvest!</b></span><br>Your pay has increased by $0.02. Your bonus pay is now $0.36.</p>\n            ","response":0,"trial_type":"html-button-response","trial_index":84,"time_elapsed":423101,"internal_node_id":"0.0-4.0-1.36","subject_id":"5a9067894eecca0001dd1427","study_id":"6197b3f67c2b5cd3b6d9596a","session_id":"619be5905bad46d4f91daa99","condition":"full-information","relevant_dimensions":["wings","legs"],"bee_group":{"antennae":"X","wings":"2","pattern":"X","legs":"F"},"bonus":0.32000000000000095},{"rt":583,"stimulus":"bees-with-color/bee-B2DF.svg","response":0,"trial_type":"image-button-response","trial_index":85,"time_elapsed":423685,"internal_node_id":"0.0-4.0-0.37","subject_id":"5a9067894eecca0001dd1427","study_id":"6197b3f67c2b5cd3b6d9596a","session_id":"619be5905bad46d4f91daa99","condition":"full-information","relevant_dimensions":["wings","legs"],"bee_group":{"antennae":"X","wings":"2","pattern":"X","legs":"F"},"action":"harvest","summary":"bad-harvest","bonus":0.32000000000000095},{"rt":750,"stimulus":"\n                    <p><b>Action: <em>harvest</em></b></p>\n                    <p>This is the bee that you just saw.</p>\n                    <img src=\"bees-with-color/bee-B2DF.svg\" width=\"200\">\n                    <p><span class=\"redText\">Bad choice, the bee was angry.</span><br><b>You have been stung!</b><br>Your pay has been decreased by $0.10. Your bonus pay is now $0.26.</p>\n            ","response":0,"trial_type":"html-button-response","trial_index":86,"time_elapsed":424437,"internal_node_id":"0.0-4.0-1.37","subject_id":"5a9067894eecca0001dd1427","study_id":"6197b3f67c2b5cd3b6d9596a","session_id":"619be5905bad46d4f91daa99","condition":"full-information","relevant_dimensions":["wings","legs"],"bee_group":{"antennae":"X","wings":"2","pattern":"X","legs":"F"},"bonus":0.32000000000000095},{"rt":550,"stimulus":"bees-with-color/bee-B1DF.svg","response":1,"trial_type":"image-button-response","trial_index":87,"time_elapsed":424989,"internal_node_id":"0.0-4.0-0.38","subject_id":"5a9067894eecca0001dd1427","study_id":"6197b3f67c2b5cd3b6d9596a","session_id":"619be5905bad46d4f91daa99","condition":"full-information","relevant_dimensions":["wings","legs"],"bee_group":{"antennae":"X","wings":"2","pattern":"X","legs":"F"},"action":"avoid","summary":"bad-avoid","bonus":0.32000000000000095},{"rt":632,"stimulus":"\n                    <p><b>Action: <em>avoid</em></b></p>\n                    <p>This is the bee that you just saw.</p>\n                    <img src=\"bees-with-color/bee-B1DF.svg\" width=\"200\">\n                    <p><span class=\"redText\">Bad choice,</span> the bee was friendly.<br>Your bonus pay is unchanged, and remains at $0.26.</p>\n            ","response":0,"trial_type":"html-button-response","trial_index":88,"time_elapsed":425620,"internal_node_id":"0.0-4.0-1.38","subject_id":"5a9067894eecca0001dd1427","study_id":"6197b3f67c2b5cd3b6d9596a","session_id":"619be5905bad46d4f91daa99","condition":"full-information","relevant_dimensions":["wings","legs"],"bee_group":{"antennae":"X","wings":"2","pattern":"X","legs":"F"},"bonus":0.32000000000000095},{"rt":439,"stimulus":"bees-with-color/bee-A2DM.svg","response":0,"trial_type":"image-button-response","trial_index":89,"time_elapsed":426062,"internal_node_id":"0.0-4.0-0.39","subject_id":"5a9067894eecca0001dd1427","study_id":"6197b3f67c2b5cd3b6d9596a","session_id":"619be5905bad46d4f91daa99","condition":"full-information","relevant_dimensions":["wings","legs"],"bee_group":{"antennae":"X","wings":"2","pattern":"X","legs":"F"},"action":"harvest","summary":"good-harvest","bonus":0.32000000000000095},{"rt":751,"stimulus":"\n                    <p><b>Action: <em>harvest</em></b></p>\n                    <p>This is the bee that you just saw.</p>\n                    <img src=\"bees-with-color/bee-A2DM.svg\" width=\"200\">\n                    <p><span class=\"greenText\"><b>Successful harvest!</b></span><br>Your pay has increased by $0.02. Your bonus pay is now $0.28.</p>\n            ","response":0,"trial_type":"html-button-response","trial_index":90,"time_elapsed":426815,"internal_node_id":"0.0-4.0-1.39","subject_id":"5a9067894eecca0001dd1427","study_id":"6197b3f67c2b5cd3b6d9596a","session_id":"619be5905bad46d4f91daa99","condition":"full-information","relevant_dimensions":["wings","legs"],"bee_group":{"antennae":"X","wings":"2","pattern":"X","legs":"F"},"bonus":0.32000000000000095},{"rt":543,"stimulus":"bees-with-color/bee-A1DF.svg","response":0,"trial_type":"image-button-response","trial_index":91,"time_elapsed":427359,"internal_node_id":"0.0-4.0-0.40","subject_id":"5a9067894eecca0001dd1427","study_id":"6197b3f67c2b5cd3b6d9596a","session_id":"619be5905bad46d4f91daa99","condition":"full-information","relevant_dimensions":["wings","legs"],"bee_group":{"antennae":"X","wings":"2","pattern":"X","legs":"F"},"action":"harvest","summary":"good-harvest","bonus":0.32000000000000095},{"rt":729,"stimulus":"\n                    <p><b>Action: <em>harvest</em></b></p>\n                    <p>This is the bee that you just saw.</p>\n                    <img src=\"bees-with-color/bee-A1DF.svg\" width=\"200\">\n                    <p><span class=\"greenText\"><b>Successful harvest!</b></span><br>Your pay has increased by $0.02. Your bonus pay is now $0.30.</p>\n            ","response":0,"trial_type":"html-button-response","trial_index":92,"time_elapsed":428088,"internal_node_id":"0.0-4.0-1.40","subject_id":"5a9067894eecca0001dd1427","study_id":"6197b3f67c2b5cd3b6d9596a","session_id":"619be5905bad46d4f91daa99","condition":"full-information","relevant_dimensions":["wings","legs"],"bee_group":{"antennae":"X","wings":"2","pattern":"X","legs":"F"},"bonus":0.32000000000000095},{"rt":79324,"stimulus":"bees-with-color/bee-B2SF.svg","response":1,"trial_type":"image-button-response","trial_index":93,"time_elapsed":507413,"internal_node_id":"0.0-4.0-0.41","subject_id":"5a9067894eecca0001dd1427","study_id":"6197b3f67c2b5cd3b6d9596a","session_id":"619be5905bad46d4f91daa99","condition":"full-information","relevant_dimensions":["wings","legs"],"bee_group":{"antennae":"X","wings":"2","pattern":"X","legs":"F"},"action":"avoid","summary":"good-avoid","bonus":0.32000000000000095},{"rt":927,"stimulus":"\n                    <p><b>Action: <em>avoid</em></b></p>\n                    <p>This is the bee that you just saw.</p>\n                    <img src=\"bees-with-color/bee-B2SF.svg\" width=\"200\">\n                    <p><span class=\"greenText\">Good choice!</span>  This bee would have stung you.<br>Your bonus pay is unchanged, and remains at $0.30.</p>\n            ","response":0,"trial_type":"html-button-response","trial_index":94,"time_elapsed":508340,"internal_node_id":"0.0-4.0-1.41","subject_id":"5a9067894eecca0001dd1427","study_id":"6197b3f67c2b5cd3b6d9596a","session_id":"619be5905bad46d4f91daa99","condition":"full-information","relevant_dimensions":["wings","legs"],"bee_group":{"antennae":"X","wings":"2","pattern":"X","legs":"F"},"bonus":0.32000000000000095},{"rt":1694,"stimulus":"bees-with-color/bee-A1SM.svg","response":0,"trial_type":"image-button-response","trial_index":95,"time_elapsed":510037,"internal_node_id":"0.0-4.0-0.42","subject_id":"5a9067894eecca0001dd1427","study_id":"6197b3f67c2b5cd3b6d9596a","session_id":"619be5905bad46d4f91daa99","condition":"full-information","relevant_dimensions":["wings","legs"],"bee_group":{"antennae":"X","wings":"2","pattern":"X","legs":"F"},"action":"harvest","summary":"good-harvest","bonus":0.32000000000000095},{"rt":904,"stimulus":"\n                    <p><b>Action: <em>harvest</em></b></p>\n                    <p>This is the bee that you just saw.</p>\n                    <img src=\"bees-with-color/bee-A1SM.svg\" width=\"200\">\n                    <p><span class=\"greenText\"><b>Successful harvest!</b></span><br>Your pay has increased by $0.02. Your bonus pay is now $0.32.</p>\n            ","response":0,"trial_type":"html-button-response","trial_index":96,"time_elapsed":510942,"internal_node_id":"0.0-4.0-1.42","subject_id":"5a9067894eecca0001dd1427","study_id":"6197b3f67c2b5cd3b6d9596a","session_id":"619be5905bad46d4f91daa99","condition":"full-information","relevant_dimensions":["wings","legs"],"bee_group":{"antennae":"X","wings":"2","pattern":"X","legs":"F"},"bonus":0.32000000000000095},{"rt":1190,"stimulus":"bees-with-color/bee-A2DF.svg","response":1,"trial_type":"image-button-response","trial_index":97,"time_elapsed":512133,"internal_node_id":"0.0-4.0-0.43","subject_id":"5a9067894eecca0001dd1427","study_id":"6197b3f67c2b5cd3b6d9596a","session_id":"619be5905bad46d4f91daa99","condition":"full-information","relevant_dimensions":["wings","legs"],"bee_group":{"antennae":"X","wings":"2","pattern":"X","legs":"F"},"action":"avoid","summary":"good-avoid","bonus":0.32000000000000095},{"rt":735,"stimulus":"\n                    <p><b>Action: <em>avoid</em></b></p>\n                    <p>This is the bee that you just saw.</p>\n                    <img src=\"bees-with-color/bee-A2DF.svg\" width=\"200\">\n                    <p><span class=\"greenText\">Good choice!</span>  This bee would have stung you.<br>Your bonus pay is unchanged, and remains at $0.32.</p>\n            ","response":0,"trial_type":"html-button-response","trial_index":98,"time_elapsed":512869,"internal_node_id":"0.0-4.0-1.43","subject_id":"5a9067894eecca0001dd1427","study_id":"6197b3f67c2b5cd3b6d9596a","session_id":"619be5905bad46d4f91daa99","condition":"full-information","relevant_dimensions":["wings","legs"],"bee_group":{"antennae":"X","wings":"2","pattern":"X","legs":"F"},"bonus":0.32000000000000095},{"rt":975,"stimulus":"bees-with-color/bee-B1SM.svg","response":0,"trial_type":"image-button-response","trial_index":99,"time_elapsed":513845,"internal_node_id":"0.0-4.0-0.44","subject_id":"5a9067894eecca0001dd1427","study_id":"6197b3f67c2b5cd3b6d9596a","session_id":"619be5905bad46d4f91daa99","condition":"full-information","relevant_dimensions":["wings","legs"],"bee_group":{"antennae":"X","wings":"2","pattern":"X","legs":"F"},"action":"harvest","summary":"good-harvest","bonus":0.32000000000000095},{"rt":862,"stimulus":"\n                    <p><b>Action: <em>harvest</em></b></p>\n                    <p>This is the bee that you just saw.</p>\n                    <img src=\"bees-with-color/bee-B1SM.svg\" width=\"200\">\n                    <p><span class=\"greenText\"><b>Successful harvest!</b></span><br>Your pay has increased by $0.02. Your bonus pay is now $0.34.</p>\n            ","response":0,"trial_type":"html-button-response","trial_index":100,"time_elapsed":514709,"internal_node_id":"0.0-4.0-1.44","subject_id":"5a9067894eecca0001dd1427","study_id":"6197b3f67c2b5cd3b6d9596a","session_id":"619be5905bad46d4f91daa99","condition":"full-information","relevant_dimensions":["wings","legs"],"bee_group":{"antennae":"X","wings":"2","pattern":"X","legs":"F"},"bonus":0.32000000000000095},{"rt":1264,"stimulus":"bees-with-color/bee-B1DM.svg","response":1,"trial_type":"image-button-response","trial_index":101,"time_elapsed":515974,"internal_node_id":"0.0-4.0-0.45","subject_id":"5a9067894eecca0001dd1427","study_id":"6197b3f67c2b5cd3b6d9596a","session_id":"619be5905bad46d4f91daa99","condition":"full-information","relevant_dimensions":["wings","legs"],"bee_group":{"antennae":"X","wings":"2","pattern":"X","legs":"F"},"action":"avoid","summary":"bad-avoid","bonus":0.32000000000000095},{"rt":2093,"stimulus":"\n                    <p><b>Action: <em>avoid</em></b></p>\n                    <p>This is the bee that you just saw.</p>\n                    <img src=\"bees-with-color/bee-B1DM.svg\" width=\"200\">\n                    <p><span class=\"redText\">Bad choice,</span> the bee was friendly.<br>Your bonus pay is unchanged, and remains at $0.34.</p>\n            ","response":0,"trial_type":"html-button-response","trial_index":102,"time_elapsed":518069,"internal_node_id":"0.0-4.0-1.45","subject_id":"5a9067894eecca0001dd1427","study_id":"6197b3f67c2b5cd3b6d9596a","session_id":"619be5905bad46d4f91daa99","condition":"full-information","relevant_dimensions":["wings","legs"],"bee_group":{"antennae":"X","wings":"2","pattern":"X","legs":"F"},"bonus":0.32000000000000095},{"rt":1719,"stimulus":"bees-with-color/bee-B2SM.svg","response":0,"trial_type":"image-button-response","trial_index":103,"time_elapsed":519790,"internal_node_id":"0.0-4.0-0.46","subject_id":"5a9067894eecca0001dd1427","study_id":"6197b3f67c2b5cd3b6d9596a","session_id":"619be5905bad46d4f91daa99","condition":"full-information","relevant_dimensions":["wings","legs"],"bee_group":{"antennae":"X","wings":"2","pattern":"X","legs":"F"},"action":"harvest","summary":"good-harvest","bonus":0.32000000000000095},{"rt":1686,"stimulus":"\n                    <p><b>Action: <em>harvest</em></b></p>\n                    <p>This is the bee that you just saw.</p>\n                    <img src=\"bees-with-color/bee-B2SM.svg\" width=\"200\">\n                    <p><span class=\"greenText\"><b>Successful harvest!</b></span><br>Your pay has increased by $0.02. Your bonus pay is now $0.36.</p>\n            ","response":0,"trial_type":"html-button-response","trial_index":104,"time_elapsed":521477,"internal_node_id":"0.0-4.0-1.46","subject_id":"5a9067894eecca0001dd1427","study_id":"6197b3f67c2b5cd3b6d9596a","session_id":"619be5905bad46d4f91daa99","condition":"full-information","relevant_dimensions":["wings","legs"],"bee_group":{"antennae":"X","wings":"2","pattern":"X","legs":"F"},"bonus":0.32000000000000095},{"rt":575,"stimulus":"bees-with-color/bee-B2DM.svg","response":1,"trial_type":"image-button-response","trial_index":105,"time_elapsed":522053,"internal_node_id":"0.0-4.0-0.47","subject_id":"5a9067894eecca0001dd1427","study_id":"6197b3f67c2b5cd3b6d9596a","session_id":"619be5905bad46d4f91daa99","condition":"full-information","relevant_dimensions":["wings","legs"],"bee_group":{"antennae":"X","wings":"2","pattern":"X","legs":"F"},"action":"avoid","summary":"bad-avoid","bonus":0.32000000000000095},{"rt":670,"stimulus":"\n                    <p><b>Action: <em>avoid</em></b></p>\n                    <p>This is the bee that you just saw.</p>\n                    <img src=\"bees-with-color/bee-B2DM.svg\" width=\"200\">\n                    <p><span class=\"redText\">Bad choice,</span> the bee was friendly.<br>Your bonus pay is unchanged, and remains at $0.36.</p>\n            ","response":0,"trial_type":"html-button-response","trial_index":106,"time_elapsed":522725,"internal_node_id":"0.0-4.0-1.47","subject_id":"5a9067894eecca0001dd1427","study_id":"6197b3f67c2b5cd3b6d9596a","session_id":"619be5905bad46d4f91daa99","condition":"full-information","relevant_dimensions":["wings","legs"],"bee_group":{"antennae":"X","wings":"2","pattern":"X","legs":"F"},"bonus":0.32000000000000095},{"rt":486,"stimulus":"bees-with-color/bee-A2SF.svg","response":1,"trial_type":"image-button-response","trial_index":107,"time_elapsed":523212,"internal_node_id":"0.0-4.0-0.48","subject_id":"5a9067894eecca0001dd1427","study_id":"6197b3f67c2b5cd3b6d9596a","session_id":"619be5905bad46d4f91daa99","condition":"full-information","relevant_dimensions":["wings","legs"],"bee_group":{"antennae":"X","wings":"2","pattern":"X","legs":"F"},"action":"avoid","summary":"good-avoid","bonus":0.32000000000000095},{"rt":679,"stimulus":"\n                    <p><b>Action: <em>avoid</em></b></p>\n                    <p>This is the bee that you just saw.</p>\n                    <img src=\"bees-with-color/bee-A2SF.svg\" width=\"200\">\n                    <p><span class=\"greenText\">Good choice!</span>  This bee would have stung you.<br>Your bonus pay is unchanged, and remains at $0.36.</p>\n            ","response":0,"trial_type":"html-button-response","trial_index":108,"time_elapsed":523893,"internal_node_id":"0.0-4.0-1.48","subject_id":"5a9067894eecca0001dd1427","study_id":"6197b3f67c2b5cd3b6d9596a","session_id":"619be5905bad46d4f91daa99","condition":"full-information","relevant_dimensions":["wings","legs"],"bee_group":{"antennae":"X","wings":"2","pattern":"X","legs":"F"},"bonus":0.32000000000000095},{"rt":471,"stimulus":"bees-with-color/bee-A1DM.svg","response":0,"trial_type":"image-button-response","trial_index":109,"time_elapsed":524365,"internal_node_id":"0.0-4.0-0.49","subject_id":"5a9067894eecca0001dd1427","study_id":"6197b3f67c2b5cd3b6d9596a","session_id":"619be5905bad46d4f91daa99","condition":"full-information","relevant_dimensions":["wings","legs"],"bee_group":{"antennae":"X","wings":"2","pattern":"X","legs":"F"},"action":"harvest","summary":"good-harvest","bonus":0.32000000000000095},{"rt":609,"stimulus":"\n                    <p><b>Action: <em>harvest</em></b></p>\n                    <p>This is the bee that you just saw.</p>\n                    <img src=\"bees-with-color/bee-A1DM.svg\" width=\"200\">\n                    <p><span class=\"greenText\"><b>Successful harvest!</b></span><br>Your pay has increased by $0.02. Your bonus pay is now $0.38.</p>\n            ","response":0,"trial_type":"html-button-response","trial_index":110,"time_elapsed":524975,"internal_node_id":"0.0-4.0-1.49","subject_id":"5a9067894eecca0001dd1427","study_id":"6197b3f67c2b5cd3b6d9596a","session_id":"619be5905bad46d4f91daa99","condition":"full-information","relevant_dimensions":["wings","legs"],"bee_group":{"antennae":"X","wings":"2","pattern":"X","legs":"F"},"bonus":0.32000000000000095},{"rt":1797,"stimulus":"bees-with-color/bee-A1SF.svg","response":0,"trial_type":"image-button-response","trial_index":111,"time_elapsed":526772,"internal_node_id":"0.0-4.0-0.50","subject_id":"5a9067894eecca0001dd1427","study_id":"6197b3f67c2b5cd3b6d9596a","session_id":"619be5905bad46d4f91daa99","condition":"full-information","relevant_dimensions":["wings","legs"],"bee_group":{"antennae":"X","wings":"2","pattern":"X","legs":"F"},"action":"harvest","summary":"good-harvest","bonus":0.32000000000000095},{"rt":655,"stimulus":"\n                    <p><b>Action: <em>harvest</em></b></p>\n                    <p>This is the bee that you just saw.</p>\n                    <img src=\"bees-with-color/bee-A1SF.svg\" width=\"200\">\n                    <p><span class=\"greenText\"><b>Successful harvest!</b></span><br>Your pay has increased by $0.02. Your bonus pay is now $0.40.</p>\n            ","response":0,"trial_type":"html-button-response","trial_index":112,"time_elapsed":527430,"internal_node_id":"0.0-4.0-1.50","subject_id":"5a9067894eecca0001dd1427","study_id":"6197b3f67c2b5cd3b6d9596a","session_id":"619be5905bad46d4f91daa99","condition":"full-information","relevant_dimensions":["wings","legs"],"bee_group":{"antennae":"X","wings":"2","pattern":"X","legs":"F"},"bonus":0.32000000000000095},{"rt":919,"stimulus":"bees-with-color/bee-B1DF.svg","response":1,"trial_type":"image-button-response","trial_index":113,"time_elapsed":528349,"internal_node_id":"0.0-4.0-0.51","subject_id":"5a9067894eecca0001dd1427","study_id":"6197b3f67c2b5cd3b6d9596a","session_id":"619be5905bad46d4f91daa99","condition":"full-information","relevant_dimensions":["wings","legs"],"bee_group":{"antennae":"X","wings":"2","pattern":"X","legs":"F"},"action":"avoid","summary":"bad-avoid","bonus":0.32000000000000095},{"rt":744,"stimulus":"\n                    <p><b>Action: <em>avoid</em></b></p>\n                    <p>This is the bee that you just saw.</p>\n                    <img src=\"bees-with-color/bee-B1DF.svg\" width=\"200\">\n                    <p><span class=\"redText\">Bad choice,</span> the bee was friendly.<br>Your bonus pay is unchanged, and remains at $0.40.</p>\n            ","response":0,"trial_type":"html-button-response","trial_index":114,"time_elapsed":529093,"internal_node_id":"0.0-4.0-1.51","subject_id":"5a9067894eecca0001dd1427","study_id":"6197b3f67c2b5cd3b6d9596a","session_id":"619be5905bad46d4f91daa99","condition":"full-information","relevant_dimensions":["wings","legs"],"bee_group":{"antennae":"X","wings":"2","pattern":"X","legs":"F"},"bonus":0.32000000000000095},{"rt":1671,"stimulus":"bees-with-color/bee-B1DM.svg","response":1,"trial_type":"image-button-response","trial_index":115,"time_elapsed":530765,"internal_node_id":"0.0-4.0-0.52","subject_id":"5a9067894eecca0001dd1427","study_id":"6197b3f67c2b5cd3b6d9596a","session_id":"619be5905bad46d4f91daa99","condition":"full-information","relevant_dimensions":["wings","legs"],"bee_group":{"antennae":"X","wings":"2","pattern":"X","legs":"F"},"action":"avoid","summary":"bad-avoid","bonus":0.32000000000000095},{"rt":720,"stimulus":"\n                    <p><b>Action: <em>avoid</em></b></p>\n                    <p>This is the bee that you just saw.</p>\n                    <img src=\"bees-with-color/bee-B1DM.svg\" width=\"200\">\n                    <p><span class=\"redText\">Bad choice,</span> the bee was friendly.<br>Your bonus pay is unchanged, and remains at $0.40.</p>\n            ","response":0,"trial_type":"html-button-response","trial_index":116,"time_elapsed":531485,"internal_node_id":"0.0-4.0-1.52","subject_id":"5a9067894eecca0001dd1427","study_id":"6197b3f67c2b5cd3b6d9596a","session_id":"619be5905bad46d4f91daa99","condition":"full-information","relevant_dimensions":["wings","legs"],"bee_group":{"antennae":"X","wings":"2","pattern":"X","legs":"F"},"bonus":0.32000000000000095},{"rt":1833,"stimulus":"bees-with-color/bee-A2SM.svg","response":0,"trial_type":"image-button-response","trial_index":117,"time_elapsed":533319,"internal_node_id":"0.0-4.0-0.53","subject_id":"5a9067894eecca0001dd1427","study_id":"6197b3f67c2b5cd3b6d9596a","session_id":"619be5905bad46d4f91daa99","condition":"full-information","relevant_dimensions":["wings","legs"],"bee_group":{"antennae":"X","wings":"2","pattern":"X","legs":"F"},"action":"harvest","summary":"good-harvest","bonus":0.32000000000000095},{"rt":1022,"stimulus":"\n                    <p><b>Action: <em>harvest</em></b></p>\n                    <p>This is the bee that you just saw.</p>\n                    <img src=\"bees-with-color/bee-A2SM.svg\" width=\"200\">\n                    <p><span class=\"greenText\"><b>Successful harvest!</b></span><br>Your pay has increased by $0.02. Your bonus pay is now $0.42.</p>\n            ","response":0,"trial_type":"html-button-response","trial_index":118,"time_elapsed":534342,"internal_node_id":"0.0-4.0-1.53","subject_id":"5a9067894eecca0001dd1427","study_id":"6197b3f67c2b5cd3b6d9596a","session_id":"619be5905bad46d4f91daa99","condition":"full-information","relevant_dimensions":["wings","legs"],"bee_group":{"antennae":"X","wings":"2","pattern":"X","legs":"F"},"bonus":0.32000000000000095},{"rt":999,"stimulus":"bees-with-color/bee-B2SM.svg","response":0,"trial_type":"image-button-response","trial_index":119,"time_elapsed":535342,"internal_node_id":"0.0-4.0-0.54","subject_id":"5a9067894eecca0001dd1427","study_id":"6197b3f67c2b5cd3b6d9596a","session_id":"619be5905bad46d4f91daa99","condition":"full-information","relevant_dimensions":["wings","legs"],"bee_group":{"antennae":"X","wings":"2","pattern":"X","legs":"F"},"action":"harvest","summary":"good-harvest","bonus":0.32000000000000095},{"rt":739,"stimulus":"\n                    <p><b>Action: <em>harvest</em></b></p>\n                    <p>This is the bee that you just saw.</p>\n                    <img src=\"bees-with-color/bee-B2SM.svg\" width=\"200\">\n                    <p><span class=\"greenText\"><b>Successful harvest!</b></span><br>Your pay has increased by $0.02. Your bonus pay is now $0.44.</p>\n            ","response":0,"trial_type":"html-button-response","trial_index":120,"time_elapsed":536086,"internal_node_id":"0.0-4.0-1.54","subject_id":"5a9067894eecca0001dd1427","study_id":"6197b3f67c2b5cd3b6d9596a","session_id":"619be5905bad46d4f91daa99","condition":"full-information","relevant_dimensions":["wings","legs"],"bee_group":{"antennae":"X","wings":"2","pattern":"X","legs":"F"},"bonus":0.32000000000000095},{"rt":1265,"stimulus":"bees-with-color/bee-B2SF.svg","response":0,"trial_type":"image-button-response","trial_index":121,"time_elapsed":537352,"internal_node_id":"0.0-4.0-0.55","subject_id":"5a9067894eecca0001dd1427","study_id":"6197b3f67c2b5cd3b6d9596a","session_id":"619be5905bad46d4f91daa99","condition":"full-information","relevant_dimensions":["wings","legs"],"bee_group":{"antennae":"X","wings":"2","pattern":"X","legs":"F"},"action":"harvest","summary":"bad-harvest","bonus":0.32000000000000095},{"rt":1508,"stimulus":"\n                    <p><b>Action: <em>harvest</em></b></p>\n                    <p>This is the bee that you just saw.</p>\n                    <img src=\"bees-with-color/bee-B2SF.svg\" width=\"200\">\n                    <p><span class=\"redText\">Bad choice, the bee was angry.</span><br><b>You have been stung!</b><br>Your pay has been decreased by $0.10. Your bonus pay is now $0.34.</p>\n            ","response":0,"trial_type":"html-button-response","trial_index":122,"time_elapsed":538861,"internal_node_id":"0.0-4.0-1.55","subject_id":"5a9067894eecca0001dd1427","study_id":"6197b3f67c2b5cd3b6d9596a","session_id":"619be5905bad46d4f91daa99","condition":"full-information","relevant_dimensions":["wings","legs"],"bee_group":{"antennae":"X","wings":"2","pattern":"X","legs":"F"},"bonus":0.32000000000000095},{"rt":752,"stimulus":"bees-with-color/bee-A2DM.svg","response":1,"trial_type":"image-button-response","trial_index":123,"time_elapsed":539614,"internal_node_id":"0.0-4.0-0.56","subject_id":"5a9067894eecca0001dd1427","study_id":"6197b3f67c2b5cd3b6d9596a","session_id":"619be5905bad46d4f91daa99","condition":"full-information","relevant_dimensions":["wings","legs"],"bee_group":{"antennae":"X","wings":"2","pattern":"X","legs":"F"},"action":"avoid","summary":"bad-avoid","bonus":0.32000000000000095},{"rt":765,"stimulus":"\n                    <p><b>Action: <em>avoid</em></b></p>\n                    <p>This is the bee that you just saw.</p>\n                    <img src=\"bees-with-color/bee-A2DM.svg\" width=\"200\">\n                    <p><span class=\"redText\">Bad choice,</span> the bee was friendly.<br>Your bonus pay is unchanged, and remains at $0.34.</p>\n            ","response":0,"trial_type":"html-button-response","trial_index":124,"time_elapsed":540381,"internal_node_id":"0.0-4.0-1.56","subject_id":"5a9067894eecca0001dd1427","study_id":"6197b3f67c2b5cd3b6d9596a","session_id":"619be5905bad46d4f91daa99","condition":"full-information","relevant_dimensions":["wings","legs"],"bee_group":{"antennae":"X","wings":"2","pattern":"X","legs":"F"},"bonus":0.32000000000000095},{"rt":776,"stimulus":"bees-with-color/bee-B1SM.svg","response":0,"trial_type":"image-button-response","trial_index":125,"time_elapsed":541157,"internal_node_id":"0.0-4.0-0.57","subject_id":"5a9067894eecca0001dd1427","study_id":"6197b3f67c2b5cd3b6d9596a","session_id":"619be5905bad46d4f91daa99","condition":"full-information","relevant_dimensions":["wings","legs"],"bee_group":{"antennae":"X","wings":"2","pattern":"X","legs":"F"},"action":"harvest","summary":"good-harvest","bonus":0.32000000000000095},{"rt":694,"stimulus":"\n                    <p><b>Action: <em>harvest</em></b></p>\n                    <p>This is the bee that you just saw.</p>\n                    <img src=\"bees-with-color/bee-B1SM.svg\" width=\"200\">\n                    <p><span class=\"greenText\"><b>Successful harvest!</b></span><br>Your pay has increased by $0.02. Your bonus pay is now $0.36.</p>\n            ","response":0,"trial_type":"html-button-response","trial_index":126,"time_elapsed":541853,"internal_node_id":"0.0-4.0-1.57","subject_id":"5a9067894eecca0001dd1427","study_id":"6197b3f67c2b5cd3b6d9596a","session_id":"619be5905bad46d4f91daa99","condition":"full-information","relevant_dimensions":["wings","legs"],"bee_group":{"antennae":"X","wings":"2","pattern":"X","legs":"F"},"bonus":0.32000000000000095},{"rt":2177,"stimulus":"bees-with-color/bee-B2DM.svg","response":0,"trial_type":"image-button-response","trial_index":127,"time_elapsed":544031,"internal_node_id":"0.0-4.0-0.58","subject_id":"5a9067894eecca0001dd1427","study_id":"6197b3f67c2b5cd3b6d9596a","session_id":"619be5905bad46d4f91daa99","condition":"full-information","relevant_dimensions":["wings","legs"],"bee_group":{"antennae":"X","wings":"2","pattern":"X","legs":"F"},"action":"harvest","summary":"good-harvest","bonus":0.32000000000000095},{"rt":666,"stimulus":"\n                    <p><b>Action: <em>harvest</em></b></p>\n                    <p>This is the bee that you just saw.</p>\n                    <img src=\"bees-with-color/bee-B2DM.svg\" width=\"200\">\n                    <p><span class=\"greenText\"><b>Successful harvest!</b></span><br>Your pay has increased by $0.02. Your bonus pay is now $0.38.</p>\n            ","response":0,"trial_type":"html-button-response","trial_index":128,"time_elapsed":544698,"internal_node_id":"0.0-4.0-1.58","subject_id":"5a9067894eecca0001dd1427","study_id":"6197b3f67c2b5cd3b6d9596a","session_id":"619be5905bad46d4f91daa99","condition":"full-information","relevant_dimensions":["wings","legs"],"bee_group":{"antennae":"X","wings":"2","pattern":"X","legs":"F"},"bonus":0.32000000000000095},{"rt":889,"stimulus":"bees-with-color/bee-A2DF.svg","response":1,"trial_type":"image-button-response","trial_index":129,"time_elapsed":545588,"internal_node_id":"0.0-4.0-0.59","subject_id":"5a9067894eecca0001dd1427","study_id":"6197b3f67c2b5cd3b6d9596a","session_id":"619be5905bad46d4f91daa99","condition":"full-information","relevant_dimensions":["wings","legs"],"bee_group":{"antennae":"X","wings":"2","pattern":"X","legs":"F"},"action":"avoid","summary":"good-avoid","bonus":0.32000000000000095},{"rt":730,"stimulus":"\n                    <p><b>Action: <em>avoid</em></b></p>\n                    <p>This is the bee that you just saw.</p>\n                    <img src=\"bees-with-color/bee-A2DF.svg\" width=\"200\">\n                    <p><span class=\"greenText\">Good choice!</span>  This bee would have stung you.<br>Your bonus pay is unchanged, and remains at $0.38.</p>\n            ","response":0,"trial_type":"html-button-response","trial_index":130,"time_elapsed":546320,"internal_node_id":"0.0-4.0-1.59","subject_id":"5a9067894eecca0001dd1427","study_id":"6197b3f67c2b5cd3b6d9596a","session_id":"619be5905bad46d4f91daa99","condition":"full-information","relevant_dimensions":["wings","legs"],"bee_group":{"antennae":"X","wings":"2","pattern":"X","legs":"F"},"bonus":0.32000000000000095},{"rt":1306,"stimulus":"bees-with-color/bee-B2DF.svg","response":1,"trial_type":"image-button-response","trial_index":131,"time_elapsed":547629,"internal_node_id":"0.0-4.0-0.60","subject_id":"5a9067894eecca0001dd1427","study_id":"6197b3f67c2b5cd3b6d9596a","session_id":"619be5905bad46d4f91daa99","condition":"full-information","relevant_dimensions":["wings","legs"],"bee_group":{"antennae":"X","wings":"2","pattern":"X","legs":"F"},"action":"avoid","summary":"good-avoid","bonus":0.32000000000000095},{"rt":1050,"stimulus":"\n                    <p><b>Action: <em>avoid</em></b></p>\n                    <p>This is the bee that you just saw.</p>\n                    <img src=\"bees-with-color/bee-B2DF.svg\" width=\"200\">\n                    <p><span class=\"greenText\">Good choice!</span>  This bee would have stung you.<br>Your bonus pay is unchanged, and remains at $0.38.</p>\n            ","response":0,"trial_type":"html-button-response","trial_index":132,"time_elapsed":548679,"internal_node_id":"0.0-4.0-1.60","subject_id":"5a9067894eecca0001dd1427","study_id":"6197b3f67c2b5cd3b6d9596a","session_id":"619be5905bad46d4f91daa99","condition":"full-information","relevant_dimensions":["wings","legs"],"bee_group":{"antennae":"X","wings":"2","pattern":"X","legs":"F"},"bonus":0.32000000000000095},{"rt":828,"stimulus":"bees-with-color/bee-A1DF.svg","response":1,"trial_type":"image-button-response","trial_index":133,"time_elapsed":549508,"internal_node_id":"0.0-4.0-0.61","subject_id":"5a9067894eecca0001dd1427","study_id":"6197b3f67c2b5cd3b6d9596a","session_id":"619be5905bad46d4f91daa99","condition":"full-information","relevant_dimensions":["wings","legs"],"bee_group":{"antennae":"X","wings":"2","pattern":"X","legs":"F"},"action":"avoid","summary":"bad-avoid","bonus":0.32000000000000095},{"rt":697,"stimulus":"\n                    <p><b>Action: <em>avoid</em></b></p>\n                    <p>This is the bee that you just saw.</p>\n                    <img src=\"bees-with-color/bee-A1DF.svg\" width=\"200\">\n                    <p><span class=\"redText\">Bad choice,</span> the bee was friendly.<br>Your bonus pay is unchanged, and remains at $0.38.</p>\n            ","response":0,"trial_type":"html-button-response","trial_index":134,"time_elapsed":550206,"internal_node_id":"0.0-4.0-1.61","subject_id":"5a9067894eecca0001dd1427","study_id":"6197b3f67c2b5cd3b6d9596a","session_id":"619be5905bad46d4f91daa99","condition":"full-information","relevant_dimensions":["wings","legs"],"bee_group":{"antennae":"X","wings":"2","pattern":"X","legs":"F"},"bonus":0.32000000000000095},{"rt":958,"stimulus":"bees-with-color/bee-A1SM.svg","response":0,"trial_type":"image-button-response","trial_index":135,"time_elapsed":551164,"internal_node_id":"0.0-4.0-0.62","subject_id":"5a9067894eecca0001dd1427","study_id":"6197b3f67c2b5cd3b6d9596a","session_id":"619be5905bad46d4f91daa99","condition":"full-information","relevant_dimensions":["wings","legs"],"bee_group":{"antennae":"X","wings":"2","pattern":"X","legs":"F"},"action":"harvest","summary":"good-harvest","bonus":0.32000000000000095},{"rt":664,"stimulus":"\n                    <p><b>Action: <em>harvest</em></b></p>\n                    <p>This is the bee that you just saw.</p>\n                    <img src=\"bees-with-color/bee-A1SM.svg\" width=\"200\">\n                    <p><span class=\"greenText\"><b>Successful harvest!</b></span><br>Your pay has increased by $0.02. Your bonus pay is now $0.40.</p>\n            ","response":0,"trial_type":"html-button-response","trial_index":136,"time_elapsed":551829,"internal_node_id":"0.0-4.0-1.62","subject_id":"5a9067894eecca0001dd1427","study_id":"6197b3f67c2b5cd3b6d9596a","session_id":"619be5905bad46d4f91daa99","condition":"full-information","relevant_dimensions":["wings","legs"],"bee_group":{"antennae":"X","wings":"2","pattern":"X","legs":"F"},"bonus":0.32000000000000095},{"rt":1448,"stimulus":"bees-with-color/bee-B1SF.svg","response":0,"trial_type":"image-button-response","trial_index":137,"time_elapsed":553277,"internal_node_id":"0.0-4.0-0.63","subject_id":"5a9067894eecca0001dd1427","study_id":"6197b3f67c2b5cd3b6d9596a","session_id":"619be5905bad46d4f91daa99","condition":"full-information","relevant_dimensions":["wings","legs"],"bee_group":{"antennae":"X","wings":"2","pattern":"X","legs":"F"},"action":"harvest","summary":"good-harvest","bonus":0.32000000000000095},{"rt":648,"stimulus":"\n                    <p><b>Action: <em>harvest</em></b></p>\n                    <p>This is the bee that you just saw.</p>\n                    <img src=\"bees-with-color/bee-B1SF.svg\" width=\"200\">\n                    <p><span class=\"greenText\"><b>Successful harvest!</b></span><br>Your pay has increased by $0.02. Your bonus pay is now $0.42.</p>\n            ","response":0,"trial_type":"html-button-response","trial_index":138,"time_elapsed":553927,"internal_node_id":"0.0-4.0-1.63","subject_id":"5a9067894eecca0001dd1427","study_id":"6197b3f67c2b5cd3b6d9596a","session_id":"619be5905bad46d4f91daa99","condition":"full-information","relevant_dimensions":["wings","legs"],"bee_group":{"antennae":"X","wings":"2","pattern":"X","legs":"F"},"bonus":0.32000000000000095},{"rt":9430,"stimulus":"You have completed the first part of this experiment.<br><br>You will now begin a shorter second part, in which you will receive no feedback.<br>The same rules regarding bonus pay apply.<br><br>Press any key to begin.","response":" ","trial_type":"html-keyboard-response","trial_index":139,"time_elapsed":563359,"internal_node_id":"0.0-5.0","subject_id":"5a9067894eecca0001dd1427","study_id":"6197b3f67c2b5cd3b6d9596a","session_id":"619be5905bad46d4f91daa99","condition":"full-information","relevant_dimensions":["wings","legs"],"bee_group":{"antennae":"X","wings":"2","pattern":"X","legs":"F"},"bonus":0.32000000000000095},{"rt":2741,"stimulus":"bees-with-color/bee-B2SF.svg","response":1,"trial_type":"image-button-response","trial_index":140,"time_elapsed":566102,"internal_node_id":"0.0-6.0-0.0","subject_id":"5a9067894eecca0001dd1427","study_id":"6197b3f67c2b5cd3b6d9596a","session_id":"619be5905bad46d4f91daa99","condition":"full-information","relevant_dimensions":["wings","legs"],"bee_group":{"antennae":"X","wings":"2","pattern":"X","legs":"F"},"bonus":0.32000000000000095},{"rt":486,"stimulus":"bees-with-color/bee-A2SM.svg","response":1,"trial_type":"image-button-response","trial_index":141,"time_elapsed":566590,"internal_node_id":"0.0-6.0-0.1","subject_id":"5a9067894eecca0001dd1427","study_id":"6197b3f67c2b5cd3b6d9596a","session_id":"619be5905bad46d4f91daa99","condition":"full-information","relevant_dimensions":["wings","legs"],"bee_group":{"antennae":"X","wings":"2","pattern":"X","legs":"F"},"bonus":0.32000000000000095},{"rt":1870,"stimulus":"bees-with-color/bee-B2SM.svg","response":0,"trial_type":"image-button-response","trial_index":142,"time_elapsed":568461,"internal_node_id":"0.0-6.0-0.2","subject_id":"5a9067894eecca0001dd1427","study_id":"6197b3f67c2b5cd3b6d9596a","session_id":"619be5905bad46d4f91daa99","condition":"full-information","relevant_dimensions":["wings","legs"],"bee_group":{"antennae":"X","wings":"2","pattern":"X","legs":"F"},"bonus":0.32000000000000095},{"rt":21296,"stimulus":"bees-with-color/bee-B1DM.svg","response":0,"trial_type":"image-button-response","trial_index":143,"time_elapsed":589756,"internal_node_id":"0.0-6.0-0.3","subject_id":"5a9067894eecca0001dd1427","study_id":"6197b3f67c2b5cd3b6d9596a","session_id":"619be5905bad46d4f91daa99","condition":"full-information","relevant_dimensions":["wings","legs"],"bee_group":{"antennae":"X","wings":"2","pattern":"X","legs":"F"},"bonus":0.32000000000000095},{"rt":2296,"stimulus":"bees-with-color/bee-B1SM.svg","response":0,"trial_type":"image-button-response","trial_index":144,"time_elapsed":592053,"internal_node_id":"0.0-6.0-0.4","subject_id":"5a9067894eecca0001dd1427","study_id":"6197b3f67c2b5cd3b6d9596a","session_id":"619be5905bad46d4f91daa99","condition":"full-information","relevant_dimensions":["wings","legs"],"bee_group":{"antennae":"X","wings":"2","pattern":"X","legs":"F"},"bonus":0.32000000000000095},{"rt":15699,"stimulus":"bees-with-color/bee-A2SF.svg","response":1,"trial_type":"image-button-response","trial_index":145,"time_elapsed":607752,"internal_node_id":"0.0-6.0-0.5","subject_id":"5a9067894eecca0001dd1427","study_id":"6197b3f67c2b5cd3b6d9596a","session_id":"619be5905bad46d4f91daa99","condition":"full-information","relevant_dimensions":["wings","legs"],"bee_group":{"antennae":"X","wings":"2","pattern":"X","legs":"F"},"bonus":0.32000000000000095},{"rt":819,"stimulus":"bees-with-color/bee-B2DM.svg","response":1,"trial_type":"image-button-response","trial_index":146,"time_elapsed":608572,"internal_node_id":"0.0-6.0-0.6","subject_id":"5a9067894eecca0001dd1427","study_id":"6197b3f67c2b5cd3b6d9596a","session_id":"619be5905bad46d4f91daa99","condition":"full-information","relevant_dimensions":["wings","legs"],"bee_group":{"antennae":"X","wings":"2","pattern":"X","legs":"F"},"bonus":0.32000000000000095},{"rt":647,"stimulus":"bees-with-color/bee-B1DF.svg","response":1,"trial_type":"image-button-response","trial_index":147,"time_elapsed":609220,"internal_node_id":"0.0-6.0-0.7","subject_id":"5a9067894eecca0001dd1427","study_id":"6197b3f67c2b5cd3b6d9596a","session_id":"619be5905bad46d4f91daa99","condition":"full-information","relevant_dimensions":["wings","legs"],"bee_group":{"antennae":"X","wings":"2","pattern":"X","legs":"F"},"bonus":0.32000000000000095},{"rt":615,"stimulus":"bees-with-color/bee-A1DF.svg","response":1,"trial_type":"image-button-response","trial_index":148,"time_elapsed":609838,"internal_node_id":"0.0-6.0-0.8","subject_id":"5a9067894eecca0001dd1427","study_id":"6197b3f67c2b5cd3b6d9596a","session_id":"619be5905bad46d4f91daa99","condition":"full-information","relevant_dimensions":["wings","legs"],"bee_group":{"antennae":"X","wings":"2","pattern":"X","legs":"F"},"bonus":0.32000000000000095},{"rt":1284,"stimulus":"bees-with-color/bee-B1SF.svg","response":0,"trial_type":"image-button-response","trial_index":149,"time_elapsed":611123,"internal_node_id":"0.0-6.0-0.9","subject_id":"5a9067894eecca0001dd1427","study_id":"6197b3f67c2b5cd3b6d9596a","session_id":"619be5905bad46d4f91daa99","condition":"full-information","relevant_dimensions":["wings","legs"],"bee_group":{"antennae":"X","wings":"2","pattern":"X","legs":"F"},"bonus":0.32000000000000095},{"rt":2352,"stimulus":"bees-with-color/bee-A1DM.svg","response":0,"trial_type":"image-button-response","trial_index":150,"time_elapsed":613477,"internal_node_id":"0.0-6.0-0.10","subject_id":"5a9067894eecca0001dd1427","study_id":"6197b3f67c2b5cd3b6d9596a","session_id":"619be5905bad46d4f91daa99","condition":"full-information","relevant_dimensions":["wings","legs"],"bee_group":{"antennae":"X","wings":"2","pattern":"X","legs":"F"},"bonus":0.32000000000000095},{"rt":1166,"stimulus":"bees-with-color/bee-B2DF.svg","response":0,"trial_type":"image-button-response","trial_index":151,"time_elapsed":614645,"internal_node_id":"0.0-6.0-0.11","subject_id":"5a9067894eecca0001dd1427","study_id":"6197b3f67c2b5cd3b6d9596a","session_id":"619be5905bad46d4f91daa99","condition":"full-information","relevant_dimensions":["wings","legs"],"bee_group":{"antennae":"X","wings":"2","pattern":"X","legs":"F"},"bonus":0.32000000000000095},{"rt":1199,"stimulus":"bees-with-color/bee-A1SM.svg","response":0,"trial_type":"image-button-response","trial_index":152,"time_elapsed":615844,"internal_node_id":"0.0-6.0-0.12","subject_id":"5a9067894eecca0001dd1427","study_id":"6197b3f67c2b5cd3b6d9596a","session_id":"619be5905bad46d4f91daa99","condition":"full-information","relevant_dimensions":["wings","legs"],"bee_group":{"antennae":"X","wings":"2","pattern":"X","legs":"F"},"bonus":0.32000000000000095},{"rt":1343,"stimulus":"bees-with-color/bee-A2DM.svg","response":1,"trial_type":"image-button-response","trial_index":153,"time_elapsed":617188,"internal_node_id":"0.0-6.0-0.13","subject_id":"5a9067894eecca0001dd1427","study_id":"6197b3f67c2b5cd3b6d9596a","session_id":"619be5905bad46d4f91daa99","condition":"full-information","relevant_dimensions":["wings","legs"],"bee_group":{"antennae":"X","wings":"2","pattern":"X","legs":"F"},"bonus":0.32000000000000095},{"rt":3055,"stimulus":"bees-with-color/bee-A2DF.svg","response":1,"trial_type":"image-button-response","trial_index":154,"time_elapsed":620244,"internal_node_id":"0.0-6.0-0.14","subject_id":"5a9067894eecca0001dd1427","study_id":"6197b3f67c2b5cd3b6d9596a","session_id":"619be5905bad46d4f91daa99","condition":"full-information","relevant_dimensions":["wings","legs"],"bee_group":{"antennae":"X","wings":"2","pattern":"X","legs":"F"},"bonus":0.32000000000000095},{"rt":1239,"stimulus":"bees-with-color/bee-A1SF.svg","response":0,"trial_type":"image-button-response","trial_index":155,"time_elapsed":621484,"internal_node_id":"0.0-6.0-0.15","subject_id":"5a9067894eecca0001dd1427","study_id":"6197b3f67c2b5cd3b6d9596a","session_id":"619be5905bad46d4f91daa99","condition":"full-information","relevant_dimensions":["wings","legs"],"bee_group":{"antennae":"X","wings":"2","pattern":"X","legs":"F"},"bonus":0.32000000000000095},{"rt":1984,"stimulus":"bees-with-color/bee-A2SM.svg","response":0,"trial_type":"image-button-response","trial_index":156,"time_elapsed":623469,"internal_node_id":"0.0-6.0-0.16","subject_id":"5a9067894eecca0001dd1427","study_id":"6197b3f67c2b5cd3b6d9596a","session_id":"619be5905bad46d4f91daa99","condition":"full-information","relevant_dimensions":["wings","legs"],"bee_group":{"antennae":"X","wings":"2","pattern":"X","legs":"F"},"bonus":0.32000000000000095},{"rt":1582,"stimulus":"bees-with-color/bee-A2DM.svg","response":0,"trial_type":"image-button-response","trial_index":157,"time_elapsed":625052,"internal_node_id":"0.0-6.0-0.17","subject_id":"5a9067894eecca0001dd1427","study_id":"6197b3f67c2b5cd3b6d9596a","session_id":"619be5905bad46d4f91daa99","condition":"full-information","relevant_dimensions":["wings","legs"],"bee_group":{"antennae":"X","wings":"2","pattern":"X","legs":"F"},"bonus":0.32000000000000095},{"rt":808,"stimulus":"bees-with-color/bee-B2SM.svg","response":0,"trial_type":"image-button-response","trial_index":158,"time_elapsed":625861,"internal_node_id":"0.0-6.0-0.18","subject_id":"5a9067894eecca0001dd1427","study_id":"6197b3f67c2b5cd3b6d9596a","session_id":"619be5905bad46d4f91daa99","condition":"full-information","relevant_dimensions":["wings","legs"],"bee_group":{"antennae":"X","wings":"2","pattern":"X","legs":"F"},"bonus":0.32000000000000095},{"rt":1166,"stimulus":"bees-with-color/bee-A1SM.svg","response":1,"trial_type":"image-button-response","trial_index":159,"time_elapsed":627028,"internal_node_id":"0.0-6.0-0.19","subject_id":"5a9067894eecca0001dd1427","study_id":"6197b3f67c2b5cd3b6d9596a","session_id":"619be5905bad46d4f91daa99","condition":"full-information","relevant_dimensions":["wings","legs"],"bee_group":{"antennae":"X","wings":"2","pattern":"X","legs":"F"},"bonus":0.32000000000000095},{"rt":934,"stimulus":"bees-with-color/bee-A2DF.svg","response":1,"trial_type":"image-button-response","trial_index":160,"time_elapsed":627964,"internal_node_id":"0.0-6.0-0.20","subject_id":"5a9067894eecca0001dd1427","study_id":"6197b3f67c2b5cd3b6d9596a","session_id":"619be5905bad46d4f91daa99","condition":"full-information","relevant_dimensions":["wings","legs"],"bee_group":{"a