[{"success":true,"trial_type":"fullscreen","trial_index":0,"time_elapsed":11267,"internal_node_id":"0.0-0.0","subject_id":"60984191d5e92285e4d255a6","study_id":"6197b3f67c2b5cd3b6d9596a","session_id":"6197b88d06fb59370dd4d3d1","condition":"full-information","relevant_dimensions":["pattern","legs"],"bee_group":{"antennae":"X","wings":"X","pattern":"S","legs":"M"},"bonus":0.16000000000000084},{"success":true,"timeout":false,"failed_images":[],"failed_audio":[],"failed_video":[],"trial_type":"preload","trial_index":1,"time_elapsed":12972,"internal_node_id":"0.0-1.0","subject_id":"60984191d5e92285e4d255a6","study_id":"6197b3f67c2b5cd3b6d9596a","session_id":"6197b88d06fb59370dd4d3d1","condition":"full-information","relevant_dimensions":["pattern","legs"],"bee_group":{"antennae":"X","wings":"X","pattern":"S","legs":"M"},"bonus":0.16000000000000084},{"rt":1970.5999999977648,"stimulus":"Welcome! Press any key to begin.","response":" ","trial_type":"html-keyboard-response","trial_index":2,"time_elapsed":14943,"internal_node_id":"0.0-2.0","subject_id":"60984191d5e92285e4d255a6","study_id":"6197b3f67c2b5cd3b6d9596a","session_id":"6197b88d06fb59370dd4d3d1","condition":"full-information","relevant_dimensions":["pattern","legs"],"bee_group":{"antennae":"X","wings":"X","pattern":"S","legs":"M"},"bonus":0.16000000000000084},{"view_history":[{"page_index":0,"viewing_time":13966.300000000745},{"page_index":1,"viewing_time":15816},{"page_index":2,"viewing_time":32335.699999999255},{"page_index":3,"viewing_time":24192.400000002235},{"page_index":4,"viewing_time":9512.39999999851},{"page_index":5,"viewing_time":8303.400000002235},{"page_index":6,"viewing_time":14503.599999997765},{"page_index":7,"viewing_time":11368.10000000149},{"page_index":8,"viewing_time":7457.300000000745},{"page_index":9,"viewing_time":6943.29999999702},{"page_index":10,"viewing_time":5911.70000000298},{"page_index":11,"viewing_time":16023.89999999851},{"page_index":12,"viewing_time":19648},{"page_index":13,"viewing_time":1144.1000000014901},{"page_index":14,"viewing_time":3143.89999999851}],"rt":190270.30000000075,"trial_type":"instructions","trial_index":3,"time_elapsed":205220,"internal_node_id":"0.0-3.0-0.0","subject_id":"60984191d5e92285e4d255a6","study_id":"6197b3f67c2b5cd3b6d9596a","session_id":"6197b88d06fb59370dd4d3d1","condition":"full-information","relevant_dimensions":["pattern","legs"],"bee_group":{"antennae":"X","wings":"X","pattern":"S","legs":"M"},"bonus":0.16000000000000084},{"rt":19116.89999999851,"response":{"Q0":["Two or six legs","Stripes or spots on body","Single or double wings","Antennae or no antennae"]},"question_order":[0],"trial_type":"survey-multi-select","trial_index":4,"time_elapsed":224341,"internal_node_id":"0.0-3.0-1.0","subject_id":"60984191d5e92285e4d255a6","study_id":"6197b3f67c2b5cd3b6d9596a","session_id":"6197b88d06fb59370dd4d3d1","condition":"full-information","relevant_dimensions":["pattern","legs"],"bee_group":{"antennae":"X","wings":"X","pattern":"S","legs":"M"},"correct":true,"bonus":0.16000000000000084},{"rt":28725,"response":{"Q1":"No.","Q2":"Based on the four features of the bee.","Q3":"You learn if it was friendly or dangerous, but do not alter your bonus."},"question_order":[0,1,2],"trial_type":"survey-multi-choice","trial_index":5,"time_elapsed":253068,"internal_node_id":"0.0-3.0-2.0","subject_id":"60984191d5e92285e4d255a6","study_id":"6197b3f67c2b5cd3b6d9596a","session_id":"6197b88d06fb59370dd4d3d1","condition":"full-information","relevant_dimensions":["pattern","legs"],"bee_group":{"antennae":"X","wings":"X","pattern":"S","legs":"M"},"correct":true,"bonus":0.16000000000000084},{"rt":4119,"stimulus":"<p>Congrats, you got everything right<br>When you're ready, click the button below to continue to the experiment.</p>","response":0,"trial_type":"html-button-response","trial_index":6,"time_elapsed":257189,"internal_node_id":"0.0-3.0-3.0","subject_id":"60984191d5e92285e4d255a6","study_id":"6197b3f67c2b5cd3b6d9596a","session_id":"6197b88d06fb59370dd4d3d1","condition":"full-information","relevant_dimensions":["pattern","legs"],"bee_group":{"antennae":"X","wings":"X","pattern":"S","legs":"M"},"bonus":0.16000000000000084},{"rt":4571.89999999851,"stimulus":"bees-with-color/bee-A2SF.svg","response":0,"trial_type":"image-button-response","trial_index":7,"time_elapsed":261766,"internal_node_id":"0.0-4.0-0.0","subject_id":"60984191d5e92285e4d255a6","study_id":"6197b3f67c2b5cd3b6d9596a","session_id":"6197b88d06fb59370dd4d3d1","condition":"full-information","relevant_dimensions":["pattern","legs"],"bee_group":{"antennae":"X","wings":"X","pattern":"S","legs":"M"},"action":"harvest","summary":"good-harvest","bonus":0.16000000000000084},{"rt":11100.29999999702,"stimulus":"\n                    <p><b>Action: <em>harvest</em></b></p>\n                    <p>This is the bee that you just saw.</p>\n                    <img src=\"bees-with-color/bee-A2SF.svg\" width=\"200\">\n                    <p><span class=\"greenText\"><b>Successful harvest!</b></span><br>Your pay has increased by $0.02. Your bonus pay is now $0.56.</p>\n            ","response":0,"trial_type":"html-button-response","trial_index":8,"time_elapsed":272869,"internal_node_id":"0.0-4.0-1.0","subject_id":"60984191d5e92285e4d255a6","study_id":"6197b3f67c2b5cd3b6d9596a","session_id":"6197b88d06fb59370dd4d3d1","condition":"full-information","relevant_dimensions":["pattern","legs"],"bee_group":{"antennae":"X","wings":"X","pattern":"S","legs":"M"},"bonus":0.16000000000000084},{"rt":4757.300000000745,"stimulus":"bees-with-color/bee-B2SM.svg","response":1,"trial_type":"image-button-response","trial_index":9,"time_elapsed":277629,"internal_node_id":"0.0-4.0-0.1","subject_id":"60984191d5e92285e4d255a6","study_id":"6197b3f67c2b5cd3b6d9596a","session_id":"6197b88d06fb59370dd4d3d1","condition":"full-information","relevant_dimensions":["pattern","legs"],"bee_group":{"antennae":"X","wings":"X","pattern":"S","legs":"M"},"action":"avoid","summary":"good-avoid","bonus":0.16000000000000084},{"rt":17245.89999999851,"stimulus":"\n                    <p><b>Action: <em>avoid</em></b></p>\n                    <p>This is the bee that you just saw.</p>\n                    <img src=\"bees-with-color/bee-B2SM.svg\" width=\"200\">\n                    <p><span class=\"greenText\">Good choice!</span>  This bee would have stung you.<br>Your bonus pay is unchanged, and remains at $0.56.</p>\n            ","response":0,"trial_type":"html-button-response","trial_index":10,"time_elapsed":294877,"internal_node_id":"0.0-4.0-1.1","subject_id":"60984191d5e92285e4d255a6","study_id":"6197b3f67c2b5cd3b6d9596a","session_id":"6197b88d06fb59370dd4d3d1","condition":"full-information","relevant_dimensions":["pattern","legs"],"bee_group":{"antennae":"X","wings":"X","pattern":"S","legs":"M"},"bonus":0.16000000000000084},{"rt":3382.699999999255,"stimulus":"bees-with-color/bee-A1DF.svg","response":1,"trial_type":"image-button-response","trial_index":11,"time_elapsed":298262,"internal_node_id":"0.0-4.0-0.2","subject_id":"60984191d5e92285e4d255a6","study_id":"6197b3f67c2b5cd3b6d9596a","session_id":"6197b88d06fb59370dd4d3d1","condition":"full-information","relevant_dimensions":["pattern","legs"],"bee_group":{"antennae":"X","wings":"X","pattern":"S","legs":"M"},"action":"avoid","summary":"bad-avoid","bonus":0.16000000000000084},{"rt":8613.89999999851,"stimulus":"\n                    <p><b>Action: <em>avoid</em></b></p>\n                    <p>This is the bee that you just saw.</p>\n                    <img src=\"bees-with-color/bee-A1DF.svg\" width=\"200\">\n                    <p><span class=\"redText\">Bad choice,</span> the bee was friendly.<br>Your bonus pay is unchanged, and remains at $0.56.</p>\n            ","response":0,"trial_type":"html-button-response","trial_index":12,"time_elapsed":306877,"internal_node_id":"0.0-4.0-1.2","subject_id":"60984191d5e92285e4d255a6","study_id":"6197b3f67c2b5cd3b6d9596a","session_id":"6197b88d06fb59370dd4d3d1","condition":"full-information","relevant_dimensions":["pattern","legs"],"bee_group":{"antennae":"X","wings":"X","pattern":"S","legs":"M"},"bonus":0.16000000000000084},{"rt":3550.800000000745,"stimulus":"bees-with-color/bee-B1DM.svg","response":1,"trial_type":"image-button-response","trial_index":13,"time_elapsed":310429,"internal_node_id":"0.0-4.0-0.3","subject_id":"60984191d5e92285e4d255a6","study_id":"6197b3f67c2b5cd3b6d9596a","session_id":"6197b88d06fb59370dd4d3d1","condition":"full-information","relevant_dimensions":["pattern","legs"],"bee_group":{"antennae":"X","wings":"X","pattern":"S","legs":"M"},"action":"avoid","summary":"bad-avoid","bonus":0.16000000000000084},{"rt":11726.099999997765,"stimulus":"\n                    <p><b>Action: <em>avoid</em></b></p>\n                    <p>This is the bee that you just saw.</p>\n                    <img src=\"bees-with-color/bee-B1DM.svg\" width=\"200\">\n                    <p><span class=\"redText\">Bad choice,</span> the bee was friendly.<br>Your bonus pay is unchanged, and remains at $0.56.</p>\n            ","response":0,"trial_type":"html-button-response","trial_index":14,"time_elapsed":322158,"internal_node_id":"0.0-4.0-1.3","subject_id":"60984191d5e92285e4d255a6","study_id":"6197b3f67c2b5cd3b6d9596a","session_id":"6197b88d06fb59370dd4d3d1","condition":"full-information","relevant_dimensions":["pattern","legs"],"bee_group":{"antennae":"X","wings":"X","pattern":"S","legs":"M"},"bonus":0.16000000000000084},{"rt":4829.300000000745,"stimulus":"bees-with-color/bee-B2SF.svg","response":0,"trial_type":"image-button-response","trial_index":15,"time_elapsed":326990,"internal_node_id":"0.0-4.0-0.4","subject_id":"60984191d5e92285e4d255a6","study_id":"6197b3f67c2b5cd3b6d9596a","session_id":"6197b88d06fb59370dd4d3d1","condition":"full-information","relevant_dimensions":["pattern","legs"],"bee_group":{"antennae":"X","wings":"X","pattern":"S","legs":"M"},"action":"harvest","summary":"good-harvest","bonus":0.16000000000000084},{"rt":3806.60000000149,"stimulus":"\n                    <p><b>Action: <em>harvest</em></b></p>\n                    <p>This is the bee that you just saw.</p>\n                    <img src=\"bees-with-color/bee-B2SF.svg\" width=\"200\">\n                    <p><span class=\"greenText\"><b>Successful harvest!</b></span><br>Your pay has increased by $0.02. Your bonus pay is now $0.58.</p>\n            ","response":0,"trial_type":"html-button-response","trial_index":16,"time_elapsed":330799,"internal_node_id":"0.0-4.0-1.4","subject_id":"60984191d5e92285e4d255a6","study_id":"6197b3f67c2b5cd3b6d9596a","session_id":"6197b88d06fb59370dd4d3d1","condition":"full-information","relevant_dimensions":["pattern","legs"],"bee_group":{"antennae":"X","wings":"X","pattern":"S","legs":"M"},"bonus":0.16000000000000084},{"rt":5613.5,"stimulus":"bees-with-color/bee-A2SM.svg","response":0,"trial_type":"image-button-response","trial_index":17,"time_elapsed":336414,"internal_node_id":"0.0-4.0-0.5","subject_id":"60984191d5e92285e4d255a6","study_id":"6197b3f67c2b5cd3b6d9596a","session_id":"6197b88d06fb59370dd4d3d1","condition":"full-information","relevant_dimensions":["pattern","legs"],"bee_group":{"antennae":"X","wings":"X","pattern":"S","legs":"M"},"action":"harvest","summary":"bad-harvest","bonus":0.16000000000000084},{"rt":15206.699999999255,"stimulus":"\n                    <p><b>Action: <em>harvest</em></b></p>\n                    <p>This is the bee that you just saw.</p>\n                    <img src=\"bees-with-color/bee-A2SM.svg\" width=\"200\">\n                    <p><span class=\"redText\">Bad choice, the bee was angry.</span><br><b>You have been stung!</b><br>Your pay has been decreased by $0.10. Your bonus pay is now $0.48.</p>\n            ","response":0,"trial_type":"html-button-response","trial_index":18,"time_elapsed":351622,"internal_node_id":"0.0-4.0-1.5","subject_id":"60984191d5e92285e4d255a6","study_id":"6197b3f67c2b5cd3b6d9596a","session_id":"6197b88d06fb59370dd4d3d1","condition":"full-information","relevant_dimensions":["pattern","legs"],"bee_group":{"antennae":"X","wings":"X","pattern":"S","legs":"M"},"bonus":0.16000000000000084},{"rt":2742.300000000745,"stimulus":"bees-with-color/bee-B1SF.svg","response":0,"trial_type":"image-button-response","trial_index":19,"time_elapsed":354366,"internal_node_id":"0.0-4.0-0.6","subject_id":"60984191d5e92285e4d255a6","study_id":"6197b3f67c2b5cd3b6d9596a","session_id":"6197b88d06fb59370dd4d3d1","condition":"full-information","relevant_dimensions":["pattern","legs"],"bee_group":{"antennae":"X","wings":"X","pattern":"S","legs":"M"},"action":"harvest","summary":"good-harvest","bonus":0.16000000000000084},{"rt":8774.39999999851,"stimulus":"\n                    <p><b>Action: <em>harvest</em></b></p>\n                    <p>This is the bee that you just saw.</p>\n                    <img src=\"bees-with-color/bee-B1SF.svg\" width=\"200\">\n                    <p><span class=\"greenText\"><b>Successful harvest!</b></span><br>Your pay has increased by $0.02. Your bonus pay is now $0.50.</p>\n            ","response":0,"trial_type":"html-button-response","trial_index":20,"time_elapsed":363142,"internal_node_id":"0.0-4.0-1.6","subject_id":"60984191d5e92285e4d255a6","study_id":"6197b3f67c2b5cd3b6d9596a","session_id":"6197b88d06fb59370dd4d3d1","condition":"full-information","relevant_dimensions":["pattern","legs"],"bee_group":{"antennae":"X","wings":"X","pattern":"S","legs":"M"},"bonus":0.16000000000000084},{"rt":9006.800000000745,"stimulus":"bees-with-color/bee-A1DM.svg","response":0,"trial_type":"image-button-response","trial_index":21,"time_elapsed":372150,"internal_node_id":"0.0-4.0-0.7","subject_id":"60984191d5e92285e4d255a6","study_id":"6197b3f67c2b5cd3b6d9596a","session_id":"6197b88d06fb59370dd4d3d1","condition":"full-information","relevant_dimensions":["pattern","legs"],"bee_group":{"antennae":"X","wings":"X","pattern":"S","legs":"M"},"action":"harvest","summary":"good-harvest","bonus":0.16000000000000084},{"rt":5295.39999999851,"stimulus":"\n                    <p><b>Action: <em>harvest</em></b></p>\n                    <p>This is the bee that you just saw.</p>\n                    <img src=\"bees-with-color/bee-A1DM.svg\" width=\"200\">\n                    <p><span class=\"greenText\"><b>Successful harvest!</b></span><br>Your pay has increased by $0.02. Your bonus pay is now $0.52.</p>\n            ","response":0,"trial_type":"html-button-response","trial_index":22,"time_elapsed":377446,"internal_node_id":"0.0-4.0-1.7","subject_id":"60984191d5e92285e4d255a6","study_id":"6197b3f67c2b5cd3b6d9596a","session_id":"6197b88d06fb59370dd4d3d1","condition":"full-information","relevant_dimensions":["pattern","legs"],"bee_group":{"antennae":"X","wings":"X","pattern":"S","legs":"M"},"bonus":0.16000000000000084},{"rt":5861,"stimulus":"bees-with-color/bee-A2DF.svg","response":0,"trial_type":"image-button-response","trial_index":23,"time_elapsed":383311,"internal_node_id":"0.0-4.0-0.8","subject_id":"60984191d5e92285e4d255a6","study_id":"6197b3f67c2b5cd3b6d9596a","session_id":"6197b88d06fb59370dd4d3d1","condition":"full-information","relevant_dimensions":["pattern","legs"],"bee_group":{"antennae":"X","wings":"X","pattern":"S","legs":"M"},"action":"harvest","summary":"good-harvest","bonus":0.16000000000000084},{"rt":2254.7000000029802,"stimulus":"\n                    <p><b>Action: <em>harvest</em></b></p>\n                    <p>This is the bee that you just saw.</p>\n                    <img src=\"bees-with-color/bee-A2DF.svg\" width=\"200\">\n                    <p><span class=\"greenText\"><b>Successful harvest!</b></span><br>Your pay has increased by $0.02. Your bonus pay is now $0.54.</p>\n            ","response":0,"trial_type":"html-button-response","trial_index":24,"time_elapsed":385567,"internal_node_id":"0.0-4.0-1.8","subject_id":"60984191d5e92285e4d255a6","study_id":"6197b3f67c2b5cd3b6d9596a","session_id":"6197b88d06fb59370dd4d3d1","condition":"full-information","relevant_dimensions":["pattern","legs"],"bee_group":{"antennae":"X","wings":"X","pattern":"S","legs":"M"},"bonus":0.16000000000000084},{"rt":3950.199999999255,"stimulus":"bees-with-color/bee-B2DF.svg","response":0,"trial_type":"image-button-response","trial_index":25,"time_elapsed":389518,"internal_node_id":"0.0-4.0-0.9","subject_id":"60984191d5e92285e4d255a6","study_id":"6197b3f67c2b5cd3b6d9596a","session_id":"6197b88d06fb59370dd4d3d1","condition":"full-information","relevant_dimensions":["pattern","legs"],"bee_group":{"antennae":"X","wings":"X","pattern":"S","legs":"M"},"action":"harvest","summary":"good-harvest","bonus":0.16000000000000084},{"rt":1270.800000000745,"stimulus":"\n                    <p><b>Action: <em>harvest</em></b></p>\n                    <p>This is the bee that you just saw.</p>\n                    <img src=\"bees-with-color/bee-B2DF.svg\" width=\"200\">\n                    <p><span class=\"greenText\"><b>Successful harvest!</b></span><br>Your pay has increased by $0.02. Your bonus pay is now $0.56.</p>\n            ","response":0,"trial_type":"html-button-response","trial_index":26,"time_elapsed":390790,"internal_node_id":"0.0-4.0-1.9","subject_id":"60984191d5e92285e4d255a6","study_id":"6197b3f67c2b5cd3b6d9596a","session_id":"6197b88d06fb59370dd4d3d1","condition":"full-information","relevant_dimensions":["pattern","legs"],"bee_group":{"antennae":"X","wings":"X","pattern":"S","legs":"M"},"bonus":0.16000000000000084},{"rt":3686.699999999255,"stimulus":"bees-with-color/bee-A1SF.svg","response":1,"trial_type":"image-button-response","trial_index":27,"time_elapsed":394478,"internal_node_id":"0.0-4.0-0.10","subject_id":"60984191d5e92285e4d255a6","study_id":"6197b3f67c2b5cd3b6d9596a","session_id":"6197b88d06fb59370dd4d3d1","condition":"full-information","relevant_dimensions":["pattern","legs"],"bee_group":{"antennae":"X","wings":"X","pattern":"S","legs":"M"},"action":"avoid","summary":"bad-avoid","bonus":0.16000000000000084},{"rt":7278.70000000298,"stimulus":"\n                    <p><b>Action: <em>avoid</em></b></p>\n                    <p>This is the bee that you just saw.</p>\n                    <img src=\"bees-with-color/bee-A1SF.svg\" width=\"200\">\n                    <p><span class=\"redText\">Bad choice,</span> the bee was friendly.<br>Your bonus pay is unchanged, and remains at $0.56.</p>\n            ","response":0,"trial_type":"html-button-response","trial_index":28,"time_elapsed":401759,"internal_node_id":"0.0-4.0-1.10","subject_id":"60984191d5e92285e4d255a6","study_id":"6197b3f67c2b5cd3b6d9596a","session_id":"6197b88d06fb59370dd4d3d1","condition":"full-information","relevant_dimensions":["pattern","legs"],"bee_group":{"antennae":"X","wings":"X","pattern":"S","legs":"M"},"bonus":0.16000000000000084},{"rt":7758.5,"stimulus":"bees-with-color/bee-A1SM.svg","response":0,"trial_type":"image-button-response","trial_index":29,"time_elapsed":409518,"internal_node_id":"0.0-4.0-0.11","subject_id":"60984191d5e92285e4d255a6","study_id":"6197b3f67c2b5cd3b6d9596a","session_id":"6197b88d06fb59370dd4d3d1","condition":"full-information","relevant_dimensions":["pattern","legs"],"bee_group":{"antennae":"X","wings":"X","pattern":"S","legs":"M"},"action":"harvest","summary":"bad-harvest","bonus":0.16000000000000084},{"rt":966.6999999992549,"stimulus":"\n                    <p><b>Action: <em>harvest</em></b></p>\n                    <p>This is the bee that you just saw.</p>\n                    <img src=\"bees-with-color/bee-A1SM.svg\" width=\"200\">\n                    <p><span class=\"redText\">Bad choice, the bee was angry.</span><br><b>You have been stung!</b><br>Your pay has been decreased by $0.10. Your bonus pay is now $0.46.</p>\n            ","response":0,"trial_type":"html-button-response","trial_index":30,"time_elapsed":410486,"internal_node_id":"0.0-4.0-1.11","subject_id":"60984191d5e92285e4d255a6","study_id":"6197b3f67c2b5cd3b6d9596a","session_id":"6197b88d06fb59370dd4d3d1","condition":"full-information","relevant_dimensions":["pattern","legs"],"bee_group":{"antennae":"X","wings":"X","pattern":"S","legs":"M"},"bonus":0.16000000000000084},{"rt":2182.5,"stimulus":"bees-with-color/bee-B1SM.svg","response":1,"trial_type":"image-button-response","trial_index":31,"time_elapsed":412670,"internal_node_id":"0.0-4.0-0.12","subject_id":"60984191d5e92285e4d255a6","study_id":"6197b3f67c2b5cd3b6d9596a","session_id":"6197b88d06fb59370dd4d3d1","condition":"full-information","relevant_dimensions":["pattern","legs"],"bee_group":{"antennae":"X","wings":"X","pattern":"S","legs":"M"},"action":"avoid","summary":"good-avoid","bonus":0.16000000000000084},{"rt":1094.8999999985099,"stimulus":"\n                    <p><b>Action: <em>avoid</em></b></p>\n                    <p>This is the bee that you just saw.</p>\n                    <img src=\"bees-with-color/bee-B1SM.svg\" width=\"200\">\n                    <p><span class=\"greenText\">Good choice!</span>  This bee would have stung you.<br>Your bonus pay is unchanged, and remains at $0.46.</p>\n            ","response":0,"trial_type":"html-button-response","trial_index":32,"time_elapsed":413766,"internal_node_id":"0.0-4.0-1.12","subject_id":"60984191d5e92285e4d255a6","study_id":"6197b3f67c2b5cd3b6d9596a","session_id":"6197b88d06fb59370dd4d3d1","condition":"full-information","relevant_dimensions":["pattern","legs"],"bee_group":{"antennae":"X","wings":"X","pattern":"S","legs":"M"},"bonus":0.16000000000000084},{"rt":3150.89999999851,"stimulus":"bees-with-color/bee-A2DM.svg","response":0,"trial_type":"image-button-response","trial_index":33,"time_elapsed":416918,"internal_node_id":"0.0-4.0-0.13","subject_id":"60984191d5e92285e4d255a6","study_id":"6197b3f67c2b5cd3b6d9596a","session_id":"6197b88d06fb59370dd4d3d1","condition":"full-information","relevant_dimensions":["pattern","legs"],"bee_group":{"antennae":"X","wings":"X","pattern":"S","legs":"M"},"action":"harvest","summary":"good-harvest","bonus":0.16000000000000084},{"rt":950.9000000022352,"stimulus":"\n                    <p><b>Action: <em>harvest</em></b></p>\n                    <p>This is the bee that you just saw.</p>\n                    <img src=\"bees-with-color/bee-A2DM.svg\" width=\"200\">\n                    <p><span class=\"greenText\"><b>Successful harvest!</b></span><br>Your pay has increased by $0.02. Your bonus pay is now $0.48.</p>\n            ","response":0,"trial_type":"html-button-response","trial_index":34,"time_elapsed":417870,"internal_node_id":"0.0-4.0-1.13","subject_id":"60984191d5e92285e4d255a6","study_id":"6197b3f67c2b5cd3b6d9596a","session_id":"6197b88d06fb59370dd4d3d1","condition":"full-information","relevant_dimensions":["pattern","legs"],"bee_group":{"antennae":"X","wings":"X","pattern":"S","legs":"M"},"bonus":0.16000000000000084},{"rt":3118.699999999255,"stimulus":"bees-with-color/bee-B2DM.svg","response":0,"trial_type":"image-button-response","trial_index":35,"time_elapsed":420991,"internal_node_id":"0.0-4.0-0.14","subject_id":"60984191d5e92285e4d255a6","study_id":"6197b3f67c2b5cd3b6d9596a","session_id":"6197b88d06fb59370dd4d3d1","condition":"full-information","relevant_dimensions":["pattern","legs"],"bee_group":{"antennae":"X","wings":"X","pattern":"S","legs":"M"},"action":"harvest","summary":"good-harvest","bonus":0.16000000000000084},{"rt":1087,"stimulus":"\n                    <p><b>Action: <em>harvest</em></b></p>\n                    <p>This is the bee that you just saw.</p>\n                    <img src=\"bees-with-color/bee-B2DM.svg\" width=\"200\">\n                    <p><span class=\"greenText\"><b>Successful harvest!</b></span><br>Your pay has increased by $0.02. Your bonus pay is now $0.50.</p>\n            ","response":0,"trial_type":"html-button-response","trial_index":36,"time_elapsed":422079,"internal_node_id":"0.0-4.0-1.14","subject_id":"60984191d5e92285e4d255a6","study_id":"6197b3f67c2b5cd3b6d9596a","session_id":"6197b88d06fb59370dd4d3d1","condition":"full-information","relevant_dimensions":["pattern","legs"],"bee_group":{"antennae":"X","wings":"X","pattern":"S","legs":"M"},"bonus":0.16000000000000084},{"rt":1822.6000000014901,"stimulus":"bees-with-color/bee-B1DF.svg","response":1,"trial_type":"image-button-response","trial_index":37,"time_elapsed":423903,"internal_node_id":"0.0-4.0-0.15","subject_id":"60984191d5e92285e4d255a6","study_id":"6197b3f67c2b5cd3b6d9596a","session_id":"6197b88d06fb59370dd4d3d1","condition":"full-information","relevant_dimensions":["pattern","legs"],"bee_group":{"antennae":"X","wings":"X","pattern":"S","legs":"M"},"action":"avoid","summary":"bad-avoid","bonus":0.16000000000000084},{"rt":958.7000000029802,"stimulus":"\n                    <p><b>Action: <em>avoid</em></b></p>\n                    <p>This is the bee that you just saw.</p>\n                    <img src=\"bees-with-color/bee-B1DF.svg\" width=\"200\">\n                    <p><span class=\"redText\">Bad choice,</span> the bee was friendly.<br>Your bonus pay is unchanged, and remains at $0.50.</p>\n            ","response":0,"trial_type":"html-button-response","trial_index":38,"time_elapsed":424863,"internal_node_id":"0.0-4.0-1.15","subject_id":"60984191d5e92285e4d255a6","study_id":"6197b3f67c2b5cd3b6d9596a","session_id":"6197b88d06fb59370dd4d3d1","condition":"full-information","relevant_dimensions":["pattern","legs"],"bee_group":{"antennae":"X","wings":"X","pattern":"S","legs":"M"},"bonus":0.16000000000000084},{"rt":1254.699999999255,"stimulus":"bees-with-color/bee-A1DM.svg","response":0,"trial_type":"image-button-response","trial_index":39,"time_elapsed":426118,"internal_node_id":"0.0-4.0-0.16","subject_id":"60984191d5e92285e4d255a6","study_id":"6197b3f67c2b5cd3b6d9596a","session_id":"6197b88d06fb59370dd4d3d1","condition":"full-information","relevant_dimensions":["pattern","legs"],"bee_group":{"antennae":"X","wings":"X","pattern":"S","legs":"M"},"action":"harvest","summary":"good-harvest","bonus":0.16000000000000084},{"rt":943.2000000029802,"stimulus":"\n                    <p><b>Action: <em>harvest</em></b></p>\n                    <p>This is the bee that you just saw.</p>\n                    <img src=\"bees-with-color/bee-A1DM.svg\" width=\"200\">\n                    <p><span class=\"greenText\"><b>Successful harvest!</b></span><br>Your pay has increased by $0.02. Your bonus pay is now $0.52.</p>\n            ","response":0,"trial_type":"html-button-response","trial_index":40,"time_elapsed":427063,"internal_node_id":"0.0-4.0-1.16","subject_id":"60984191d5e92285e4d255a6","study_id":"6197b3f67c2b5cd3b6d9596a","session_id":"6197b88d06fb59370dd4d3d1","condition":"full-information","relevant_dimensions":["pattern","legs"],"bee_group":{"antennae":"X","wings":"X","pattern":"S","legs":"M"},"bonus":0.16000000000000084},{"rt":1655.300000000745,"stimulus":"bees-with-color/bee-A1SF.svg","response":0,"trial_type":"image-button-response","trial_index":41,"time_elapsed":428719,"internal_node_id":"0.0-4.0-0.17","subject_id":"60984191d5e92285e4d255a6","study_id":"6197b3f67c2b5cd3b6d9596a","session_id":"6197b88d06fb59370dd4d3d1","condition":"full-information","relevant_dimensions":["pattern","legs"],"bee_group":{"antennae":"X","wings":"X","pattern":"S","legs":"M"},"action":"harvest","summary":"good-harvest","bonus":0.16000000000000084},{"rt":662.3000000007451,"stimulus":"\n                    <p><b>Action: <em>harvest</em></b></p>\n                    <p>This is the bee that you just saw.</p>\n                    <img src=\"bees-with-color/bee-A1SF.svg\" width=\"200\">\n                    <p><span class=\"greenText\"><b>Successful harvest!</b></span><br>Your pay has increased by $0.02. Your bonus pay is now $0.54.</p>\n            ","response":0,"trial_type":"html-button-response","trial_index":42,"time_elapsed":429383,"internal_node_id":"0.0-4.0-1.17","subject_id":"60984191d5e92285e4d255a6","study_id":"6197b3f67c2b5cd3b6d9596a","session_id":"6197b88d06fb59370dd4d3d1","condition":"full-information","relevant_dimensions":["pattern","legs"],"bee_group":{"antennae":"X","wings":"X","pattern":"S","legs":"M"},"bonus":0.16000000000000084},{"rt":2671,"stimulus":"bees-with-color/bee-B1SF.svg","response":0,"trial_type":"image-button-response","trial_index":43,"time_elapsed":432055,"internal_node_id":"0.0-4.0-0.18","subject_id":"60984191d5e92285e4d255a6","study_id":"6197b3f67c2b5cd3b6d9596a","session_id":"6197b88d06fb59370dd4d3d1","condition":"full-information","relevant_dimensions":["pattern","legs"],"bee_group":{"antennae":"X","wings":"X","pattern":"S","legs":"M"},"action":"harvest","summary":"good-harvest","bonus":0.16000000000000084},{"rt":838.9000000022352,"stimulus":"\n                    <p><b>Action: <em>harvest</em></b></p>\n                    <p>This is the bee that you just saw.</p>\n                    <img src=\"bees-with-color/bee-B1SF.svg\" width=\"200\">\n                    <p><span class=\"greenText\"><b>Successful harvest!</b></span><br>Your pay has increased by $0.02. Your bonus pay is now $0.56.</p>\n            ","response":0,"trial_type":"html-button-response","trial_index":44,"time_elapsed":432894,"internal_node_id":"0.0-4.0-1.18","subject_id":"60984191d5e92285e4d255a6","study_id":"6197b3f67c2b5cd3b6d9596a","session_id":"6197b88d06fb59370dd4d3d1","condition":"full-information","relevant_dimensions":["pattern","legs"],"bee_group":{"antennae":"X","wings":"X","pattern":"S","legs":"M"},"bonus":0.16000000000000084},{"rt":2214.5,"stimulus":"bees-with-color/bee-B2DF.svg","response":0,"trial_type":"image-button-response","trial_index":45,"time_elapsed":435110,"internal_node_id":"0.0-4.0-0.19","subject_id":"60984191d5e92285e4d255a6","study_id":"6197b3f67c2b5cd3b6d9596a","session_id":"6197b88d06fb59370dd4d3d1","condition":"full-information","relevant_dimensions":["pattern","legs"],"bee_group":{"antennae":"X","wings":"X","pattern":"S","legs":"M"},"action":"harvest","summary":"good-harvest","bonus":0.16000000000000084},{"rt":670.8999999985099,"stimulus":"\n                    <p><b>Action: <em>harvest</em></b></p>\n                    <p>This is the bee that you just saw.</p>\n                    <img src=\"bees-with-color/bee-B2DF.svg\" width=\"200\">\n                    <p><span class=\"greenText\"><b>Successful harvest!</b></span><br>Your pay has increased by $0.02. Your bonus pay is now $0.58.</p>\n            ","response":0,"trial_type":"html-button-response","trial_index":46,"time_elapsed":435782,"internal_node_id":"0.0-4.0-1.19","subject_id":"60984191d5e92285e4d255a6","study_id":"6197b3f67c2b5cd3b6d9596a","session_id":"6197b88d06fb59370dd4d3d1","condition":"full-information","relevant_dimensions":["pattern","legs"],"bee_group":{"antennae":"X","wings":"X","pattern":"S","legs":"M"},"bonus":0.16000000000000084},{"rt":1815.3999999985099,"stimulus":"bees-with-color/bee-A2SF.svg","response":0,"trial_type":"image-button-response","trial_index":47,"time_elapsed":437599,"internal_node_id":"0.0-4.0-0.20","subject_id":"60984191d5e92285e4d255a6","study_id":"6197b3f67c2b5cd3b6d9596a","session_id":"6197b88d06fb59370dd4d3d1","condition":"full-information","relevant_dimensions":["pattern","legs"],"bee_group":{"antennae":"X","wings":"X","pattern":"S","legs":"M"},"action":"harvest","summary":"good-harvest","bonus":0.16000000000000084},{"rt":813.6999999992549,"stimulus":"\n                    <p><b>Action: <em>harvest</em></b></p>\n                    <p>This is the bee that you just saw.</p>\n                    <img src=\"bees-with-color/bee-A2SF.svg\" width=\"200\">\n                    <p><span class=\"greenText\"><b>Successful harvest!</b></span><br>Your pay has increased by $0.02. Your bonus pay is now $0.60.</p>\n            ","response":0,"trial_type":"html-button-response","trial_index":48,"time_elapsed":438414,"internal_node_id":"0.0-4.0-1.20","subject_id":"60984191d5e92285e4d255a6","study_id":"6197b3f67c2b5cd3b6d9596a","session_id":"6197b88d06fb59370dd4d3d1","condition":"full-information","relevant_dimensions":["pattern","legs"],"bee_group":{"antennae":"X","wings":"X","pattern":"S","legs":"M"},"bonus":0.16000000000000084},{"rt":4271.199999999255,"stimulus":"bees-with-color/bee-B1SM.svg","response":0,"trial_type":"image-button-response","trial_index":49,"time_elapsed":442688,"internal_node_id":"0.0-4.0-0.21","subject_id":"60984191d5e92285e4d255a6","study_id":"6197b3f67c2b5cd3b6d9596a","session_id":"6197b88d06fb59370dd4d3d1","condition":"full-information","relevant_dimensions":["pattern","legs"],"bee_group":{"antennae":"X","wings":"X","pattern":"S","legs":"M"},"action":"harvest","summary":"bad-harvest","bonus":0.16000000000000084},{"rt":846.8000000007451,"stimulus":"\n                    <p><b>Action: <em>harvest</em></b></p>\n                    <p>This is the bee that you just saw.</p>\n                    <img src=\"bees-with-color/bee-B1SM.svg\" width=\"200\">\n                    <p><span class=\"redText\">Bad choice, the bee was angry.</span><br><b>You have been stung!</b><br>Your pay has been decreased by $0.10. Your bonus pay is now $0.50.</p>\n            ","response":0,"trial_type":"html-button-response","trial_index":50,"time_elapsed":443536,"internal_node_id":"0.0-4.0-1.21","subject_id":"60984191d5e92285e4d255a6","study_id":"6197b3f67c2b5cd3b6d9596a","session_id":"6197b88d06fb59370dd4d3d1","condition":"full-information","relevant_dimensions":["pattern","legs"],"bee_group":{"antennae":"X","wings":"X","pattern":"S","legs":"M"},"bonus":0.16000000000000084},{"rt":1614.5,"stimulus":"bees-with-color/bee-A1DF.svg","response":0,"trial_type":"image-button-response","trial_index":51,"time_elapsed":445152,"internal_node_id":"0.0-4.0-0.22","subject_id":"60984191d5e92285e4d255a6","study_id":"6197b3f67c2b5cd3b6d9596a","session_id":"6197b88d06fb59370dd4d3d1","condition":"full-information","relevant_dimensions":["pattern","legs"],"bee_group":{"antennae":"X","wings":"X","pattern":"S","legs":"M"},"action":"harvest","summary":"good-harvest","bonus":0.16000000000000084},{"rt":622.6000000014901,"stimulus":"\n                    <p><b>Action: <em>harvest</em></b></p>\n                    <p>This is the bee that you just saw.</p>\n                    <img src=\"bees-with-color/bee-A1DF.svg\" width=\"200\">\n                    <p><span class=\"greenText\"><b>Successful harvest!</b></span><br>Your pay has increased by $0.02. Your bonus pay is now $0.52.</p>\n            ","response":0,"trial_type":"html-button-response","trial_index":52,"time_elapsed":445776,"internal_node_id":"0.0-4.0-1.22","subject_id":"60984191d5e92285e4d255a6","study_id":"6197b3f67c2b5cd3b6d9596a","session_id":"6197b88d06fb59370dd4d3d1","condition":"full-information","relevant_dimensions":["pattern","legs"],"bee_group":{"antennae":"X","wings":"X","pattern":"S","legs":"M"},"bonus":0.16000000000000084},{"rt":1839,"stimulus":"bees-with-color/bee-B2SM.svg","response":0,"trial_type":"image-button-response","trial_index":53,"time_elapsed":447616,"internal_node_id":"0.0-4.0-0.23","subject_id":"60984191d5e92285e4d255a6","study_id":"6197b3f67c2b5cd3b6d9596a","session_id":"6197b88d06fb59370dd4d3d1","condition":"full-information","relevant_dimensions":["pattern","legs"],"bee_group":{"antennae":"X","wings":"X","pattern":"S","legs":"M"},"action":"harvest","summary":"bad-harvest","bonus":0.16000000000000084},{"rt":895.5,"stimulus":"\n                    <p><b>Action: <em>harvest</em></b></p>\n                    <p>This is the bee that you just saw.</p>\n                    <img src=\"bees-with-color/bee-B2SM.svg\" width=\"200\">\n                    <p><span class=\"redText\">Bad choice, the bee was angry.</span><br><b>You have been stung!</b><br>Your pay has been decreased by $0.10. Your bonus pay is now $0.42.</p>\n            ","response":0,"trial_type":"html-button-response","trial_index":54,"time_elapsed":448512,"internal_node_id":"0.0-4.0-1.23","subject_id":"60984191d5e92285e4d255a6","study_id":"6197b3f67c2b5cd3b6d9596a","session_id":"6197b88d06fb59370dd4d3d1","condition":"full-information","relevant_dimensions":["pattern","legs"],"bee_group":{"antennae":"X","wings":"X","pattern":"S","legs":"M"},"bonus":0.16000000000000084},{"rt":2838,"stimulus":"bees-with-color/bee-B2DM.svg","response":0,"trial_type":"image-button-response","trial_index":55,"time_elapsed":451352,"internal_node_id":"0.0-4.0-0.24","subject_id":"60984191d5e92285e4d255a6","study_id":"6197b3f67c2b5cd3b6d9596a","session_id":"6197b88d06fb59370dd4d3d1","condition":"full-information","relevant_dimensions":["pattern","legs"],"bee_group":{"antennae":"X","wings":"X","pattern":"S","legs":"M"},"action":"harvest","summary":"good-harvest","bonus":0.16000000000000084},{"rt":615.1000000014901,"stimulus":"\n                    <p><b>Action: <em>harvest</em></b></p>\n                    <p>This is the bee that you just saw.</p>\n                    <img src=\"bees-with-color/bee-B2DM.svg\" width=\"200\">\n                    <p><span class=\"greenText\"><b>Successful harvest!</b></span><br>Your pay has increased by $0.02. Your bonus pay is now $0.44.</p>\n            ","response":0,"trial_type":"html-button-response","trial_index":56,"time_elapsed":451968,"internal_node_id":"0.0-4.0-1.24","subject_id":"60984191d5e92285e4d255a6","study_id":"6197b3f67c2b5cd3b6d9596a","session_id":"6197b88d06fb59370dd4d3d1","condition":"full-information","relevant_dimensions":["pattern","legs"],"bee_group":{"antennae":"X","wings":"X","pattern":"S","legs":"M"},"bonus":0.16000000000000084},{"rt":1366.6000000014901,"stimulus":"bees-with-color/bee-A2DF.svg","response":1,"trial_type":"image-button-response","trial_index":57,"time_elapsed":453336,"internal_node_id":"0.0-4.0-0.25","subject_id":"60984191d5e92285e4d255a6","study_id":"6197b3f67c2b5cd3b6d9596a","session_id":"6197b88d06fb59370dd4d3d1","condition":"full-information","relevant_dimensions":["pattern","legs"],"bee_group":{"antennae":"X","wings":"X","pattern":"S","legs":"M"},"action":"avoid","summary":"bad-avoid","bonus":0.16000000000000084},{"rt":822.6000000014901,"stimulus":"\n                    <p><b>Action: <em>avoid</em></b></p>\n                    <p>This is the bee that you just saw.</p>\n                    <img src=\"bees-with-color/bee-A2DF.svg\" width=\"200\">\n                    <p><span class=\"redText\">Bad choice,</span> the bee was friendly.<br>Your bonus pay is unchanged, and remains at $0.44.</p>\n            ","response":0,"trial_type":"html-button-response","trial_index":58,"time_elapsed":454160,"internal_node_id":"0.0-4.0-1.25","subject_id":"60984191d5e92285e4d255a6","study_id":"6197b3f67c2b5cd3b6d9596a","session_id":"6197b88d06fb59370dd4d3d1","condition":"full-information","relevant_dimensions":["pattern","legs"],"bee_group":{"antennae":"X","wings":"X","pattern":"S","legs":"M"},"bonus":0.16000000000000084},{"rt":2350.39999999851,"stimulus":"bees-with-color/bee-B2SF.svg","response":0,"trial_type":"image-button-response","trial_index":59,"time_elapsed":456512,"internal_node_id":"0.0-4.0-0.26","subject_id":"60984191d5e92285e4d255a6","study_id":"6197b3f67c2b5cd3b6d9596a","session_id":"6197b88d06fb59370dd4d3d1","condition":"full-information","relevant_dimensions":["pattern","legs"],"bee_group":{"antennae":"X","wings":"X","pattern":"S","legs":"M"},"action":"harvest","summary":"good-harvest","bonus":0.16000000000000084},{"rt":653.8999999985099,"stimulus":"\n                    <p><b>Action: <em>harvest</em></b></p>\n                    <p>This is the bee that you just saw.</p>\n                    <img src=\"bees-with-color/bee-B2SF.svg\" width=\"200\">\n                    <p><span class=\"greenText\"><b>Successful harvest!</b></span><br>Your pay has increased by $0.02. Your bonus pay is now $0.46.</p>\n            ","response":0,"trial_type":"html-button-response","trial_index":60,"time_elapsed":457168,"internal_node_id":"0.0-4.0-1.26","subject_id":"60984191d5e92285e4d255a6","study_id":"6197b3f67c2b5cd3b6d9596a","session_id":"6197b88d06fb59370dd4d3d1","condition":"full-information","relevant_dimensions":["pattern","legs"],"bee_group":{"antennae":"X","wings":"X","pattern":"S","legs":"M"},"bonus":0.16000000000000084},{"rt":4150.5,"stimulus":"bees-with-color/bee-A2SM.svg","response":0,"trial_type":"image-button-response","trial_index":61,"time_elapsed":461320,"internal_node_id":"0.0-4.0-0.27","subject_id":"60984191d5e92285e4d255a6","study_id":"6197b3f67c2b5cd3b6d9596a","session_id":"6197b88d06fb59370dd4d3d1","condition":"full-information","relevant_dimensions":["pattern","legs"],"bee_group":{"antennae":"X","wings":"X","pattern":"S","legs":"M"},"action":"harvest","summary":"bad-harvest","bonus":0.16000000000000084},{"rt":758.2000000029802,"stimulus":"\n                    <p><b>Action: <em>harvest</em></b></p>\n                    <p>This is the bee that you just saw.</p>\n                    <img src=\"bees-with-color/bee-A2SM.svg\" width=\"200\">\n                    <p><span class=\"redText\">Bad choice, the bee was angry.</span><br><b>You have been stung!</b><br>Your pay has been decreased by $0.10. Your bonus pay is now $0.36.</p>\n            ","response":0,"trial_type":"html-button-response","trial_index":62,"time_elapsed":462080,"internal_node_id":"0.0-4.0-1.27","subject_id":"60984191d5e92285e4d255a6","study_id":"6197b3f67c2b5cd3b6d9596a","session_id":"6197b88d06fb59370dd4d3d1","condition":"full-information","relevant_dimensions":["pattern","legs"],"bee_group":{"antennae":"X","wings":"X","pattern":"S","legs":"M"},"bonus":0.16000000000000084},{"rt":1023.1999999992549,"stimulus":"bees-with-color/bee-B1DF.svg","response":0,"trial_type":"image-button-response","trial_index":63,"time_elapsed":463104,"internal_node_id":"0.0-4.0-0.28","subject_id":"60984191d5e92285e4d255a6","study_id":"6197b3f67c2b5cd3b6d9596a","session_id":"6197b88d06fb59370dd4d3d1","condition":"full-information","relevant_dimensions":["pattern","legs"],"bee_group":{"antennae":"X","wings":"X","pattern":"S","legs":"M"},"action":"harvest","summary":"good-harvest","bonus":0.16000000000000084},{"rt":606,"stimulus":"\n                    <p><b>Action: <em>harvest</em></b></p>\n                    <p>This is the bee that you just saw.</p>\n                    <img src=\"bees-with-color/bee-B1DF.svg\" width=\"200\">\n                    <p><span class=\"greenText\"><b>Successful harvest!</b></span><br>Your pay has increased by $0.02. Your bonus pay is now $0.38.</p>\n            ","response":0,"trial_type":"html-button-response","trial_index":64,"time_elapsed":463711,"internal_node_id":"0.0-4.0-1.28","subject_id":"60984191d5e92285e4d255a6","study_id":"6197b3f67c2b5cd3b6d9596a","session_id":"6197b88d06fb59370dd4d3d1","condition":"full-information","relevant_dimensions":["pattern","legs"],"bee_group":{"antennae":"X","wings":"X","pattern":"S","legs":"M"},"bonus":0.16000000000000084},{"rt":1951.3999999985099,"stimulus":"bees-with-color/bee-B1DM.svg","response":0,"trial_type":"image-button-response","trial_index":65,"time_elapsed":465664,"internal_node_id":"0.0-4.0-0.29","subject_id":"60984191d5e92285e4d255a6","study_id":"6197b3f67c2b5cd3b6d9596a","session_id":"6197b88d06fb59370dd4d3d1","condition":"full-information","relevant_dimensions":["pattern","legs"],"bee_group":{"antennae":"X","wings":"X","pattern":"S","legs":"M"},"action":"harvest","summary":"good-harvest","bonus":0.16000000000000084},{"rt":566.5,"stimulus":"\n                    <p><b>Action: <em>harvest</em></b></p>\n                    <p>This is the bee that you just saw.</p>\n                    <img src=\"bees-with-color/bee-B1DM.svg\" width=\"200\">\n                    <p><span class=\"greenText\"><b>Successful harvest!</b></span><br>Your pay has increased by $0.02. Your bonus pay is now $0.40.</p>\n            ","response":0,"trial_type":"html-button-response","trial_index":66,"time_elapsed":466232,"internal_node_id":"0.0-4.0-1.29","subject_id":"60984191d5e92285e4d255a6","study_id":"6197b3f67c2b5cd3b6d9596a","session_id":"6197b88d06fb59370dd4d3d1","condition":"full-information","relevant_dimensions":["pattern","legs"],"bee_group":{"antennae":"X","wings":"X","pattern":"S","legs":"M"},"bonus":0.16000000000000084},{"rt":1999.1000000014901,"stimulus":"bees-with-color/bee-A1SM.svg","response":1,"trial_type":"image-button-response","trial_index":67,"time_elapsed":468232,"internal_node_id":"0.0-4.0-0.30","subject_id":"60984191d5e92285e4d255a6","study_id":"6197b3f67c2b5cd3b6d9596a","session_id":"6197b88d06fb59370dd4d3d1","condition":"full-information","relevant_dimensions":["pattern","legs"],"bee_group":{"antennae":"X","wings":"X","pattern":"S","legs":"M"},"action":"avoid","summary":"good-avoid","bonus":0.16000000000000084},{"rt":750.6000000014901,"stimulus":"\n                    <p><b>Action: <em>avoid</em></b></p>\n                    <p>This is the bee that you just saw.</p>\n                    <img src=\"bees-with-color/bee-A1SM.svg\" width=\"200\">\n                    <p><span class=\"greenText\">Good choice!</span>  This bee would have stung you.<br>Your bonus pay is unchanged, and remains at $0.40.</p>\n            ","response":0,"trial_type":"html-button-response","trial_index":68,"time_elapsed":468983,"internal_node_id":"0.0-4.0-1.30","subject_id":"60984191d5e92285e4d255a6","study_id":"6197b3f67c2b5cd3b6d9596a","session_id":"6197b88d06fb59370dd4d3d1","condition":"full-information","relevant_dimensions":["pattern","legs"],"bee_group":{"antennae":"X","wings":"X","pattern":"S","legs":"M"},"bonus":0.16000000000000084},{"rt":2047.2000000029802,"stimulus":"bees-with-color/bee-A2DM.svg","response":0,"trial_type":"image-button-response","trial_index":69,"time_elapsed":471032,"internal_node_id":"0.0-4.0-0.31","subject_id":"60984191d5e92285e4d255a6","study_id":"6197b3f67c2b5cd3b6d9596a","session_id":"6197b88d06fb59370dd4d3d1","condition":"full-information","relevant_dimensions":["pattern","legs"],"bee_group":{"antennae":"X","wings":"X","pattern":"S","legs":"M"},"action":"harvest","summary":"good-harvest","bonus":0.16000000000000084},{"rt":702,"stimulus":"\n                    <p><b>Action: <em>harvest</em></b></p>\n                    <p>This is the bee that you just saw.</p>\n                    <img src=\"bees-with-color/bee-A2DM.svg\" width=\"200\">\n                    <p><span class=\"greenText\"><b>Successful harvest!</b></span><br>Your pay has increased by $0.02. Your bonus pay is now $0.42.</p>\n            ","response":0,"trial_type":"html-button-response","trial_index":70,"time_elapsed":471736,"internal_node_id":"0.0-4.0-1.31","subject_id":"60984191d5e92285e4d255a6","study_id":"6197b3f67c2b5cd3b6d9596a","session_id":"6197b88d06fb59370dd4d3d1","condition":"full-information","relevant_dimensions":["pattern","legs"],"bee_group":{"antennae":"X","wings":"X","pattern":"S","legs":"M"},"bonus":0.16000000000000084},{"rt":1558.2000000029802,"stimulus":"bees-with-color/bee-A2DM.svg","response":0,"trial_type":"image-button-response","trial_index":71,"time_elapsed":473296,"internal_node_id":"0.0-4.0-0.32","subject_id":"60984191d5e92285e4d255a6","study_id":"6197b3f67c2b5cd3b6d9596a","session_id":"6197b88d06fb59370dd4d3d1","condition":"full-information","relevant_dimensions":["pattern","legs"],"bee_group":{"antennae":"X","wings":"X","pattern":"S","legs":"M"},"action":"harvest","summary":"good-harvest","bonus":0.16000000000000084},{"rt":670.6999999992549,"stimulus":"\n                    <p><b>Action: <em>harvest</em></b></p>\n                    <p>This is the bee that you just saw.</p>\n                    <img src=\"bees-with-color/bee-A2DM.svg\" width=\"200\">\n                    <p><span class=\"greenText\"><b>Successful harvest!</b></span><br>Your pay has increased by $0.02. Your bonus pay is now $0.44.</p>\n            ","response":0,"trial_type":"html-button-response","trial_index":72,"time_elapsed":473967,"internal_node_id":"0.0-4.0-1.32","subject_id":"60984191d5e92285e4d255a6","study_id":"6197b3f67c2b5cd3b6d9596a","session_id":"6197b88d06fb59370dd4d3d1","condition":"full-information","relevant_dimensions":["pattern","legs"],"bee_group":{"antennae":"X","wings":"X","pattern":"S","legs":"M"},"bonus":0.16000000000000084},{"rt":1343.2000000029802,"stimulus":"bees-with-color/bee-B2SF.svg","response":0,"trial_type":"image-button-response","trial_index":73,"time_elapsed":475312,"internal_node_id":"0.0-4.0-0.33","subject_id":"60984191d5e92285e4d255a6","study_id":"6197b3f67c2b5cd3b6d9596a","session_id":"6197b88d06fb59370dd4d3d1","condition":"full-information","relevant_dimensions":["pattern","legs"],"bee_group":{"antennae":"X","wings":"X","pattern":"S","legs":"M"},"action":"harvest","summary":"good-harvest","bonus":0.16000000000000084},{"rt":678.8999999985099,"stimulus":"\n                    <p><b>Action: <em>harvest</em></b></p>\n                    <p>This is the bee that you just saw.</p>\n                    <img src=\"bees-with-color/bee-B2SF.svg\" width=\"200\">\n                    <p><span class=\"greenText\"><b>Successful harvest!</b></span><br>Your pay has increased by $0.02. Your bonus pay is now $0.46.</p>\n            ","response":0,"trial_type":"html-button-response","trial_index":74,"time_elapsed":475992,"internal_node_id":"0.0-4.0-1.33","subject_id":"60984191d5e92285e4d255a6","study_id":"6197b3f67c2b5cd3b6d9596a","session_id":"6197b88d06fb59370dd4d3d1","condition":"full-information","relevant_dimensions":["pattern","legs"],"bee_group":{"antennae":"X","wings":"X","pattern":"S","legs":"M"},"bonus":0.16000000000000084},{"rt":1942.6000000014901,"stimulus":"bees-with-color/bee-B1SM.svg","response":1,"trial_type":"image-button-response","trial_index":75,"time_elapsed":477936,"internal_node_id":"0.0-4.0-0.34","subject_id":"60984191d5e92285e4d255a6","study_id":"6197b3f67c2b5cd3b6d9596a","session_id":"6197b88d06fb59370dd4d3d1","condition":"full-information","relevant_dimensions":["pattern","legs"],"bee_group":{"antennae":"X","wings":"X","pattern":"S","legs":"M"},"action":"avoid","summary":"good-avoid","bonus":0.16000000000000084},{"rt":638.5,"stimulus":"\n                    <p><b>Action: <em>avoid</em></b></p>\n                    <p>This is the bee that you just saw.</p>\n                    <img src=\"bees-with-color/bee-B1SM.svg\" width=\"200\">\n                    <p><span class=\"greenText\">Good choice!</span>  This bee would have stung you.<br>Your bonus pay is unchanged, and remains at $0.46.</p>\n            ","response":0,"trial_type":"html-button-response","trial_index":76,"time_elapsed":478576,"internal_node_id":"0.0-4.0-1.34","subject_id":"60984191d5e92285e4d255a6","study_id":"6197b3f67c2b5cd3b6d9596a","session_id":"6197b88d06fb59370dd4d3d1","condition":"full-information","relevant_dimensions":["pattern","legs"],"bee_group":{"antennae":"X","wings":"X","pattern":"S","legs":"M"},"bonus":0.16000000000000084},{"rt":3415.099999997765,"stimulus":"bees-with-color/bee-A1SF.svg","response":1,"trial_type":"image-button-response","trial_index":77,"time_elapsed":481992,"internal_node_id":"0.0-4.0-0.35","subject_id":"60984191d5e92285e4d255a6","study_id":"6197b3f67c2b5cd3b6d9596a","session_id":"6197b88d06fb59370dd4d3d1","condition":"full-information","relevant_dimensions":["pattern","legs"],"bee_group":{"antennae":"X","wings":"X","pattern":"S","legs":"M"},"action":"avoid","summary":"bad-avoid","bonus":0.16000000000000084},{"rt":606.1000000014901,"stimulus":"\n                    <p><b>Action: <em>avoid</em></b></p>\n                    <p>This is the bee that you just saw.</p>\n                    <img src=\"bees-with-color/bee-A1SF.svg\" width=\"200\">\n                    <p><span class=\"redText\">Bad choice,</span> the bee was friendly.<br>Your bonus pay is unchanged, and remains at $0.46.</p>\n            ","response":0,"trial_type":"html-button-response","trial_index":78,"time_elapsed":482600,"internal_node_id":"0.0-4.0-1.35","subject_id":"60984191d5e92285e4d255a6","study_id":"6197b3f67c2b5cd3b6d9596a","session_id":"6197b88d06fb59370dd4d3d1","condition":"full-information","relevant_dimensions":["pattern","legs"],"bee_group":{"antennae":"X","wings":"X","pattern":"S","legs":"M"},"bonus":0.16000000000000084},{"rt":1621.6000000014901,"stimulus":"bees-with-color/bee-A1DM.svg","response":0,"trial_type":"image-button-response","trial_index":79,"time_elapsed":484224,"internal_node_id":"0.0-4.0-0.36","subject_id":"60984191d5e92285e4d255a6","study_id":"6197b3f67c2b5cd3b6d9596a","session_id":"6197b88d06fb59370dd4d3d1","condition":"full-information","relevant_dimensions":["pattern","legs"],"bee_group":{"antennae":"X","wings":"X","pattern":"S","legs":"M"},"action":"harvest","summary":"good-harvest","bonus":0.16000000000000084},{"rt":598.5,"stimulus":"\n                    <p><b>Action: <em>harvest</em></b></p>\n                    <p>This is the bee that you just saw.</p>\n                    <img src=\"bees-with-color/bee-A1DM.svg\" width=\"200\">\n                    <p><span class=\"greenText\"><b>Successful harvest!</b></span><br>Your pay has increased by $0.02. Your bonus pay is now $0.48.</p>\n            ","response":0,"trial_type":"html-button-response","trial_index":80,"time_elapsed":484823,"internal_node_id":"0.0-4.0-1.36","subject_id":"60984191d5e92285e4d255a6","study_id":"6197b3f67c2b5cd3b6d9596a","session_id":"6197b88d06fb59370dd4d3d1","condition":"full-information","relevant_dimensions":["pattern","legs"],"bee_group":{"antennae":"X","wings":"X","pattern":"S","legs":"M"},"bonus":0.16000000000000084},{"rt":1431.300000000745,"stimulus":"bees-with-color/bee-A2SM.svg","response":0,"trial_type":"image-button-response","trial_index":81,"time_elapsed":486256,"internal_node_id":"0.0-4.0-0.37","subject_id":"60984191d5e92285e4d255a6","study_id":"6197b3f67c2b5cd3b6d9596a","session_id":"6197b88d06fb59370dd4d3d1","condition":"full-information","relevant_dimensions":["pattern","legs"],"bee_group":{"antennae":"X","wings":"X","pattern":"S","legs":"M"},"action":"harvest","summary":"bad-harvest","bonus":0.16000000000000084},{"rt":622.5,"stimulus":"\n                    <p><b>Action: <em>harvest</em></b></p>\n                    <p>This is the bee that you just saw.</p>\n                    <img src=\"bees-with-color/bee-A2SM.svg\" width=\"200\">\n                    <p><span class=\"redText\">Bad choice, the bee was angry.</span><br><b>You have been stung!</b><br>Your pay has been decreased by $0.10. Your bonus pay is now $0.38.</p>\n            ","response":0,"trial_type":"html-button-response","trial_index":82,"time_elapsed":486880,"internal_node_id":"0.0-4.0-1.37","subject_id":"60984191d5e92285e4d255a6","study_id":"6197b3f67c2b5cd3b6d9596a","session_id":"6197b88d06fb59370dd4d3d1","condition":"full-information","relevant_dimensions":["pattern","legs"],"bee_group":{"antennae":"X","wings":"X","pattern":"S","legs":"M"},"bonus":0.16000000000000084},{"rt":950.8999999985099,"stimulus":"bees-with-color/bee-B2DM.svg","response":0,"trial_type":"image-button-response","trial_index":83,"time_elapsed":487832,"internal_node_id":"0.0-4.0-0.38","subject_id":"60984191d5e92285e4d255a6","study_id":"6197b3f67c2b5cd3b6d9596a","session_id":"6197b88d06fb59370dd4d3d1","condition":"full-information","relevant_dimensions":["pattern","legs"],"bee_group":{"antennae":"X","wings":"X","pattern":"S","legs":"M"},"action":"harvest","summary":"good-harvest","bonus":0.16000000000000084},{"rt":774.4000000022352,"stimulus":"\n                    <p><b>Action: <em>harvest</em></b></p>\n                    <p>This is the bee that you just saw.</p>\n                    <img src=\"bees-with-color/bee-B2DM.svg\" width=\"200\">\n                    <p><span class=\"greenText\"><b>Successful harvest!</b></span><br>Your pay has increased by $0.02. Your bonus pay is now $0.40.</p>\n            ","response":0,"trial_type":"html-button-response","trial_index":84,"time_elapsed":488608,"internal_node_id":"0.0-4.0-1.38","subject_id":"60984191d5e92285e4d255a6","study_id":"6197b3f67c2b5cd3b6d9596a","session_id":"6197b88d06fb59370dd4d3d1","condition":"full-information","relevant_dimensions":["pattern","legs"],"bee_group":{"antennae":"X","wings":"X","pattern":"S","legs":"M"},"bonus":0.16000000000000084},{"rt":3766.89999999851,"stimulus":"bees-with-color/bee-B2DF.svg","response":0,"trial_type":"image-button-response","trial_index":85,"time_elapsed":492376,"internal_node_id":"0.0-4.0-0.39","subject_id":"60984191d5e92285e4d255a6","study_id":"6197b3f67c2b5cd3b6d9596a","session_id":"6197b88d06fb59370dd4d3d1","condition":"full-information","relevant_dimensions":["pattern","legs"],"bee_group":{"antennae":"X","wings":"X","pattern":"S","legs":"M"},"action":"harvest","summary":"good-harvest","bonus":0.16000000000000084},{"rt":590.6000000014901,"stimulus":"\n                    <p><b>Action: <em>harvest</em></b></p>\n                    <p>This is the bee that you just saw.</p>\n                    <img src=\"bees-with-color/bee-B2DF.svg\" width=\"200\">\n                    <p><span class=\"greenText\"><b>Successful harvest!</b></span><br>Your pay has increased by $0.02. Your bonus pay is now $0.42.</p>\n            ","response":0,"trial_type":"html-button-response","trial_index":86,"time_elapsed":492968,"internal_node_id":"0.0-4.0-1.39","subject_id":"60984191d5e92285e4d255a6","study_id":"6197b3f67c2b5cd3b6d9596a","session_id":"6197b88d06fb59370dd4d3d1","condition":"full-information","relevant_dimensions":["pattern","legs"],"bee_group":{"antennae":"X","wings":"X","pattern":"S","legs":"M"},"bonus":0.16000000000000084},{"rt":2206.5,"stimulus":"bees-with-color/bee-B2SM.svg","response":1,"trial_type":"image-button-response","trial_index":87,"time_elapsed":495176,"internal_node_id":"0.0-4.0-0.40","subject_id":"60984191d5e92285e4d255a6","study_id":"6197b3f67c2b5cd3b6d9596a","session_id":"6197b88d06fb59370dd4d3d1","condition":"full-information","relevant_dimensions":["pattern","legs"],"bee_group":{"antennae":"X","wings":"X","pattern":"S","legs":"M"},"action":"avoid","summary":"good-avoid","bonus":0.16000000000000084},{"rt":622,"stimulus":"\n                    <p><b>Action: <em>avoid</em></b></p>\n                    <p>This is the bee that you just saw.</p>\n                    <img src=\"bees-with-color/bee-B2SM.svg\" width=\"200\">\n                    <p><span class=\"greenText\">Good choice!</span>  This bee would have stung you.<br>Your bonus pay is unchanged, and remains at $0.42.</p>\n            ","response":0,"trial_type":"html-button-response","trial_index":88,"time_elapsed":495799,"internal_node_id":"0.0-4.0-1.40","subject_id":"60984191d5e92285e4d255a6","study_id":"6197b3f67c2b5cd3b6d9596a","session_id":"6197b88d06fb59370dd4d3d1","condition":"full-information","relevant_dimensions":["pattern","legs"],"bee_group":{"antennae":"X","wings":"X","pattern":"S","legs":"M"},"bonus":0.16000000000000084},{"rt":1431.5,"stimulus":"bees-with-color/bee-B1SF.svg","response":0,"trial_type":"image-button-response","trial_index":89,"time_elapsed":497232,"internal_node_id":"0.0-4.0-0.41","subject_id":"60984191d5e92285e4d255a6","study_id":"6197b3f67c2b5cd3b6d9596a","session_id":"6197b88d06fb59370dd4d3d1","condition":"full-information","relevant_dimensions":["pattern","legs"],"bee_group":{"antennae":"X","wings":"X","pattern":"S","legs":"M"},"action":"harvest","summary":"good-harvest","bonus":0.16000000000000084},{"rt":1732.300000000745,"stimulus":"\n                    <p><b>Action: <em>harvest</em></b></p>\n                    <p>This is the bee that you just saw.</p>\n                    <img src=\"bees-with-color/bee-B1SF.svg\" width=\"200\">\n                    <p><span class=\"greenText\"><b>Successful harvest!</b></span><br>Your pay has increased by $0.02. Your bonus pay is now $0.44.</p>\n            ","response":0,"trial_type":"html-button-response","trial_index":90,"time_elapsed":498968,"internal_node_id":"0.0-4.0-1.41","subject_id":"60984191d5e92285e4d255a6","study_id":"6197b3f67c2b5cd3b6d9596a","session_id":"6197b88d06fb59370dd4d3d1","condition":"full-information","relevant_dimensions":["pattern","legs"],"bee_group":{"antennae":"X","wings":"X","pattern":"S","legs":"M"},"bonus":0.16000000000000084},{"rt":1086.300000000745,"stimulus":"bees-with-color/bee-B1DM.svg","response":0,"trial_type":"image-button-response","trial_index":91,"time_elapsed":500056,"internal_node_id":"0.0-4.0-0.42","subject_id":"60984191d5e92285e4d255a6","study_id":"6197b3f67c2b5cd3b6d9596a","session_id":"6197b88d06fb59370dd4d3d1","condition":"full-information","relevant_dimensions":["pattern","legs"],"bee_group":{"antennae":"X","wings":"X","pattern":"S","legs":"M"},"action":"harvest","summary":"good-harvest","bonus":0.16000000000000084},{"rt":693.5,"stimulus":"\n                    <p><b>Action: <em>harvest</em></b></p>\n                    <p>This is the bee that you just saw.</p>\n                    <img src=\"bees-with-color/bee-B1DM.svg\" width=\"200\">\n                    <p><span class=\"greenText\"><b>Successful harvest!</b></span><br>Your pay has increased by $0.02. Your bonus pay is now $0.46.</p>\n            ","response":0,"trial_type":"html-button-response","trial_index":92,"time_elapsed":500752,"internal_node_id":"0.0-4.0-1.42","subject_id":"60984191d5e92285e4d255a6","study_id":"6197b3f67c2b5cd3b6d9596a","session_id":"6197b88d06fb59370dd4d3d1","condition":"full-information","relevant_dimensions":["pattern","legs"],"bee_group":{"antennae":"X","wings":"X","pattern":"S","legs":"M"},"bonus":0.16000000000000084},{"rt":1254.5999999977648,"stimulus":"bees-with-color/bee-A1SM.svg","response":0,"trial_type":"image-button-response","trial_index":93,"time_elapsed":502007,"internal_node_id":"0.0-4.0-0.43","subject_id":"60984191d5e92285e4d255a6","study_id":"6197b3f67c2b5cd3b6d9596a","session_id":"6197b88d06fb59370dd4d3d1","condition":"full-information","relevant_dimensions":["pattern","legs"],"bee_group":{"antennae":"X","wings":"X","pattern":"S","legs":"M"},"action":"harvest","summary":"bad-harvest","bonus":0.16000000000000084},{"rt":831.3999999985099,"stimulus":"\n                    <p><b>Action: <em>harvest</em></b></p>\n                    <p>This is the bee that you just saw.</p>\n                    <img src=\"bees-with-color/bee-A1SM.svg\" width=\"200\">\n                    <p><span class=\"redText\">Bad choice, the bee was angry.</span><br><b>You have been stung!</b><br>Your pay has been decreased by $0.10. Your bonus pay is now $0.36.</p>\n            ","response":0,"trial_type":"html-button-response","trial_index":94,"time_elapsed":502841,"internal_node_id":"0.0-4.0-1.43","subject_id":"60984191d5e92285e4d255a6","study_id":"6197b3f67c2b5cd3b6d9596a","session_id":"6197b88d06fb59370dd4d3d1","condition":"full-information","relevant_dimensions":["pattern","legs"],"bee_group":{"antennae":"X","wings":"X","pattern":"S","legs":"M"},"bonus":0.16000000000000084},{"rt":1414.300000000745,"stimulus":"bees-with-color/bee-A1DF.svg","response":1,"trial_type":"image-button-response","trial_index":95,"time_elapsed":504257,"internal_node_id":"0.0-4.0-0.44","subject_id":"60984191d5e92285e4d255a6","study_id":"6197b3f67c2b5cd3b6d9596a","session_id":"6197b88d06fb59370dd4d3d1","condition":"full-information","relevant_dimensions":["pattern","legs"],"bee_group":{"antennae":"X","wings":"X","pattern":"S","legs":"M"},"action":"avoid","summary":"bad-avoid","bonus":0.16000000000000084},{"rt":550.9000000022352,"stimulus":"\n                    <p><b>Action: <em>avoid</em></b></p>\n                    <p>This is the bee that you just saw.</p>\n                    <img src=\"bees-with-color/bee-A1DF.svg\" width=\"200\">\n                    <p><span class=\"redText\">Bad choice,</span> the bee was friendly.<br>Your bonus pay is unchanged, and remains at $0.36.</p>\n            ","response":0,"trial_type":"html-button-response","trial_index":96,"time_elapsed":504809,"internal_node_id":"0.0-4.0-1.44","subject_id":"60984191d5e92285e4d255a6","study_id":"6197b3f67c2b5cd3b6d9596a","session_id":"6197b88d06fb59370dd4d3d1","condition":"full-information","relevant_dimensions":["pattern","legs"],"bee_group":{"antennae":"X","wings":"X","pattern":"S","legs":"M"},"bonus":0.16000000000000084},{"rt":837.4000000022352,"stimulus":"bees-with-color/bee-A2SF.svg","response":0,"trial_type":"image-button-response","trial_index":97,"time_elapsed":505649,"internal_node_id":"0.0-4.0-0.45","subject_id":"60984191d5e92285e4d255a6","study_id":"6197b3f67c2b5cd3b6d9596a","session_id":"6197b88d06fb59370dd4d3d1","condition":"full-information","relevant_dimensions":["pattern","legs"],"bee_group":{"antennae":"X","wings":"X","pattern":"S","legs":"M"},"action":"harvest","summary":"good-harvest","bonus":0.16000000000000084},{"rt":718.1999999992549,"stimulus":"\n                    <p><b>Action: <em>harvest</em></b></p>\n                    <p>This is the bee that you just saw.</p>\n                    <img src=\"bees-with-color/bee-A2SF.svg\" width=\"200\">\n                    <p><span class=\"greenText\"><b>Successful harvest!</b></span><br>Your pay has increased by $0.02. Your bonus pay is now $0.38.</p>\n            ","response":0,"trial_type":"html-button-response","trial_index":98,"time_elapsed":506368,"internal_node_id":"0.0-4.0-1.45","subject_id":"60984191d5e92285e4d255a6","study_id":"6197b3f67c2b5cd3b6d9596a","session_id":"6197b88d06fb59370dd4d3d1","condition":"full-information","relevant_dimensions":["pattern","legs"],"bee_group":{"antennae":"X","wings":"X","pattern":"S","legs":"M"},"bonus":0.16000000000000084},{"rt":1246.9000000022352,"stimulus":"bees-with-color/bee-A2DF.svg","response":0,"trial_type":"image-button-response","trial_index":99,"time_elapsed":507617,"internal_node_id":"0.0-4.0-0.46","subject_id":"60984191d5e92285e4d255a6","study_id":"6197b3f67c2b5cd3b6d9596a","session_id":"6197b88d06fb59370dd4d3d1","condition":"full-information","relevant_dimensions":["pattern","legs"],"bee_group":{"antennae":"X","wings":"X","pattern":"S","legs":"M"},"action":"harvest","summary":"good-harvest","bonus":0.16000000000000084},{"rt":645.6000000014901,"stimulus":"\n                    <p><b>Action: <em>harvest</em></b></p>\n                    <p>This is the bee that you just saw.</p>\n                    <img src=\"bees-with-color/bee-A2DF.svg\" width=\"200\">\n                    <p><span class=\"greenText\"><b>Successful harvest!</b></span><br>Your pay has increased by $0.02. Your bonus pay is now $0.40.</p>\n            ","response":0,"trial_type":"html-button-response","trial_index":100,"time_elapsed":508265,"internal_node_id":"0.0-4.0-1.46","subject_id":"60984191d5e92285e4d255a6","study_id":"6197b3f67c2b5cd3b6d9596a","session_id":"6197b88d06fb59370dd4d3d1","condition":"full-information","relevant_dimensions":["pattern","legs"],"bee_group":{"antennae":"X","wings":"X","pattern":"S","legs":"M"},"bonus":0.16000000000000084},{"rt":1478.7999999970198,"stimulus":"bees-with-color/bee-B1DF.svg","response":0,"trial_type":"image-button-response","trial_index":101,"time_elapsed":509745,"internal_node_id":"0.0-4.0-0.47","subject_id":"60984191d5e92285e4d255a6","study_id":"6197b3f67c2b5cd3b6d9596a","session_id":"6197b88d06fb59370dd4d3d1","condition":"full-information","relevant_dimensions":["pattern","legs"],"bee_group":{"antennae":"X","wings":"X","pattern":"S","legs":"M"},"action":"harvest","summary":"good-harvest","bonus":0.16000000000000084},{"rt":718.8999999985099,"stimulus":"\n                    <p><b>Action: <em>harvest</em></b></p>\n                    <p>This is the bee that you just saw.</p>\n                    <img src=\"bees-with-color/bee-B1DF.svg\" width=\"200\">\n                    <p><span class=\"greenText\"><b>Successful harvest!</b></span><br>Your pay has increased by $0.02. Your bonus pay is now $0.42.</p>\n            ","response":0,"trial_type":"html-button-response","trial_index":102,"time_elapsed":510465,"internal_node_id":"0.0-4.0-1.47","subject_id":"60984191d5e92285e4d255a6","study_id":"6197b3f67c2b5cd3b6d9596a","session_id":"6197b88d06fb59370dd4d3d1","condition":"full-information","relevant_dimensions":["pattern","legs"],"bee_group":{"antennae":"X","wings":"X","pattern":"S","legs":"M"},"bonus":0.16000000000000084},{"rt":1157.6000000014901,"stimulus":"bees-with-color/bee-A2SM.svg","response":1,"trial_type":"image-button-response","trial_index":103,"time_elapsed":511625,"internal_node_id":"0.0-4.0-0.48","subject_id":"60984191d5e92285e4d255a6","study_id":"6197b3f67c2b5cd3b6d9596a","session_id":"6197b88d06fb59370dd4d3d1","condition":"full-information","relevant_dimensions":["pattern","legs"],"bee_group":{"antennae":"X","wings":"X","pattern":"S","legs":"M"},"action":"avoid","summary":"good-avoid","bonus":0.16000000000000084},{"rt":854.4000000022352,"stimulus":"\n                    <p><b>Action: <em>avoid</em></b></p>\n                    <p>This is the bee that you just saw.</p>\n                    <img src=\"bees-with-color/bee-A2SM.svg\" width=\"200\">\n                    <p><span class=\"greenText\">Good choice!</span>  This bee would have stung you.<br>Your bonus pay is unchanged, and remains at $0.42.</p>\n            ","response":0,"trial_type":"html-button-response","trial_index":104,"time_elapsed":512481,"internal_node_id":"0.0-4.0-1.48","subject_id":"60984191d5e92285e4d255a6","study_id":"6197b3f67c2b5cd3b6d9596a","session_id":"6197b88d06fb59370dd4d3d1","condition":"full-information","relevant_dimensions":["pattern","legs"],"bee_group":{"antennae":"X","wings":"X","pattern":"S","legs":"M"},"bonus":0.16000000000000084},{"rt":1134.8999999985099,"stimulus":"bees-with-color/bee-B1DM.svg","response":0,"trial_type":"image-button-response","trial_index":105,"time_elapsed":513617,"internal_node_id":"0.0-4.0-0.49","subject_id":"60984191d5e92285e4d255a6","study_id":"6197b3f67c2b5cd3b6d9596a","session_id":"6197b88d06fb59370dd4d3d1","condition":"full-information","relevant_dimensions":["pattern","legs"],"bee_group":{"antennae":"X","wings":"X","pattern":"S","legs":"M"},"action":"harvest","summary":"good-harvest","bonus":0.16000000000000084},{"rt":870.1999999992549,"stimulus":"\n                    <p><b>Action: <em>harvest</em></b></p>\n                    <p>This is the bee that you just saw.</p>\n                    <img src=\"bees-with-color/bee-B1DM.svg\" width=\"200\">\n                    <p><span class=\"greenText\"><b>Successful harvest!</b></span><br>Your pay has increased by $0.02. Your bonus pay is now $0.44.</p>\n            ","response":0,"trial_type":"html-button-response","trial_index":106,"time_elapsed":514489,"internal_node_id":"0.0-4.0-1.49","subject_id":"60984191d5e92285e4d255a6","study_id":"6197b3f67c2b5cd3b6d9596a","session_id":"6197b88d06fb59370dd4d3d1","condition":"full-information","relevant_dimensions":["pattern","legs"],"bee_group":{"antennae":"X","wings":"X","pattern":"S","legs":"M"},"bonus":0.16000000000000084},{"rt":1078.7000000029802,"stimulus":"bees-with-color/bee-A2DF.svg","response":0,"trial_type":"image-button-response","trial_index":107,"time_elapsed":515568,"internal_node_id":"0.0-4.0-0.50","subject_id":"60984191d5e92285e4d255a6","study_id":"6197b3f67c2b5cd3b6d9596a","session_id":"6197b88d06fb59370dd4d3d1","condition":"full-information","relevant_dimensions":["pattern","legs"],"bee_group":{"antennae":"X","wings":"X","pattern":"S","legs":"M"},"action":"harvest","summary":"good-harvest","bonus":0.16000000000000084},{"rt":702.7000000029802,"stimulus":"\n                    <p><b>Action: <em>harvest</em></b></p>\n                    <p>This is the bee that you just saw.</p>\n                    <img src=\"bees-with-color/bee-A2DF.svg\" width=\"200\">\n                    <p><span class=\"greenText\"><b>Successful harvest!</b></span><br>Your pay has increased by $0.02. Your bonus pay is now $0.46.</p>\n            ","response":0,"trial_type":"html-button-response","trial_index":108,"time_elapsed":516273,"internal_node_id":"0.0-4.0-1.50","subject_id":"60984191d5e92285e4d255a6","study_id":"6197b3f67c2b5cd3b6d9596a","session_id":"6197b88d06fb59370dd4d3d1","condition":"full-information","relevant_dimensions":["pattern","legs"],"bee_group":{"antennae":"X","wings":"X","pattern":"S","legs":"M"},"bonus":0.16000000000000084},{"rt":1326.699999999255,"stimulus":"bees-with-color/bee-B2DM.svg","response":0,"trial_type":"image-button-response","trial_index":109,"time_elapsed":517600,"internal_node_id":"0.0-4.0-0.51","subject_id":"60984191d5e92285e4d255a6","study_id":"6197b3f67c2b5cd3b6d9596a","session_id":"6197b88d06fb59370dd4d3d1","condition":"full-information","relevant_dimensions":["pattern","legs"],"bee_group":{"antennae":"X","wings":"X","pattern":"S","legs":"M"},"action":"harvest","summary":"good-harvest","bonus":0.16000000000000084},{"rt":615.1999999992549,"stimulus":"\n                    <p><b>Action: <em>harvest</em></b></p>\n                    <p>This is the bee that you just saw.</p>\n                    <img src=\"bees-with-color/bee-B2DM.svg\" width=\"200\">\n                    <p><span class=\"greenText\"><b>Successful harvest!</b></span><br>Your pay has increased by $0.02. Your bonus pay is now $0.48.</p>\n            ","response":0,"trial_type":"html-button-response","trial_index":110,"time_elapsed":518217,"internal_node_id":"0.0-4.0-1.51","subject_id":"60984191d5e92285e4d255a6","study_id":"6197b3f67c2b5cd3b6d9596a","session_id":"6197b88d06fb59370dd4d3d1","condition":"full-information","relevant_dimensions":["pattern","legs"],"bee_group":{"antennae":"X","wings":"X","pattern":"S","legs":"M"},"bonus":0.16000000000000084},{"rt":854.2000000029802,"stimulus":"bees-with-color/bee-B2SM.svg","response":0,"trial_type":"image-button-response","trial_index":111,"time_elapsed":519073,"internal_node_id":"0.0-4.0-0.52","subject_id":"60984191d5e92285e4d255a6","study_id":"6197b3f67c2b5cd3b6d9596a","session_id":"6197b88d06fb59370dd4d3d1","condition":"full-information","relevant_dimensions":["pattern","legs"],"bee_group":{"antennae":"X","wings":"X","pattern":"S","legs":"M"},"action":"harvest","summary":"bad-harvest","bonus":0.16000000000000084},{"rt":998.4000000022352,"stimulus":"\n                    <p><b>Action: <em>harvest</em></b></p>\n                    <p>This is the bee that you just saw.</p>\n                    <img src=\"bees-with-color/bee-B2SM.svg\" width=\"200\">\n                    <p><span class=\"redText\">Bad choice, the bee was angry.</span><br><b>You have been stung!</b><br>Your pay has been decreased by $0.10. Your bonus pay is now $0.38.</p>\n            ","response":0,"trial_type":"html-button-response","trial_index":112,"time_elapsed":520073,"internal_node_id":"0.0-4.0-1.52","subject_id":"60984191d5e92285e4d255a6","study_id":"6197b3f67c2b5cd3b6d9596a","session_id":"6197b88d06fb59370dd4d3d1","condition":"full-information","relevant_dimensions":["pattern","legs"],"bee_group":{"antennae":"X","wings":"X","pattern":"S","legs":"M"},"bonus":0.16000000000000084},{"rt":1190.3999999985099,"stimulus":"bees-with-color/bee-A1DF.svg","response":0,"trial_type":"image-button-response","trial_index":113,"time_elapsed":521264,"internal_node_id":"0.0-4.0-0.53","subject_id":"60984191d5e92285e4d255a6","study_id":"6197b3f67c2b5cd3b6d9596a","session_id":"6197b88d06fb59370dd4d3d1","condition":"full-information","relevant_dimensions":["pattern","legs"],"bee_group":{"antennae":"X","wings":"X","pattern":"S","legs":"M"},"action":"harvest","summary":"good-harvest","bonus":0.16000000000000084},{"rt":598.5999999977648,"stimulus":"\n                    <p><b>Action: <em>harvest</em></b></p>\n                    <p>This is the bee that you just saw.</p>\n                    <img src=\"bees-with-color/bee-A1DF.svg\" width=\"200\">\n                    <p><span class=\"greenText\"><b>Successful harvest!</b></span><br>Your pay has increased by $0.02. Your bonus pay is now $0.40.</p>\n            ","response":0,"trial_type":"html-button-response","trial_index":114,"time_elapsed":521864,"internal_node_id":"0.0-4.0-1.53","subject_id":"60984191d5e92285e4d255a6","study_id":"6197b3f67c2b5cd3b6d9596a","session_id":"6197b88d06fb59370dd4d3d1","condition":"full-information","relevant_dimensions":["pattern","legs"],"bee_group":{"antennae":"X","wings":"X","pattern":"S","legs":"M"},"bonus":0.16000000000000084},{"rt":1903.3999999985099,"stimulus":"bees-with-color/bee-A2SF.svg","response":0,"trial_type":"image-button-response","trial_index":115,"time_elapsed":523769,"internal_node_id":"0.0-4.0-0.54","subject_id":"60984191d5e92285e4d255a6","study_id":"6197b3f67c2b5cd3b6d9596a","session_id":"6197b88d06fb59370dd4d3d1","condition":"full-information","relevant_dimensions":["pattern","legs"],"bee_group":{"antennae":"X","wings":"X","pattern":"S","legs":"M"},"action":"harvest","summary":"good-harvest","bonus":0.16000000000000084},{"rt":662.5999999977648,"stimulus":"\n                    <p><b>Action: <em>harvest</em></b></p>\n                    <p>This is the bee that you just saw.</p>\n                    <img src=\"bees-with-color/bee-A2SF.svg\" width=\"200\">\n                    <p><span class=\"greenText\"><b>Successful harvest!</b></span><br>Your pay has increased by $0.02. Your bonus pay is now $0.42.</p>\n            ","response":0,"trial_type":"html-button-response","trial_index":116,"time_elapsed":524434,"internal_node_id":"0.0-4.0-1.54","subject_id":"60984191d5e92285e4d255a6","study_id":"6197b3f67c2b5cd3b6d9596a","session_id":"6197b88d06fb59370dd4d3d1","condition":"full-information","relevant_dimensions":["pattern","legs"],"bee_group":{"antennae":"X","wings":"X","pattern":"S","legs":"M"},"bonus":0.16000000000000084},{"rt":1332.5999999977648,"stimulus":"bees-with-color/bee-A1DM.svg","response":1,"trial_type":"image-button-response","trial_index":117,"time_elapsed":525768,"internal_node_id":"0.0-4.0-0.55","subject_id":"60984191d5e92285e4d255a6","study_id":"6197b3f67c2b5cd3b6d9596a","session_id":"6197b88d06fb59370dd4d3d1","condition":"full-information","relevant_dimensions":["pattern","legs"],"bee_group":{"antennae":"X","wings":"X","pattern":"S","legs":"M"},"action":"avoid","summary":"bad-avoid","bonus":0.16000000000000084},{"rt":606.8000000007451,"stimulus":"\n                    <p><b>Action: <em>avoid</em></b></p>\n                    <p>This is the bee that you just saw.</p>\n                    <img src=\"bees-with-color/bee-A1DM.svg\" width=\"200\">\n                    <p><span class=\"redText\">Bad choice,</span> the bee was friendly.<br>Your bonus pay is unchanged, and remains at $0.42.</p>\n            ","response":0,"trial_type":"html-button-response","trial_index":118,"time_elapsed":526377,"internal_node_id":"0.0-4.0-1.55","subject_id":"60984191d5e92285e4d255a6","study_id":"6197b3f67c2b5cd3b6d9596a","session_id":"6197b88d06fb59370dd4d3d1","condition":"full-information","relevant_dimensions":["pattern","legs"],"bee_group":{"antennae":"X","wings":"X","pattern":"S","legs":"M"},"bonus":0.16000000000000084},{"rt":662.5,"stimulus":"bees-with-color/bee-B1SF.svg","response":0,"trial_type":"image-button-response","trial_index":119,"time_elapsed":527041,"internal_node_id":"0.0-4.0-0.56","subject_id":"60984191d5e92285e4d255a6","study_id":"6197b3f67c2b5cd3b6d9596a","session_id":"6197b88d06fb59370dd4d3d1","condition":"full-information","relevant_dimensions":["pattern","legs"],"bee_group":{"antennae":"X","wings":"X","pattern":"S","legs":"M"},"action":"harvest","summary":"good-harvest","bonus":0.16000000000000084},{"rt":1317.5,"stimulus":"\n                    <p><b>Action: <em>harvest</em></b></p>\n                    <p>This is the bee that you just saw.</p>\n                    <img src=\"bees-with-color/bee-B1SF.svg\" width=\"200\">\n                    <p><span class=\"greenText\"><b>Successful harvest!</b></span><br>Your pay has increased by $0.02. Your bonus pay is now $0.44.</p>\n            ","response":0,"trial_type":"html-button-response","trial_index":120,"time_elapsed":528361,"internal_node_id":"0.0-4.0-1.56","subject_id":"60984191d5e92285e4d255a6","study_id":"6197b3f67c2b5cd3b6d9596a","session_id":"6197b88d06fb59370dd4d3d1","condition":"full-information","relevant_dimensions":["pattern","legs"],"bee_group":{"antennae":"X","wings":"X","pattern":"S","legs":"M"},"bonus":0.16000000000000084},{"rt":902.0999999977648,"stimulus":"bees-with-color/bee-B1SM.svg","response":0,"trial_type":"image-button-response","trial_index":121,"time_elapsed":529265,"internal_node_id":"0.0-4.0-0.57","subject_id":"60984191d5e92285e4d255a6","study_id":"6197b3f67c2b5cd3b6d9596a","session_id":"6197b88d06fb59370dd4d3d1","condition":"full-information","relevant_dimensions":["pattern","legs"],"bee_group":{"antennae":"X","wings":"X","pattern":"S","legs":"M"},"action":"harvest","summary":"bad-harvest","bonus":0.16000000000000084},{"rt":1421.8999999985099,"stimulus":"\n                    <p><b>Action: <em>harvest</em></b></p>\n                    <p>This is the bee that you just saw.</p>\n                    <img src=\"bees-with-color/bee-B1SM.svg\" width=\"200\">\n                    <p><span class=\"redText\">Bad choice, the bee was angry.</span><br><b>You have been stung!</b><br>Your pay has been decreased by $0.10. Your bonus pay is now $0.34.</p>\n            ","response":0,"trial_type":"html-button-response","trial_index":122,"time_elapsed":530689,"internal_node_id":"0.0-4.0-1.57","subject_id":"60984191d5e92285e4d255a6","study_id":"6197b3f67c2b5cd3b6d9596a","session_id":"6197b88d06fb59370dd4d3d1","condition":"full-information","relevant_dimensions":["pattern","legs"],"bee_group":{"antennae":"X","wings":"X","pattern":"S","legs":"M"},"bonus":0.16000000000000084},{"rt":974.6999999992549,"stimulus":"bees-with-color/bee-A1SF.svg","response":0,"trial_type":"image-button-response","trial_index":123,"time_elapsed":531665,"internal_node_id":"0.0-4.0-0.58","subject_id":"60984191d5e92285e4d255a6","study_id":"6197b3f67c2b5cd3b6d9596a","session_id":"6197b88d06fb59370dd4d3d1","condition":"full-information","relevant_dimensions":["pattern","legs"],"bee_group":{"antennae":"X","wings":"X","pattern":"S","legs":"M"},"action":"harvest","summary":"good-harvest","bonus":0.16000000000000084},{"rt":533.8000000007451,"stimulus":"\n                    <p><b>Action: <em>harvest</em></b></p>\n                    <p>This is the bee that you just saw.</p>\n                    <img src=\"bees-with-color/bee-A1SF.svg\" width=\"200\">\n                    <p><span class=\"greenText\"><b>Successful harvest!</b></span><br>Your pay has increased by $0.02. Your bonus pay is now $0.36.</p>\n            ","response":0,"trial_type":"html-button-response","trial_index":124,"time_elapsed":532200,"internal_node_id":"0.0-4.0-1.58","subject_id":"60984191d5e92285e4d255a6","study_id":"6197b3f67c2b5cd3b6d9596a","session_id":"6197b88d06fb59370dd4d3d1","condition":"full-information","relevant_dimensions":["pattern","legs"],"bee_group":{"antennae":"X","wings":"X","pattern":"S","legs":"M"},"bonus":0.16000000000000084},{"rt":1094.8999999985099,"stimulus":"bees-with-color/bee-B1DF.svg","response":0,"trial_type":"image-button-response","trial_index":125,"time_elapsed":533296,"internal_node_id":"0.0-4.0-0.59","subject_id":"60984191d5e92285e4d255a6","study_id":"6197b3f67c2b5cd3b6d9596a","session_id":"6197b88d06fb59370dd4d3d1","condition":"full-information","relevant_dimensions":["pattern","legs"],"bee_group":{"antennae":"X","wings":"X","pattern":"S","legs":"M"},"action":"harvest","summary":"good-harvest","bonus":0.16000000000000084},{"rt":686.8000000007451,"stimulus":"\n                    <p><b>Action: <em>harvest</em></b></p>\n                    <p>This is the bee that you just saw.</p>\n                    <img src=\"bees-with-color/bee-B1DF.svg\" width=\"200\">\n                    <p><span class=\"greenText\"><b>Successful harvest!</b></span><br>Your pay has increased by $0.02. Your bonus pay is now $0.38.</p>\n            ","response":0,"trial_type":"html-button-response","trial_index":126,"time_elapsed":533985,"internal_node_id":"0.0-4.0-1.59","subject_id":"60984191d5e92285e4d255a6","study_id":"6197b3f67c2b5cd3b6d9596a","session_id":"6197b88d06fb59370dd4d3d1","condition":"full-information","relevant_dimensions":["pattern","legs"],"bee_group":{"antennae":"X","wings":"X","pattern":"S","legs":"M"},"bonus":0.16000000000000084},{"rt":1622.3999999985099,"stimulus":"bees-with-color/bee-A2DM.svg","response":0,"trial_type":"image-button-response","trial_index":127,"time_elapsed":535608,"internal_node_id":"0.0-4.0-0.60","subject_id":"60984191d5e92285e4d255a6","study_id":"6197b3f67c2b5cd3b6d9596a","session_id":"6197b88d06fb59370dd4d3d1","condition":"full-information","relevant_dimensions":["pattern","legs"],"bee_group":{"antennae":"X","wings":"X","pattern":"S","legs":"M"},"action":"harvest","summary":"good-harvest","bonus":0.16000000000000084},{"rt":823,"stimulus":"\n                    <p><b>Action: <em>harvest</em></b></p>\n                    <p>This is the bee that you just saw.</p>\n                    <img src=\"bees-with-color/bee-A2DM.svg\" width=\"200\">\n                    <p><span class=\"greenText\"><b>Successful harvest!</b></span><br>Your pay has increased by $0.02. Your bonus pay is now $0.40.</p>\n            ","response":0,"trial_type":"html-button-response","trial_index":128,"time_elapsed":536432,"internal_node_id":"0.0-4.0-1.60","subject_id":"60984191d5e92285e4d255a6","study_id":"6197b3f67c2b5cd3b6d9596a","session_id":"6197b88d06fb59370dd4d3d1","condition":"full-information","relevant_dimensions":["pattern","legs"],"bee_group":{"antennae":"X","wings":"X","pattern":"S","legs":"M"},"bonus":0.16000000000000084},{"rt":1047,"stimulus":"bees-with-color/bee-A1SM.svg","response":0,"trial_type":"image-button-response","trial_index":129,"time_elapsed":537480,"internal_node_id":"0.0-4.0-0.61","subject_id":"60984191d5e92285e4d255a6","study_id":"6197b3f67c2b5cd3b6d9596a","session_id":"6197b88d06fb59370dd4d3d1","condition":"full-information","relevant_dimensions":["pattern","legs"],"bee_group":{"antennae":"X","wings":"X","pattern":"S","legs":"M"},"action":"harvest","summary":"bad-harvest","bonus":0.16000000000000084},{"rt":798.6000000014901,"stimulus":"\n                    <p><b>Action: <em>harvest</em></b></p>\n                    <p>This is the bee that you just saw.</p>\n                    <img src=\"bees-with-color/bee-A1SM.svg\" width=\"200\">\n                    <p><span class=\"redText\">Bad choice, the bee was angry.</span><br><b>You have been stung!</b><br>Your pay has been decreased by $0.10. Your bonus pay is now $0.30.</p>\n            ","response":0,"trial_type":"html-button-response","trial_index":130,"time_elapsed":538280,"internal_node_id":"0.0-4.0-1.61","subject_id":"60984191d5e92285e4d255a6","study_id":"6197b3f67c2b5cd3b6d9596a","session_id":"6197b88d06fb59370dd4d3d1","condition":"full-information","relevant_dimensions":["pattern","legs"],"bee_group":{"antennae":"X","wings":"X","pattern":"S","legs":"M"},"bonus":0.16000000000000084},{"rt":846.6999999992549,"stimulus":"bees-with-color/bee-B2SF.svg","response":1,"trial_type":"image-button-response","trial_index":131,"time_elapsed":539128,"internal_node_id":"0.0-4.0-0.62","subject_id":"60984191d5e92285e4d255a6","study_id":"6197b3f67c2b5cd3b6d9596a","session_id":"6197b88d06fb59370dd4d3d1","condition":"full-information","relevant_dimensions":["pattern","legs"],"bee_group":{"antennae":"X","wings":"X","pattern":"S","legs":"M"},"action":"avoid","summary":"bad-avoid","bonus":0.16000000000000084},{"rt":798.5,"stimulus":"\n                    <p><b>Action: <em>avoid</em></b></p>\n                    <p>This is the bee that you just saw.</p>\n                    <img src=\"bees-with-color/bee-B2SF.svg\" width=\"200\">\n                    <p><span class=\"redText\">Bad choice,</span> the bee was friendly.<br>Your bonus pay is unchanged, and remains at $0.30.</p>\n            ","response":0,"trial_type":"html-button-response","trial_index":132,"time_elapsed":539928,"internal_node_id":"0.0-4.0-1.62","subject_id":"60984191d5e92285e4d255a6","study_id":"6197b3f67c2b5cd3b6d9596a","session_id":"6197b88d06fb59370dd4d3d1","condition":"full-information","relevant_dimensions":["pattern","legs"],"bee_group":{"antennae":"X","wings":"X","pattern":"S","legs":"M"},"bonus":0.16000000000000084},{"rt":1230.8999999985099,"stimulus":"bees-with-color/bee-B2DF.svg","response":0,"trial_type":"image-button-response","trial_index":133,"time_elapsed":541160,"internal_node_id":"0.0-4.0-0.63","subject_id":"60984191d5e92285e4d255a6","study_id":"6197b3f67c2b5cd3b6d9596a","session_id":"6197b88d06fb59370dd4d3d1","condition":"full-information","relevant_dimensions":["pattern","legs"],"bee_group":{"antennae":"X","wings":"X","pattern":"S","legs":"M"},"action":"harvest","summary":"good-harvest","bonus":0.16000000000000084},{"rt":630.6999999992549,"stimulus":"\n                    <p><b>Action: <em>harvest</em></b></p>\n                    <p>This is the bee that you just saw.</p>\n                    <img src=\"bees-with-color/bee-B2DF.svg\" width=\"200\">\n                    <p><span class=\"greenText\"><b>Successful harvest!</b></span><br>Your pay has increased by $0.02. Your bonus pay is now $0.32.</p>\n            ","response":0,"trial_type":"html-button-response","trial_index":134,"time_elapsed":541792,"internal_node_id":"0.0-4.0-1.63","subject_id":"60984191d5e92285e4d255a6","study_id":"6197b3f67c2b5cd3b6d9596a","session_id":"6197b88d06fb59370dd4d3d1","condition":"full-information","relevant_dimensions":["pattern","legs"],"bee_group":{"antennae":"X","wings":"X","pattern":"S","legs":"M"},"bonus":0.16000000000000084},{"rt":10247.39999999851,"stimulus":"You have completed the first part of this experiment.<br><br>You will now begin a shorter second part, in which you will receive no feedback.<br>The same rules regarding bonus pay apply.<br><br>Press any key to begin.","response":"enter","trial_type":"html-keyboard-response","trial_index":135,"time_elapsed":552041,"internal_node_id":"0.0-5.0","subject_id":"60984191d5e92285e4d255a6","study_id":"6197b3f67c2b5cd3b6d9596a","session_id":"6197b88d06fb59370dd4d3d1","condition":"full-information","relevant_dimensions":["pattern","legs"],"bee_group":{"antennae":"X","wings":"X","pattern":"S","legs":"M"},"bonus":0.16000000000000084},{"rt":2988.699999999255,"stimulus":"bees-with-color/bee-A1SM.svg","response":0,"trial_type":"image-button-response","trial_index":136,"time_elapsed":555041,"internal_node_id":"0.0-6.0-0.0","subject_id":"60984191d5e92285e4d255a6","study_id":"6197b3f67c2b5cd3b6d9596a","session_id":"6197b88d06fb59370dd4d3d1","condition":"full-information","relevant_dimensions":["pattern","legs"],"bee_group":{"antennae":"X","wings":"X","pattern":"S","legs":"M"},"bonus":0.16000000000000084},{"rt":2220.800000000745,"stimulus":"bees-with-color/bee-B1DM.svg","response":0,"trial_type":"image-button-response","trial_index":137,"time_elapsed":557264,"internal_node_id":"0.0-6.0-0.1","subject_id":"60984191d5e92285e4d255a6","study_id":"6197b3f67c2b5cd3b6d9596a","session_id":"6197b88d06fb59370dd4d3d1","condition":"full-information","relevant_dimensions":["pattern","legs"],"bee_group":{"antennae":"X","wings":"X","pattern":"S","legs":"M"},"bonus":0.16000000000000084},{"rt":1973.4000000022352,"stimulus":"bees-with-color/bee-B2SM.svg","response":0,"trial_type":"image-button-response","trial_index":138,"time_elapsed":559241,"internal_node_id":"0.0-6.0-0.2","subject_id":"60984191d5e92285e4d255a6","study_id":"6197b3f67c2b5cd3b6d9596a","session_id":"6197b88d06fb59370dd4d3d1","condition":"full-information","relevant_dimensions":["pattern","legs"],"bee_group":{"antennae":"X","wings":"X","pattern":"S","legs":"M"},"bonus":0.16000000000000084},{"rt":1534.199999999255,"stimulus":"bees-with-color/bee-A2DM.svg","response":1,"trial_type":"image-button-response","trial_index":139,"time_elapsed":560777,"internal_node_id":"0.0-6.0-0.3","subject_id":"60984191d5e92285e4d255a6","study_id":"6197b3f67c2b5cd3b6d9596a","session_id":"6197b88d06fb59370dd4d3d1","condition":"full-information","relevant_dimensions":["pattern","legs"],"bee_group":{"antennae":"X","wings":"X","pattern":"S","legs":"M"},"bonus":0.16000000000000084},{"rt":1997.800000000745,"stimulus":"bees-with-color/bee-A1SF.svg","response":0,"trial_type":"image-button-response","trial_index":140,"time_elapsed":562777,"internal_node_id":"0.0-6.0-0.4","subject_id":"60984191d5e92285e4d255a6","study_id":"6197b3f67c2b5cd3b6d9596a","session_id":"6197b88d06fb59370dd4d3d1","condition":"full-information","relevant_dimensions":["pattern","legs"],"bee_group":{"antennae":"X","wings":"X","pattern":"S","legs":"M"},"bonus":0.16000000000000084},{"rt":1342,"stimulus":"bees-with-color/bee-B1DF.svg","response":1,"trial_type":"image-button-response","trial_index":141,"time_elapsed":564121,"internal_node_id":"0.0-6.0-0.5","subject_id":"60984191d5e92285e4d255a6","study_id":"6197b3f67c2b5cd3b6d9596a","session_id":"6197b88d06fb59370dd4d3d1","condition":"full-information","relevant_dimensions":["pattern","legs"],"bee_group":{"antennae":"X","wings":"X","pattern":"S","legs":"M"},"bonus":0.16000000000000084},{"rt":1510.300000000745,"stimulus":"bees-with-color/bee-B1SF.svg","response":0,"trial_type":"image-button-response","trial_index":142,"time_elapsed":565634,"internal_node_id":"0.0-6.0-0.6","subject_id":"60984191d5e92285e4d255a6","study_id":"6197b3f67c2b5cd3b6d9596a","session_id":"6197b88d06fb59370dd4d3d1","condition":"full-information","relevant_dimensions":["pattern","legs"],"bee_group":{"antennae":"X","wings":"X","pattern":"S","legs":"M"},"bonus":0.16000000000000084},{"rt":1142.1000000014901,"stimulus":"bees-with-color/bee-B2SF.svg","response":0,"trial_type":"image-button-response","trial_index":143,"time_elapsed":566778,"internal_node_id":"0.0-6.0-0.7","subject_id":"60984191d5e92285e4d255a6","study_id":"6197b3f67c2b5cd3b6d9596a","session_id":"6197b88d06fb59370dd4d3d1","condition":"full-information","relevant_dimensions":["pattern","legs"],"bee_group":{"antennae":"X","wings":"X","pattern":"S","legs":"M"},"bonus":0.16000000000000084},{"rt":1444.699999999255,"stimulus":"bees-with-color/bee-B2DF.svg","response":1,"trial_type":"image-button-response","trial_index":144,"time_elapsed":568226,"internal_node_id":"0.0-6.0-0.8","subject_id":"60984191d5e92285e4d255a6","study_id":"6197b3f67c2b5cd3b6d9596a","session_id":"6197b88d06fb59370dd4d3d1","condition":"full-information","relevant_dimensions":["pattern","legs"],"bee_group":{"antennae":"X","wings":"X","pattern":"S","legs":"M"},"bonus":0.16000000000000084},{"rt":1445.300000000745,"stimulus":"bees-with-color/bee-A2SF.svg","response":0,"trial_type":"image-button-response","trial_index":145,"time_elapsed":569674,"internal_node_id":"0.0-6.0-0.9","subject_id":"60984191d5e92285e4d255a6","study_id":"6197b3f67c2b5cd3b6d9596a","session_id":"6197b88d06fb59370dd4d3d1","condition":"full-information","relevant_dimensions":["pattern","legs"],"bee_group":{"antennae":"X","wings":"X","pattern":"S","legs":"M"},"bonus":0.16000000000000084},{"rt":4189.800000000745,"stimulus":"bees-with-color/bee-A1DF.svg","response":0,"trial_type":"image-button-response","trial_index":146,"time_elapsed":573865,"internal_node_id":"0.0-6.0-0.10","subject_id":"60984191d5e92285e4d255a6","study_id":"6197b3f67c2b5cd3b6d9596a","session_id":"6197b88d06fb59370dd4d3d1","condition":"full-information","relevant_dimensions":["pattern","legs"],"bee_group":{"antennae":"X","wings":"X","pattern":"S","legs":"M"},"bonus":0.16000000000000084},{"rt":1733.699999999255,"stimulus":"bees-with-color/bee-B1SM.svg","response":0,"trial_type":"image-button-response","trial_index":147,"time_elapsed":575601,"internal_node_id":"0.0-6.0-0.11","subject_id":"60984191d5e92285e4d255a6","study_id":"6197b3f67c2b5cd3b6d9596a","session_id":"6197b88d06fb59370dd4d3d1","condition":"full-information","relevant_dimensions":["pattern","legs"],"bee_group":{"antennae":"X","wings":"X","pattern":"S","legs":"M"},"bonus":0.16000000000000084},{"rt":1630,"stimulus":"bees-with-color/bee-B2DM.svg","response":0,"trial_type":"image-button-response","trial_index":148,"time_elapsed":577233,"internal_node_id":"0.0-6.0-0.12","subject_id":"60984191d5e92285e4d255a6","study_id":"6197b3f67c2b5cd3b6d9596a","session_id":"6197b88d06fb59370dd4d3d1","condition":"full-information","relevant_dimensions":["pattern","legs"],"bee_group":{"antennae":"X","wings":"X","pattern":"S","legs":"M"},"bonus":0.16000000000000084},{"rt":862,"stimulus":"bees-with-color/bee-A2SM.svg","response":1,"trial_type":"image-button-response","trial_index":149,"time_elapsed":578097,"internal_node_id":"0.0-6.0-0.13","subject_id":"60984191d5e92285e4d255a6","study_id":"6197b3f67c2b5cd3b6d9596a","session_id":"6197b88d06fb59370dd4d3d1","condition":"full-information","relevant_dimensions":["pattern","legs"],"bee_group":{"antennae":"X","wings":"X","pattern":"S","legs":"M"},"bonus":0.16000000000000084},{"rt":1214.2000000029802,"stimulus":"bees-with-color/bee-A2DF.svg","response":1,"trial_type":"image-button-response","trial_index":150,"time_elapsed":579313,"internal_node_id":"0.0-6.0-0.14","subject_id":"60984191d5e92285e4d255a6","study_id":"6197b3f67c2b5cd3b6d9596a","session_id":"6197b88d06fb59370dd4d3d1","condition":"full-information","relevant_dimensions":["pattern","legs"],"bee_group":{"antennae":"X","wings":"X","pattern":"S","legs":"M"},"bonus":0.16000000000000084},{"rt":902.7999999970198,"stimulus":"bees-with-color/bee-A1DM.svg","response":0,"trial_type":"image-button-response","trial_index":151,"time_elapsed":580218,"internal_node_id":"0.0-6.0-0.15","subject_id":"60984191d5e92285e4d255a6","study_id":"6197b3f67c2b5cd3b6d9596a","session_id":"6197b88d06fb59370dd4d3d1","condition":"full-information","relevant_dimensions":["pattern","legs"],"bee_group":{"antennae":"X","wings":"X","pattern":"S","legs":"M"},"bonus":0.16000000000000084},{"rt":861.6999999992549,"stimulus":"bees-with-color/bee-B1SF.svg","response":0,"trial_type":"image-button-response","trial_index":152,"time_elapsed":581082,"internal_node_id":"0.0-6.0-0.16","subject_id":"60984191d5e92285e4d255a6","study_id":"6197b3f67c2b5cd3b6d9596a","session_id":"6197b88d06fb59370dd4d3d1","condition":"full-information","relevant_dimensions":["pattern","legs"],"bee_group":{"antennae":"X","wings":"X","pattern":"S","legs":"M"},"bonus":0.16000000000000084},{"rt":1172.5,"stimulus":"bees-with-color/bee-B2SM.svg","response":0,"trial_type":"image-button-response","trial_index":153,"time_elapsed":582258,"internal_node_id":"0.0-6.0-0.17","subject_id":"60984191d5e92285e4d255a6","study_id":"6197b3f67c2b5cd3b6d9596a","session_id":"6197b88d06fb59370dd4d3d1","condition":"full-information","relevant_dimensions":["pattern","legs"],"bee_group":{"antennae":"X","wings":"X","pattern":"S","legs":"M"},"bonus":0.16000000000000084},{"rt":854.2000000029802,"stimulus":"bees-with-color/bee-B2SF.svg","response":0,"trial_type":"image-button-response","trial_index":154,"time_elapsed":583114,"internal_node_id":"0.0-6.0-0.18","subject_id":"60984191d5e92285e4d255a6","study_id":"6197b3f67c2b5cd3b6d9596a","session_id":"6197b88d06fb59370dd4d3d1","condition":"full-information","relevant_dimensions":["pattern","legs"],"bee_group":{"antennae":"X","wings":"X","pattern":"S","legs":"M"},"bonus":0.16000000000000084},{"rt":1157.800000000745,"stimulus":"bees-with-color/bee-A1SF.svg","response":1,"trial_type":"image-button-response","trial_index":155,"time_elapsed":584273,"internal_node_id":"0.0-6.0-0.19","subject_id":"60984191d5e92285e4d255a6","study_id":"6197b3f67c2b5cd3b6d9596a","session_id":"6197b88d06fb59370dd4d3d1","condition":"full-information","relevant_dimensions":["pattern","legs"],"bee_group":{"antennae":"X","wings":"X","pattern":"S","legs":"M"},"bonus":0.16000000000000084},{"rt":1358,"stimulus":"bees-with-color/bee-A2SM.svg","response":0,"trial_type":"image-button-response","trial_index":156,"time_elapsed":585633,"internal_node_id":"0.0-6.0-0.20","subject_id":"60984191d5e92285e4d255a6","study_id":"6197b3f67c2b5cd3b6d9596a","session_id":"6197b88d06fb59370dd4d3d1","condition":"full-information","relevant_dimensions":["pattern","legs"],"bee_group":{"antennae":"X","wings":"X","pattern":"S","legs":"M"},"bonus":0.16000000000000084},{"rt":1047,"stimulus":"bees-with-color/bee-B1DF.svg","response":1,"trial_type":"image-butto