[{"success":true,"trial_type":"fullscreen","trial_index":0,"time_elapsed":5846,"internal_node_id":"0.0-0.0","subject_id":"617305abc8cde4cf0e08255b","study_id":"6197b3f67c2b5cd3b6d9596a","session_id":"619be58dfad893d836cb0515","condition":"contingent","relevant_dimensions":["antennae","legs"],"bee_group":{"antennae":"B","wings":"X","pattern":"X","legs":"F"},"bonus":1.4000000000000008},{"success":true,"timeout":false,"failed_images":[],"failed_audio":[],"failed_video":[],"trial_type":"preload","trial_index":1,"time_elapsed":9866,"internal_node_id":"0.0-1.0","subject_id":"617305abc8cde4cf0e08255b","study_id":"6197b3f67c2b5cd3b6d9596a","session_id":"619be58dfad893d836cb0515","condition":"contingent","relevant_dimensions":["antennae","legs"],"bee_group":{"antennae":"B","wings":"X","pattern":"X","legs":"F"},"bonus":1.4000000000000008},{"rt":2917,"stimulus":"Welcome! Press any key to begin.","response":" ","trial_type":"html-keyboard-response","trial_index":2,"time_elapsed":12786,"internal_node_id":"0.0-2.0","subject_id":"617305abc8cde4cf0e08255b","study_id":"6197b3f67c2b5cd3b6d9596a","session_id":"619be58dfad893d836cb0515","condition":"contingent","relevant_dimensions":["antennae","legs"],"bee_group":{"antennae":"B","wings":"X","pattern":"X","legs":"F"},"bonus":1.4000000000000008},{"view_history":[{"page_index":0,"viewing_time":82650.09999999404},{"page_index":1,"viewing_time":55631.40000000596},{"page_index":2,"viewing_time":19646.79999998212},{"page_index":3,"viewing_time":25482.600000023842},{"page_index":4,"viewing_time":8281.09999999404},{"page_index":5,"viewing_time":13532.799999982119},{"page_index":6,"viewing_time":29663.20000001788},{"page_index":7,"viewing_time":19818.5},{"page_index":8,"viewing_time":9596.59999999404},{"page_index":9,"viewing_time":10716.09999999404},{"page_index":10,"viewing_time":10404},{"page_index":11,"viewing_time":33659.30000001192},{"page_index":12,"viewing_time":16933.09999999404},{"page_index":13,"viewing_time":6383.0999999940395},{"page_index":14,"viewing_time":6391.0999999940395}],"rt":348790.09999999404,"trial_type":"instructions","trial_index":3,"time_elapsed":361583,"internal_node_id":"0.0-3.0-0.0","subject_id":"617305abc8cde4cf0e08255b","study_id":"6197b3f67c2b5cd3b6d9596a","session_id":"619be58dfad893d836cb0515","condition":"contingent","relevant_dimensions":["antennae","legs"],"bee_group":{"antennae":"B","wings":"X","pattern":"X","legs":"F"},"bonus":1.4000000000000008},{"rt":65900.80000001192,"response":{"Q0":["Two or six legs","Stripes or spots on body","Single or double wings","Antennae or no antennae"]},"question_order":[0],"trial_type":"survey-multi-select","trial_index":4,"time_elapsed":427487,"internal_node_id":"0.0-3.0-1.0","subject_id":"617305abc8cde4cf0e08255b","study_id":"6197b3f67c2b5cd3b6d9596a","session_id":"619be58dfad893d836cb0515","condition":"contingent","relevant_dimensions":["antennae","legs"],"bee_group":{"antennae":"B","wings":"X","pattern":"X","legs":"F"},"correct":true,"bonus":1.4000000000000008},{"rt":39807.79999998212,"response":{"Q1":"No.","Q2":"Based on the four features of the bee.","Q3":"You do not learn if it was friendly or dangerous, and do not alter your bonus."},"question_order":[0,1,2],"trial_type":"survey-multi-choice","trial_index":5,"time_elapsed":467302,"internal_node_id":"0.0-3.0-2.0","subject_id":"617305abc8cde4cf0e08255b","study_id":"6197b3f67c2b5cd3b6d9596a","session_id":"619be58dfad893d836cb0515","condition":"contingent","relevant_dimensions":["antennae","legs"],"bee_group":{"antennae":"B","wings":"X","pattern":"X","legs":"F"},"correct":true,"bonus":1.4000000000000008},{"rt":42853.30000001192,"stimulus":"<p>Congrats, you got everything right<br>When you're ready, click the button below to continue to the experiment.</p>","response":0,"trial_type":"html-button-response","trial_index":6,"time_elapsed":510162,"internal_node_id":"0.0-3.0-3.0","subject_id":"617305abc8cde4cf0e08255b","study_id":"6197b3f67c2b5cd3b6d9596a","session_id":"619be58dfad893d836cb0515","condition":"contingent","relevant_dimensions":["antennae","legs"],"bee_group":{"antennae":"B","wings":"X","pattern":"X","legs":"F"},"bonus":1.4000000000000008},{"rt":24611.40000000596,"stimulus":"bees-with-color/bee-A2SM.svg","response":0,"trial_type":"image-button-response","trial_index":7,"time_elapsed":534776,"internal_node_id":"0.0-4.0-0.0","subject_id":"617305abc8cde4cf0e08255b","study_id":"6197b3f67c2b5cd3b6d9596a","session_id":"619be58dfad893d836cb0515","condition":"contingent","relevant_dimensions":["antennae","legs"],"bee_group":{"antennae":"B","wings":"X","pattern":"X","legs":"F"},"action":"harvest","summary":"good-harvest","bonus":1.4000000000000008},{"rt":9022.199999988079,"stimulus":"\n                    <p><b>Action: <em>harvest</em></b></p>\n                    <p>This is the bee that you just saw.</p>\n                    <img src=\"bees-with-color/bee-A2SM.svg\" width=\"200\">\n                    <p><span class=\"greenText\"><b>Successful harvest!</b></span><br>Your pay has increased by $0.02. Your bonus pay is now $0.56.</p>\n            ","response":0,"trial_type":"html-button-response","trial_index":8,"time_elapsed":543820,"internal_node_id":"0.0-4.0-1.0","subject_id":"617305abc8cde4cf0e08255b","study_id":"6197b3f67c2b5cd3b6d9596a","session_id":"619be58dfad893d836cb0515","condition":"contingent","relevant_dimensions":["antennae","legs"],"bee_group":{"antennae":"B","wings":"X","pattern":"X","legs":"F"},"bonus":1.4000000000000008},{"rt":23740.09999999404,"stimulus":"bees-with-color/bee-A2SF.svg","response":1,"trial_type":"image-button-response","trial_index":9,"time_elapsed":567562,"internal_node_id":"0.0-4.0-0.1","subject_id":"617305abc8cde4cf0e08255b","study_id":"6197b3f67c2b5cd3b6d9596a","session_id":"619be58dfad893d836cb0515","condition":"contingent","relevant_dimensions":["antennae","legs"],"bee_group":{"antennae":"B","wings":"X","pattern":"X","legs":"F"},"action":"avoid","summary":"bad-avoid","bonus":1.4000000000000008},{"rt":5478.300000011921,"stimulus":"\n                    <p><b>Action: <em>avoid</em></b></p>\n                    <p>This is the bee that you just saw.</p>\n                    <img src=\"bees-with-color/bee-A2SF.svg\" width=\"200\">\n                    <p><br>Your bonus pay is unchanged, and remains at $0.56.</p>\n            ","response":0,"trial_type":"html-button-response","trial_index":10,"time_elapsed":573042,"internal_node_id":"0.0-4.0-1.1","subject_id":"617305abc8cde4cf0e08255b","study_id":"6197b3f67c2b5cd3b6d9596a","session_id":"619be58dfad893d836cb0515","condition":"contingent","relevant_dimensions":["antennae","legs"],"bee_group":{"antennae":"B","wings":"X","pattern":"X","legs":"F"},"bonus":1.4000000000000008},{"rt":6891.800000011921,"stimulus":"bees-with-color/bee-B1SF.svg","response":0,"trial_type":"image-button-response","trial_index":11,"time_elapsed":579936,"internal_node_id":"0.0-4.0-0.2","subject_id":"617305abc8cde4cf0e08255b","study_id":"6197b3f67c2b5cd3b6d9596a","session_id":"619be58dfad893d836cb0515","condition":"contingent","relevant_dimensions":["antennae","legs"],"bee_group":{"antennae":"B","wings":"X","pattern":"X","legs":"F"},"action":"harvest","summary":"bad-harvest","bonus":1.4000000000000008},{"rt":19535.20000001788,"stimulus":"\n                    <p><b>Action: <em>harvest</em></b></p>\n                    <p>This is the bee that you just saw.</p>\n                    <img src=\"bees-with-color/bee-B1SF.svg\" width=\"200\">\n                    <p><span class=\"redText\">Bad choice, the bee was angry.</span><br><b>You have been stung!</b><br>Your pay has been decreased by $0.10. Your bonus pay is now $0.46.</p>\n            ","response":0,"trial_type":"html-button-response","trial_index":12,"time_elapsed":599473,"internal_node_id":"0.0-4.0-1.2","subject_id":"617305abc8cde4cf0e08255b","study_id":"6197b3f67c2b5cd3b6d9596a","session_id":"619be58dfad893d836cb0515","condition":"contingent","relevant_dimensions":["antennae","legs"],"bee_group":{"antennae":"B","wings":"X","pattern":"X","legs":"F"},"bonus":1.4000000000000008},{"rt":4548,"stimulus":"bees-with-color/bee-A1SM.svg","response":0,"trial_type":"image-button-response","trial_index":13,"time_elapsed":604023,"internal_node_id":"0.0-4.0-0.3","subject_id":"617305abc8cde4cf0e08255b","study_id":"6197b3f67c2b5cd3b6d9596a","session_id":"619be58dfad893d836cb0515","condition":"contingent","relevant_dimensions":["antennae","legs"],"bee_group":{"antennae":"B","wings":"X","pattern":"X","legs":"F"},"action":"harvest","summary":"good-harvest","bonus":1.4000000000000008},{"rt":12228.899999976158,"stimulus":"\n                    <p><b>Action: <em>harvest</em></b></p>\n                    <p>This is the bee that you just saw.</p>\n                    <img src=\"bees-with-color/bee-A1SM.svg\" width=\"200\">\n                    <p><span class=\"greenText\"><b>Successful harvest!</b></span><br>Your pay has increased by $0.02. Your bonus pay is now $0.48.</p>\n            ","response":0,"trial_type":"html-button-response","trial_index":14,"time_elapsed":616254,"internal_node_id":"0.0-4.0-1.3","subject_id":"617305abc8cde4cf0e08255b","study_id":"6197b3f67c2b5cd3b6d9596a","session_id":"619be58dfad893d836cb0515","condition":"contingent","relevant_dimensions":["antennae","legs"],"bee_group":{"antennae":"B","wings":"X","pattern":"X","legs":"F"},"bonus":1.4000000000000008},{"rt":3132,"stimulus":"bees-with-color/bee-A1DF.svg","response":1,"trial_type":"image-button-response","trial_index":15,"time_elapsed":619388,"internal_node_id":"0.0-4.0-0.4","subject_id":"617305abc8cde4cf0e08255b","study_id":"6197b3f67c2b5cd3b6d9596a","session_id":"619be58dfad893d836cb0515","condition":"contingent","relevant_dimensions":["antennae","legs"],"bee_group":{"antennae":"B","wings":"X","pattern":"X","legs":"F"},"action":"avoid","summary":"bad-avoid","bonus":1.4000000000000008},{"rt":2648.4000000059605,"stimulus":"\n                    <p><b>Action: <em>avoid</em></b></p>\n                    <p>This is the bee that you just saw.</p>\n                    <img src=\"bees-with-color/bee-A1DF.svg\" width=\"200\">\n                    <p><br>Your bonus pay is unchanged, and remains at $0.48.</p>\n            ","response":0,"trial_type":"html-button-response","trial_index":16,"time_elapsed":622038,"internal_node_id":"0.0-4.0-1.4","subject_id":"617305abc8cde4cf0e08255b","study_id":"6197b3f67c2b5cd3b6d9596a","session_id":"619be58dfad893d836cb0515","condition":"contingent","relevant_dimensions":["antennae","legs"],"bee_group":{"antennae":"B","wings":"X","pattern":"X","legs":"F"},"bonus":1.4000000000000008},{"rt":3315.7000000178814,"stimulus":"bees-with-color/bee-A2DM.svg","response":0,"trial_type":"image-button-response","trial_index":17,"time_elapsed":625356,"internal_node_id":"0.0-4.0-0.5","subject_id":"617305abc8cde4cf0e08255b","study_id":"6197b3f67c2b5cd3b6d9596a","session_id":"619be58dfad893d836cb0515","condition":"contingent","relevant_dimensions":["antennae","legs"],"bee_group":{"antennae":"B","wings":"X","pattern":"X","legs":"F"},"action":"harvest","summary":"good-harvest","bonus":1.4000000000000008},{"rt":12995.300000011921,"stimulus":"\n                    <p><b>Action: <em>harvest</em></b></p>\n                    <p>This is the bee that you just saw.</p>\n                    <img src=\"bees-with-color/bee-A2DM.svg\" width=\"200\">\n                    <p><span class=\"greenText\"><b>Successful harvest!</b></span><br>Your pay has increased by $0.02. Your bonus pay is now $0.50.</p>\n            ","response":0,"trial_type":"html-button-response","trial_index":18,"time_elapsed":638353,"internal_node_id":"0.0-4.0-1.5","subject_id":"617305abc8cde4cf0e08255b","study_id":"6197b3f67c2b5cd3b6d9596a","session_id":"619be58dfad893d836cb0515","condition":"contingent","relevant_dimensions":["antennae","legs"],"bee_group":{"antennae":"B","wings":"X","pattern":"X","legs":"F"},"bonus":1.4000000000000008},{"rt":2897.2000000178814,"stimulus":"bees-with-color/bee-A1DM.svg","response":0,"trial_type":"image-button-response","trial_index":19,"time_elapsed":641253,"internal_node_id":"0.0-4.0-0.6","subject_id":"617305abc8cde4cf0e08255b","study_id":"6197b3f67c2b5cd3b6d9596a","session_id":"619be58dfad893d836cb0515","condition":"contingent","relevant_dimensions":["antennae","legs"],"bee_group":{"antennae":"B","wings":"X","pattern":"X","legs":"F"},"action":"harvest","summary":"good-harvest","bonus":1.4000000000000008},{"rt":5948,"stimulus":"\n                    <p><b>Action: <em>harvest</em></b></p>\n                    <p>This is the bee that you just saw.</p>\n                    <img src=\"bees-with-color/bee-A1DM.svg\" width=\"200\">\n                    <p><span class=\"greenText\"><b>Successful harvest!</b></span><br>Your pay has increased by $0.02. Your bonus pay is now $0.52.</p>\n            ","response":0,"trial_type":"html-button-response","trial_index":20,"time_elapsed":647203,"internal_node_id":"0.0-4.0-1.6","subject_id":"617305abc8cde4cf0e08255b","study_id":"6197b3f67c2b5cd3b6d9596a","session_id":"619be58dfad893d836cb0515","condition":"contingent","relevant_dimensions":["antennae","legs"],"bee_group":{"antennae":"B","wings":"X","pattern":"X","legs":"F"},"bonus":1.4000000000000008},{"rt":1852.3999999761581,"stimulus":"bees-with-color/bee-B1DF.svg","response":1,"trial_type":"image-button-response","trial_index":21,"time_elapsed":649057,"internal_node_id":"0.0-4.0-0.7","subject_id":"617305abc8cde4cf0e08255b","study_id":"6197b3f67c2b5cd3b6d9596a","session_id":"619be58dfad893d836cb0515","condition":"contingent","relevant_dimensions":["antennae","legs"],"bee_group":{"antennae":"B","wings":"X","pattern":"X","legs":"F"},"action":"avoid","summary":"good-avoid","bonus":1.4000000000000008},{"rt":1842.9000000059605,"stimulus":"\n                    <p><b>Action: <em>avoid</em></b></p>\n                    <p>This is the bee that you just saw.</p>\n                    <img src=\"bees-with-color/bee-B1DF.svg\" width=\"200\">\n                    <p><br>Your bonus pay is unchanged, and remains at $0.52.</p>\n            ","response":0,"trial_type":"html-button-response","trial_index":22,"time_elapsed":650901,"internal_node_id":"0.0-4.0-1.7","subject_id":"617305abc8cde4cf0e08255b","study_id":"6197b3f67c2b5cd3b6d9596a","session_id":"619be58dfad893d836cb0515","condition":"contingent","relevant_dimensions":["antennae","legs"],"bee_group":{"antennae":"B","wings":"X","pattern":"X","legs":"F"},"bonus":1.4000000000000008},{"rt":1931.9000000059605,"stimulus":"bees-with-color/bee-B1DM.svg","response":0,"trial_type":"image-button-response","trial_index":23,"time_elapsed":652835,"internal_node_id":"0.0-4.0-0.8","subject_id":"617305abc8cde4cf0e08255b","study_id":"6197b3f67c2b5cd3b6d9596a","session_id":"619be58dfad893d836cb0515","condition":"contingent","relevant_dimensions":["antennae","legs"],"bee_group":{"antennae":"B","wings":"X","pattern":"X","legs":"F"},"action":"harvest","summary":"good-harvest","bonus":1.4000000000000008},{"rt":2731.2000000178814,"stimulus":"\n                    <p><b>Action: <em>harvest</em></b></p>\n                    <p>This is the bee that you just saw.</p>\n                    <img src=\"bees-with-color/bee-B1DM.svg\" width=\"200\">\n                    <p><span class=\"greenText\"><b>Successful harvest!</b></span><br>Your pay has increased by $0.02. Your bonus pay is now $0.54.</p>\n            ","response":0,"trial_type":"html-button-response","trial_index":24,"time_elapsed":655568,"internal_node_id":"0.0-4.0-1.8","subject_id":"617305abc8cde4cf0e08255b","study_id":"6197b3f67c2b5cd3b6d9596a","session_id":"619be58dfad893d836cb0515","condition":"contingent","relevant_dimensions":["antennae","legs"],"bee_group":{"antennae":"B","wings":"X","pattern":"X","legs":"F"},"bonus":1.4000000000000008},{"rt":1997.7000000178814,"stimulus":"bees-with-color/bee-B2SF.svg","response":1,"trial_type":"image-button-response","trial_index":25,"time_elapsed":657568,"internal_node_id":"0.0-4.0-0.9","subject_id":"617305abc8cde4cf0e08255b","study_id":"6197b3f67c2b5cd3b6d9596a","session_id":"619be58dfad893d836cb0515","condition":"contingent","relevant_dimensions":["antennae","legs"],"bee_group":{"antennae":"B","wings":"X","pattern":"X","legs":"F"},"action":"avoid","summary":"good-avoid","bonus":1.4000000000000008},{"rt":1964.199999988079,"stimulus":"\n                    <p><b>Action: <em>avoid</em></b></p>\n                    <p>This is the bee that you just saw.</p>\n                    <img src=\"bees-with-color/bee-B2SF.svg\" width=\"200\">\n                    <p><br>Your bonus pay is unchanged, and remains at $0.54.</p>\n            ","response":0,"trial_type":"html-button-response","trial_index":26,"time_elapsed":659533,"internal_node_id":"0.0-4.0-1.9","subject_id":"617305abc8cde4cf0e08255b","study_id":"6197b3f67c2b5cd3b6d9596a","session_id":"619be58dfad893d836cb0515","condition":"contingent","relevant_dimensions":["antennae","legs"],"bee_group":{"antennae":"B","wings":"X","pattern":"X","legs":"F"},"bonus":1.4000000000000008},{"rt":1681.5999999940395,"stimulus":"bees-with-color/bee-B1SM.svg","response":0,"trial_type":"image-button-response","trial_index":27,"time_elapsed":661217,"internal_node_id":"0.0-4.0-0.10","subject_id":"617305abc8cde4cf0e08255b","study_id":"6197b3f67c2b5cd3b6d9596a","session_id":"619be58dfad893d836cb0515","condition":"contingent","relevant_dimensions":["antennae","legs"],"bee_group":{"antennae":"B","wings":"X","pattern":"X","legs":"F"},"action":"harvest","summary":"good-harvest","bonus":1.4000000000000008},{"rt":1670.800000011921,"stimulus":"\n                    <p><b>Action: <em>harvest</em></b></p>\n                    <p>This is the bee that you just saw.</p>\n                    <img src=\"bees-with-color/bee-B1SM.svg\" width=\"200\">\n                    <p><span class=\"greenText\"><b>Successful harvest!</b></span><br>Your pay has increased by $0.02. Your bonus pay is now $0.56.</p>\n            ","response":0,"trial_type":"html-button-response","trial_index":28,"time_elapsed":662890,"internal_node_id":"0.0-4.0-1.10","subject_id":"617305abc8cde4cf0e08255b","study_id":"6197b3f67c2b5cd3b6d9596a","session_id":"619be58dfad893d836cb0515","condition":"contingent","relevant_dimensions":["antennae","legs"],"bee_group":{"antennae":"B","wings":"X","pattern":"X","legs":"F"},"bonus":1.4000000000000008},{"rt":1709.5,"stimulus":"bees-with-color/bee-A1SF.svg","response":1,"trial_type":"image-button-response","trial_index":29,"time_elapsed":664601,"internal_node_id":"0.0-4.0-0.11","subject_id":"617305abc8cde4cf0e08255b","study_id":"6197b3f67c2b5cd3b6d9596a","session_id":"619be58dfad893d836cb0515","condition":"contingent","relevant_dimensions":["antennae","legs"],"bee_group":{"antennae":"B","wings":"X","pattern":"X","legs":"F"},"action":"avoid","summary":"bad-avoid","bonus":1.4000000000000008},{"rt":1430.5,"stimulus":"\n                    <p><b>Action: <em>avoid</em></b></p>\n                    <p>This is the bee that you just saw.</p>\n                    <img src=\"bees-with-color/bee-A1SF.svg\" width=\"200\">\n                    <p><br>Your bonus pay is unchanged, and remains at $0.56.</p>\n            ","response":0,"trial_type":"html-button-response","trial_index":30,"time_elapsed":666033,"internal_node_id":"0.0-4.0-1.11","subject_id":"617305abc8cde4cf0e08255b","study_id":"6197b3f67c2b5cd3b6d9596a","session_id":"619be58dfad893d836cb0515","condition":"contingent","relevant_dimensions":["antennae","legs"],"bee_group":{"antennae":"B","wings":"X","pattern":"X","legs":"F"},"bonus":1.4000000000000008},{"rt":1532.8999999761581,"stimulus":"bees-with-color/bee-A2DF.svg","response":1,"trial_type":"image-button-response","trial_index":31,"time_elapsed":667567,"internal_node_id":"0.0-4.0-0.12","subject_id":"617305abc8cde4cf0e08255b","study_id":"6197b3f67c2b5cd3b6d9596a","session_id":"619be58dfad893d836cb0515","condition":"contingent","relevant_dimensions":["antennae","legs"],"bee_group":{"antennae":"B","wings":"X","pattern":"X","legs":"F"},"action":"avoid","summary":"bad-avoid","bonus":1.4000000000000008},{"rt":1165.9000000059605,"stimulus":"\n                    <p><b>Action: <em>avoid</em></b></p>\n                    <p>This is the bee that you just saw.</p>\n                    <img src=\"bees-with-color/bee-A2DF.svg\" width=\"200\">\n                    <p><br>Your bonus pay is unchanged, and remains at $0.56.</p>\n            ","response":0,"trial_type":"html-button-response","trial_index":32,"time_elapsed":668735,"internal_node_id":"0.0-4.0-1.12","subject_id":"617305abc8cde4cf0e08255b","study_id":"6197b3f67c2b5cd3b6d9596a","session_id":"619be58dfad893d836cb0515","condition":"contingent","relevant_dimensions":["antennae","legs"],"bee_group":{"antennae":"B","wings":"X","pattern":"X","legs":"F"},"bonus":1.4000000000000008},{"rt":1480.7000000178814,"stimulus":"bees-with-color/bee-B2DM.svg","response":0,"trial_type":"image-button-response","trial_index":33,"time_elapsed":670217,"internal_node_id":"0.0-4.0-0.13","subject_id":"617305abc8cde4cf0e08255b","study_id":"6197b3f67c2b5cd3b6d9596a","session_id":"619be58dfad893d836cb0515","condition":"contingent","relevant_dimensions":["antennae","legs"],"bee_group":{"antennae":"B","wings":"X","pattern":"X","legs":"F"},"action":"harvest","summary":"good-harvest","bonus":1.4000000000000008},{"rt":1449.2999999821186,"stimulus":"\n                    <p><b>Action: <em>harvest</em></b></p>\n                    <p>This is the bee that you just saw.</p>\n                    <img src=\"bees-with-color/bee-B2DM.svg\" width=\"200\">\n                    <p><span class=\"greenText\"><b>Successful harvest!</b></span><br>Your pay has increased by $0.02. Your bonus pay is now $0.58.</p>\n            ","response":0,"trial_type":"html-button-response","trial_index":34,"time_elapsed":671668,"internal_node_id":"0.0-4.0-1.13","subject_id":"617305abc8cde4cf0e08255b","study_id":"6197b3f67c2b5cd3b6d9596a","session_id":"619be58dfad893d836cb0515","condition":"contingent","relevant_dimensions":["antennae","legs"],"bee_group":{"antennae":"B","wings":"X","pattern":"X","legs":"F"},"bonus":1.4000000000000008},{"rt":2960.9000000059605,"stimulus":"bees-with-color/bee-B2SM.svg","response":0,"trial_type":"image-button-response","trial_index":35,"time_elapsed":674630,"internal_node_id":"0.0-4.0-0.14","subject_id":"617305abc8cde4cf0e08255b","study_id":"6197b3f67c2b5cd3b6d9596a","session_id":"619be58dfad893d836cb0515","condition":"contingent","relevant_dimensions":["antennae","legs"],"bee_group":{"antennae":"B","wings":"X","pattern":"X","legs":"F"},"action":"harvest","summary":"good-harvest","bonus":1.4000000000000008},{"rt":870.9000000059605,"stimulus":"\n                    <p><b>Action: <em>harvest</em></b></p>\n                    <p>This is the bee that you just saw.</p>\n                    <img src=\"bees-with-color/bee-B2SM.svg\" width=\"200\">\n                    <p><span class=\"greenText\"><b>Successful harvest!</b></span><br>Your pay has increased by $0.02. Your bonus pay is now $0.60.</p>\n            ","response":0,"trial_type":"html-button-response","trial_index":36,"time_elapsed":675502,"internal_node_id":"0.0-4.0-1.14","subject_id":"617305abc8cde4cf0e08255b","study_id":"6197b3f67c2b5cd3b6d9596a","session_id":"619be58dfad893d836cb0515","condition":"contingent","relevant_dimensions":["antennae","legs"],"bee_group":{"antennae":"B","wings":"X","pattern":"X","legs":"F"},"bonus":1.4000000000000008},{"rt":1120.2999999821186,"stimulus":"bees-with-color/bee-B2DF.svg","response":1,"trial_type":"image-button-response","trial_index":37,"time_elapsed":676624,"internal_node_id":"0.0-4.0-0.15","subject_id":"617305abc8cde4cf0e08255b","study_id":"6197b3f67c2b5cd3b6d9596a","session_id":"619be58dfad893d836cb0515","condition":"contingent","relevant_dimensions":["antennae","legs"],"bee_group":{"antennae":"B","wings":"X","pattern":"X","legs":"F"},"action":"avoid","summary":"good-avoid","bonus":1.4000000000000008},{"rt":1772.4000000059605,"stimulus":"\n                    <p><b>Action: <em>avoid</em></b></p>\n                    <p>This is the bee that you just saw.</p>\n                    <img src=\"bees-with-color/bee-B2DF.svg\" width=\"200\">\n                    <p><br>Your bonus pay is unchanged, and remains at $0.60.</p>\n            ","response":0,"trial_type":"html-button-response","trial_index":38,"time_elapsed":678398,"internal_node_id":"0.0-4.0-1.15","subject_id":"617305abc8cde4cf0e08255b","study_id":"6197b3f67c2b5cd3b6d9596a","session_id":"619be58dfad893d836cb0515","condition":"contingent","relevant_dimensions":["antennae","legs"],"bee_group":{"antennae":"B","wings":"X","pattern":"X","legs":"F"},"bonus":1.4000000000000008},{"rt":1066.699999988079,"stimulus":"bees-with-color/bee-A1SM.svg","response":0,"trial_type":"image-button-response","trial_index":39,"time_elapsed":679466,"internal_node_id":"0.0-4.0-0.16","subject_id":"617305abc8cde4cf0e08255b","study_id":"6197b3f67c2b5cd3b6d9596a","session_id":"619be58dfad893d836cb0515","condition":"contingent","relevant_dimensions":["antennae","legs"],"bee_group":{"antennae":"B","wings":"X","pattern":"X","legs":"F"},"action":"harvest","summary":"good-harvest","bonus":1.4000000000000008},{"rt":1072.4000000059605,"stimulus":"\n                    <p><b>Action: <em>harvest</em></b></p>\n                    <p>This is the bee that you just saw.</p>\n                    <img src=\"bees-with-color/bee-A1SM.svg\" width=\"200\">\n                    <p><span class=\"greenText\"><b>Successful harvest!</b></span><br>Your pay has increased by $0.02. Your bonus pay is now $0.62.</p>\n            ","response":0,"trial_type":"html-button-response","trial_index":40,"time_elapsed":680540,"internal_node_id":"0.0-4.0-1.16","subject_id":"617305abc8cde4cf0e08255b","study_id":"6197b3f67c2b5cd3b6d9596a","session_id":"619be58dfad893d836cb0515","condition":"contingent","relevant_dimensions":["antennae","legs"],"bee_group":{"antennae":"B","wings":"X","pattern":"X","legs":"F"},"bonus":1.4000000000000008},{"rt":956.1999999880791,"stimulus":"bees-with-color/bee-A2SM.svg","response":0,"trial_type":"image-button-response","trial_index":41,"time_elapsed":681498,"internal_node_id":"0.0-4.0-0.17","subject_id":"617305abc8cde4cf0e08255b","study_id":"6197b3f67c2b5cd3b6d9596a","session_id":"619be58dfad893d836cb0515","condition":"contingent","relevant_dimensions":["antennae","legs"],"bee_group":{"antennae":"B","wings":"X","pattern":"X","legs":"F"},"action":"harvest","summary":"good-harvest","bonus":1.4000000000000008},{"rt":1247.2000000178814,"stimulus":"\n                    <p><b>Action: <em>harvest</em></b></p>\n                    <p>This is the bee that you just saw.</p>\n                    <img src=\"bees-with-color/bee-A2SM.svg\" width=\"200\">\n                    <p><span class=\"greenText\"><b>Successful harvest!</b></span><br>Your pay has increased by $0.02. Your bonus pay is now $0.64.</p>\n            ","response":0,"trial_type":"html-button-response","trial_index":42,"time_elapsed":682746,"internal_node_id":"0.0-4.0-1.17","subject_id":"617305abc8cde4cf0e08255b","study_id":"6197b3f67c2b5cd3b6d9596a","session_id":"619be58dfad893d836cb0515","condition":"contingent","relevant_dimensions":["antennae","legs"],"bee_group":{"antennae":"B","wings":"X","pattern":"X","legs":"F"},"bonus":1.4000000000000008},{"rt":1403,"stimulus":"bees-with-color/bee-B2SF.svg","response":1,"trial_type":"image-button-response","trial_index":43,"time_elapsed":684150,"internal_node_id":"0.0-4.0-0.18","subject_id":"617305abc8cde4cf0e08255b","study_id":"6197b3f67c2b5cd3b6d9596a","session_id":"619be58dfad893d836cb0515","condition":"contingent","relevant_dimensions":["antennae","legs"],"bee_group":{"antennae":"B","wings":"X","pattern":"X","legs":"F"},"action":"avoid","summary":"good-avoid","bonus":1.4000000000000008},{"rt":981,"stimulus":"\n                    <p><b>Action: <em>avoid</em></b></p>\n                    <p>This is the bee that you just saw.</p>\n                    <img src=\"bees-with-color/bee-B2SF.svg\" width=\"200\">\n                    <p><br>Your bonus pay is unchanged, and remains at $0.64.</p>\n            ","response":0,"trial_type":"html-button-response","trial_index":44,"time_elapsed":685132,"internal_node_id":"0.0-4.0-1.18","subject_id":"617305abc8cde4cf0e08255b","study_id":"6197b3f67c2b5cd3b6d9596a","session_id":"619be58dfad893d836cb0515","condition":"contingent","relevant_dimensions":["antennae","legs"],"bee_group":{"antennae":"B","wings":"X","pattern":"X","legs":"F"},"bonus":1.4000000000000008},{"rt":1096.300000011921,"stimulus":"bees-with-color/bee-B1SF.svg","response":1,"trial_type":"image-button-response","trial_index":45,"time_elapsed":686230,"internal_node_id":"0.0-4.0-0.19","subject_id":"617305abc8cde4cf0e08255b","study_id":"6197b3f67c2b5cd3b6d9596a","session_id":"619be58dfad893d836cb0515","condition":"contingent","relevant_dimensions":["antennae","legs"],"bee_group":{"antennae":"B","wings":"X","pattern":"X","legs":"F"},"action":"avoid","summary":"good-avoid","bonus":1.4000000000000008},{"rt":972.9000000059605,"stimulus":"\n                    <p><b>Action: <em>avoid</em></b></p>\n                    <p>This is the bee that you just saw.</p>\n                    <img src=\"bees-with-color/bee-B1SF.svg\" width=\"200\">\n                    <p><br>Your bonus pay is unchanged, and remains at $0.64.</p>\n            ","response":0,"trial_type":"html-button-response","trial_index":46,"time_elapsed":687204,"internal_node_id":"0.0-4.0-1.19","subject_id":"617305abc8cde4cf0e08255b","study_id":"6197b3f67c2b5cd3b6d9596a","session_id":"619be58dfad893d836cb0515","condition":"contingent","relevant_dimensions":["antennae","legs"],"bee_group":{"antennae":"B","wings":"X","pattern":"X","legs":"F"},"bonus":1.4000000000000008},{"rt":1088.5999999940395,"stimulus":"bees-with-color/bee-B2DM.svg","response":0,"trial_type":"image-button-response","trial_index":47,"time_elapsed":688294,"internal_node_id":"0.0-4.0-0.20","subject_id":"617305abc8cde4cf0e08255b","study_id":"6197b3f67c2b5cd3b6d9596a","session_id":"619be58dfad893d836cb0515","condition":"contingent","relevant_dimensions":["antennae","legs"],"bee_group":{"antennae":"B","wings":"X","pattern":"X","legs":"F"},"action":"harvest","summary":"good-harvest","bonus":1.4000000000000008},{"rt":846.5,"stimulus":"\n                    <p><b>Action: <em>harvest</em></b></p>\n                    <p>This is the bee that you just saw.</p>\n                    <img src=\"bees-with-color/bee-B2DM.svg\" width=\"200\">\n                    <p><span class=\"greenText\"><b>Successful harvest!</b></span><br>Your pay has increased by $0.02. Your bonus pay is now $0.66.</p>\n            ","response":0,"trial_type":"html-button-response","trial_index":48,"time_elapsed":689142,"internal_node_id":"0.0-4.0-1.20","subject_id":"617305abc8cde4cf0e08255b","study_id":"6197b3f67c2b5cd3b6d9596a","session_id":"619be58dfad893d836cb0515","condition":"contingent","relevant_dimensions":["antennae","legs"],"bee_group":{"antennae":"B","wings":"X","pattern":"X","legs":"F"},"bonus":1.4000000000000008},{"rt":830.5,"stimulus":"bees-with-color/bee-B2SM.svg","response":0,"trial_type":"image-button-response","trial_index":49,"time_elapsed":689974,"internal_node_id":"0.0-4.0-0.21","subject_id":"617305abc8cde4cf0e08255b","study_id":"6197b3f67c2b5cd3b6d9596a","session_id":"619be58dfad893d836cb0515","condition":"contingent","relevant_dimensions":["antennae","legs"],"bee_group":{"antennae":"B","wings":"X","pattern":"X","legs":"F"},"action":"harvest","summary":"good-harvest","bonus":1.4000000000000008},{"rt":830.9000000059605,"stimulus":"\n                    <p><b>Action: <em>harvest</em></b></p>\n                    <p>This is the bee that you just saw.</p>\n                    <img src=\"bees-with-color/bee-B2SM.svg\" width=\"200\">\n                    <p><span class=\"greenText\"><b>Successful harvest!</b></span><br>Your pay has increased by $0.02. Your bonus pay is now $0.68.</p>\n            ","response":0,"trial_type":"html-button-response","trial_index":50,"time_elapsed":690806,"internal_node_id":"0.0-4.0-1.21","subject_id":"617305abc8cde4cf0e08255b","study_id":"6197b3f67c2b5cd3b6d9596a","session_id":"619be58dfad893d836cb0515","condition":"contingent","relevant_dimensions":["antennae","legs"],"bee_group":{"antennae":"B","wings":"X","pattern":"X","legs":"F"},"bonus":1.4000000000000008},{"rt":1129,"stimulus":"bees-with-color/bee-A2DF.svg","response":1,"trial_type":"image-button-response","trial_index":51,"time_elapsed":691936,"internal_node_id":"0.0-4.0-0.22","subject_id":"617305abc8cde4cf0e08255b","study_id":"6197b3f67c2b5cd3b6d9596a","session_id":"619be58dfad893d836cb0515","condition":"contingent","relevant_dimensions":["antennae","legs"],"bee_group":{"antennae":"B","wings":"X","pattern":"X","legs":"F"},"action":"avoid","summary":"bad-avoid","bonus":1.4000000000000008},{"rt":769.2000000178814,"stimulus":"\n                    <p><b>Action: <em>avoid</em></b></p>\n                    <p>This is the bee that you just saw.</p>\n                    <img src=\"bees-with-color/bee-A2DF.svg\" width=\"200\">\n                    <p><br>Your bonus pay is unchanged, and remains at $0.68.</p>\n            ","response":0,"trial_type":"html-button-response","trial_index":52,"time_elapsed":692707,"internal_node_id":"0.0-4.0-1.22","subject_id":"617305abc8cde4cf0e08255b","study_id":"6197b3f67c2b5cd3b6d9596a","session_id":"619be58dfad893d836cb0515","condition":"contingent","relevant_dimensions":["antennae","legs"],"bee_group":{"antennae":"B","wings":"X","pattern":"X","legs":"F"},"bonus":1.4000000000000008},{"rt":1173.9000000059605,"stimulus":"bees-with-color/bee-A1DM.svg","response":0,"trial_type":"image-button-response","trial_index":53,"time_elapsed":693882,"internal_node_id":"0.0-4.0-0.23","subject_id":"617305abc8cde4cf0e08255b","study_id":"6197b3f67c2b5cd3b6d9596a","session_id":"619be58dfad893d836cb0515","condition":"contingent","relevant_dimensions":["antennae","legs"],"bee_group":{"antennae":"B","wings":"X","pattern":"X","legs":"F"},"action":"harvest","summary":"good-harvest","bonus":1.4000000000000008},{"rt":886.8999999761581,"stimulus":"\n                    <p><b>Action: <em>harvest</em></b></p>\n                    <p>This is the bee that you just saw.</p>\n                    <img src=\"bees-with-color/bee-A1DM.svg\" width=\"200\">\n                    <p><span class=\"greenText\"><b>Successful harvest!</b></span><br>Your pay has increased by $0.02. Your bonus pay is now $0.70.</p>\n            ","response":0,"trial_type":"html-button-response","trial_index":54,"time_elapsed":694770,"internal_node_id":"0.0-4.0-1.23","subject_id":"617305abc8cde4cf0e08255b","study_id":"6197b3f67c2b5cd3b6d9596a","session_id":"619be58dfad893d836cb0515","condition":"contingent","relevant_dimensions":["antennae","legs"],"bee_group":{"antennae":"B","wings":"X","pattern":"X","legs":"F"},"bonus":1.4000000000000008},{"rt":965.1000000238419,"stimulus":"bees-with-color/bee-A2DM.svg","response":0,"trial_type":"image-button-response","trial_index":55,"time_elapsed":695736,"internal_node_id":"0.0-4.0-0.24","subject_id":"617305abc8cde4cf0e08255b","study_id":"6197b3f67c2b5cd3b6d9596a","session_id":"619be58dfad893d836cb0515","condition":"contingent","relevant_dimensions":["antennae","legs"],"bee_group":{"antennae":"B","wings":"X","pattern":"X","legs":"F"},"action":"harvest","summary":"good-harvest","bonus":1.4000000000000008},{"rt":720.7999999821186,"stimulus":"\n                    <p><b>Action: <em>harvest</em></b></p>\n                    <p>This is the bee that you just saw.</p>\n                    <img src=\"bees-with-color/bee-A2DM.svg\" width=\"200\">\n                    <p><span class=\"greenText\"><b>Successful harvest!</b></span><br>Your pay has increased by $0.02. Your bonus pay is now $0.72.</p>\n            ","response":0,"trial_type":"html-button-response","trial_index":56,"time_elapsed":696458,"internal_node_id":"0.0-4.0-1.24","subject_id":"617305abc8cde4cf0e08255b","study_id":"6197b3f67c2b5cd3b6d9596a","session_id":"619be58dfad893d836cb0515","condition":"contingent","relevant_dimensions":["antennae","legs"],"bee_group":{"antennae":"B","wings":"X","pattern":"X","legs":"F"},"bonus":1.4000000000000008},{"rt":1027.0999999940395,"stimulus":"bees-with-color/bee-A1SF.svg","response":1,"trial_type":"image-button-response","trial_index":57,"time_elapsed":697486,"internal_node_id":"0.0-4.0-0.25","subject_id":"617305abc8cde4cf0e08255b","study_id":"6197b3f67c2b5cd3b6d9596a","session_id":"619be58dfad893d836cb0515","condition":"contingent","relevant_dimensions":["antennae","legs"],"bee_group":{"antennae":"B","wings":"X","pattern":"X","legs":"F"},"action":"avoid","summary":"bad-avoid","bonus":1.4000000000000008},{"rt":3522.9000000059605,"stimulus":"\n                    <p><b>Action: <em>avoid</em></b></p>\n                    <p>This is the bee that you just saw.</p>\n                    <img src=\"bees-with-color/bee-A1SF.svg\" width=\"200\">\n                    <p><br>Your bonus pay is unchanged, and remains at $0.72.</p>\n            ","response":0,"trial_type":"html-button-response","trial_index":58,"time_elapsed":701010,"internal_node_id":"0.0-4.0-1.25","subject_id":"617305abc8cde4cf0e08255b","study_id":"6197b3f67c2b5cd3b6d9596a","session_id":"619be58dfad893d836cb0515","condition":"contingent","relevant_dimensions":["antennae","legs"],"bee_group":{"antennae":"B","wings":"X","pattern":"X","legs":"F"},"bonus":1.4000000000000008},{"rt":1324.5999999940395,"stimulus":"bees-with-color/bee-B2DF.svg","response":1,"trial_type":"image-button-response","trial_index":59,"time_elapsed":702336,"internal_node_id":"0.0-4.0-0.26","subject_id":"617305abc8cde4cf0e08255b","study_id":"6197b3f67c2b5cd3b6d9596a","session_id":"619be58dfad893d836cb0515","condition":"contingent","relevant_dimensions":["antennae","legs"],"bee_group":{"antennae":"B","wings":"X","pattern":"X","legs":"F"},"action":"avoid","summary":"good-avoid","bonus":1.4000000000000008},{"rt":1459.0999999940395,"stimulus":"\n                    <p><b>Action: <em>avoid</em></b></p>\n                    <p>This is the bee that you just saw.</p>\n                    <img src=\"bees-with-color/bee-B2DF.svg\" width=\"200\">\n                    <p><br>Your bonus pay is unchanged, and remains at $0.72.</p>\n            ","response":0,"trial_type":"html-button-response","trial_index":60,"time_elapsed":703796,"internal_node_id":"0.0-4.0-1.26","subject_id":"617305abc8cde4cf0e08255b","study_id":"6197b3f67c2b5cd3b6d9596a","session_id":"619be58dfad893d836cb0515","condition":"contingent","relevant_dimensions":["antennae","legs"],"bee_group":{"antennae":"B","wings":"X","pattern":"X","legs":"F"},"bonus":1.4000000000000008},{"rt":1292.5999999940395,"stimulus":"bees-with-color/bee-B1DF.svg","response":1,"trial_type":"image-button-response","trial_index":61,"time_elapsed":705090,"internal_node_id":"0.0-4.0-0.27","subject_id":"617305abc8cde4cf0e08255b","study_id":"6197b3f67c2b5cd3b6d9596a","session_id":"619be58dfad893d836cb0515","condition":"contingent","relevant_dimensions":["antennae","legs"],"bee_group":{"antennae":"B","wings":"X","pattern":"X","legs":"F"},"action":"avoid","summary":"good-avoid","bonus":1.4000000000000008},{"rt":846.4000000059605,"stimulus":"\n                    <p><b>Action: <em>avoid</em></b></p>\n                    <p>This is the bee that you just saw.</p>\n                    <img src=\"bees-with-color/bee-B1DF.svg\" width=\"200\">\n                    <p><br>Your bonus pay is unchanged, and remains at $0.72.</p>\n            ","response":0,"trial_type":"html-button-response","trial_index":62,"time_elapsed":705938,"internal_node_id":"0.0-4.0-1.27","subject_id":"617305abc8cde4cf0e08255b","study_id":"6197b3f67c2b5cd3b6d9596a","session_id":"619be58dfad893d836cb0515","condition":"contingent","relevant_dimensions":["antennae","legs"],"bee_group":{"antennae":"B","wings":"X","pattern":"X","legs":"F"},"bonus":1.4000000000000008},{"rt":1309.199999988079,"stimulus":"bees-with-color/bee-B1SM.svg","response":0,"trial_type":"image-button-response","trial_index":63,"time_elapsed":707248,"internal_node_id":"0.0-4.0-0.28","subject_id":"617305abc8cde4cf0e08255b","study_id":"6197b3f67c2b5cd3b6d9596a","session_id":"619be58dfad893d836cb0515","condition":"contingent","relevant_dimensions":["antennae","legs"],"bee_group":{"antennae":"B","wings":"X","pattern":"X","legs":"F"},"action":"harvest","summary":"good-harvest","bonus":1.4000000000000008},{"rt":1246.7000000178814,"stimulus":"\n                    <p><b>Action: <em>harvest</em></b></p>\n                    <p>This is the bee that you just saw.</p>\n                    <img src=\"bees-with-color/bee-B1SM.svg\" width=\"200\">\n                    <p><span class=\"greenText\"><b>Successful harvest!</b></span><br>Your pay has increased by $0.02. Your bonus pay is now $0.74.</p>\n            ","response":0,"trial_type":"html-button-response","trial_index":64,"time_elapsed":708496,"internal_node_id":"0.0-4.0-1.28","subject_id":"617305abc8cde4cf0e08255b","study_id":"6197b3f67c2b5cd3b6d9596a","session_id":"619be58dfad893d836cb0515","condition":"contingent","relevant_dimensions":["antennae","legs"],"bee_group":{"antennae":"B","wings":"X","pattern":"X","legs":"F"},"bonus":1.4000000000000008},{"rt":1316.300000011921,"stimulus":"bees-with-color/bee-B1DM.svg","response":0,"trial_type":"image-button-response","trial_index":65,"time_elapsed":709814,"internal_node_id":"0.0-4.0-0.29","subject_id":"617305abc8cde4cf0e08255b","study_id":"6197b3f67c2b5cd3b6d9596a","session_id":"619be58dfad893d836cb0515","condition":"contingent","relevant_dimensions":["antennae","legs"],"bee_group":{"antennae":"B","wings":"X","pattern":"X","legs":"F"},"action":"harvest","summary":"good-harvest","bonus":1.4000000000000008},{"rt":760.9000000059605,"stimulus":"\n                    <p><b>Action: <em>harvest</em></b></p>\n                    <p>This is the bee that you just saw.</p>\n                    <img src=\"bees-with-color/bee-B1DM.svg\" width=\"200\">\n                    <p><span class=\"greenText\"><b>Successful harvest!</b></span><br>Your pay has increased by $0.02. Your bonus pay is now $0.76.</p>\n            ","response":0,"trial_type":"html-button-response","trial_index":66,"time_elapsed":710576,"internal_node_id":"0.0-4.0-1.29","subject_id":"617305abc8cde4cf0e08255b","study_id":"6197b3f67c2b5cd3b6d9596a","session_id":"619be58dfad893d836cb0515","condition":"contingent","relevant_dimensions":["antennae","legs"],"bee_group":{"antennae":"B","wings":"X","pattern":"X","legs":"F"},"bonus":1.4000000000000008},{"rt":1059,"stimulus":"bees-with-color/bee-A2SF.svg","response":1,"trial_type":"image-button-response","trial_index":67,"time_elapsed":711636,"internal_node_id":"0.0-4.0-0.30","subject_id":"617305abc8cde4cf0e08255b","study_id":"6197b3f67c2b5cd3b6d9596a","session_id":"619be58dfad893d836cb0515","condition":"contingent","relevant_dimensions":["antennae","legs"],"bee_group":{"antennae":"B","wings":"X","pattern":"X","legs":"F"},"action":"avoid","summary":"bad-avoid","bonus":1.4000000000000008},{"rt":876.5,"stimulus":"\n                    <p><b>Action: <em>avoid</em></b></p>\n                    <p>This is the bee that you just saw.</p>\n                    <img src=\"bees-with-color/bee-A2SF.svg\" width=\"200\">\n                    <p><br>Your bonus pay is unchanged, and remains at $0.76.</p>\n            ","response":0,"trial_type":"html-button-response","trial_index":68,"time_elapsed":712514,"internal_node_id":"0.0-4.0-1.30","subject_id":"617305abc8cde4cf0e08255b","study_id":"6197b3f67c2b5cd3b6d9596a","session_id":"619be58dfad893d836cb0515","condition":"contingent","relevant_dimensions":["antennae","legs"],"bee_group":{"antennae":"B","wings":"X","pattern":"X","legs":"F"},"bonus":1.4000000000000008},{"rt":1234.9000000059605,"stimulus":"bees-with-color/bee-A1DF.svg","response":1,"trial_type":"image-button-response","trial_index":69,"time_elapsed":713750,"internal_node_id":"0.0-4.0-0.31","subject_id":"617305abc8cde4cf0e08255b","study_id":"6197b3f67c2b5cd3b6d9596a","session_id":"619be58dfad893d836cb0515","condition":"contingent","relevant_dimensions":["antennae","legs"],"bee_group":{"antennae":"B","wings":"X","pattern":"X","legs":"F"},"action":"avoid","summary":"bad-avoid","bonus":1.4000000000000008},{"rt":835.0999999940395,"stimulus":"\n                    <p><b>Action: <em>avoid</em></b></p>\n                    <p>This is the bee that you just saw.</p>\n                    <img src=\"bees-with-color/bee-A1DF.svg\" width=\"200\">\n                    <p><br>Your bonus pay is unchanged, and remains at $0.76.</p>\n            ","response":0,"trial_type":"html-button-response","trial_index":70,"time_elapsed":714587,"internal_node_id":"0.0-4.0-1.31","subject_id":"617305abc8cde4cf0e08255b","study_id":"6197b3f67c2b5cd3b6d9596a","session_id":"619be58dfad893d836cb0515","condition":"contingent","relevant_dimensions":["antennae","legs"],"bee_group":{"antennae":"B","wings":"X","pattern":"X","legs":"F"},"bonus":1.4000000000000008},{"rt":900.2000000178814,"stimulus":"bees-with-color/bee-A1DF.svg","response":1,"trial_type":"image-button-response","trial_index":71,"time_elapsed":715488,"internal_node_id":"0.0-4.0-0.32","subject_id":"617305abc8cde4cf0e08255b","study_id":"6197b3f67c2b5cd3b6d9596a","session_id":"619be58dfad893d836cb0515","condition":"contingent","relevant_dimensions":["antennae","legs"],"bee_group":{"antennae":"B","wings":"X","pattern":"X","legs":"F"},"action":"avoid","summary":"bad-avoid","bonus":1.4000000000000008},{"rt":776.6000000238419,"stimulus":"\n                    <p><b>Action: <em>avoid</em></b></p>\n                    <p>This is the bee that you just saw.</p>\n                    <img src=\"bees-with-color/bee-A1DF.svg\" width=\"200\">\n                    <p><br>Your bonus pay is unchanged, and remains at $0.76.</p>\n            ","response":0,"trial_type":"html-button-response","trial_index":72,"time_elapsed":716266,"internal_node_id":"0.0-4.0-1.32","subject_id":"617305abc8cde4cf0e08255b","study_id":"6197b3f67c2b5cd3b6d9596a","session_id":"619be58dfad893d836cb0515","condition":"contingent","relevant_dimensions":["antennae","legs"],"bee_group":{"antennae":"B","wings":"X","pattern":"X","legs":"F"},"bonus":1.4000000000000008},{"rt":909,"stimulus":"bees-with-color/bee-A2SM.svg","response":0,"trial_type":"image-button-response","trial_index":73,"time_elapsed":717176,"internal_node_id":"0.0-4.0-0.33","subject_id":"617305abc8cde4cf0e08255b","study_id":"6197b3f67c2b5cd3b6d9596a","session_id":"619be58dfad893d836cb0515","condition":"contingent","relevant_dimensions":["antennae","legs"],"bee_group":{"antennae":"B","wings":"X","pattern":"X","legs":"F"},"action":"harvest","summary":"good-harvest","bonus":1.4000000000000008},{"rt":916.9000000059605,"stimulus":"\n                    <p><b>Action: <em>harvest</em></b></p>\n                    <p>This is the bee that you just saw.</p>\n                    <img src=\"bees-with-color/bee-A2SM.svg\" width=\"200\">\n                    <p><span class=\"greenText\"><b>Successful harvest!</b></span><br>Your pay has increased by $0.02. Your bonus pay is now $0.78.</p>\n            ","response":0,"trial_type":"html-button-response","trial_index":74,"time_elapsed":718094,"internal_node_id":"0.0-4.0-1.33","subject_id":"617305abc8cde4cf0e08255b","study_id":"6197b3f67c2b5cd3b6d9596a","session_id":"619be58dfad893d836cb0515","condition":"contingent","relevant_dimensions":["antennae","legs"],"bee_group":{"antennae":"B","wings":"X","pattern":"X","legs":"F"},"bonus":1.4000000000000008},{"rt":946.7999999821186,"stimulus":"bees-with-color/bee-A2DM.svg","response":0,"trial_type":"image-button-response","trial_index":75,"time_elapsed":719042,"internal_node_id":"0.0-4.0-0.34","subject_id":"617305abc8cde4cf0e08255b","study_id":"6197b3f67c2b5cd3b6d9596a","session_id":"619be58dfad893d836cb0515","condition":"contingent","relevant_dimensions":["antennae","legs"],"bee_group":{"antennae":"B","wings":"X","pattern":"X","legs":"F"},"action":"harvest","summary":"good-harvest","bonus":1.4000000000000008},{"rt":1026.2999999821186,"stimulus":"\n                    <p><b>Action: <em>harvest</em></b></p>\n                    <p>This is the bee that you just saw.</p>\n                    <img src=\"bees-with-color/bee-A2DM.svg\" width=\"200\">\n                    <p><span class=\"greenText\"><b>Successful harvest!</b></span><br>Your pay has increased by $0.02. Your bonus pay is now $0.80.</p>\n            ","response":0,"trial_type":"html-button-response","trial_index":76,"time_elapsed":720070,"internal_node_id":"0.0-4.0-1.34","subject_id":"617305abc8cde4cf0e08255b","study_id":"6197b3f67c2b5cd3b6d9596a","session_id":"619be58dfad893d836cb0515","condition":"contingent","relevant_dimensions":["antennae","legs"],"bee_group":{"antennae":"B","wings":"X","pattern":"X","legs":"F"},"bonus":1.4000000000000008},{"rt":1098.9000000059605,"stimulus":"bees-with-color/bee-B2SM.svg","response":0,"trial_type":"image-button-response","trial_index":77,"time_elapsed":721170,"internal_node_id":"0.0-4.0-0.35","subject_id":"617305abc8cde4cf0e08255b","study_id":"6197b3f67c2b5cd3b6d9596a","session_id":"619be58dfad893d836cb0515","condition":"contingent","relevant_dimensions":["antennae","legs"],"bee_group":{"antennae":"B","wings":"X","pattern":"X","legs":"F"},"action":"harvest","summary":"good-harvest","bonus":1.4000000000000008},{"rt":814.7999999821186,"stimulus":"\n                    <p><b>Action: <em>harvest</em></b></p>\n                    <p>This is the bee that you just saw.</p>\n                    <img src=\"bees-with-color/bee-B2SM.svg\" width=\"200\">\n                    <p><span class=\"greenText\"><b>Successful harvest!</b></span><br>Your pay has increased by $0.02. Your bonus pay is now $0.82.</p>\n            ","response":0,"trial_type":"html-button-response","trial_index":78,"time_elapsed":721986,"internal_node_id":"0.0-4.0-1.35","subject_id":"617305abc8cde4cf0e08255b","study_id":"6197b3f67c2b5cd3b6d9596a","session_id":"619be58dfad893d836cb0515","condition":"contingent","relevant_dimensions":["antennae","legs"],"bee_group":{"antennae":"B","wings":"X","pattern":"X","legs":"F"},"bonus":1.4000000000000008},{"rt":995,"stimulus":"bees-with-color/bee-B1SF.svg","response":1,"trial_type":"image-button-response","trial_index":79,"time_elapsed":722982,"internal_node_id":"0.0-4.0-0.36","subject_id":"617305abc8cde4cf0e08255b","study_id":"6197b3f67c2b5cd3b6d9596a","session_id":"619be58dfad893d836cb0515","condition":"contingent","relevant_dimensions":["antennae","legs"],"bee_group":{"antennae":"B","wings":"X","pattern":"X","legs":"F"},"action":"avoid","summary":"good-avoid","bonus":1.4000000000000008},{"rt":658.7999999821186,"stimulus":"\n                    <p><b>Action: <em>avoid</em></b></p>\n                    <p>This is the bee that you just saw.</p>\n                    <img src=\"bees-with-color/bee-B1SF.svg\" width=\"200\">\n                    <p><br>Your bonus pay is unchanged, and remains at $0.82.</p>\n            ","response":0,"trial_type":"html-button-response","trial_index":80,"time_elapsed":723643,"internal_node_id":"0.0-4.0-1.36","subject_id":"617305abc8cde4cf0e08255b","study_id":"6197b3f67c2b5cd3b6d9596a","session_id":"619be58dfad893d836cb0515","condition":"contingent","relevant_dimensions":["antennae","legs"],"bee_group":{"antennae":"B","wings":"X","pattern":"X","legs":"F"},"bonus":1.4000000000000008},{"rt":954.1999999880791,"stimulus":"bees-with-color/bee-A1SM.svg","response":0,"trial_type":"image-button-response","trial_index":81,"time_elapsed":724598,"internal_node_id":"0.0-4.0-0.37","subject_id":"617305abc8cde4cf0e08255b","study_id":"6197b3f67c2b5cd3b6d9596a","session_id":"619be58dfad893d836cb0515","condition":"contingent","relevant_dimensions":["antennae","legs"],"bee_group":{"antennae":"B","wings":"X","pattern":"X","legs":"F"},"action":"harvest","summary":"good-harvest","bonus":1.4000000000000008},{"rt":532.8000000119209,"stimulus":"\n                    <p><b>Action: <em>harvest</em></b></p>\n                    <p>This is the bee that you just saw.</p>\n                    <img src=\"bees-with-color/bee-A1SM.svg\" width=\"200\">\n                    <p><span class=\"greenText\"><b>Successful harvest!</b></span><br>Your pay has increased by $0.02. Your bonus pay is now $0.84.</p>\n            ","response":0,"trial_type":"html-button-response","trial_index":82,"time_elapsed":725132,"internal_node_id":"0.0-4.0-1.37","subject_id":"617305abc8cde4cf0e08255b","study_id":"6197b3f67c2b5cd3b6d9596a","session_id":"619be58dfad893d836cb0515","condition":"contingent","relevant_dimensions":["antennae","legs"],"bee_group":{"antennae":"B","wings":"X","pattern":"X","legs":"F"},"bonus":1.4000000000000008},{"rt":876.9000000059605,"stimulus":"bees-with-color/bee-B2SF.svg","response":1,"trial_type":"image-button-response","trial_index":83,"time_elapsed":726010,"internal_node_id":"0.0-4.0-0.38","subject_id":"617305abc8cde4cf0e08255b","study_id":"6197b3f67c2b5cd3b6d9596a","session_id":"619be58dfad893d836cb0515","condition":"contingent","relevant_dimensions":["antennae","legs"],"bee_group":{"antennae":"B","wings":"X","pattern":"X","legs":"F"},"action":"avoid","summary":"good-avoid","bonus":1.4000000000000008},{"rt":651,"stimulus":"\n                    <p><b>Action: <em>avoid</em></b></p>\n                    <p>This is the bee that you just saw.</p>\n                    <img src=\"bees-with-color/bee-B2SF.svg\" width=\"200\">\n                    <p><br>Your bonus pay is unchanged, and remains at $0.84.</p>\n            ","response":0,"trial_type":"html-button-response","trial_index":84,"time_elapsed":726662,"internal_node_id":"0.0-4.0-1.38","subject_id":"617305abc8cde4cf0e08255b","study_id":"6197b3f67c2b5cd3b6d9596a","session_id":"619be58dfad893d836cb0515","condition":"contingent","relevant_dimensions":["antennae","legs"],"bee_group":{"antennae":"B","wings":"X","pattern":"X","legs":"F"},"bonus":1.4000000000000008},{"rt":1654.5,"stimulus":"bees-with-color/bee-A2DF.svg","response":1,"trial_type":"image-button-response","trial_index":85,"time_elapsed":728318,"internal_node_id":"0.0-4.0-0.39","subject_id":"617305abc8cde4cf0e08255b","study_id":"6197b3f67c2b5cd3b6d9596a","session_id":"619be58dfad893d836cb0515","condition":"contingent","relevant_dimensions":["antennae","legs"],"bee_group":{"antennae":"B","wings":"X","pattern":"X","legs":"F"},"action":"avoid","summary":"bad-avoid","bonus":1.4000000000000008},{"rt":1028.800000011921,"stimulus":"\n                    <p><b>Action: <em>avoid</em></b></p>\n                    <p>This is the bee that you just saw.</p>\n                    <img src=\"bees-with-color/bee-A2DF.svg\" width=\"200\">\n                    <p><br>Your bonus pay is unchanged, and remains at $0.84.</p>\n            ","response":0,"trial_type":"html-button-response","trial_index":86,"time_elapsed":729348,"internal_node_id":"0.0-4.0-1.39","subject_id":"617305abc8cde4cf0e08255b","study_id":"6197b3f67c2b5cd3b6d9596a","session_id":"619be58dfad893d836cb0515","condition":"contingent","relevant_dimensions":["antennae","legs"],"bee_group":{"antennae":"B","wings":"X","pattern":"X","legs":"F"},"bonus":1.4000000000000008},{"rt":1489,"stimulus":"bees-with-color/bee-A1DM.svg","response":0,"trial_type":"image-button-response","trial_index":87,"time_elapsed":730838,"internal_node_id":"0.0-4.0-0.40","subject_id":"617305abc8cde4cf0e08255b","study_id":"6197b3f67c2b5cd3b6d9596a","session_id":"619be58dfad893d836cb0515","condition":"contingent","relevant_dimensions":["antennae","legs"],"bee_group":{"antennae":"B","wings":"X","pattern":"X","legs":"F"},"action":"harvest","summary":"good-harvest","bonus":1.4000000000000008},{"rt":640.7000000178814,"stimulus":"\n                    <p><b>Action: <em>harvest</em></b></p>\n                    <p>This is the bee that you just saw.</p>\n                    <img src=\"bees-with-color/bee-A1DM.svg\" width=\"200\">\n                    <p><span class=\"greenText\"><b>Successful harvest!</b></span><br>Your pay has increased by $0.02. Your bonus pay is now $0.86.</p>\n            ","response":0,"trial_type":"html-button-response","trial_index":88,"time_elapsed":731480,"internal_node_id":"0.0-4.0-1.40","subject_id":"617305abc8cde4cf0e08255b","study_id":"6197b3f67c2b5cd3b6d9596a","session_id":"619be58dfad893d836cb0515","condition":"contingent","relevant_dimensions":["antennae","legs"],"bee_group":{"antennae":"B","wings":"X","pattern":"X","legs":"F"},"bonus":1.4000000000000008},{"rt":1019,"stimulus":"bees-with-color/bee-B1DM.svg","response":0,"trial_type":"image-button-response","trial_index":89,"time_elapsed":732500,"internal_node_id":"0.0-4.0-0.41","subject_id":"617305abc8cde4cf0e08255b","study_id":"6197b3f67c2b5cd3b6d9596a","session_id":"619be58dfad893d836cb0515","condition":"contingent","relevant_dimensions":["antennae","legs"],"bee_group":{"antennae":"B","wings":"X","pattern":"X","legs":"F"},"action":"harvest","summary":"good-harvest","bonus":1.4000000000000008},{"rt":744.2000000178814,"stimulus":"\n                    <p><b>Action: <em>harvest</em></b></p>\n                    <p>This is the bee that you just saw.</p>\n                    <img src=\"bees-with-color/bee-B1DM.svg\" width=\"200\">\n                    <p><span class=\"greenText\"><b>Successful harvest!</b></span><br>Your pay has increased by $0.02. Your bonus pay is now $0.88.</p>\n            ","response":0,"trial_type":"html-button-response","trial_index":90,"time_elapsed":733246,"internal_node_id":"0.0-4.0-1.41","subject_id":"617305abc8cde4cf0e08255b","study_id":"6197b3f67c2b5cd3b6d9596a","session_id":"619be58dfad893d836cb0515","condition":"contingent","relevant_dimensions":["antennae","legs"],"bee_group":{"antennae":"B","wings":"X","pattern":"X","legs":"F"},"bonus":1.4000000000000008},{"rt":1332.8999999761581,"stimulus":"bees-with-color/bee-A1SF.svg","response":1,"trial_type":"image-button-response","trial_index":91,"time_elapsed":734580,"internal_node_id":"0.0-4.0-0.42","subject_id":"617305abc8cde4cf0e08255b","study_id":"6197b3f67c2b5cd3b6d9596a","session_id":"619be58dfad893d836cb0515","condition":"contingent","relevant_dimensions":["antennae","legs"],"bee_group":{"antennae":"B","wings":"X","pattern":"X","legs":"F"},"action":"avoid","summary":"bad-avoid","bonus":1.4000000000000008},{"rt":784.7000000178814,"stimulus":"\n                    <p><b>Action: <em>avoid</em></b></p>\n                    <p>This is the bee that you just saw.</p>\n                    <img src=\"bees-with-color/bee-A1SF.svg\" width=\"200\">\n                    <p><br>Your bonus pay is unchanged, and remains at $0.88.</p>\n            ","response":0,"trial_type":"html-button-response","trial_index":92,"time_elapsed":735366,"internal_node_id":"0.0-4.0-1.42","subject_id":"617305abc8cde4cf0e08255b","study_id":"6197b3f67c2b5cd3b6d9596a","session_id":"619be58dfad893d836cb0515","condition":"contingent","relevant_dimensions":["antennae","legs"],"bee_group":{"antennae":"B","wings":"X","pattern":"X","legs":"F"},"bonus":1.4000000000000008},{"rt":963.0999999940395,"stimulus":"bees-with-color/bee-B1SM.svg","response":0,"trial_type":"image-button-response","trial_index":93,"time_elapsed":736330,"internal_node_id":"0.0-4.0-0.43","subject_id":"617305abc8cde4cf0e08255b","study_id":"6197b3f67c2b5cd3b6d9596a","session_id":"619be58dfad893d836cb0515","condition":"contingent","relevant_dimensions":["antennae","legs"],"bee_group":{"antennae":"B","wings":"X","pattern":"X","legs":"F"},"action":"harvest","summary":"good-harvest","bonus":1.4000000000000008},{"rt":1090.7999999821186,"stimulus":"\n                    <p><b>Action: <em>harvest</em></b></p>\n                    <p>This is the bee that you just saw.</p>\n                    <img src=\"bees-with-color/bee-B1SM.svg\" width=\"200\">\n                    <p><span class=\"greenText\"><b>Successful harvest!</b></span><br>Your pay has increased by $0.02. Your bonus pay is now $0.90.</p>\n            ","response":0,"trial_type":"html-button-response","trial_index":94,"time_elapsed":737422,"internal_node_id":"0.0-4.0-1.43","subject_id":"617305abc8cde4cf0e08255b","study_id":"6197b3f67c2b5cd3b6d9596a","session_id":"619be58dfad893d836cb0515","condition":"contingent","relevant_dimensions":["antennae","legs"],"bee_group":{"antennae":"B","wings":"X","pattern":"X","legs":"F"},"bonus":1.4000000000000008},{"rt":1002.7999999821186,"stimulus":"bees-with-color/bee-B1DF.svg","response":1,"trial_type":"image-button-response","trial_index":95,"time_elapsed":738426,"internal_node_id":"0.0-4.0-0.44","subject_id":"617305abc8cde4cf0e08255b","study_id":"6197b3f67c2b5cd3b6d9596a","session_id":"619be58dfad893d836cb0515","condition":"contingent","relevant_dimensions":["antennae","legs"],"bee_group":{"antennae":"B","wings":"X","pattern":"X","legs":"F"},"action":"avoid","summary":"good-avoid","bonus":1.4000000000000008},{"rt":814.8999999761581,"stimulus":"\n                    <p><b>Action: <em>avoid</em></b></p>\n                    <p>This is the bee that you just saw.</p>\n                    <img src=\"bees-with-color/bee-B1DF.svg\" width=\"200\">\n                    <p><br>Your bonus pay is unchanged, and remains at $0.90.</p>\n            ","response":0,"trial_type":"html-button-response","trial_index":96,"time_elapsed":739242,"internal_node_id":"0.0-4.0-1.44","subject_id":"617305abc8cde4cf0e08255b","study_id":"6197b3f67c2b5cd3b6d9596a","session_id":"619be58dfad893d836cb0515","condition":"contingent","relevant_dimensions":["antennae","legs"],"bee_group":{"antennae":"B","wings":"X","pattern":"X","legs":"F"},"bonus":1.4000000000000008},{"rt":839,"stimulus":"bees-with-color/bee-B2DM.svg","response":0,"trial_type":"image-button-response","trial_index":97,"time_elapsed":740082,"internal_node_id":"0.0-4.0-0.45","subject_id":"617305abc8cde4cf0e08255b","study_id":"6197b3f67c2b5cd3b6d9596a","session_id":"619be58dfad893d836cb0515","condition":"contingent","relevant_dimensions":["antennae","legs"],"bee_group":{"antennae":"B","wings":"X","pattern":"X","legs":"F"},"action":"harvest","summary":"good-harvest","bonus":1.4000000000000008},{"rt":681,"stimulus":"\n                    <p><b>Action: <em>harvest</em></b></p>\n                    <p>This is the bee that you just saw.</p>\n                    <img src=\"bees-with-color/bee-B2DM.svg\" width=\"200\">\n                    <p><span class=\"greenText\"><b>Successful harvest!</b></span><br>Your pay has increased by $0.02. Your bonus pay is now $0.92.</p>\n            ","response":0,"trial_type":"html-button-response","trial_index":98,"time_elapsed":740764,"internal_node_id":"0.0-4.0-1.45","subject_id":"617305abc8cde4cf0e08255b","study_id":"6197b3f67c2b5cd3b6d9596a","session_id":"619be58dfad893d836cb0515","condition":"contingent","relevant_dimensions":["antennae","legs"],"bee_group":{"antennae":"B","wings":"X","pattern":"X","legs":"F"},"bonus":1.4000000000000008},{"rt":956.8000000119209,"stimulus":"bees-with-color/bee-B2DF.svg","response":1,"trial_type":"image-button-response","trial_index":99,"time_elapsed":741722,"internal_node_id":"0.0-4.0-0.46","subject_id":"617305abc8cde4cf0e08255b","study_id":"6197b3f67c2b5cd3b6d9596a","session_id":"619be58dfad893d836cb0515","condition":"contingent","relevant_dimensions":["antennae","legs"],"bee_group":{"antennae":"B","wings":"X","pattern":"X","legs":"F"},"action":"avoid","summary":"good-avoid","bonus":1.4000000000000008},{"rt":860.2999999821186,"stimulus":"\n                    <p><b>Action: <em>avoid</em></b></p>\n                    <p>This is the bee that you just saw.</p>\n                    <img src=\"bees-with-color/bee-B2DF.svg\" width=\"200\">\n                    <p><br>Your bonus pay is unchanged, and remains at $0.92.</p>\n            ","response":0,"trial_type":"html-button-response","trial_index":100,"time_elapsed":742584,"internal_node_id":"0.0-4.0-1.46","subject_id":"617305abc8cde4cf0e08255b","study_id":"6197b3f67c2b5cd3b6d9596a","session_id":"619be58dfad893d836cb0515","condition":"contingent","relevant_dimensions":["antennae","legs"],"bee_group":{"antennae":"B","wings":"X","pattern":"X","legs":"F"},"bonus":1.4000000000000008},{"rt":918.7000000178814,"stimulus":"bees-with-color/bee-A2SF.svg","response":1,"trial_type":"image-button-response","trial_index":101,"time_elapsed":743504,"internal_node_id":"0.0-4.0-0.47","subject_id":"617305abc8cde4cf0e08255b","study_id":"6197b3f67c2b5cd3b6d9596a","session_id":"619be58dfad893d836cb0515","condition":"contingent","relevant_dimensions":["antennae","legs"],"bee_group":{"antennae":"B","wings":"X","pattern":"X","legs":"F"},"action":"avoid","summary":"bad-avoid","bonus":1.4000000000000008},{"rt":602.5999999940395,"stimulus":"\n                    <p><b>Action: <em>avoid</em></b></p>\n                    <p>This is the bee that you just saw.</p>\n                    <img src=\"bees-with-color/bee-A2SF.svg\" width=\"200\">\n                    <p><br>Your bonus pay is unchanged, and remains at $0.92.</p>\n            ","response":0,"trial_type":"html-button-response","trial_index":102,"time_elapsed":744108,"internal_node_id":"0.0-4.0-1.47","subject_id":"617305abc8cde4cf0e08255b","study_id":"6197b3f67c2b5cd3b6d9596a","session_id":"619be58dfad893d836cb0515","condition":"contingent","relevant_dimensions":["antennae","legs"],"bee_group":{"antennae":"B","wings":"X","pattern":"X","legs":"F"},"bonus":1.4000000000000008},{"rt":791,"stimulus":"bees-with-color/bee-A1SM.svg","response":0,"trial_type":"image-button-response","trial_index":103,"time_elapsed":744900,"internal_node_id":"0.0-4.0-0.48","subject_id":"617305abc8cde4cf0e08255b","study_id":"6197b3f67c2b5cd3b6d9596a","session_id":"619be58dfad893d836cb0515","condition":"contingent","relevant_dimensions":["antennae","legs"],"bee_group":{"antennae":"B","wings":"X","pattern":"X","legs":"F"},"action":"harvest","summary":"good-harvest","bonus":1.4000000000000008},{"rt":580.5999999940395,"stimulus":"\n                    <p><b>Action: <em>harvest</em></b></p>\n                    <p>This is the bee that you just saw.</p>\n                    <img src=\"bees-with-color/bee-A1SM.svg\" width=\"200\">\n                    <p><span class=\"greenText\"><b>Successful harvest!</b></span><br>Your pay has increased by $0.02. Your bonus pay is now $0.94.</p>\n            ","response":0,"trial_type":"html-button-response","trial_index":104,"time_elapsed":745482,"internal_node_id":"0.0-4.0-1.48","subject_id":"617305abc8cde4cf0e08255b","study_id":"6197b3f67c2b5cd3b6d9596a","session_id":"619be58dfad893d836cb0515","condition":"contingent","relevant_dimensions":["antennae","legs"],"bee_group":{"antennae":"B","wings":"X","pattern":"X","legs":"F"},"bonus":1.4000000000000008},{"rt":1121,"stimulus":"bees-with-color/bee-B1DM.svg","response":0,"trial_type":"image-button-response","trial_index":105,"time_elapsed":746604,"internal_node_id":"0.0-4.0-0.49","subject_id":"617305abc8cde4cf0e08255b","study_id":"6197b3f67c2b5cd3b6d9596a","session_id":"619be58dfad893d836cb0515","condition":"contingent","relevant_dimensions":["antennae","legs"],"bee_group":{"antennae":"B","wings":"X","pattern":"X","legs":"F"},"action":"harvest","summary":"good-harvest","bonus":1.4000000000000008},{"rt":641.1000000238419,"stimulus":"\n                    <p><b>Action: <em>harvest</em></b></p>\n                    <p>This is the bee that you just saw.</p>\n                    <img src=\"bees-with-color/bee-B1DM.svg\" width=\"200\">\n                    <p><span class=\"greenText\"><b>Successful harvest!</b></span><br>Your pay has increased by $0.02. Your bonus pay is now $0.96.</p>\n            ","response":0,"trial_type":"html-button-response","trial_index":106,"time_elapsed":747246,"internal_node_id":"0.0-4.0-1.49","subject_id":"617305abc8cde4cf0e08255b","study_id":"6197b3f67c2b5cd3b6d9596a","session_id":"619be58dfad893d836cb0515","condition":"contingent","relevant_dimensions":["antennae","legs"],"bee_group":{"antennae":"B","wings":"X","pattern":"X","legs":"F"},"bonus":1.4000000000000008},{"rt":1050.5,"stimulus":"bees-with-color/bee-A2SM.svg","response":0,"trial_type":"image-button-response","trial_index":107,"time_elapsed":748298,"internal_node_id":"0.0-4.0-0.50","subject_id":"617305abc8cde4cf0e08255b","study_id":"6197b3f67c2b5cd3b6d9596a","session_id":"619be58dfad893d836cb0515","condition":"contingent","relevant_dimensions":["antennae","legs"],"bee_group":{"antennae":"B","wings":"X","pattern":"X","legs":"F"},"action":"harvest","summary":"good-harvest","bonus":1.4000000000000008},{"rt":580.7999999821186,"stimulus":"\n                    <p><b>Action: <em>harvest</em></b></p>\n                    <p>This is the bee that you just saw.</p>\n                    <img src=\"bees-with-color/bee-A2SM.svg\" width=\"200\">\n                    <p><span class=\"greenText\"><b>Successful harvest!</b></span><br>Your pay has increased by $0.02. Your bonus pay is now $0.98.</p>\n            ","response":0,"trial_type":"html-button-response","trial_index":108,"time_elapsed":748880,"internal_node_id":"0.0-4.0-1.50","subject_id":"617305abc8cde4cf0e08255b","study_id":"6197b3f67c2b5cd3b6d9596a","session_id":"619be58dfad893d836cb0515","condition":"contingent","relevant_dimensions":["antennae","legs"],"bee_group":{"antennae":"B","wings":"X","pattern":"X","legs":"F"},"bonus":1.4000000000000008},{"rt":868.7999999821186,"stimulus":"bees-with-color/bee-A1DM.svg","response":0,"trial_type":"image-button-response","trial_index":109,"time_elapsed":749750,"internal_node_id":"0.0-4.0-0.51","subject_id":"617305abc8cde4cf0e08255b","study_id":"6197b3f67c2b5cd3b6d9596a","session_id":"619be58dfad893d836cb0515","condition":"contingent","relevant_dimensions":["antennae","legs"],"bee_group":{"antennae":"B","wings":"X","pattern":"X","legs":"F"},"action":"harvest","summary":"good-harvest","bonus":1.4000000000000008},{"rt":847.2000000178814,"stimulus":"\n                    <p><b>Action: <em>harvest</em></b></p>\n                    <p>This is the bee that you just saw.</p>\n                    <img src=\"bees-with-color/bee-A1DM.svg\" width=\"200\">\n                    <p><span class=\"greenText\"><b>Successful harvest!</b></span><br>Your pay has increased by $0.02. Your bonus pay is now $1.00.</p>\n            ","response":0,"trial_type":"html-button-response","trial_index":110,"time_elapsed":750598,"internal_node_id":"0.0-4.0-1.51","subject_id":"617305abc8cde4cf0e08255b","study_id":"6197b3f67c2b5cd3b6d9596a","session_id":"619be58dfad893d836cb0515","condition":"contingent","relevant_dimensions":["antennae","legs"],"bee_group":{"antennae":"B","wings":"X","pattern":"X","legs":"F"},"bonus":1.4000000000000008},{"rt":1850.5,"stimulus":"bees-with-color/bee-B2DF.svg","response":1,"trial_type":"image-button-response","trial_index":111,"time_elapsed":752450,"internal_node_id":"0.0-4.0-0.52","subject_id":"617305abc8cde4cf0e08255b","study_id":"6197b3f67c2b5cd3b6d9596a","session_id":"619be58dfad893d836cb0515","condition":"contingent","relevant_dimensions":["antennae","legs"],"bee_group":{"antennae":"B","wings":"X","pattern":"X","legs":"F"},"action":"avoid","summary":"good-avoid","bonus":1.4000000000000008},{"rt":2714.9000000059605,"stimulus":"\n                    <p><b>Action: <em>avoid</em></b></p>\n                    <p>This is the bee that you just saw.</p>\n                    <img src=\"bees-with-color/bee-B2DF.svg\" width=\"200\">\n                    <p><br>Your bonus pay is unchanged, and remains at $1.00.</p>\n            ","response":0,"trial_type":"html-button-response","trial_index":112,"time_elapsed":755166,"internal_node_id":"0.0-4.0-1.52","subject_id":"617305abc8cde4cf0e08255b","study_id":"6197b3f67c2b5cd3b6d9596a","session_id":"619be58dfad893d836cb0515","condition":"contingent","relevant_dimensions":["antennae","legs"],"bee_group":{"antennae":"B","wings":"X","pattern":"X","legs":"F"},"bonus":1.4000000000000008},{"rt":916.5999999940395,"stimulus":"bees-with-color/bee-B2SM.svg","response":0,"trial_type":"image-button-response","trial_index":113,"time_elapsed":756084,"internal_node_id":"0.0-4.0-0.53","subject_id":"617305abc8cde4cf0e08255b","study_id":"6197b3f67c2b5cd3b6d9596a","session_id":"619be58dfad893d836cb0515","condition":"contingent","relevant_dimensions":["antennae","legs"],"bee_group":{"antennae":"B","wings":"X","pattern":"X","legs":"F"},"action":"harvest","summary":"good-harvest","bonus":1.4000000000000008},{"rt":1276.800000011921,"stimulus":"\n                    <p><b>Action: <em>harvest</em></b></p>\n                    <p>This is the bee that you just saw.</p>\n                    <img src=\"bees-with-color/bee-B2SM.svg\" width=\"200\">\n                    <p><span class=\"greenText\"><b>Successful harvest!</b></span><br>Your pay has increased by $0.02. Your bonus pay is now $1.02.</p>\n            ","response":0,"trial_type":"html-button-response","trial_index":114,"time_elapsed":757362,"internal_node_id":"0.0-4.0-1.53","subject_id":"617305abc8cde4cf0e08255b","study_id":"6197b3f67c2b5cd3b6d9596a","session_id":"619be58dfad893d836cb0515","condition":"contingent","relevant_dimensions":["antennae","legs"],"bee_group":{"antennae":"B","wings":"X","pattern":"X","legs":"F"},"bonus":1.4000000000000008},{"rt":965,"stimulus":"bees-with-color/bee-A2SF.svg","response":1,"trial_type":"image-button-response","trial_index":115,"time_elapsed":758328,"internal_node_id":"0.0-4.0-0.54","subject_id":"617305abc8cde4cf0e08255b","study_id":"6197b3f67c2b5cd3b6d9596a","session_id":"619be58dfad893d836cb0515","condition":"contingent","relevant_dimensions":["antennae","legs"],"bee_group":{"antennae":"B","wings":"X","pattern":"X","legs":"F"},"action":"avoid","summary":"bad-avoid","bonus":1.4000000000000008},{"rt":956.8000000119209,"stimulus":"\n                    <p><b>Action: <em>avoid</em></b></p>\n                    <p>This is the bee that you just saw.</p>\n                    <img src=\"bees-with-color/bee-A2SF.svg\" width=\"200\">\n                    <p><br>Your bonus pay is unchanged, and remains at $1.02.</p>\n            ","response":0,"trial_type":"html-button-response","trial_index":116,"time_elapsed":759286,"internal_node_id":"0.0-4.0-1.54","subject_id":"617305abc8cde4cf0e08255b","study_id":"6197b3f67c2b5cd3b6d9596a","session_id":"619be58dfad893d836cb0515","condition":"contingent","relevant_dimensions":["antennae","legs"],"bee_group":{"antennae":"B","wings":"X","pattern":"X","legs":"F"},"bonus":1.4000000000000008},{"rt":925,"stimulus":"bees-with-color/bee-B2SF.svg","response":1,"trial_type":"image-button-response","trial_index":117,"time_elapsed":760212,"internal_node_id":"0.0-4.0-0.55","subject_id":"617305abc8cde4cf0e08255b","study_id":"6197b3f67c2b5cd3b6d9596a","session_id":"619be58dfad893d836cb0515","condition":"contingent","relevant_dimensions":["antennae","legs"],"bee_group":{"antennae":"B","wings":"X","pattern":"X","legs":"F"},"action":"avoid","summary":"good-avoid","bonus":1.4000000000000008},{"rt":798.8000000119209,"stimulus":"\n                    <p><b>Action: <em>avoid</em></b></p>\n                    <p>This is the bee that you just saw.</p>\n                    <img src=\"bees-with-color/bee-B2SF.svg\" width=\"200\">\n                    <p><br>Your bonus pay is unchanged, and remains at $1.02.</p>\n            ","response":0,"trial_type":"html-button-response","trial_index":118,"time_elapsed":761012,"internal_node_id":"0.0-4.0-1.55","subject_id":"617305abc8cde4cf0e08255b","study_id":"6197b3f67c2b5cd3b6d9596a","session_id":"619be58dfad893d836cb0515","condition":"contingent","relevant_dimensions":["antennae","legs"],"bee_group":{"antennae":"B","wings":"X","pattern":"X","legs":"F"},"bonus":1.4000000000000008},{"rt":893,"stimulus":"bees-with-color/bee-A2DM.svg","response":0,"trial_type":"image-button-response","trial_index":119,"time_elapsed":761906,"internal_node_id":"0.0-4.0-0.56","subject_id":"617305abc8cde4cf0e08255b","study_id":"6197b3f67c2b5cd3b6d9596a","session_id":"619be58dfad893d836cb0515","condition":"contingent","relevant_dimensions":["antennae","legs"],"bee_group":{"antennae":"B","wings":"X","pattern":"X","legs":"F"},"action":"harvest","summary":"good-harvest","bonus":1.4000000000000008},{"rt":674.9000000059605,"stimulus":"\n                    <p><b>Action: <em>harvest</em></b></p>\n                    <p>This is the bee that you just saw.</p>\n                    <img src=\"bees-with-color/bee-A2DM.svg\" width=\"200\">\n                    <p><span class=\"greenText\"><b>Successful harvest!</b></span><br>Your pay has increased by $0.02. Your bonus pay is now $1.04.</p>\n            ","response":0,"trial_type":"html-button-response","trial_index":120,"time_elapsed":762582,"internal_node_id":"0.0-4.0-1.56","subject_id":"617305abc8cde4cf0e08255b","study_id":"6197b3f67c2b5cd3b6d9596a","session_id":"619be58dfad893d836cb0515","condition":"contingent","relevant_dimensions":["antennae","legs"],"bee_group":{"antennae":"B","wings":"X","pattern":"X","legs":"F"},"bonus":1.4000000000000008},{"rt":971,"stimulus":"bees-with-color/bee-B1SF.svg","response":1,"trial_type":"image-button-response","trial_index":121,"time_elapsed":763554,"internal_node_id":"0.0-4.0-0.57","subject_id":"617305abc8cde4cf0e08255b","study_id":"6197b3f67c2b5cd3b6d9596a","session_id":"619be58dfad893d836cb0515","condition":"contingent","relevant_dimensions":["antennae","legs"],"bee_group":{"antennae":"B","wings":"X","pattern":"X","legs":"F"},"action":"avoid","summary":"good-avoid","bonus":1.4000000000000008},{"rt":814.8000000119209,"stimulus":"\n                    <p><b>Action: <em>avoid</em></b></p>\n                    <p>This is the bee that you just saw.</p>\n                    <img src=\"bees-with-color/bee-B1SF.svg\" width=\"200\">\n                    <p><br>Your bonus pay is unchanged, and remains at $1.04.</p>\n            ","response":0,"trial_type":"html-button-response","trial_index":122,"time_elapsed":764370,"internal_node_id":"0.0-4.0-1.57","subject_id":"617305abc8cde4cf0e08255b","study_id":"6197b3f67c2b5cd3b6d9596a","session_id":"619be58dfad893d836cb0515","condition":"contingent","relevant_dimensions":["antennae","legs"],"bee_group":{"antennae":"B","wings":"X","pattern":"X","legs":"F"},"bonus":1.4000000000000008},{"rt":924.9000000059605,"stimulus":"bees-with-color/bee-A2DF.svg","response":1,"trial_type":"image-button-response","trial_index":123,"time_elapsed":765296,"internal_node_id":"0.0-4.0-0.58","subject_id":"617305abc8cde4cf0e08255b","study_id":"6197b3f67c2b5cd3b6d9596a","session_id":"619be58dfad893d836cb0515","condition":"contingent","relevant_dimensions":["antennae","legs"],"bee_group":{"antennae":"B","wings":"X","pattern":"X","legs":"F"},"action":"avoid","summary":"bad-avoid","bonus":1.4000000000000008},{"rt":720.5,"stimulus":"\n                    <p><b>Action: <em>avoid</em></b></p>\n                    <p>This is the bee that you just saw.</p>\n                    <img src=\"bees-with-color/bee-A2DF.svg\" width=\"200\">\n                    <p><br>Your bonus pay is unchanged, and remains at $1.04.</p>\n            ","response":0,"trial_type":"html-button-response","trial_index":124,"time_elapsed":766018,"internal_node_id":"0.0-4.0-1.58","subject_id":"617305abc8cde4cf0e08255b","study_id":"6197b3f67c2b5cd3b6d9596a","session_id":"619be58dfad893d836cb0515","condition":"contingent","relevant_dimensions":["antennae","legs"],"bee_group":{"antennae":"B","wings":"X","pattern":"X","legs":"F"},"bonus":1.4000000000000008},{"rt":940.9000000059605,"stimulus":"bees-with-color/bee-A1SF.svg","response":1,"trial_type":"image-button-response","trial_index":125,"time_elapsed":766960,"internal_node_id":"0.0-4.0-0.59","subject_id":"617305abc8cde4cf0e08255b","study_id":"6197b3f67c2b5cd3b6d9596a","session_id":"619be58dfad893d836cb0515","condition":"contingent","relevant_dimensions":["antennae","legs"],"bee_group":{"antennae":"B","wings":"X","pattern":"X","legs":"F"},"action":"avoid","summary":"bad-avoid","bonus":1.4000000000000008},{"rt":752.5999999940395,"stimulus":"\n                    <p><b>Action: <em>avoid</em></b></p>\n                    <p>This is the bee that you just saw.</p>\n                    <img src=\"bees-with-color/bee-A1SF.svg\" width=\"200\">\n                    <p><br>Your bonus pay is unchanged, and remains at $1.04.</p>\n            ","response":0,"trial_type":"html-button-response","trial_index":126,"time_elapsed":767714,"internal_node_id":"0.0-4.0-1.59","subject_id":"617305abc8cde4cf0e08255b","study_id":"6197b3f67c2b5cd3b6d9596a","session_id":"619be58dfad893d836cb0515","condition":"contingent","relevant_dimensions":["antennae","legs"],"bee_group":{"antennae":"B","wings":"X","pattern":"X","legs":"F"},"bonus":1.4000000000000008},{"rt":956.5,"stimulus":"bees-with-color/bee-B2DM.svg","response":0,"trial_type":"image-button-response","trial_index":127,"time_elapsed":768672,"internal_node_id":"0.0-4.0-0.60","subject_id":"617305abc8cde4cf0e08255b","study_id":"6197b3f67c2b5cd3b6d9596a","session_id":"619be58dfad893d836cb0515","condition":"contingent","relevant_dimensions":["antennae","legs"],"bee_group":{"antennae":"B","wings":"X","pattern":"X","legs":"F"},"action":"harvest","summary":"good-harvest","bonus":1.4000000000000008},{"rt":774.2000000178814,"stimulus":"\n                    <p><b>Action: <em>harvest</em></b></p>\n                    <p>This is the bee that you just saw.</p>\n                    <img src=\"bees-with-color/bee-B2DM.svg\" width=\"200\">\n                    <p><span class=\"greenText\"><b>Successful harvest!</b></span><br>Your pay has increased by $0.02. Your bonus pay is now $1.06.</p>\n            ","response":0,"trial_type":"html-button-response","trial_index":128,"time_elapsed":769448,"internal_node_id":"0.0-4.0-1.60","subject_id":"617305abc8cde4cf0e08255b","study_id":"6197b3f67c2b5cd3b6d9596a","session_id":"619be58dfad893d836cb0515","condition":"contingent","relevant_dimensions":["antennae","legs"],"bee_group":{"antennae":"B","wings":"X","pattern":"X","legs":"F"},"bonus":1.4000000000000008},{"rt":964.4000000059605,"stimulus":"bees-with-color/bee-B1SM.svg","response":0,"trial_type":"image-button-response","trial_index":129,"time_elapsed":770414,"internal_node_id":"0.0-4.0-0.61","subject_id":"617305abc8cde4cf0e08255b","study_id":"6197b3f67c2b5cd3b6d9596a","session_id":"619be58dfad893d836cb0515","condition":"contingent","relevant_dimensions":["antennae","legs"],"bee_group":{"antennae":"B","wings":"X","pattern":"X","legs":"F"},"action":"harvest","summary":"good-harvest","bonus":1.4000000000000008},{"rt":697,"stimulus":"\n                    <p><b>Action: <em>harvest</em></b></p>\n                    <p>This is the bee that you just saw.</p>\n                    <img src=\"bees-with-color/bee-B1SM.svg\" width=\"200\">\n                    <p><span class=\"greenText\"><b>Successful harvest!</b></span><br>Your pay has increased by $0.02. Your bonus pay is now $1.08.</p>\n            ","response":0,"trial_type":"html-button-response","trial_index":130,"time_elapsed":771112,"internal_node_id":"0.0-4.0-1.61","subject_id":"617305abc8cde4cf0e08255b","study_id":"6197b3f67c2b5cd3b6d9596a","session_id":"619be58dfad893d836cb0515","condition":"contingent","relevant_dimensions":["antennae","legs"],"bee_group":{"antennae":"B","wings":"X","pattern":"X","legs":"F"},"bonus":1.4000000000000008},{"rt":1427.0999999940395,"stimulus":"bees-with-color/bee-B1DF.svg","response":1,"trial_type":"image-button-response","trial_index":131,"time_elapsed":772540,"internal_node_id":"0.0-4.0-0.62","subject_id":"617305abc8cde4cf0e08255b","study_id":"6197b3f67c2b5cd3b6d9596a","session_id":"619be58dfad893d836cb0515","condition":"contingent","relevant_dimensions":["antennae","legs"],"bee_group":{"antennae":"B","wings":"X","pattern":"X","legs":"F"},"action":"avoid","summary":"good-avoid","bonus":1.4000000000000008},{"rt":1481.0999999940395,"stimulus":"\n                    <p><b>Action: <em>avoid</em></b></p>\n                    <p>This is the bee that you just saw.</p>\n                    <img src=\"bees-with-color/bee-B1DF.svg\" width=\"200\">\n                    <p><br>Your bonus pay is unchanged, and remains at $1.08.</p>\n            ","response":0,"trial_type":"html-button-response","trial_index":132,"time_elapsed":774023,"internal_node_id":"0.0-4.0-1.62","subject_id":"617305abc8cde4cf0e08255b","study_id":"6197b3f67c2b5cd3b6d9596a","session_id":"619be58dfad893d836cb0515","condition":"contingent","relevant_dimensions":["antennae","legs"],"bee_group":{"antennae":"B","wings":"X","pattern":"X","legs":"F"},"bonus":1.4000000000000008},{"rt":1104,"stimulus":"bees-with-color/bee-A1DF.svg","response":1,"trial_type":"image-button-response","trial_index":133,"time_elapsed":775128,"internal_node_id":"0.0-4.0-0.63","subject_id":"617305abc8cde4cf0e08255b","study_id":"6197b3f67c2b5cd3b6d9596a","session_id":"619be58dfad893d836cb0515","condition":"contingent","relevant_dimensions":["antennae","legs"],"bee_group":{"antennae":"B","wings":"X","pattern":"X","legs":"F"},"action":"avoid","summary":"bad-avoid","bonus":1.4000000000000008},{"rt":642.8000000119209,"stimulus":"\n                    <p><b>Action: <em>avoid</em></b></p>\n                    <p>This is the bee that you just saw.</p>\n                    <img src=\"bees-with-color/bee-A1DF.svg\" width=\"200\">\n                    <p><br>Your bonus pay is unchanged, and remains at $1.08.</p>\n            ","response":0,"trial_type":"html-button-response","trial_index":134,"time_elapsed":775772,"internal_node_id":"0.0-4.0-1.63","subject_id":"617305abc8cde4cf0e08255b","study_id":"6197b3f67c2b5cd3b6d9596a","session_id":"619be58dfad893d836cb0515","condition":"contingent","relevant_dimensions":["antennae","legs"],"bee_group":{"antennae":"B","wings":"X","pattern":"X","legs":"F"},"bonus":1.4000000000000008},{"rt":9022.90000000596,"stimulus":"You have completed the first part of this experiment.<br><br>You will now begin a shorter second part, in which you will receive no feedback.<br>The same rules regarding bonus pay apply.<br><br>Press any key to begin.","response":" ","trial_type":"html-keyboard-response","trial_index":135,"time_elapsed":784796,"internal_node_id":"0.0-5.0","subject_id":"617305abc8cde4cf0e08255b","study_id":"6197b3f67c2b5cd3b6d9596a","session_id":"619be58dfad893d836cb0515","condition":"contingent","relevant_dimensions":["antennae","legs"],"bee_group":{"antennae":"B","wings":"X","pattern":"X","legs":"F"},"bonus":1.4000000000000008},{"rt":2187.399999976158,"stimulus":"bees-with-color/bee-A2DF.svg","response":1,"trial_type":"image-button-response","trial_index":136,"time_elapsed":787007,"internal_node_id":"0.0-6.0-0.0","subject_id":"617305abc8cde4cf0e08255b","study_id":"6197b3f67c2b5cd3b6d9596a","session_id":"619be58dfad893d836cb0515","condition":"contingent","relevant_dimensions":["antennae","legs"],"bee_group":{"antennae":"B","wings":"X","pattern":"X","legs":"F"},"bonus":1.4000000000000008},{"rt":2054.199999988079,"stimulus":"bees-with-color/bee-A1SF.svg","response":1,"trial_type":"image-button-response","trial_index":137,"time_elapsed":789062,"internal_node_id":"0.0-6.0-0.1","subject_id":"617305abc8cde4cf0e08255b","study_id":"6197b3f67c2b5cd3b6d9596a","session_id":"619be58dfad893d836cb0515","condition":"contingent","relevant_dimensions":["antennae","legs"],"bee_group":{"antennae":"B","wings":"X","pattern":"X","legs":"F"},"bonus":1.4000000000000008},{"rt":782.2999999821186,"stimulus":"bees-with-color/bee-B2DF.svg","response":1,"trial_type":"image-button-response","trial_index":138,"time_elapsed":789846,"internal_node_id":"0.0-6.0-0.2","subject_id":"617305abc8cde4cf0e08255b","study_id":"6197b3f67c2b5cd3b6d9596a","session_id":"619be58dfad893d836cb0515","condition":"contingent","relevant_dimensions":["antennae","legs"],"bee_group":{"antennae":"B","wings":"X","pattern":"X","legs":"F"},"bonus":1.4000000000000008},{"rt":1248.199999988079,"stimulus":"bees-with-color/bee-B1DM.svg","response":0,"trial_type":"image-button-response","trial_index":139,"time_elapsed":791096,"internal_node_id":"0.0-6.0-0.3","subject_id":"617305abc8cde4cf0e08255b","study_id":"6197b3f67c2b5cd3b6d9596a","session_id":"619be58dfad893d836cb0515","condition":"contingent","relevant_dimensions":["antennae","legs"],"bee_group":{"antennae":"B","wings":"X","pattern":"X","legs":"F"},"bonus":1.4000000000000008},{"rt":772.5,"stimulus":"bees-with-color/bee-A1SM.svg","response":0,"trial_type":"image-button-response","trial_index":140,"time_elapsed":791871,"internal_node_id":"0.0-6.0-0.4","subject_id":"617305abc8cde4cf0e08255b","study_id":"6197b3f67c2b5cd3b6d9596a","session_id":"619be58dfad893d836cb0515","condition":"contingent","relevant_dimensions":["antennae","legs"],"bee_group":{"antennae":"B","wings":"X","pattern":"X","legs":"F"},"bonus":1.4000000000000008},{"rt":1176.300000011921,"stimulus":"bees-with-color/bee-A2SM.svg","response":0,"trial_type":"image-button-response","trial_index":141,"time_elapsed":793049,"internal_node_id":"0.0-6.0-0.5","subject_id":"617305abc8cde4cf0e08255b","study_id":"6197b3f67c2b5cd3b6d9596a","session_id":"619be58dfad893d836cb0515","condition":"contingent","relevant_dimensions":["antennae","legs"],"bee_group":{"antennae":"B","wings":"X","pattern":"X","legs":"F"},"bonus":1.4000000000000008},{"rt":1254,"stimulus":"bees-with-color/bee-B2SF.svg","response":1,"trial_type":"image-button-response","trial_index":142,"time_elapsed":794305,"internal_node_id":"0.0-6.0-0.6","subject_id":"617305abc8cde4cf0e08255b","study_id":"6197b3f67c2b5cd3b6d9596a","session_id":"619be58dfad893d836cb0515","condition":"contingent","relevant_dimensions":["antennae","legs"],"bee_group":{"antennae":"B","wings":"X","pattern":"X","legs":"F"},"bonus":1.4000000000000008},{"rt":2776.4000000059605,"stimulus":"bees-with-color/bee-A2DM.svg","response":0,"trial_type":"image-button-response","trial_index":143,"time_elapsed":797083,"internal_node_id":"0.0-6.0-0.7","subject_id":"617305abc8cde4cf0e08255b","study_id":"6197b3f67c2b5cd3b6d9596a","session_id":"619be58dfad893d836cb0515","condition":"contingent","relevant_dimensions":["antennae","legs"],"bee_group":{"antennae":"B","wings":"X","pattern":"X","legs":"F"},"bonus":1.4000000000000008},{"rt":1158,"stimulus":"bees-with-color/bee-A2SF.svg","response":1,"trial_type":"image-button-response","trial_index":144,"time_elapsed":798243,"internal_node_id":"0.0-6.0-0.8","subject_id":"617305abc8cde4cf0e08255b","study_id":"6197b3f67c2b5cd3b6d9596a","session_id":"619be58dfad893d836cb0515","condition":"contingent","relevant_dimensions":["antennae","legs"],"bee_group":{"antennae":"B","wings":"X","pattern":"X","legs":"F"},"bonus":1.4000000000000008},{"rt":728.3000000119209,"stimulus":"bees-with-color/bee-B2DM.svg","response":0,"trial_type":"image-button-response","trial_index":145,"time_elapsed":798973,"internal_node_id":"0.0-6.0-0.9","subject_id":"617305abc8cde4cf0e08255b","study_id":"6197b3f67c2b5cd3b6d9596a","session_id":"619be58dfad893d836cb0515","condition":"contingent","relevant_dimensions":["antennae","legs"],"bee_group":{"antennae":"B","wings":"X","pattern":"X","legs":"F"},"bonus":1.4000000000000008},{"rt":1018.5,"stimulus":"bees-with-color/bee-B1DF.svg","response":1,"trial_type":"image-button-response","trial_index":146,"time_elapsed":799993,"internal_node_id":"0.0-6.0-0.10","subject_id":"617305abc8cde4cf0e08255b","study_id":"6197b3f67c2b5cd3b6d9596a","session_id":"619be58dfad893d836cb0515","condition":"contingent","relevant_dimensions":["antennae","legs"],"bee_group":{"antennae":"B","wings":"X","pattern":"X","legs":"F"},"bonus":1.4000000000000008},{"rt":704.3000000119209,"stimulus":"bees-with-color/bee-A1DM.svg","response":0,"trial_type":"image-button-response","trial_index":147,"time_elapsed":800699,"internal_node_id":"0.0-6.0-0.11","subject_id":"617305abc8cde4cf0e08255b","study_id":"6197b3f67c2b5cd3b6d9596a","session_id":"619be58dfad893d836cb0515","condition":"contingent","relevant_dimensions":["antennae","legs"],"bee_group":{"antennae":"B","wings":"X","pattern":"X","legs":"F"},"bonus":1.4000000000000008},{"rt":1230.0999999940395,"stimulus":"bees-with-color/bee-B1SM.svg","response":0,"trial_type":"image-button-response","trial_index":148,"time_elapsed":801931,"internal_node_id":"0.0-6.0-0.12","subject_id":"617305abc8cde4cf0e08255b","study_id":"6197b3f67c2b5cd3b6d9596a","session_id":"619be58dfad893d836cb0515","condition":"contingent","relevant_dimensions":["antennae","legs"],"bee_group":{"antennae":"B","wings":"X","pattern":"X","legs":"F"},"bonus":1.4000000000000008},{"rt":596.0999999940395,"stimulus":"bees-with-color/bee-B2SM.svg","response":0,"trial_type":"image-button-response","trial_index":149,"time_elapsed":802528,"internal_node_id":"0.0-6.0-0.13","subject_id":"617305abc8cde4cf0e08255b","study_id":"6197b3f67c2b5cd3b6d9596a","session_id":"619be58dfad893d836cb0515","condition":"contingent","relevant_dimensions":["antennae","legs"],"bee_group":{"antennae":"B","wings":"X","pattern":"X","legs":"F"},"bonus":1.4000000000000008},{"rt":1401.8999999761581,"stimulus":"bees-with-color/bee-A1DF.svg","response":1,"trial_type":"image-button-response","trial_index":150,"time_elapsed":803933,"internal_node_id":"0.0-6.0-0.14","subject_id":"617305abc8cde4cf0e08255b","study_id":"6197b3f67c2b5cd3b6d9596a","session_id":"619be58dfad893d836cb0515","condition":"contingent","relevant_dimensions":["antennae","legs"],"bee_group":{"antennae":"B","wings":"X","pattern":"X","legs":"F"},"bonus":1.4000000000000008},{"rt":720.3000000119209,"stimulus":"bees-with-color/bee-B1SF.svg","response":1,"trial_type":"image-button-response","trial_index":151,"time_elapsed":804655,"internal_node_id":"0.0-6.0-0.15","subject_id":"617305abc8cde4cf0e08255b","study_id":"6197b3f67c2b5cd3b6d9596a","session_id":"619be58dfad893d836cb0515","condition":"contingent","relevant_dimensions":["antennae","legs"],"bee_group":{"antennae":"B","wings":"X","pattern":"X","legs":"F"},"bonus":1.4000000000000008},{"rt":540.1000000238419,"stimulus":"bees-with-color/bee-B2SF.svg","response":1,"trial_type":"image-button-response","trial_index":152,"time_elapsed":805197,"internal_node_id":"0.0-6.0-0.16","subject_id":"617305abc8cde4cf0e08255b","study_id":"6197b3f67c2b5cd3b6d9596a","session_id":"619be58dfad893d836cb0515","condition":"contingent","relevant_dimensions":["antennae","legs"],"bee_group":{"antennae":"B","wings":"X","pattern":"X","legs":"F"},"bonus":1.4000000000000008},{"rt":640.6000000238419,"stimulus":"bees-with-color/bee-B1SF.svg","response":1,"trial_type":"image-button-response","trial_index":153,"time_elapsed":805839,"internal_node_id":"0.0-6.0-0.17","subject_id":"617305abc8cde4cf0e08255b","study_id":"6197b3f67c2b5cd3b6d9596a","session_id":"619be58dfad893d836cb0515","condition":"contingent","relevant_dimensions":["antennae","legs"],"bee_group":{"antennae":"B","wings":"X","pattern":"X","legs":"F"},"bonus":1.4000000000000008},{"rt":1058.5,"stimulus":"bees-with-color/bee-B2DM.svg","response":0,"trial_type":"image-button-response","trial_index":154,"time_elapsed":806898,"internal_node_id":"0.0-6.0-0.18","subject_id":"617305abc8cde4cf0e08255b","study_id":"6197b3f67c2b5cd3b6d9596a","session_id":"619be58dfad893d836cb0515","condition":"contingent","relevant_dimensions":["antennae","legs"],"bee_group":{"antennae":"B","wings":"X","pattern":"X","legs":"F"},"bonus":1.4000000000000008},{"rt":626.5999999940395,"stimulus":"bees-with-color/bee-A1SM.svg","response":0,"trial_type":"image-button-response","trial_index":155,"time_elapsed":807527,"internal_node_id":"0.0-6.0-0.19","subject_id":"617305abc8cde4cf0e08255b","study_id":"6197b3f67c2b5cd3b6d9596a","session_id":"619be58dfad893d836cb0515","condition":"contingent","relevant_dimensions":["antennae","legs"],"bee_group":{"antennae":"B","wings":"X","pattern":"X","legs":"F"},"bonus":1.4000000000000008},{"rt":1034.5,"stimulus":"bees-with-color/bee-A2SF.svg","response":1,"trial_type":"image-button-response","trial_index":156,"time_elapsed":808563,"internal_node_id":"0.0-6.0-0.20","subject_id":"617305abc8cde4cf0e08255b","study_id":"6197b3f67c2b5cd3b6d9596a","session_id":"619be58dfad893d836cb0515","condition":"contingent","relevant_dimensions":["antennae","legs"],"bee_group":{"antennae":"B","wings":"X","pattern":"X","legs":"F"},"bonus":1.4000000000000008},{"rt":876.5999999940395,"stimulus":"bees-with-color/bee-A1DF.svg","response":1,"trial_type":"image-button-response","trial_index":157,"time_elapsed":809441,"internal_node_id":"0.0-6.0-0.21","subject_id":"617305abc8cde4cf0e08255b","study_id":"6197b3f67c2b5cd3b6d9596a","session_id":"619be58dfad893d836cb0515","condition":"contingent","relevant_dimensions":["antennae","legs"],"bee_group":{"antennae":"B","wings":"X","pattern":"X","legs":"F"},"bonus":1.4000000000000008},{"rt":830.7000000178814,"stimulus":"bees-with-color/bee-A2DM.svg","response":0,"trial_type":"image-button-response","trial_index":158,"time_elapsed":810273,"internal_node_id":"0.0-6.0-0.22","subject_id":"617305abc8cde4cf0e08255b","study_id":"6197b3f67c2b5cd3b6d9596a","session_id":"619be58dfad893d836cb0515","condition":"contingent","relevant_dimensions":["antennae","legs"],"bee_group":{"antennae":"B","wings":"X","pattern":"X","legs":"F"},"bonus":1.4000000000000008},{"rt":886.5,"stimulus":"bees-with-color/bee-B1SM.svg","response":0,"trial_type":"image-button-response","trial_index":159,"time_elapsed":811160,"internal_node_id":"0.0-6.0-0.23","subject_id":"617305abc8cde4cf0e08255b","study_id":"6197b3f67c2b5cd3b6d9596a","session_id":"619be58dfad893d836cb0515","condition":"contingent","relevant_dimensions":["antennae","legs"],"bee_group":{"antennae":"B","wings":"X","pattern":"X","legs":"F"},"bonus":1.4000000000000008},{"rt":1590.7000000178814,"stimulus":"bees-with-color/bee-A2DF.svg","response":1,"trial_type":"image-button-response","trial_index":160,"time_elapsed":812753,"internal_node_id":"0.0-6.0-0.24","subject_id":"617305abc8cde4cf0e08255b","study_id":"6197b3f67c2b5cd3b6d9596a","session_id":"619be58dfad893d836cb0515","condition":"contingent","relevant_dimensions":["antennae","legs"],"bee_group":{"antennae":"B","wings":"X","pattern":"X","legs":"F"},"bonus":1.4000000000000008},{"rt":838.3999999761581,"stimulus":"bees-with-color/bee-A2SM.svg","response":0,"trial_type":"image-button-response","trial_index":161,"time_elapsed":813592,"internal_node_id":"0.0-6.0-0.25","subject_id":"617305abc8cde4cf0e08255b","study_id":"6197b3f67c2b5cd3b6d9596a","session_id":"619be58dfad893d836cb0515","condition":"contingent","relevant_dimensions":["antennae","legs"],"bee_group":{"antennae":"B","wings":"X","pattern":"X","legs":"F"},"bonus":1.4000000000000008},{"rt":728.7000000178814,"stimulus":"bees-with-color/bee-B1DF.svg","response":1,"trial_type":"image-button-response","trial_index":162,"time_elapsed":814323,"internal_node_id":"0.0-6.0-0.26","subject_id":"617305abc8cde4cf0e08255b","study_id":"6197b3f67c2b5cd3b6d9596a","session_id":"619be58dfad893d836cb0515","condition":"contingent","relevant_dimensions":["antennae","legs"],"bee_group":{"antennae":"B","wings":"X","pattern":"X","legs":"F"},"bonus":1.4000000000000008},{"rt":688.5,"stimulus":"bees-with-color/bee-A1DM.svg","response":0,"trial_type":"image-button-response","trial_index":163,"time_elapsed":815013,"internal_node_id":"0.0-6.0-0.27","subject_id":"617305abc8cde4cf0e08255b","study_id":"6197b3f67c2b5cd3b6d9596a","session_id":"619be58dfad893d836cb0515","condition":"contingent","relevant_dimensions":["antennae","legs"],"bee_group":{"antennae":"B","wings":"X","pattern":"X","legs":"F"},"bonus":1.4000000000000008},{"rt":704.6000000238419,"stimulus":"bees-with-color/bee-B2SM.svg","response":0,"trial_type":"image-button-response","trial_index":164,"time_elapsed":815719,"internal_node_id":"0.0-6.0-0.28","subject_id":"617305abc8cde4cf0e08255b","study_id":"6197b3f67c2b5cd3b6d9596a","session_id":"619be58dfad893d836cb0515","condition":"contingent","relevant_dimensions":["antennae","legs"],"bee_group":{"antennae":"B","wings":"X","pattern":"