[{"success":true,"trial_type":"fullscreen","trial_index":0,"time_elapsed":24118,"internal_node_id":"0.0-0.0","subject_id":"5f38c9aa0c68ee3f7c72f7b4","study_id":"60edd13110225f80f9f3709b","session_id":"6196c7045683802cdfede352","condition":"contingent","relevant_dimensions":["wings","pattern"],"bee_group":{"antennae":"X","wings":"2","pattern":"D","legs":"X"},"bonus":1.300000000000001},{"success":true,"timeout":false,"failed_images":[],"failed_audio":[],"failed_video":[],"trial_type":"preload","trial_index":1,"time_elapsed":25220,"internal_node_id":"0.0-1.0","subject_id":"5f38c9aa0c68ee3f7c72f7b4","study_id":"60edd13110225f80f9f3709b","session_id":"6196c7045683802cdfede352","condition":"contingent","relevant_dimensions":["wings","pattern"],"bee_group":{"antennae":"X","wings":"2","pattern":"D","legs":"X"},"bonus":1.300000000000001},{"rt":5844.5,"stimulus":"Welcome! Press any key to begin.","response":"enter","trial_type":"html-keyboard-response","trial_index":2,"time_elapsed":31066,"internal_node_id":"0.0-2.0","subject_id":"5f38c9aa0c68ee3f7c72f7b4","study_id":"60edd13110225f80f9f3709b","session_id":"6196c7045683802cdfede352","condition":"contingent","relevant_dimensions":["wings","pattern"],"bee_group":{"antennae":"X","wings":"2","pattern":"D","legs":"X"},"bonus":1.300000000000001},{"view_history":[{"page_index":0,"viewing_time":5013.300000011921},{"page_index":1,"viewing_time":21440.099999964237},{"page_index":2,"viewing_time":14703.800000011921},{"page_index":3,"viewing_time":34503.80000001192},{"page_index":4,"viewing_time":8040},{"page_index":5,"viewing_time":7697.300000011921},{"page_index":6,"viewing_time":13711.699999988079},{"page_index":7,"viewing_time":3703},{"page_index":6,"viewing_time":1880},{"page_index":5,"viewing_time":8096.300000011921},{"page_index":6,"viewing_time":19824.69999998808},{"page_index":7,"viewing_time":3927},{"page_index":6,"viewing_time":12959.899999976158},{"page_index":7,"viewing_time":3625.100000023842},{"page_index":8,"viewing_time":5543.199999988079},{"page_index":9,"viewing_time":1815.800000011921},{"page_index":10,"viewing_time":2911.899999976158},{"page_index":9,"viewing_time":232.30000001192093},{"page_index":8,"viewing_time":183.9000000357628},{"page_index":7,"viewing_time":192.29999995231628},{"page_index":6,"viewing_time":8519.800000011921},{"page_index":7,"viewing_time":1047.9000000357628},{"page_index":8,"viewing_time":440},{"page_index":9,"viewing_time":488.19999998807907},{"page_index":10,"viewing_time":1344.3999999761581},{"page_index":11,"viewing_time":12343.900000035763},{"page_index":12,"viewing_time":5087.699999988079},{"page_index":13,"viewing_time":1655.800000011921},{"page_index":12,"viewing_time":7432.399999976158},{"page_index":13,"viewing_time":1111.300000011921},{"page_index":14,"viewing_time":1216.300000011921}],"rt":210693.39999997616,"trial_type":"instructions","trial_index":3,"time_elapsed":241760,"internal_node_id":"0.0-3.0-0.0","subject_id":"5f38c9aa0c68ee3f7c72f7b4","study_id":"60edd13110225f80f9f3709b","session_id":"6196c7045683802cdfede352","condition":"contingent","relevant_dimensions":["wings","pattern"],"bee_group":{"antennae":"X","wings":"2","pattern":"D","legs":"X"},"bonus":1.300000000000001},{"rt":18779.599999964237,"response":{"Q0":["Two or six legs","Stripes or spots on body","Single or double wings","Antennae or no antennae"]},"question_order":[0],"trial_type":"survey-multi-select","trial_index":4,"time_elapsed":260545,"internal_node_id":"0.0-3.0-1.0","subject_id":"5f38c9aa0c68ee3f7c72f7b4","study_id":"60edd13110225f80f9f3709b","session_id":"6196c7045683802cdfede352","condition":"contingent","relevant_dimensions":["wings","pattern"],"bee_group":{"antennae":"X","wings":"2","pattern":"D","legs":"X"},"correct":true,"bonus":1.300000000000001},{"rt":27870.099999964237,"response":{"Q1":"No.","Q2":"Based on the four features of the bee.","Q3":"You do not learn if it was friendly or dangerous, and do not alter your bonus."},"question_order":[0,1,2],"trial_type":"survey-multi-choice","trial_index":5,"time_elapsed":288417,"internal_node_id":"0.0-3.0-2.0","subject_id":"5f38c9aa0c68ee3f7c72f7b4","study_id":"60edd13110225f80f9f3709b","session_id":"6196c7045683802cdfede352","condition":"contingent","relevant_dimensions":["wings","pattern"],"bee_group":{"antennae":"X","wings":"2","pattern":"D","legs":"X"},"correct":true,"bonus":1.300000000000001},{"rt":1926.3999999761581,"stimulus":"<p>Congrats, you got everything right<br>When you're ready, click the button below to continue to the experiment.</p>","response":0,"trial_type":"html-button-response","trial_index":6,"time_elapsed":290345,"internal_node_id":"0.0-3.0-3.0","subject_id":"5f38c9aa0c68ee3f7c72f7b4","study_id":"60edd13110225f80f9f3709b","session_id":"6196c7045683802cdfede352","condition":"contingent","relevant_dimensions":["wings","pattern"],"bee_group":{"antennae":"X","wings":"2","pattern":"D","legs":"X"},"bonus":1.300000000000001},{"rt":6245.700000047684,"stimulus":"bees-with-color/bee-A2DM.svg","response":0,"trial_type":"image-button-response","trial_index":7,"time_elapsed":296593,"internal_node_id":"0.0-4.0-0.0","subject_id":"5f38c9aa0c68ee3f7c72f7b4","study_id":"60edd13110225f80f9f3709b","session_id":"6196c7045683802cdfede352","condition":"contingent","relevant_dimensions":["wings","pattern"],"bee_group":{"antennae":"X","wings":"2","pattern":"D","legs":"X"},"action":"harvest","summary":"bad-harvest","bonus":1.300000000000001},{"rt":18838,"stimulus":"\n                    <p><b>Action: <em>harvest</em></b></p>\n                    <p>This is the bee that you just saw.</p>\n                    <img src=\"bees-with-color/bee-A2DM.svg\" width=\"200\">\n                    <p><span class=\"redText\">Bad choice, the bee was angry.</span><br><b>You have been stung!</b><br>Your pay has been decreased by $0.10. Your bonus pay is now $0.44.</p>\n            ","response":0,"trial_type":"html-button-response","trial_index":8,"time_elapsed":315432,"internal_node_id":"0.0-4.0-1.0","subject_id":"5f38c9aa0c68ee3f7c72f7b4","study_id":"60edd13110225f80f9f3709b","session_id":"6196c7045683802cdfede352","condition":"contingent","relevant_dimensions":["wings","pattern"],"bee_group":{"antennae":"X","wings":"2","pattern":"D","legs":"X"},"bonus":1.300000000000001},{"rt":4038.199999988079,"stimulus":"bees-with-color/bee-A2DF.svg","response":1,"trial_type":"image-button-response","trial_index":9,"time_elapsed":319472,"internal_node_id":"0.0-4.0-0.1","subject_id":"5f38c9aa0c68ee3f7c72f7b4","study_id":"60edd13110225f80f9f3709b","session_id":"6196c7045683802cdfede352","condition":"contingent","relevant_dimensions":["wings","pattern"],"bee_group":{"antennae":"X","wings":"2","pattern":"D","legs":"X"},"action":"avoid","summary":"good-avoid","bonus":1.300000000000001},{"rt":2766.199999988079,"stimulus":"\n                    <p><b>Action: <em>avoid</em></b></p>\n                    <p>This is the bee that you just saw.</p>\n                    <img src=\"bees-with-color/bee-A2DF.svg\" width=\"200\">\n                    <p><br>Your bonus pay is unchanged, and remains at $0.44.</p>\n            ","response":0,"trial_type":"html-button-response","trial_index":10,"time_elapsed":322240,"internal_node_id":"0.0-4.0-1.1","subject_id":"5f38c9aa0c68ee3f7c72f7b4","study_id":"60edd13110225f80f9f3709b","session_id":"6196c7045683802cdfede352","condition":"contingent","relevant_dimensions":["wings","pattern"],"bee_group":{"antennae":"X","wings":"2","pattern":"D","legs":"X"},"bonus":1.300000000000001},{"rt":2030.699999988079,"stimulus":"bees-with-color/bee-B1SF.svg","response":0,"trial_type":"image-button-response","trial_index":11,"time_elapsed":324272,"internal_node_id":"0.0-4.0-0.2","subject_id":"5f38c9aa0c68ee3f7c72f7b4","study_id":"60edd13110225f80f9f3709b","session_id":"6196c7045683802cdfede352","condition":"contingent","relevant_dimensions":["wings","pattern"],"bee_group":{"antennae":"X","wings":"2","pattern":"D","legs":"X"},"action":"harvest","summary":"good-harvest","bonus":1.300000000000001},{"rt":3606.699999988079,"stimulus":"\n                    <p><b>Action: <em>harvest</em></b></p>\n                    <p>This is the bee that you just saw.</p>\n                    <img src=\"bees-with-color/bee-B1SF.svg\" width=\"200\">\n                    <p><span class=\"greenText\"><b>Successful harvest!</b></span><br>Your pay has increased by $0.02. Your bonus pay is now $0.46.</p>\n            ","response":0,"trial_type":"html-button-response","trial_index":12,"time_elapsed":327880,"internal_node_id":"0.0-4.0-1.2","subject_id":"5f38c9aa0c68ee3f7c72f7b4","study_id":"60edd13110225f80f9f3709b","session_id":"6196c7045683802cdfede352","condition":"contingent","relevant_dimensions":["wings","pattern"],"bee_group":{"antennae":"X","wings":"2","pattern":"D","legs":"X"},"bonus":1.300000000000001},{"rt":3510.099999964237,"stimulus":"bees-with-color/bee-B2SF.svg","response":0,"trial_type":"image-button-response","trial_index":13,"time_elapsed":331392,"internal_node_id":"0.0-4.0-0.3","subject_id":"5f38c9aa0c68ee3f7c72f7b4","study_id":"60edd13110225f80f9f3709b","session_id":"6196c7045683802cdfede352","condition":"contingent","relevant_dimensions":["wings","pattern"],"bee_group":{"antennae":"X","wings":"2","pattern":"D","legs":"X"},"action":"harvest","summary":"good-harvest","bonus":1.300000000000001},{"rt":4430.5,"stimulus":"\n                    <p><b>Action: <em>harvest</em></b></p>\n                    <p>This is the bee that you just saw.</p>\n                    <img src=\"bees-with-color/bee-B2SF.svg\" width=\"200\">\n                    <p><span class=\"greenText\"><b>Successful harvest!</b></span><br>Your pay has increased by $0.02. Your bonus pay is now $0.48.</p>\n            ","response":0,"trial_type":"html-button-response","trial_index":14,"time_elapsed":335824,"internal_node_id":"0.0-4.0-1.3","subject_id":"5f38c9aa0c68ee3f7c72f7b4","study_id":"60edd13110225f80f9f3709b","session_id":"6196c7045683802cdfede352","condition":"contingent","relevant_dimensions":["wings","pattern"],"bee_group":{"antennae":"X","wings":"2","pattern":"D","legs":"X"},"bonus":1.300000000000001},{"rt":1966.300000011921,"stimulus":"bees-with-color/bee-B1DF.svg","response":0,"trial_type":"image-button-response","trial_index":15,"time_elapsed":337792,"internal_node_id":"0.0-4.0-0.4","subject_id":"5f38c9aa0c68ee3f7c72f7b4","study_id":"60edd13110225f80f9f3709b","session_id":"6196c7045683802cdfede352","condition":"contingent","relevant_dimensions":["wings","pattern"],"bee_group":{"antennae":"X","wings":"2","pattern":"D","legs":"X"},"action":"harvest","summary":"good-harvest","bonus":1.300000000000001},{"rt":1470.5,"stimulus":"\n                    <p><b>Action: <em>harvest</em></b></p>\n                    <p>This is the bee that you just saw.</p>\n                    <img src=\"bees-with-color/bee-B1DF.svg\" width=\"200\">\n                    <p><span class=\"greenText\"><b>Successful harvest!</b></span><br>Your pay has increased by $0.02. Your bonus pay is now $0.50.</p>\n            ","response":0,"trial_type":"html-button-response","trial_index":16,"time_elapsed":339264,"internal_node_id":"0.0-4.0-1.4","subject_id":"5f38c9aa0c68ee3f7c72f7b4","study_id":"60edd13110225f80f9f3709b","session_id":"6196c7045683802cdfede352","condition":"contingent","relevant_dimensions":["wings","pattern"],"bee_group":{"antennae":"X","wings":"2","pattern":"D","legs":"X"},"bonus":1.300000000000001},{"rt":2319.400000035763,"stimulus":"bees-with-color/bee-A1SM.svg","response":1,"trial_type":"image-button-response","trial_index":17,"time_elapsed":341584,"internal_node_id":"0.0-4.0-0.5","subject_id":"5f38c9aa0c68ee3f7c72f7b4","study_id":"60edd13110225f80f9f3709b","session_id":"6196c7045683802cdfede352","condition":"contingent","relevant_dimensions":["wings","pattern"],"bee_group":{"antennae":"X","wings":"2","pattern":"D","legs":"X"},"action":"avoid","summary":"bad-avoid","bonus":1.300000000000001},{"rt":1038.5,"stimulus":"\n                    <p><b>Action: <em>avoid</em></b></p>\n                    <p>This is the bee that you just saw.</p>\n                    <img src=\"bees-with-color/bee-A1SM.svg\" width=\"200\">\n                    <p><br>Your bonus pay is unchanged, and remains at $0.50.</p>\n            ","response":0,"trial_type":"html-button-response","trial_index":18,"time_elapsed":342624,"internal_node_id":"0.0-4.0-1.5","subject_id":"5f38c9aa0c68ee3f7c72f7b4","study_id":"60edd13110225f80f9f3709b","session_id":"6196c7045683802cdfede352","condition":"contingent","relevant_dimensions":["wings","pattern"],"bee_group":{"antennae":"X","wings":"2","pattern":"D","legs":"X"},"bonus":1.300000000000001},{"rt":2525.900000035763,"stimulus":"bees-with-color/bee-B1SM.svg","response":0,"trial_type":"image-button-response","trial_index":19,"time_elapsed":345152,"internal_node_id":"0.0-4.0-0.6","subject_id":"5f38c9aa0c68ee3f7c72f7b4","study_id":"60edd13110225f80f9f3709b","session_id":"6196c7045683802cdfede352","condition":"contingent","relevant_dimensions":["wings","pattern"],"bee_group":{"antennae":"X","wings":"2","pattern":"D","legs":"X"},"action":"harvest","summary":"good-harvest","bonus":1.300000000000001},{"rt":1438.8999999761581,"stimulus":"\n                    <p><b>Action: <em>harvest</em></b></p>\n                    <p>This is the bee that you just saw.</p>\n                    <img src=\"bees-with-color/bee-B1SM.svg\" width=\"200\">\n                    <p><span class=\"greenText\"><b>Successful harvest!</b></span><br>Your pay has increased by $0.02. Your bonus pay is now $0.52.</p>\n            ","response":0,"trial_type":"html-button-response","trial_index":20,"time_elapsed":346592,"internal_node_id":"0.0-4.0-1.6","subject_id":"5f38c9aa0c68ee3f7c72f7b4","study_id":"60edd13110225f80f9f3709b","session_id":"6196c7045683802cdfede352","condition":"contingent","relevant_dimensions":["wings","pattern"],"bee_group":{"antennae":"X","wings":"2","pattern":"D","legs":"X"},"bonus":1.300000000000001},{"rt":2733.900000035763,"stimulus":"bees-with-color/bee-A2SM.svg","response":0,"trial_type":"image-button-response","trial_index":21,"time_elapsed":349328,"internal_node_id":"0.0-4.0-0.7","subject_id":"5f38c9aa0c68ee3f7c72f7b4","study_id":"60edd13110225f80f9f3709b","session_id":"6196c7045683802cdfede352","condition":"contingent","relevant_dimensions":["wings","pattern"],"bee_group":{"antennae":"X","wings":"2","pattern":"D","legs":"X"},"action":"harvest","summary":"good-harvest","bonus":1.300000000000001},{"rt":1062.800000011921,"stimulus":"\n                    <p><b>Action: <em>harvest</em></b></p>\n                    <p>This is the bee that you just saw.</p>\n                    <img src=\"bees-with-color/bee-A2SM.svg\" width=\"200\">\n                    <p><span class=\"greenText\"><b>Successful harvest!</b></span><br>Your pay has increased by $0.02. Your bonus pay is now $0.54.</p>\n            ","response":0,"trial_type":"html-button-response","trial_index":22,"time_elapsed":350392,"internal_node_id":"0.0-4.0-1.7","subject_id":"5f38c9aa0c68ee3f7c72f7b4","study_id":"60edd13110225f80f9f3709b","session_id":"6196c7045683802cdfede352","condition":"contingent","relevant_dimensions":["wings","pattern"],"bee_group":{"antennae":"X","wings":"2","pattern":"D","legs":"X"},"bonus":1.300000000000001},{"rt":2231.100000023842,"stimulus":"bees-with-color/bee-A1DM.svg","response":0,"trial_type":"image-button-response","trial_index":23,"time_elapsed":352625,"internal_node_id":"0.0-4.0-0.8","subject_id":"5f38c9aa0c68ee3f7c72f7b4","study_id":"60edd13110225f80f9f3709b","session_id":"6196c7045683802cdfede352","condition":"contingent","relevant_dimensions":["wings","pattern"],"bee_group":{"antennae":"X","wings":"2","pattern":"D","legs":"X"},"action":"harvest","summary":"good-harvest","bonus":1.300000000000001},{"rt":781.7000000476837,"stimulus":"\n                    <p><b>Action: <em>harvest</em></b></p>\n                    <p>This is the bee that you just saw.</p>\n                    <img src=\"bees-with-color/bee-A1DM.svg\" width=\"200\">\n                    <p><span class=\"greenText\"><b>Successful harvest!</b></span><br>Your pay has increased by $0.02. Your bonus pay is now $0.56.</p>\n            ","response":0,"trial_type":"html-button-response","trial_index":24,"time_elapsed":353408,"internal_node_id":"0.0-4.0-1.8","subject_id":"5f38c9aa0c68ee3f7c72f7b4","study_id":"60edd13110225f80f9f3709b","session_id":"6196c7045683802cdfede352","condition":"contingent","relevant_dimensions":["wings","pattern"],"bee_group":{"antennae":"X","wings":"2","pattern":"D","legs":"X"},"bonus":1.300000000000001},{"rt":5646.899999976158,"stimulus":"bees-with-color/bee-B2DM.svg","response":1,"trial_type":"image-button-response","trial_index":25,"time_elapsed":359056,"internal_node_id":"0.0-4.0-0.9","subject_id":"5f38c9aa0c68ee3f7c72f7b4","study_id":"60edd13110225f80f9f3709b","session_id":"6196c7045683802cdfede352","condition":"contingent","relevant_dimensions":["wings","pattern"],"bee_group":{"antennae":"X","wings":"2","pattern":"D","legs":"X"},"action":"avoid","summary":"good-avoid","bonus":1.300000000000001},{"rt":1086.5,"stimulus":"\n                    <p><b>Action: <em>avoid</em></b></p>\n                    <p>This is the bee that you just saw.</p>\n                    <img src=\"bees-with-color/bee-B2DM.svg\" width=\"200\">\n                    <p><br>Your bonus pay is unchanged, and remains at $0.56.</p>\n            ","response":0,"trial_type":"html-button-response","trial_index":26,"time_elapsed":360144,"internal_node_id":"0.0-4.0-1.9","subject_id":"5f38c9aa0c68ee3f7c72f7b4","study_id":"60edd13110225f80f9f3709b","session_id":"6196c7045683802cdfede352","condition":"contingent","relevant_dimensions":["wings","pattern"],"bee_group":{"antennae":"X","wings":"2","pattern":"D","legs":"X"},"bonus":1.300000000000001},{"rt":1095.1000000238419,"stimulus":"bees-with-color/bee-A1DF.svg","response":1,"trial_type":"image-button-response","trial_index":27,"time_elapsed":361240,"internal_node_id":"0.0-4.0-0.10","subject_id":"5f38c9aa0c68ee3f7c72f7b4","study_id":"60edd13110225f80f9f3709b","session_id":"6196c7045683802cdfede352","condition":"contingent","relevant_dimensions":["wings","pattern"],"bee_group":{"antennae":"X","wings":"2","pattern":"D","legs":"X"},"action":"avoid","summary":"bad-avoid","bonus":1.300000000000001},{"rt":534,"stimulus":"\n                    <p><b>Action: <em>avoid</em></b></p>\n                    <p>This is the bee that you just saw.</p>\n                    <img src=\"bees-with-color/bee-A1DF.svg\" width=\"200\">\n                    <p><br>Your bonus pay is unchanged, and remains at $0.56.</p>\n            ","response":0,"trial_type":"html-button-response","trial_index":28,"time_elapsed":361776,"internal_node_id":"0.0-4.0-1.10","subject_id":"5f38c9aa0c68ee3f7c72f7b4","study_id":"60edd13110225f80f9f3709b","session_id":"6196c7045683802cdfede352","condition":"contingent","relevant_dimensions":["wings","pattern"],"bee_group":{"antennae":"X","wings":"2","pattern":"D","legs":"X"},"bonus":1.300000000000001},{"rt":1670.8999999761581,"stimulus":"bees-with-color/bee-B2DF.svg","response":1,"trial_type":"image-button-response","trial_index":29,"time_elapsed":363448,"internal_node_id":"0.0-4.0-0.11","subject_id":"5f38c9aa0c68ee3f7c72f7b4","study_id":"60edd13110225f80f9f3709b","session_id":"6196c7045683802cdfede352","condition":"contingent","relevant_dimensions":["wings","pattern"],"bee_group":{"antennae":"X","wings":"2","pattern":"D","legs":"X"},"action":"avoid","summary":"good-avoid","bonus":1.300000000000001},{"rt":542.3999999761581,"stimulus":"\n                    <p><b>Action: <em>avoid</em></b></p>\n                    <p>This is the bee that you just saw.</p>\n                    <img src=\"bees-with-color/bee-B2DF.svg\" width=\"200\">\n                    <p><br>Your bonus pay is unchanged, and remains at $0.56.</p>\n            ","response":0,"trial_type":"html-button-response","trial_index":30,"time_elapsed":363992,"internal_node_id":"0.0-4.0-1.11","subject_id":"5f38c9aa0c68ee3f7c72f7b4","study_id":"60edd13110225f80f9f3709b","session_id":"6196c7045683802cdfede352","condition":"contingent","relevant_dimensions":["wings","pattern"],"bee_group":{"antennae":"X","wings":"2","pattern":"D","legs":"X"},"bonus":1.300000000000001},{"rt":911.1999999880791,"stimulus":"bees-with-color/bee-A2SF.svg","response":0,"trial_type":"image-button-response","trial_index":31,"time_elapsed":364904,"internal_node_id":"0.0-4.0-0.12","subject_id":"5f38c9aa0c68ee3f7c72f7b4","study_id":"60edd13110225f80f9f3709b","session_id":"6196c7045683802cdfede352","condition":"contingent","relevant_dimensions":["wings","pattern"],"bee_group":{"antennae":"X","wings":"2","pattern":"D","legs":"X"},"action":"harvest","summary":"good-harvest","bonus":1.300000000000001},{"rt":799.1999999880791,"stimulus":"\n                    <p><b>Action: <em>harvest</em></b></p>\n                    <p>This is the bee that you just saw.</p>\n                    <img src=\"bees-with-color/bee-A2SF.svg\" width=\"200\">\n                    <p><span class=\"greenText\"><b>Successful harvest!</b></span><br>Your pay has increased by $0.02. Your bonus pay is now $0.58.</p>\n            ","response":0,"trial_type":"html-button-response","trial_index":32,"time_elapsed":365704,"internal_node_id":"0.0-4.0-1.12","subject_id":"5f38c9aa0c68ee3f7c72f7b4","study_id":"60edd13110225f80f9f3709b","session_id":"6196c7045683802cdfede352","condition":"contingent","relevant_dimensions":["wings","pattern"],"bee_group":{"antennae":"X","wings":"2","pattern":"D","legs":"X"},"bonus":1.300000000000001},{"rt":1350.9000000357628,"stimulus":"bees-with-color/bee-B2SM.svg","response":0,"trial_type":"image-button-response","trial_index":33,"time_elapsed":367056,"internal_node_id":"0.0-4.0-0.13","subject_id":"5f38c9aa0c68ee3f7c72f7b4","study_id":"60edd13110225f80f9f3709b","session_id":"6196c7045683802cdfede352","condition":"contingent","relevant_dimensions":["wings","pattern"],"bee_group":{"antennae":"X","wings":"2","pattern":"D","legs":"X"},"action":"harvest","summary":"good-harvest","bonus":1.300000000000001},{"rt":806.5,"stimulus":"\n                    <p><b>Action: <em>harvest</em></b></p>\n                    <p>This is the bee that you just saw.</p>\n                    <img src=\"bees-with-color/bee-B2SM.svg\" width=\"200\">\n                    <p><span class=\"greenText\"><b>Successful harvest!</b></span><br>Your pay has increased by $0.02. Your bonus pay is now $0.60.</p>\n            ","response":0,"trial_type":"html-button-response","trial_index":34,"time_elapsed":367864,"internal_node_id":"0.0-4.0-1.13","subject_id":"5f38c9aa0c68ee3f7c72f7b4","study_id":"60edd13110225f80f9f3709b","session_id":"6196c7045683802cdfede352","condition":"contingent","relevant_dimensions":["wings","pattern"],"bee_group":{"antennae":"X","wings":"2","pattern":"D","legs":"X"},"bonus":1.300000000000001},{"rt":1294.8999999761581,"stimulus":"bees-with-color/bee-A1SF.svg","response":0,"trial_type":"image-button-response","trial_index":35,"time_elapsed":369159,"internal_node_id":"0.0-4.0-0.14","subject_id":"5f38c9aa0c68ee3f7c72f7b4","study_id":"60edd13110225f80f9f3709b","session_id":"6196c7045683802cdfede352","condition":"contingent","relevant_dimensions":["wings","pattern"],"bee_group":{"antennae":"X","wings":"2","pattern":"D","legs":"X"},"action":"harvest","summary":"good-harvest","bonus":1.300000000000001},{"rt":767.6999999880791,"stimulus":"\n                    <p><b>Action: <em>harvest</em></b></p>\n                    <p>This is the bee that you just saw.</p>\n                    <img src=\"bees-with-color/bee-A1SF.svg\" width=\"200\">\n                    <p><span class=\"greenText\"><b>Successful harvest!</b></span><br>Your pay has increased by $0.02. Your bonus pay is now $0.62.</p>\n            ","response":0,"trial_type":"html-button-response","trial_index":36,"time_elapsed":369928,"internal_node_id":"0.0-4.0-1.14","subject_id":"5f38c9aa0c68ee3f7c72f7b4","study_id":"60edd13110225f80f9f3709b","session_id":"6196c7045683802cdfede352","condition":"contingent","relevant_dimensions":["wings","pattern"],"bee_group":{"antennae":"X","wings":"2","pattern":"D","legs":"X"},"bonus":1.300000000000001},{"rt":1575.800000011921,"stimulus":"bees-with-color/bee-B1DM.svg","response":1,"trial_type":"image-button-response","trial_index":37,"time_elapsed":371505,"internal_node_id":"0.0-4.0-0.15","subject_id":"5f38c9aa0c68ee3f7c72f7b4","study_id":"60edd13110225f80f9f3709b","session_id":"6196c7045683802cdfede352","condition":"contingent","relevant_dimensions":["wings","pattern"],"bee_group":{"antennae":"X","wings":"2","pattern":"D","legs":"X"},"action":"avoid","summary":"bad-avoid","bonus":1.300000000000001},{"rt":589.6999999880791,"stimulus":"\n                    <p><b>Action: <em>avoid</em></b></p>\n                    <p>This is the bee that you just saw.</p>\n                    <img src=\"bees-with-color/bee-B1DM.svg\" width=\"200\">\n                    <p><br>Your bonus pay is unchanged, and remains at $0.62.</p>\n            ","response":0,"trial_type":"html-button-response","trial_index":38,"time_elapsed":372096,"internal_node_id":"0.0-4.0-1.15","subject_id":"5f38c9aa0c68ee3f7c72f7b4","study_id":"60edd13110225f80f9f3709b","session_id":"6196c7045683802cdfede352","condition":"contingent","relevant_dimensions":["wings","pattern"],"bee_group":{"antennae":"X","wings":"2","pattern":"D","legs":"X"},"bonus":1.300000000000001},{"rt":999.5,"stimulus":"bees-with-color/bee-A1SF.svg","response":0,"trial_type":"image-button-response","trial_index":39,"time_elapsed":373096,"internal_node_id":"0.0-4.0-0.16","subject_id":"5f38c9aa0c68ee3f7c72f7b4","study_id":"60edd13110225f80f9f3709b","session_id":"6196c7045683802cdfede352","condition":"contingent","relevant_dimensions":["wings","pattern"],"bee_group":{"antennae":"X","wings":"2","pattern":"D","legs":"X"},"action":"harvest","summary":"good-harvest","bonus":1.300000000000001},{"rt":1126.2999999523163,"stimulus":"\n                    <p><b>Action: <em>harvest</em></b></p>\n                    <p>This is the bee that you just saw.</p>\n                    <img src=\"bees-with-color/bee-A1SF.svg\" width=\"200\">\n                    <p><span class=\"greenText\"><b>Successful harvest!</b></span><br>Your pay has increased by $0.02. Your bonus pay is now $0.64.</p>\n            ","response":0,"trial_type":"html-button-response","trial_index":40,"time_elapsed":374224,"internal_node_id":"0.0-4.0-1.16","subject_id":"5f38c9aa0c68ee3f7c72f7b4","study_id":"60edd13110225f80f9f3709b","session_id":"6196c7045683802cdfede352","condition":"contingent","relevant_dimensions":["wings","pattern"],"bee_group":{"antennae":"X","wings":"2","pattern":"D","legs":"X"},"bonus":1.300000000000001},{"rt":4046.899999976158,"stimulus":"bees-with-color/bee-B1SM.svg","response":0,"trial_type":"image-button-response","trial_index":41,"time_elapsed":378272,"internal_node_id":"0.0-4.0-0.17","subject_id":"5f38c9aa0c68ee3f7c72f7b4","study_id":"60edd13110225f80f9f3709b","session_id":"6196c7045683802cdfede352","condition":"contingent","relevant_dimensions":["wings","pattern"],"bee_group":{"antennae":"X","wings":"2","pattern":"D","legs":"X"},"action":"harvest","summary":"good-harvest","bonus":1.300000000000001},{"rt":718.8000000119209,"stimulus":"\n                    <p><b>Action: <em>harvest</em></b></p>\n                    <p>This is the bee that you just saw.</p>\n                    <img src=\"bees-with-color/bee-B1SM.svg\" width=\"200\">\n                    <p><span class=\"greenText\"><b>Successful harvest!</b></span><br>Your pay has increased by $0.02. Your bonus pay is now $0.66.</p>\n            ","response":0,"trial_type":"html-button-response","trial_index":42,"time_elapsed":378992,"internal_node_id":"0.0-4.0-1.17","subject_id":"5f38c9aa0c68ee3f7c72f7b4","study_id":"60edd13110225f80f9f3709b","session_id":"6196c7045683802cdfede352","condition":"contingent","relevant_dimensions":["wings","pattern"],"bee_group":{"antennae":"X","wings":"2","pattern":"D","legs":"X"},"bonus":1.300000000000001},{"rt":1694.5999999642372,"stimulus":"bees-with-color/bee-A1DF.svg","response":1,"trial_type":"image-button-response","trial_index":43,"time_elapsed":380688,"internal_node_id":"0.0-4.0-0.18","subject_id":"5f38c9aa0c68ee3f7c72f7b4","study_id":"60edd13110225f80f9f3709b","session_id":"6196c7045683802cdfede352","condition":"contingent","relevant_dimensions":["wings","pattern"],"bee_group":{"antennae":"X","wings":"2","pattern":"D","legs":"X"},"action":"avoid","summary":"bad-avoid","bonus":1.300000000000001},{"rt":631.0999999642372,"stimulus":"\n                    <p><b>Action: <em>avoid</em></b></p>\n                    <p>This is the bee that you just saw.</p>\n                    <img src=\"bees-with-color/bee-A1DF.svg\" width=\"200\">\n                    <p><br>Your bonus pay is unchanged, and remains at $0.66.</p>\n            ","response":0,"trial_type":"html-button-response","trial_index":44,"time_elapsed":381320,"internal_node_id":"0.0-4.0-1.18","subject_id":"5f38c9aa0c68ee3f7c72f7b4","study_id":"60edd13110225f80f9f3709b","session_id":"6196c7045683802cdfede352","condition":"contingent","relevant_dimensions":["wings","pattern"],"bee_group":{"antennae":"X","wings":"2","pattern":"D","legs":"X"},"bonus":1.300000000000001},{"rt":1999.1000000238419,"stimulus":"bees-with-color/bee-A1SM.svg","response":0,"trial_type":"image-button-response","trial_index":45,"time_elapsed":383320,"internal_node_id":"0.0-4.0-0.19","subject_id":"5f38c9aa0c68ee3f7c72f7b4","study_id":"60edd13110225f80f9f3709b","session_id":"6196c7045683802cdfede352","condition":"contingent","relevant_dimensions":["wings","pattern"],"bee_group":{"antennae":"X","wings":"2","pattern":"D","legs":"X"},"action":"harvest","summary":"good-harvest","bonus":1.300000000000001},{"rt":1239,"stimulus":"\n                    <p><b>Action: <em>harvest</em></b></p>\n                    <p>This is the bee that you just saw.</p>\n                    <img src=\"bees-with-color/bee-A1SM.svg\" width=\"200\">\n                    <p><span class=\"greenText\"><b>Successful harvest!</b></span><br>Your pay has increased by $0.02. Your bonus pay is now $0.68.</p>\n            ","response":0,"trial_type":"html-button-response","trial_index":46,"time_elapsed":384560,"internal_node_id":"0.0-4.0-1.19","subject_id":"5f38c9aa0c68ee3f7c72f7b4","study_id":"60edd13110225f80f9f3709b","session_id":"6196c7045683802cdfede352","condition":"contingent","relevant_dimensions":["wings","pattern"],"bee_group":{"antennae":"X","wings":"2","pattern":"D","legs":"X"},"bonus":1.300000000000001},{"rt":1039.6000000238419,"stimulus":"bees-with-color/bee-A2DF.svg","response":1,"trial_type":"image-button-response","trial_index":47,"time_elapsed":385601,"internal_node_id":"0.0-4.0-0.20","subject_id":"5f38c9aa0c68ee3f7c72f7b4","study_id":"60edd13110225f80f9f3709b","session_id":"6196c7045683802cdfede352","condition":"contingent","relevant_dimensions":["wings","pattern"],"bee_group":{"antennae":"X","wings":"2","pattern":"D","legs":"X"},"action":"avoid","summary":"good-avoid","bonus":1.300000000000001},{"rt":565.6999999880791,"stimulus":"\n                    <p><b>Action: <em>avoid</em></b></p>\n                    <p>This is the bee that you just saw.</p>\n                    <img src=\"bees-with-color/bee-A2DF.svg\" width=\"200\">\n                    <p><br>Your bonus pay is unchanged, and remains at $0.68.</p>\n            ","response":0,"trial_type":"html-button-response","trial_index":48,"time_elapsed":386168,"internal_node_id":"0.0-4.0-1.20","subject_id":"5f38c9aa0c68ee3f7c72f7b4","study_id":"60edd13110225f80f9f3709b","session_id":"6196c7045683802cdfede352","condition":"contingent","relevant_dimensions":["wings","pattern"],"bee_group":{"antennae":"X","wings":"2","pattern":"D","legs":"X"},"bonus":1.300000000000001},{"rt":1110.5,"stimulus":"bees-with-color/bee-A2SM.svg","response":0,"trial_type":"image-button-response","trial_index":49,"time_elapsed":387280,"internal_node_id":"0.0-4.0-0.21","subject_id":"5f38c9aa0c68ee3f7c72f7b4","study_id":"60edd13110225f80f9f3709b","session_id":"6196c7045683802cdfede352","condition":"contingent","relevant_dimensions":["wings","pattern"],"bee_group":{"antennae":"X","wings":"2","pattern":"D","legs":"X"},"action":"harvest","summary":"good-harvest","bonus":1.300000000000001},{"rt":1742.6000000238419,"stimulus":"\n                    <p><b>Action: <em>harvest</em></b></p>\n                    <p>This is the bee that you just saw.</p>\n                    <img src=\"bees-with-color/bee-A2SM.svg\" width=\"200\">\n                    <p><span class=\"greenText\"><b>Successful harvest!</b></span><br>Your pay has increased by $0.02. Your bonus pay is now $0.70.</p>\n            ","response":0,"trial_type":"html-button-response","trial_index":50,"time_elapsed":389024,"internal_node_id":"0.0-4.0-1.21","subject_id":"5f38c9aa0c68ee3f7c72f7b4","study_id":"60edd13110225f80f9f3709b","session_id":"6196c7045683802cdfede352","condition":"contingent","relevant_dimensions":["wings","pattern"],"bee_group":{"antennae":"X","wings":"2","pattern":"D","legs":"X"},"bonus":1.300000000000001},{"rt":1015.0999999642372,"stimulus":"bees-with-color/bee-A2SF.svg","response":0,"trial_type":"image-button-response","trial_index":51,"time_elapsed":390040,"internal_node_id":"0.0-4.0-0.22","subject_id":"5f38c9aa0c68ee3f7c72f7b4","study_id":"60edd13110225f80f9f3709b","session_id":"6196c7045683802cdfede352","condition":"contingent","relevant_dimensions":["wings","pattern"],"bee_group":{"antennae":"X","wings":"2","pattern":"D","legs":"X"},"action":"harvest","summary":"good-harvest","bonus":1.300000000000001},{"rt":790.5,"stimulus":"\n                    <p><b>Action: <em>harvest</em></b></p>\n                    <p>This is the bee that you just saw.</p>\n                    <img src=\"bees-with-color/bee-A2SF.svg\" width=\"200\">\n                    <p><span class=\"greenText\"><b>Successful harvest!</b></span><br>Your pay has increased by $0.02. Your bonus pay is now $0.72.</p>\n            ","response":0,"trial_type":"html-button-response","trial_index":52,"time_elapsed":390832,"internal_node_id":"0.0-4.0-1.22","subject_id":"5f38c9aa0c68ee3f7c72f7b4","study_id":"60edd13110225f80f9f3709b","session_id":"6196c7045683802cdfede352","condition":"contingent","relevant_dimensions":["wings","pattern"],"bee_group":{"antennae":"X","wings":"2","pattern":"D","legs":"X"},"bonus":1.300000000000001},{"rt":1030.8999999761581,"stimulus":"bees-with-color/bee-B2DM.svg","response":1,"trial_type":"image-button-response","trial_index":53,"time_elapsed":391864,"internal_node_id":"0.0-4.0-0.23","subject_id":"5f38c9aa0c68ee3f7c72f7b4","study_id":"60edd13110225f80f9f3709b","session_id":"6196c7045683802cdfede352","condition":"contingent","relevant_dimensions":["wings","pattern"],"bee_group":{"antennae":"X","wings":"2","pattern":"D","legs":"X"},"action":"avoid","summary":"good-avoid","bonus":1.300000000000001},{"rt":511,"stimulus":"\n                    <p><b>Action: <em>avoid</em></b></p>\n                    <p>This is the bee that you just saw.</p>\n                    <img src=\"bees-with-color/bee-B2DM.svg\" width=\"200\">\n                    <p><br>Your bonus pay is unchanged, and remains at $0.72.</p>\n            ","response":0,"trial_type":"html-button-response","trial_index":54,"time_elapsed":392376,"internal_node_id":"0.0-4.0-1.23","subject_id":"5f38c9aa0c68ee3f7c72f7b4","study_id":"60edd13110225f80f9f3709b","session_id":"6196c7045683802cdfede352","condition":"contingent","relevant_dimensions":["wings","pattern"],"bee_group":{"antennae":"X","wings":"2","pattern":"D","legs":"X"},"bonus":1.300000000000001},{"rt":926.6999999880791,"stimulus":"bees-with-color/bee-A1DM.svg","response":1,"trial_type":"image-button-response","trial_index":55,"time_elapsed":393304,"internal_node_id":"0.0-4.0-0.24","subject_id":"5f38c9aa0c68ee3f7c72f7b4","study_id":"60edd13110225f80f9f3709b","session_id":"6196c7045683802cdfede352","condition":"contingent","relevant_dimensions":["wings","pattern"],"bee_group":{"antennae":"X","wings":"2","pattern":"D","legs":"X"},"action":"avoid","summary":"bad-avoid","bonus":1.300000000000001},{"rt":590.9000000357628,"stimulus":"\n                    <p><b>Action: <em>avoid</em></b></p>\n                    <p>This is the bee that you just saw.</p>\n                    <img src=\"bees-with-color/bee-A1DM.svg\" width=\"200\">\n                    <p><br>Your bonus pay is unchanged, and remains at $0.72.</p>\n            ","response":0,"trial_type":"html-button-response","trial_index":56,"time_elapsed":393896,"internal_node_id":"0.0-4.0-1.24","subject_id":"5f38c9aa0c68ee3f7c72f7b4","study_id":"60edd13110225f80f9f3709b","session_id":"6196c7045683802cdfede352","condition":"contingent","relevant_dimensions":["wings","pattern"],"bee_group":{"antennae":"X","wings":"2","pattern":"D","legs":"X"},"bonus":1.300000000000001},{"rt":1166.199999988079,"stimulus":"bees-with-color/bee-B2SM.svg","response":0,"trial_type":"image-button-response","trial_index":57,"time_elapsed":395064,"internal_node_id":"0.0-4.0-0.25","subject_id":"5f38c9aa0c68ee3f7c72f7b4","study_id":"60edd13110225f80f9f3709b","session_id":"6196c7045683802cdfede352","condition":"contingent","relevant_dimensions":["wings","pattern"],"bee_group":{"antennae":"X","wings":"2","pattern":"D","legs":"X"},"action":"harvest","summary":"good-harvest","bonus":1.300000000000001},{"rt":862.5,"stimulus":"\n                    <p><b>Action: <em>harvest</em></b></p>\n                    <p>This is the bee that you just saw.</p>\n                    <img src=\"bees-with-color/bee-B2SM.svg\" width=\"200\">\n                    <p><span class=\"greenText\"><b>Successful harvest!</b></span><br>Your pay has increased by $0.02. Your bonus pay is now $0.74.</p>\n            ","response":0,"trial_type":"html-button-response","trial_index":58,"time_elapsed":395928,"internal_node_id":"0.0-4.0-1.25","subject_id":"5f38c9aa0c68ee3f7c72f7b4","study_id":"60edd13110225f80f9f3709b","session_id":"6196c7045683802cdfede352","condition":"contingent","relevant_dimensions":["wings","pattern"],"bee_group":{"antennae":"X","wings":"2","pattern":"D","legs":"X"},"bonus":1.300000000000001},{"rt":1006.7999999523163,"stimulus":"bees-with-color/bee-B1DM.svg","response":1,"trial_type":"image-button-response","trial_index":59,"time_elapsed":396936,"internal_node_id":"0.0-4.0-0.26","subject_id":"5f38c9aa0c68ee3f7c72f7b4","study_id":"60edd13110225f80f9f3709b","session_id":"6196c7045683802cdfede352","condition":"contingent","relevant_dimensions":["wings","pattern"],"bee_group":{"antennae":"X","wings":"2","pattern":"D","legs":"X"},"action":"avoid","summary":"bad-avoid","bonus":1.300000000000001},{"rt":574.8999999761581,"stimulus":"\n                    <p><b>Action: <em>avoid</em></b></p>\n                    <p>This is the bee that you just saw.</p>\n                    <img src=\"bees-with-color/bee-B1DM.svg\" width=\"200\">\n                    <p><br>Your bonus pay is unchanged, and remains at $0.74.</p>\n            ","response":0,"trial_type":"html-button-response","trial_index":60,"time_elapsed":397512,"internal_node_id":"0.0-4.0-1.26","subject_id":"5f38c9aa0c68ee3f7c72f7b4","study_id":"60edd13110225f80f9f3709b","session_id":"6196c7045683802cdfede352","condition":"contingent","relevant_dimensions":["wings","pattern"],"bee_group":{"antennae":"X","wings":"2","pattern":"D","legs":"X"},"bonus":1.300000000000001},{"rt":566.9000000357628,"stimulus":"bees-with-color/bee-B2SF.svg","response":0,"trial_type":"image-button-response","trial_index":61,"time_elapsed":398080,"internal_node_id":"0.0-4.0-0.27","subject_id":"5f38c9aa0c68ee3f7c72f7b4","study_id":"60edd13110225f80f9f3709b","session_id":"6196c7045683802cdfede352","condition":"contingent","relevant_dimensions":["wings","pattern"],"bee_group":{"antennae":"X","wings":"2","pattern":"D","legs":"X"},"action":"harvest","summary":"good-harvest","bonus":1.300000000000001},{"rt":1174.5,"stimulus":"\n                    <p><b>Action: <em>harvest</em></b></p>\n                    <p>This is the bee that you just saw.</p>\n                    <img src=\"bees-with-color/bee-B2SF.svg\" width=\"200\">\n                    <p><span class=\"greenText\"><b>Successful harvest!</b></span><br>Your pay has increased by $0.02. Your bonus pay is now $0.76.</p>\n            ","response":0,"trial_type":"html-button-response","trial_index":62,"time_elapsed":399256,"internal_node_id":"0.0-4.0-1.27","subject_id":"5f38c9aa0c68ee3f7c72f7b4","study_id":"60edd13110225f80f9f3709b","session_id":"6196c7045683802cdfede352","condition":"contingent","relevant_dimensions":["wings","pattern"],"bee_group":{"antennae":"X","wings":"2","pattern":"D","legs":"X"},"bonus":1.300000000000001},{"rt":975.1999999880791,"stimulus":"bees-with-color/bee-A2DM.svg","response":1,"trial_type":"image-button-response","trial_index":63,"time_elapsed":400232,"internal_node_id":"0.0-4.0-0.28","subject_id":"5f38c9aa0c68ee3f7c72f7b4","study_id":"60edd13110225f80f9f3709b","session_id":"6196c7045683802cdfede352","condition":"contingent","relevant_dimensions":["wings","pattern"],"bee_group":{"antennae":"X","wings":"2","pattern":"D","legs":"X"},"action":"avoid","summary":"good-avoid","bonus":1.300000000000001},{"rt":550.6000000238419,"stimulus":"\n                    <p><b>Action: <em>avoid</em></b></p>\n                    <p>This is the bee that you just saw.</p>\n                    <img src=\"bees-with-color/bee-A2DM.svg\" width=\"200\">\n                    <p><br>Your bonus pay is unchanged, and remains at $0.76.</p>\n            ","response":0,"trial_type":"html-button-response","trial_index":64,"time_elapsed":400784,"internal_node_id":"0.0-4.0-1.28","subject_id":"5f38c9aa0c68ee3f7c72f7b4","study_id":"60edd13110225f80f9f3709b","session_id":"6196c7045683802cdfede352","condition":"contingent","relevant_dimensions":["wings","pattern"],"bee_group":{"antennae":"X","wings":"2","pattern":"D","legs":"X"},"bonus":1.300000000000001},{"rt":894.5999999642372,"stimulus":"bees-with-color/bee-B2DF.svg","response":1,"trial_type":"image-button-response","trial_index":65,"time_elapsed":401680,"internal_node_id":"0.0-4.0-0.29","subject_id":"5f38c9aa0c68ee3f7c72f7b4","study_id":"60edd13110225f80f9f3709b","session_id":"6196c7045683802cdfede352","condition":"contingent","relevant_dimensions":["wings","pattern"],"bee_group":{"antennae":"X","wings":"2","pattern":"D","legs":"X"},"action":"avoid","summary":"good-avoid","bonus":1.300000000000001},{"rt":536.1999999880791,"stimulus":"\n                    <p><b>Action: <em>avoid</em></b></p>\n                    <p>This is the bee that you just saw.</p>\n                    <img src=\"bees-with-color/bee-B2DF.svg\" width=\"200\">\n                    <p><br>Your bonus pay is unchanged, and remains at $0.76.</p>\n            ","response":0,"trial_type":"html-button-response","trial_index":66,"time_elapsed":402217,"internal_node_id":"0.0-4.0-1.29","subject_id":"5f38c9aa0c68ee3f7c72f7b4","study_id":"60edd13110225f80f9f3709b","session_id":"6196c7045683802cdfede352","condition":"contingent","relevant_dimensions":["wings","pattern"],"bee_group":{"antennae":"X","wings":"2","pattern":"D","legs":"X"},"bonus":1.300000000000001},{"rt":797.3999999761581,"stimulus":"bees-with-color/bee-B1DF.svg","response":1,"trial_type":"image-button-response","trial_index":67,"time_elapsed":403016,"internal_node_id":"0.0-4.0-0.30","subject_id":"5f38c9aa0c68ee3f7c72f7b4","study_id":"60edd13110225f80f9f3709b","session_id":"6196c7045683802cdfede352","condition":"contingent","relevant_dimensions":["wings","pattern"],"bee_group":{"antennae":"X","wings":"2","pattern":"D","legs":"X"},"action":"avoid","summary":"bad-avoid","bonus":1.300000000000001},{"rt":1127,"stimulus":"\n                    <p><b>Action: <em>avoid</em></b></p>\n                    <p>This is the bee that you just saw.</p>\n                    <img src=\"bees-with-color/bee-B1DF.svg\" width=\"200\">\n                    <p><br>Your bonus pay is unchanged, and remains at $0.76.</p>\n            ","response":0,"trial_type":"html-button-response","trial_index":68,"time_elapsed":404144,"internal_node_id":"0.0-4.0-1.30","subject_id":"5f38c9aa0c68ee3f7c72f7b4","study_id":"60edd13110225f80f9f3709b","session_id":"6196c7045683802cdfede352","condition":"contingent","relevant_dimensions":["wings","pattern"],"bee_group":{"antennae":"X","wings":"2","pattern":"D","legs":"X"},"bonus":1.300000000000001},{"rt":1072,"stimulus":"bees-with-color/bee-B1SF.svg","response":1,"trial_type":"image-button-response","trial_index":69,"time_elapsed":405217,"internal_node_id":"0.0-4.0-0.31","subject_id":"5f38c9aa0c68ee3f7c72f7b4","study_id":"60edd13110225f80f9f3709b","session_id":"6196c7045683802cdfede352","condition":"contingent","relevant_dimensions":["wings","pattern"],"bee_group":{"antennae":"X","wings":"2","pattern":"D","legs":"X"},"action":"avoid","summary":"bad-avoid","bonus":1.300000000000001},{"rt":766.1000000238419,"stimulus":"\n                    <p><b>Action: <em>avoid</em></b></p>\n                    <p>This is the bee that you just saw.</p>\n                    <img src=\"bees-with-color/bee-B1SF.svg\" width=\"200\">\n                    <p><br>Your bonus pay is unchanged, and remains at $0.76.</p>\n            ","response":0,"trial_type":"html-button-response","trial_index":70,"time_elapsed":405984,"internal_node_id":"0.0-4.0-1.31","subject_id":"5f38c9aa0c68ee3f7c72f7b4","study_id":"60edd13110225f80f9f3709b","session_id":"6196c7045683802cdfede352","condition":"contingent","relevant_dimensions":["wings","pattern"],"bee_group":{"antennae":"X","wings":"2","pattern":"D","legs":"X"},"bonus":1.300000000000001},{"rt":758.5,"stimulus":"bees-with-color/bee-A1SM.svg","response":0,"trial_type":"image-button-response","trial_index":71,"time_elapsed":406744,"internal_node_id":"0.0-4.0-0.32","subject_id":"5f38c9aa0c68ee3f7c72f7b4","study_id":"60edd13110225f80f9f3709b","session_id":"6196c7045683802cdfede352","condition":"contingent","relevant_dimensions":["wings","pattern"],"bee_group":{"antennae":"X","wings":"2","pattern":"D","legs":"X"},"action":"harvest","summary":"good-harvest","bonus":1.300000000000001},{"rt":647.3000000119209,"stimulus":"\n                    <p><b>Action: <em>harvest</em></b></p>\n                    <p>This is the bee that you just saw.</p>\n                    <img src=\"bees-with-color/bee-A1SM.svg\" width=\"200\">\n                    <p><span class=\"greenText\"><b>Successful harvest!</b></span><br>Your pay has increased by $0.02. Your bonus pay is now $0.78.</p>\n            ","response":0,"trial_type":"html-button-response","trial_index":72,"time_elapsed":407392,"internal_node_id":"0.0-4.0-1.32","subject_id":"5f38c9aa0c68ee3f7c72f7b4","study_id":"60edd13110225f80f9f3709b","session_id":"6196c7045683802cdfede352","condition":"contingent","relevant_dimensions":["wings","pattern"],"bee_group":{"antennae":"X","wings":"2","pattern":"D","legs":"X"},"bonus":1.300000000000001},{"rt":822.7999999523163,"stimulus":"bees-with-color/bee-A2SF.svg","response":0,"trial_type":"image-button-response","trial_index":73,"time_elapsed":408216,"internal_node_id":"0.0-4.0-0.33","subject_id":"5f38c9aa0c68ee3f7c72f7b4","study_id":"60edd13110225f80f9f3709b","session_id":"6196c7045683802cdfede352","condition":"contingent","relevant_dimensions":["wings","pattern"],"bee_group":{"antennae":"X","wings":"2","pattern":"D","legs":"X"},"action":"harvest","summary":"good-harvest","bonus":1.300000000000001},{"rt":735.1000000238419,"stimulus":"\n                    <p><b>Action: <em>harvest</em></b></p>\n                    <p>This is the bee that you just saw.</p>\n                    <img src=\"bees-with-color/bee-A2SF.svg\" width=\"200\">\n                    <p><span class=\"greenText\"><b>Successful harvest!</b></span><br>Your pay has increased by $0.02. Your bonus pay is now $0.80.</p>\n            ","response":0,"trial_type":"html-button-response","trial_index":74,"time_elapsed":408952,"internal_node_id":"0.0-4.0-1.33","subject_id":"5f38c9aa0c68ee3f7c72f7b4","study_id":"60edd13110225f80f9f3709b","session_id":"6196c7045683802cdfede352","condition":"contingent","relevant_dimensions":["wings","pattern"],"bee_group":{"antennae":"X","wings":"2","pattern":"D","legs":"X"},"bonus":1.300000000000001},{"rt":1014.8000000119209,"stimulus":"bees-with-color/bee-B1DM.svg","response":1,"trial_type":"image-button-response","trial_index":75,"time_elapsed":409968,"internal_node_id":"0.0-4.0-0.34","subject_id":"5f38c9aa0c68ee3f7c72f7b4","study_id":"60edd13110225f80f9f3709b","session_id":"6196c7045683802cdfede352","condition":"contingent","relevant_dimensions":["wings","pattern"],"bee_group":{"antennae":"X","wings":"2","pattern":"D","legs":"X"},"action":"avoid","summary":"bad-avoid","bonus":1.300000000000001},{"rt":471.30000001192093,"stimulus":"\n                    <p><b>Action: <em>avoid</em></b></p>\n                    <p>This is the bee that you just saw.</p>\n                    <img src=\"bees-with-color/bee-B1DM.svg\" width=\"200\">\n                    <p><br>Your bonus pay is unchanged, and remains at $0.80.</p>\n            ","response":0,"trial_type":"html-button-response","trial_index":76,"time_elapsed":410440,"internal_node_id":"0.0-4.0-1.34","subject_id":"5f38c9aa0c68ee3f7c72f7b4","study_id":"60edd13110225f80f9f3709b","session_id":"6196c7045683802cdfede352","condition":"contingent","relevant_dimensions":["wings","pattern"],"bee_group":{"antennae":"X","wings":"2","pattern":"D","legs":"X"},"bonus":1.300000000000001},{"rt":823.3999999761581,"stimulus":"bees-with-color/bee-B1SM.svg","response":0,"trial_type":"image-button-response","trial_index":77,"time_elapsed":411264,"internal_node_id":"0.0-4.0-0.35","subject_id":"5f38c9aa0c68ee3f7c72f7b4","study_id":"60edd13110225f80f9f3709b","session_id":"6196c7045683802cdfede352","condition":"contingent","relevant_dimensions":["wings","pattern"],"bee_group":{"antennae":"X","wings":"2","pattern":"D","legs":"X"},"action":"harvest","summary":"good-harvest","bonus":1.300000000000001},{"rt":694.3000000119209,"stimulus":"\n                    <p><b>Action: <em>harvest</em></b></p>\n                    <p>This is the bee that you just saw.</p>\n                    <img src=\"bees-with-color/bee-B1SM.svg\" width=\"200\">\n                    <p><span class=\"greenText\"><b>Successful harvest!</b></span><br>Your pay has increased by $0.02. Your bonus pay is now $0.82.</p>\n            ","response":0,"trial_type":"html-button-response","trial_index":78,"time_elapsed":411960,"internal_node_id":"0.0-4.0-1.35","subject_id":"5f38c9aa0c68ee3f7c72f7b4","study_id":"60edd13110225f80f9f3709b","session_id":"6196c7045683802cdfede352","condition":"contingent","relevant_dimensions":["wings","pattern"],"bee_group":{"antennae":"X","wings":"2","pattern":"D","legs":"X"},"bonus":1.300000000000001},{"rt":3126.899999976158,"stimulus":"bees-with-color/bee-B1DF.svg","response":1,"trial_type":"image-button-response","trial_index":79,"time_elapsed":415088,"internal_node_id":"0.0-4.0-0.36","subject_id":"5f38c9aa0c68ee3f7c72f7b4","study_id":"60edd13110225f80f9f3709b","session_id":"6196c7045683802cdfede352","condition":"contingent","relevant_dimensions":["wings","pattern"],"bee_group":{"antennae":"X","wings":"2","pattern":"D","legs":"X"},"action":"avoid","summary":"bad-avoid","bonus":1.300000000000001},{"rt":535.1000000238419,"stimulus":"\n                    <p><b>Action: <em>avoid</em></b></p>\n                    <p>This is the bee that you just saw.</p>\n                    <img src=\"bees-with-color/bee-B1DF.svg\" width=\"200\">\n                    <p><br>Your bonus pay is unchanged, and remains at $0.82.</p>\n            ","response":0,"trial_type":"html-button-response","trial_index":80,"time_elapsed":415624,"internal_node_id":"0.0-4.0-1.36","subject_id":"5f38c9aa0c68ee3f7c72f7b4","study_id":"60edd13110225f80f9f3709b","session_id":"6196c7045683802cdfede352","condition":"contingent","relevant_dimensions":["wings","pattern"],"bee_group":{"antennae":"X","wings":"2","pattern":"D","legs":"X"},"bonus":1.300000000000001},{"rt":911.5,"stimulus":"bees-with-color/bee-B2DF.svg","response":1,"trial_type":"image-button-response","trial_index":81,"time_elapsed":416536,"internal_node_id":"0.0-4.0-0.37","subject_id":"5f38c9aa0c68ee3f7c72f7b4","study_id":"60edd13110225f80f9f3709b","session_id":"6196c7045683802cdfede352","condition":"contingent","relevant_dimensions":["wings","pattern"],"bee_group":{"antennae":"X","wings":"2","pattern":"D","legs":"X"},"action":"avoid","summary":"good-avoid","bonus":1.300000000000001},{"rt":590.2999999523163,"stimulus":"\n                    <p><b>Action: <em>avoid</em></b></p>\n                    <p>This is the bee that you just saw.</p>\n                    <img src=\"bees-with-color/bee-B2DF.svg\" width=\"200\">\n                    <p><br>Your bonus pay is unchanged, and remains at $0.82.</p>\n            ","response":0,"trial_type":"html-button-response","trial_index":82,"time_elapsed":417128,"internal_node_id":"0.0-4.0-1.37","subject_id":"5f38c9aa0c68ee3f7c72f7b4","study_id":"60edd13110225f80f9f3709b","session_id":"6196c7045683802cdfede352","condition":"contingent","relevant_dimensions":["wings","pattern"],"bee_group":{"antennae":"X","wings":"2","pattern":"D","legs":"X"},"bonus":1.300000000000001},{"rt":1279.6000000238419,"stimulus":"bees-with-color/bee-A2DF.svg","response":1,"trial_type":"image-button-response","trial_index":83,"time_elapsed":418408,"internal_node_id":"0.0-4.0-0.38","subject_id":"5f38c9aa0c68ee3f7c72f7b4","study_id":"60edd13110225f80f9f3709b","session_id":"6196c7045683802cdfede352","condition":"contingent","relevant_dimensions":["wings","pattern"],"bee_group":{"antennae":"X","wings":"2","pattern":"D","legs":"X"},"action":"avoid","summary":"good-avoid","bonus":1.300000000000001},{"rt":470.60000002384186,"stimulus":"\n                    <p><b>Action: <em>avoid</em></b></p>\n                    <p>This is the bee that you just saw.</p>\n                    <img src=\"bees-with-color/bee-A2DF.svg\" width=\"200\">\n                    <p><br>Your bonus pay is unchanged, and remains at $0.82.</p>\n            ","response":0,"trial_type":"html-button-response","trial_index":84,"time_elapsed":418880,"internal_node_id":"0.0-4.0-1.38","subject_id":"5f38c9aa0c68ee3f7c72f7b4","study_id":"60edd13110225f80f9f3709b","session_id":"6196c7045683802cdfede352","condition":"contingent","relevant_dimensions":["wings","pattern"],"bee_group":{"antennae":"X","wings":"2","pattern":"D","legs":"X"},"bonus":1.300000000000001},{"rt":1055.199999988079,"stimulus":"bees-with-color/bee-B2SM.svg","response":0,"trial_type":"image-button-response","trial_index":85,"time_elapsed":419937,"internal_node_id":"0.0-4.0-0.39","subject_id":"5f38c9aa0c68ee3f7c72f7b4","study_id":"60edd13110225f80f9f3709b","session_id":"6196c7045683802cdfede352","condition":"contingent","relevant_dimensions":["wings","pattern"],"bee_group":{"antennae":"X","wings":"2","pattern":"D","legs":"X"},"action":"harvest","summary":"good-harvest","bonus":1.300000000000001},{"rt":710,"stimulus":"\n                    <p><b>Action: <em>harvest</em></b></p>\n                    <p>This is the bee that you just saw.</p>\n                    <img src=\"bees-with-color/bee-B2SM.svg\" width=\"200\">\n                    <p><span class=\"greenText\"><b>Successful harvest!</b></span><br>Your pay has increased by $0.02. Your bonus pay is now $0.84.</p>\n            ","response":0,"trial_type":"html-button-response","trial_index":86,"time_elapsed":420648,"internal_node_id":"0.0-4.0-1.39","subject_id":"5f38c9aa0c68ee3f7c72f7b4","study_id":"60edd13110225f80f9f3709b","session_id":"6196c7045683802cdfede352","condition":"contingent","relevant_dimensions":["wings","pattern"],"bee_group":{"antennae":"X","wings":"2","pattern":"D","legs":"X"},"bonus":1.300000000000001},{"rt":846.8000000119209,"stimulus":"bees-with-color/bee-A1DF.svg","response":1,"trial_type":"image-button-response","trial_index":87,"time_elapsed":421496,"internal_node_id":"0.0-4.0-0.40","subject_id":"5f38c9aa0c68ee3f7c72f7b4","study_id":"60edd13110225f80f9f3709b","session_id":"6196c7045683802cdfede352","condition":"contingent","relevant_dimensions":["wings","pattern"],"bee_group":{"antennae":"X","wings":"2","pattern":"D","legs":"X"},"action":"avoid","summary":"bad-avoid","bonus":1.300000000000001},{"rt":534.9000000357628,"stimulus":"\n                    <p><b>Action: <em>avoid</em></b></p>\n                    <p>This is the bee that you just saw.</p>\n                    <img src=\"bees-with-color/bee-A1DF.svg\" width=\"200\">\n                    <p><br>Your bonus pay is unchanged, and remains at $0.84.</p>\n            ","response":0,"trial_type":"html-button-response","trial_index":88,"time_elapsed":422032,"internal_node_id":"0.0-4.0-1.40","subject_id":"5f38c9aa0c68ee3f7c72f7b4","study_id":"60edd13110225f80f9f3709b","session_id":"6196c7045683802cdfede352","condition":"contingent","relevant_dimensions":["wings","pattern"],"bee_group":{"antennae":"X","wings":"2","pattern":"D","legs":"X"},"bonus":1.300000000000001},{"rt":767,"stimulus":"bees-with-color/bee-A1SF.svg","response":0,"trial_type":"image-button-response","trial_index":89,"time_elapsed":422800,"internal_node_id":"0.0-4.0-0.41","subject_id":"5f38c9aa0c68ee3f7c72f7b4","study_id":"60edd13110225f80f9f3709b","session_id":"6196c7045683802cdfede352","condition":"contingent","relevant_dimensions":["wings","pattern"],"bee_group":{"antennae":"X","wings":"2","pattern":"D","legs":"X"},"action":"harvest","summary":"good-harvest","bonus":1.300000000000001},{"rt":638.1999999880791,"stimulus":"\n                    <p><b>Action: <em>harvest</em></b></p>\n                    <p>This is the bee that you just saw.</p>\n                    <img src=\"bees-with-color/bee-A1SF.svg\" width=\"200\">\n                    <p><span class=\"greenText\"><b>Successful harvest!</b></span><br>Your pay has increased by $0.02. Your bonus pay is now $0.86.</p>\n            ","response":0,"trial_type":"html-button-response","trial_index":90,"time_elapsed":423440,"internal_node_id":"0.0-4.0-1.41","subject_id":"5f38c9aa0c68ee3f7c72f7b4","study_id":"60edd13110225f80f9f3709b","session_id":"6196c7045683802cdfede352","condition":"contingent","relevant_dimensions":["wings","pattern"],"bee_group":{"antennae":"X","wings":"2","pattern":"D","legs":"X"},"bonus":1.300000000000001},{"rt":3006.699999988079,"stimulus":"bees-with-color/bee-B2DM.svg","response":1,"trial_type":"image-button-response","trial_index":91,"time_elapsed":426448,"internal_node_id":"0.0-4.0-0.42","subject_id":"5f38c9aa0c68ee3f7c72f7b4","study_id":"60edd13110225f80f9f3709b","session_id":"6196c7045683802cdfede352","condition":"contingent","relevant_dimensions":["wings","pattern"],"bee_group":{"antennae":"X","wings":"2","pattern":"D","legs":"X"},"action":"avoid","summary":"good-avoid","bonus":1.300000000000001},{"rt":520,"stimulus":"\n                    <p><b>Action: <em>avoid</em></b></p>\n                    <p>This is the bee that you just saw.</p>\n                    <img src=\"bees-with-color/bee-B2DM.svg\" width=\"200\">\n                    <p><br>Your bonus pay is unchanged, and remains at $0.86.</p>\n            ","response":0,"trial_type":"html-button-response","trial_index":92,"time_elapsed":426969,"internal_node_id":"0.0-4.0-1.42","subject_id":"5f38c9aa0c68ee3f7c72f7b4","study_id":"60edd13110225f80f9f3709b","session_id":"6196c7045683802cdfede352","condition":"contingent","relevant_dimensions":["wings","pattern"],"bee_group":{"antennae":"X","wings":"2","pattern":"D","legs":"X"},"bonus":1.300000000000001},{"rt":781.7000000476837,"stimulus":"bees-with-color/bee-A2SM.svg","response":0,"trial_type":"image-button-response","trial_index":93,"time_elapsed":427752,"internal_node_id":"0.0-4.0-0.43","subject_id":"5f38c9aa0c68ee3f7c72f7b4","study_id":"60edd13110225f80f9f3709b","session_id":"6196c7045683802cdfede352","condition":"contingent","relevant_dimensions":["wings","pattern"],"bee_group":{"antennae":"X","wings":"2","pattern":"D","legs":"X"},"action":"harvest","summary":"good-harvest","bonus":1.300000000000001},{"rt":798.8000000119209,"stimulus":"\n                    <p><b>Action: <em>harvest</em></b></p>\n                    <p>This is the bee that you just saw.</p>\n                    <img src=\"bees-with-color/bee-A2SM.svg\" width=\"200\">\n                    <p><span class=\"greenText\"><b>Successful harvest!</b></span><br>Your pay has increased by $0.02. Your bonus pay is now $0.88.</p>\n            ","response":0,"trial_type":"html-button-response","trial_index":94,"time_elapsed":428552,"internal_node_id":"0.0-4.0-1.43","subject_id":"5f38c9aa0c68ee3f7c72f7b4","study_id":"60edd13110225f80f9f3709b","session_id":"6196c7045683802cdfede352","condition":"contingent","relevant_dimensions":["wings","pattern"],"bee_group":{"antennae":"X","wings":"2","pattern":"D","legs":"X"},"bonus":1.300000000000001},{"rt":670.5,"stimulus":"bees-with-color/bee-A1DM.svg","response":1,"trial_type":"image-button-response","trial_index":95,"time_elapsed":429224,"internal_node_id":"0.0-4.0-0.44","subject_id":"5f38c9aa0c68ee3f7c72f7b4","study_id":"60edd13110225f80f9f3709b","session_id":"6196c7045683802cdfede352","condition":"contingent","relevant_dimensions":["wings","pattern"],"bee_group":{"antennae":"X","wings":"2","pattern":"D","legs":"X"},"action":"avoid","summary":"bad-avoid","bonus":1.300000000000001},{"rt":526.8999999761581,"stimulus":"\n                    <p><b>Action: <em>avoid</em></b></p>\n                    <p>This is the bee that you just saw.</p>\n                    <img src=\"bees-with-color/bee-A1DM.svg\" width=\"200\">\n                    <p><br>Your bonus pay is unchanged, and remains at $0.88.</p>\n            ","response":0,"trial_type":"html-button-response","trial_index":96,"time_elapsed":429752,"internal_node_id":"0.0-4.0-1.44","subject_id":"5f38c9aa0c68ee3f7c72f7b4","study_id":"60edd13110225f80f9f3709b","session_id":"6196c7045683802cdfede352","condition":"contingent","relevant_dimensions":["wings","pattern"],"bee_group":{"antennae":"X","wings":"2","pattern":"D","legs":"X"},"bonus":1.300000000000001},{"rt":503.5,"stimulus":"bees-with-color/bee-A2DM.svg","response":0,"trial_type":"image-button-response","trial_index":97,"time_elapsed":430256,"internal_node_id":"0.0-4.0-0.45","subject_id":"5f38c9aa0c68ee3f7c72f7b4","study_id":"60edd13110225f80f9f3709b","session_id":"6196c7045683802cdfede352","condition":"contingent","relevant_dimensions":["wings","pattern"],"bee_group":{"antennae":"X","wings":"2","pattern":"D","legs":"X"},"action":"harvest","summary":"bad-harvest","bonus":1.300000000000001},{"rt":2318.400000035763,"stimulus":"\n                    <p><b>Action: <em>harvest</em></b></p>\n                    <p>This is the bee that you just saw.</p>\n                    <img src=\"bees-with-color/bee-A2DM.svg\" width=\"200\">\n                    <p><span class=\"redText\">Bad choice, the bee was angry.</span><br><b>You have been stung!</b><br>Your pay has been decreased by $0.10. Your bonus pay is now $0.78.</p>\n            ","response":0,"trial_type":"html-button-response","trial_index":98,"time_elapsed":432576,"internal_node_id":"0.0-4.0-1.45","subject_id":"5f38c9aa0c68ee3f7c72f7b4","study_id":"60edd13110225f80f9f3709b","session_id":"6196c7045683802cdfede352","condition":"contingent","relevant_dimensions":["wings","pattern"],"bee_group":{"antennae":"X","wings":"2","pattern":"D","legs":"X"},"bonus":1.300000000000001},{"rt":774.3000000119209,"stimulus":"bees-with-color/bee-B2SF.svg","response":0,"trial_type":"image-button-response","trial_index":99,"time_elapsed":433352,"internal_node_id":"0.0-4.0-0.46","subject_id":"5f38c9aa0c68ee3f7c72f7b4","study_id":"60edd13110225f80f9f3709b","session_id":"6196c7045683802cdfede352","condition":"contingent","relevant_dimensions":["wings","pattern"],"bee_group":{"antennae":"X","wings":"2","pattern":"D","legs":"X"},"action":"harvest","summary":"good-harvest","bonus":1.300000000000001},{"rt":662.6999999880791,"stimulus":"\n                    <p><b>Action: <em>harvest</em></b></p>\n                    <p>This is the bee that you just saw.</p>\n                    <img src=\"bees-with-color/bee-B2SF.svg\" width=\"200\">\n                    <p><span class=\"greenText\"><b>Successful harvest!</b></span><br>Your pay has increased by $0.02. Your bonus pay is now $0.80.</p>\n            ","response":0,"trial_type":"html-button-response","trial_index":100,"time_elapsed":434016,"internal_node_id":"0.0-4.0-1.46","subject_id":"5f38c9aa0c68ee3f7c72f7b4","study_id":"60edd13110225f80f9f3709b","session_id":"6196c7045683802cdfede352","condition":"contingent","relevant_dimensions":["wings","pattern"],"bee_group":{"antennae":"X","wings":"2","pattern":"D","legs":"X"},"bonus":1.300000000000001},{"rt":878.8000000119209,"stimulus":"bees-with-color/bee-B1SF.svg","response":0,"trial_type":"image-button-response","trial_index":101,"time_elapsed":434896,"internal_node_id":"0.0-4.0-0.47","subject_id":"5f38c9aa0c68ee3f7c72f7b4","study_id":"60edd13110225f80f9f3709b","session_id":"6196c7045683802cdfede352","condition":"contingent","relevant_dimensions":["wings","pattern"],"bee_group":{"antennae":"X","wings":"2","pattern":"D","legs":"X"},"action":"harvest","summary":"good-harvest","bonus":1.300000000000001},{"rt":535.0999999642372,"stimulus":"\n                    <p><b>Action: <em>harvest</em></b></p>\n                    <p>This is the bee that you just saw.</p>\n                    <img src=\"bees-with-color/bee-B1SF.svg\" width=\"200\">\n                    <p><span class=\"greenText\"><b>Successful harvest!</b></span><br>Your pay has increased by $0.02. Your bonus pay is now $0.82.</p>\n            ","response":0,"trial_type":"html-button-response","trial_index":102,"time_elapsed":435432,"internal_node_id":"0.0-4.0-1.47","subject_id":"5f38c9aa0c68ee3f7c72f7b4","study_id":"60edd13110225f80f9f3709b","session_id":"6196c7045683802cdfede352","condition":"contingent","relevant_dimensions":["wings","pattern"],"bee_group":{"antennae":"X","wings":"2","pattern":"D","legs":"X"},"bonus":1.300000000000001},{"rt":998.9000000357628,"stimulus":"bees-with-color/bee-A2DM.svg","response":1,"trial_type":"image-button-response","trial_index":103,"time_elapsed":436432,"internal_node_id":"0.0-4.0-0.48","subject_id":"5f38c9aa0c68ee3f7c72f7b4","study_id":"60edd13110225f80f9f3709b","session_id":"6196c7045683802cdfede352","condition":"contingent","relevant_dimensions":["wings","pattern"],"bee_group":{"antennae":"X","wings":"2","pattern":"D","legs":"X"},"action":"avoid","summary":"good-avoid","bonus":1.300000000000001},{"rt":494.69999998807907,"stimulus":"\n                    <p><b>Action: <em>avoid</em></b></p>\n                    <p>This is the bee that you just saw.</p>\n                    <img src=\"bees-with-color/bee-A2DM.svg\" width=\"200\">\n                    <p><br>Your bonus pay is unchanged, and remains at $0.82.</p>\n            ","response":0,"trial_type":"html-button-response","trial_index":104,"time_elapsed":436928,"internal_node_id":"0.0-4.0-1.48","subject_id":"5f38c9aa0c68ee3f7c72f7b4","study_id":"60edd13110225f80f9f3709b","session_id":"6196c7045683802cdfede352","condition":"contingent","relevant_dimensions":["wings","pattern"],"bee_group":{"antennae":"X","wings":"2","pattern":"D","legs":"X"},"bonus":1.300000000000001},{"rt":767,"stimulus":"bees-with-color/bee-A1DM.svg","response":1,"trial_type":"image-button-response","trial_index":105,"time_elapsed":437696,"internal_node_id":"0.0-4.0-0.49","subject_id":"5f38c9aa0c68ee3f7c72f7b4","study_id":"60edd13110225f80f9f3709b","session_id":"6196c7045683802cdfede352","condition":"contingent","relevant_dimensions":["wings","pattern"],"bee_group":{"antennae":"X","wings":"2","pattern":"D","legs":"X"},"action":"avoid","summary":"bad-avoid","bonus":1.300000000000001},{"rt":471.10000002384186,"stimulus":"\n                    <p><b>Action: <em>avoid</em></b></p>\n                    <p>This is the bee that you just saw.</p>\n                    <img src=\"bees-with-color/bee-A1DM.svg\" width=\"200\">\n                    <p><br>Your bonus pay is unchanged, and remains at $0.82.</p>\n            ","response":0,"trial_type":"html-button-response","trial_index":106,"time_elapsed":438168,"internal_node_id":"0.0-4.0-1.49","subject_id":"5f38c9aa0c68ee3f7c72f7b4","study_id":"60edd13110225f80f9f3709b","session_id":"6196c7045683802cdfede352","condition":"contingent","relevant_dimensions":["wings","pattern"],"bee_group":{"antennae":"X","wings":"2","pattern":"D","legs":"X"},"bonus":1.300000000000001},{"rt":1455.7999999523163,"stimulus":"bees-with-color/bee-A1DF.svg","response":1,"trial_type":"image-button-response","trial_index":107,"time_elapsed":439625,"internal_node_id":"0.0-4.0-0.50","subject_id":"5f38c9aa0c68ee3f7c72f7b4","study_id":"60edd13110225f80f9f3709b","session_id":"6196c7045683802cdfede352","condition":"contingent","relevant_dimensions":["wings","pattern"],"bee_group":{"antennae":"X","wings":"2","pattern":"D","legs":"X"},"action":"avoid","summary":"bad-avoid","bonus":1.300000000000001},{"rt":550.2999999523163,"stimulus":"\n                    <p><b>Action: <em>avoid</em></b></p>\n                    <p>This is the bee that you just saw.</p>\n                    <img src=\"bees-with-color/bee-A1DF.svg\" width=\"200\">\n                    <p><br>Your bonus pay is unchanged, and remains at $0.82.</p>\n            ","response":0,"trial_type":"html-button-response","trial_index":108,"time_elapsed":440176,"internal_node_id":"0.0-4.0-1.50","subject_id":"5f38c9aa0c68ee3f7c72f7b4","study_id":"60edd13110225f80f9f3709b","session_id":"6196c7045683802cdfede352","condition":"contingent","relevant_dimensions":["wings","pattern"],"bee_group":{"antennae":"X","wings":"2","pattern":"D","legs":"X"},"bonus":1.300000000000001},{"rt":791.5,"stimulus":"bees-with-color/bee-A2SF.svg","response":0,"trial_type":"image-button-response","trial_index":109,"time_elapsed":440968,"internal_node_id":"0.0-4.0-0.51","subject_id":"5f38c9aa0c68ee3f7c72f7b4","study_id":"60edd13110225f80f9f3709b","session_id":"6196c7045683802cdfede352","condition":"contingent","relevant_dimensions":["wings","pattern"],"bee_group":{"antennae":"X","wings":"2","pattern":"D","legs":"X"},"action":"harvest","summary":"good-harvest","bonus":1.300000000000001},{"rt":478.69999998807907,"stimulus":"\n                    <p><b>Action: <em>harvest</em></b></p>\n                    <p>This is the bee that you just saw.</p>\n                    <img src=\"bees-with-color/bee-A2SF.svg\" width=\"200\">\n                    <p><span class=\"greenText\"><b>Successful harvest!</b></span><br>Your pay has increased by $0.02. Your bonus pay is now $0.84.</p>\n            ","response":0,"trial_type":"html-button-response","trial_index":110,"time_elapsed":441448,"internal_node_id":"0.0-4.0-1.51","subject_id":"5f38c9aa0c68ee3f7c72f7b4","study_id":"60edd13110225f80f9f3709b","session_id":"6196c7045683802cdfede352","condition":"contingent","relevant_dimensions":["wings","pattern"],"bee_group":{"antennae":"X","wings":"2","pattern":"D","legs":"X"},"bonus":1.300000000000001},{"rt":1279.7999999523163,"stimulus":"bees-with-color/bee-B2DM.svg","response":1,"trial_type":"image-button-response","trial_index":111,"time_elapsed":442729,"internal_node_id":"0.0-4.0-0.52","subject_id":"5f38c9aa0c68ee3f7c72f7b4","study_id":"60edd13110225f80f9f3709b","session_id":"6196c7045683802cdfede352","condition":"contingent","relevant_dimensions":["wings","pattern"],"bee_group":{"antennae":"X","wings":"2","pattern":"D","legs":"X"},"action":"avoid","summary":"good-avoid","bonus":1.300000000000001},{"rt":1518.199999988079,"stimulus":"\n                    <p><b>Action: <em>avoid</em></b></p>\n                    <p>This is the bee that you just saw.</p>\n                    <img src=\"bees-with-color/bee-B2DM.svg\" width=\"200\">\n                    <p><br>Your bonus pay is unchanged, and remains at $0.84.</p>\n            ","response":0,"trial_type":"html-button-response","trial_index":112,"time_elapsed":444248,"internal_node_id":"0.0-4.0-1.52","subject_id":"5f38c9aa0c68ee3f7c72f7b4","study_id":"60edd13110225f80f9f3709b","session_id":"6196c7045683802cdfede352","condition":"contingent","relevant_dimensions":["wings","pattern"],"bee_group":{"antennae":"X","wings":"2","pattern":"D","legs":"X"},"bonus":1.300000000000001},{"rt":1015.8000000119209,"stimulus":"bees-with-color/bee-B2SM.svg","response":0,"trial_type":"image-button-response","trial_index":113,"time_elapsed":445265,"internal_node_id":"0.0-4.0-0.53","subject_id":"5f38c9aa0c68ee3f7c72f7b4","study_id":"60edd13110225f80f9f3709b","session_id":"6196c7045683802cdfede352","condition":"contingent","relevant_dimensions":["wings","pattern"],"bee_group":{"antennae":"X","wings":"2","pattern":"D","legs":"X"},"action":"harvest","summary":"good-harvest","bonus":1.300000000000001},{"rt":606.1000000238419,"stimulus":"\n                    <p><b>Action: <em>harvest</em></b></p>\n                    <p>This is the bee that you just saw.</p>\n                    <img src=\"bees-with-color/bee-B2SM.svg\" width=\"200\">\n                    <p><span class=\"greenText\"><b>Successful harvest!</b></span><br>Your pay has increased by $0.02. Your bonus pay is now $0.86.</p>\n            ","response":0,"trial_type":"html-button-response","trial_index":114,"time_elapsed":445872,"internal_node_id":"0.0-4.0-1.53","subject_id":"5f38c9aa0c68ee3f7c72f7b4","study_id":"60edd13110225f80f9f3709b","session_id":"6196c7045683802cdfede352","condition":"contingent","relevant_dimensions":["wings","pattern"],"bee_group":{"antennae":"X","wings":"2","pattern":"D","legs":"X"},"bonus":1.300000000000001},{"rt":790.8000000119209,"stimulus":"bees-with-color/bee-A2SM.svg","response":0,"trial_type":"image-button-response","trial_index":115,"time_elapsed":446664,"internal_node_id":"0.0-4.0-0.54","subject_id":"5f38c9aa0c68ee3f7c72f7b4","study_id":"60edd13110225f80f9f3709b","session_id":"6196c7045683802cdfede352","condition":"contingent","relevant_dimensions":["wings","pattern"],"bee_group":{"antennae":"X","wings":"2","pattern":"D","legs":"X"},"action":"harvest","summary":"good-harvest","bonus":1.300000000000001},{"rt":774.7000000476837,"stimulus":"\n                    <p><b>Action: <em>harvest</em></b></p>\n                    <p>This is the bee that you just saw.</p>\n                    <img src=\"bees-with-color/bee-A2SM.svg\" width=\"200\">\n                    <p><span class=\"greenText\"><b>Successful harvest!</b></span><br>Your pay has increased by $0.02. Your bonus pay is now $0.88.</p>\n            ","response":0,"trial_type":"html-button-response","trial_index":116,"time_elapsed":447440,"internal_node_id":"0.0-4.0-1.54","subject_id":"5f38c9aa0c68ee3f7c72f7b4","study_id":"60edd13110225f80f9f3709b","session_id":"6196c7045683802cdfede352","condition":"contingent","relevant_dimensions":["wings","pattern"],"bee_group":{"antennae":"X","wings":"2","pattern":"D","legs":"X"},"bonus":1.300000000000001},{"rt":710.8999999761581,"stimulus":"bees-with-color/bee-B1SM.svg","response":0,"trial_type":"image-button-response","trial_index":117,"time_elapsed":448152,"internal_node_id":"0.0-4.0-0.55","subject_id":"5f38c9aa0c68ee3f7c72f7b4","study_id":"60edd13110225f80f9f3709b","session_id":"6196c7045683802cdfede352","condition":"contingent","relevant_dimensions":["wings","pattern"],"bee_group":{"antennae":"X","wings":"2","pattern":"D","legs":"X"},"action":"harvest","summary":"good-harvest","bonus":1.300000000000001},{"rt":543.3000000119209,"stimulus":"\n                    <p><b>Action: <em>harvest</em></b></p>\n                    <p>This is the bee that you just saw.</p>\n                    <img src=\"bees-with-color/bee-B1SM.svg\" width=\"200\">\n                    <p><span class=\"greenText\"><b>Successful harvest!</b></span><br>Your pay has increased by $0.02. Your bonus pay is now $0.90.</p>\n            ","response":0,"trial_type":"html-button-response","trial_index":118,"time_elapsed":448696,"internal_node_id":"0.0-4.0-1.55","subject_id":"5f38c9aa0c68ee3f7c72f7b4","study_id":"60edd13110225f80f9f3709b","session_id":"6196c7045683802cdfede352","condition":"contingent","relevant_dimensions":["wings","pattern"],"bee_group":{"antennae":"X","wings":"2","pattern":"D","legs":"X"},"bonus":1.300000000000001},{"rt":1910.5,"stimulus":"bees-with-color/bee-B2SF.svg","response":0,"trial_type":"image-button-response","trial_index":119,"time_elapsed":450608,"internal_node_id":"0.0-4.0-0.56","subject_id":"5f38c9aa0c68ee3f7c72f7b4","study_id":"60edd13110225f80f9f3709b","session_id":"6196c7045683802cdfede352","condition":"contingent","relevant_dimensions":["wings","pattern"],"bee_group":{"antennae":"X","wings":"2","pattern":"D","legs":"X"},"action":"harvest","summary":"good-harvest","bonus":1.300000000000001},{"rt":607.0999999642372,"stimulus":"\n                    <p><b>Action: <em>harvest</em></b></p>\n                    <p>This is the bee that you just saw.</p>\n                    <img src=\"bees-with-color/bee-B2SF.svg\" width=\"200\">\n                    <p><span class=\"greenText\"><b>Successful harvest!</b></span><br>Your pay has increased by $0.02. Your bonus pay is now $0.92.</p>\n            ","response":0,"trial_type":"html-button-response","trial_index":120,"time_elapsed":451216,"internal_node_id":"0.0-4.0-1.56","subject_id":"5f38c9aa0c68ee3f7c72f7b4","study_id":"60edd13110225f80f9f3709b","session_id":"6196c7045683802cdfede352","condition":"contingent","relevant_dimensions":["wings","pattern"],"bee_group":{"antennae":"X","wings":"2","pattern":"D","legs":"X"},"bonus":1.300000000000001},{"rt":830.5,"stimulus":"bees-with-color/bee-B1DF.svg","response":1,"trial_type":"image-button-response","trial_index":121,"time_elapsed":452048,"internal_node_id":"0.0-4.0-0.57","subject_id":"5f38c9aa0c68ee3f7c72f7b4","study_id":"60edd13110225f80f9f3709b","session_id":"6196c7045683802cdfede352","condition":"contingent","relevant_dimensions":["wings","pattern"],"bee_group":{"antennae":"X","wings":"2","pattern":"D","legs":"X"},"action":"avoid","summary":"bad-avoid","bonus":1.300000000000001},{"rt":551,"stimulus":"\n                    <p><b>Action: <em>avoid</em></b></p>\n                    <p>This is the bee that you just saw.</p>\n                    <img src=\"bees-with-color/bee-B1DF.svg\" width=\"200\">\n                    <p><br>Your bonus pay is unchanged, and remains at $0.92.</p>\n            ","response":0,"trial_type":"html-button-response","trial_index":122,"time_elapsed":452600,"internal_node_id":"0.0-4.0-1.57","subject_id":"5f38c9aa0c68ee3f7c72f7b4","study_id":"60edd13110225f80f9f3709b","session_id":"6196c7045683802cdfede352","condition":"contingent","relevant_dimensions":["wings","pattern"],"bee_group":{"antennae":"X","wings":"2","pattern":"D","legs":"X"},"bonus":1.300000000000001},{"rt":1142.800000011921,"stimulus":"bees-with-color/bee-A2DF.svg","response":1,"trial_type":"image-button-response","trial_index":123,"time_elapsed":453744,"internal_node_id":"0.0-4.0-0.58","subject_id":"5f38c9aa0c68ee3f7c72f7b4","study_id":"60edd13110225f80f9f3709b","session_id":"6196c7045683802cdfede352","condition":"contingent","relevant_dimensions":["wings","pattern"],"bee_group":{"antennae":"X","wings":"2","pattern":"D","legs":"X"},"action":"avoid","summary":"good-avoid","bonus":1.300000000000001},{"rt":463.60000002384186,"stimulus":"\n                    <p><b>Action: <em>avoid</em></b></p>\n                    <p>This is the bee that you just saw.</p>\n                    <img src=\"bees-with-color/bee-A2DF.svg\" width=\"200\">\n                    <p><br>Your bonus pay is unchanged, and remains at $0.92.</p>\n            ","response":0,"trial_type":"html-button-response","trial_index":124,"time_elapsed":454209,"internal_node_id":"0.0-4.0-1.58","subject_id":"5f38c9aa0c68ee3f7c72f7b4","study_id":"60edd13110225f80f9f3709b","session_id":"6196c7045683802cdfede352","condition":"contingent","relevant_dimensions":["wings","pattern"],"bee_group":{"antennae":"X","wings":"2","pattern":"D","legs":"X"},"bonus":1.300000000000001},{"rt":854.1000000238419,"stimulus":"bees-with-color/bee-A1SF.svg","response":0,"trial_type":"image-button-response","trial_index":125,"time_elapsed":455064,"internal_node_id":"0.0-4.0-0.59","subject_id":"5f38c9aa0c68ee3f7c72f7b4","study_id":"60edd13110225f80f9f3709b","session_id":"6196c7045683802cdfede352","condition":"contingent","relevant_dimensions":["wings","pattern"],"bee_group":{"antennae":"X","wings":"2","pattern":"D","legs":"X"},"action":"harvest","summary":"good-harvest","bonus":1.300000000000001},{"rt":536.1000000238419,"stimulus":"\n                    <p><b>Action: <em>harvest</em></b></p>\n                    <p>This is the bee that you just saw.</p>\n                    <img src=\"bees-with-color/bee-A1SF.svg\" width=\"200\">\n                    <p><span class=\"greenText\"><b>Successful harvest!</b></span><br>Your pay has increased by $0.02. Your bonus pay is now $0.94.</p>\n            ","response":0,"trial_type":"html-button-response","trial_index":126,"time_elapsed":455601,"internal_node_id":"0.0-4.0-1.59","subject_id":"5f38c9aa0c68ee3f7c72f7b4","study_id":"60edd13110225f80f9f3709b","session_id":"6196c7045683802cdfede352","condition":"contingent","relevant_dimensions":["wings","pattern"],"bee_group":{"antennae":"X","wings":"2","pattern":"D","legs":"X"},"bonus":1.300000000000001},{"rt":781.5,"stimulus":"bees-with-color/bee-B2DF.svg","response":1,"trial_type":"image-button-response","trial_index":127,"time_elapsed":456384,"internal_node_id":"0.0-4.0-0.60","subject_id":"5f38c9aa0c68ee3f7c72f7b4","study_id":"60edd13110225f80f9f3709b","session_id":"6196c7045683802cdfede352","condition":"contingent","relevant_dimensions":["wings","pattern"],"bee_group":{"antennae":"X","wings":"2","pattern":"D","legs":"X"},"action":"avoid","summary":"good-avoid","bonus":1.300000000000001},{"rt":567.0999999642372,"stimulus":"\n                    <p><b>Action: <em>avoid</em></b></p>\n                    <p>This is the bee that you just saw.</p>\n                    <img src=\"bees-with-color/bee-B2DF.svg\" width=\"200\">\n                    <p><br>Your bonus pay is unchanged, and remains at $0.94.</p>\n            ","response":0,"trial_type":"html-button-response","trial_index":128,"time_elapsed":456952,"internal_node_id":"0.0-4.0-1.60","subject_id":"5f38c9aa0c68ee3f7c72f7b4","study_id":"60edd13110225f80f9f3709b","session_id":"6196c7045683802cdfede352","condition":"contingent","relevant_dimensions":["wings","pattern"],"bee_group":{"antennae":"X","wings":"2","pattern":"D","legs":"X"},"bonus":1.300000000000001},{"rt":711.3000000119209,"stimulus":"bees-with-color/bee-A1SM.svg","response":0,"trial_type":"image-button-response","trial_index":129,"time_elapsed":457664,"internal_node_id":"0.0-4.0-0.61","subject_id":"5f38c9aa0c68ee3f7c72f7b4","study_id":"60edd13110225f80f9f3709b","session_id":"6196c7045683802cdfede352","condition":"contingent","relevant_dimensions":["wings","pattern"],"bee_group":{"antennae":"X","wings":"2","pattern":"D","legs":"X"},"action":"harvest","summary":"good-harvest","bonus":1.300000000000001},{"rt":559.0999999642372,"stimulus":"\n                    <p><b>Action: <em>harvest</em></b></p>\n                    <p>This is the bee that you just saw.</p>\n                    <img src=\"bees-with-color/bee-A1SM.svg\" width=\"200\">\n                    <p><span class=\"greenText\"><b>Successful harvest!</b></span><br>Your pay has increased by $0.02. Your bonus pay is now $0.96.</p>\n            ","response":0,"trial_type":"html-button-response","trial_index":130,"time_elapsed":458224,"internal_node_id":"0.0-4.0-1.61","subject_id":"5f38c9aa0c68ee3f7c72f7b4","study_id":"60edd13110225f80f9f3709b","session_id":"6196c7045683802cdfede352","condition":"contingent","relevant_dimensions":["wings","pattern"],"bee_group":{"antennae":"X","wings":"2","pattern":"D","legs":"X"},"bonus":1.300000000000001},{"rt":758.6999999880791,"stimulus":"bees-with-color/bee-B1SF.svg","response":0,"trial_type":"image-button-response","trial_index":131,"time_elapsed":458984,"internal_node_id":"0.0-4.0-0.62","subject_id":"5f38c9aa0c68ee3f7c72f7b4","study_id":"60edd13110225f80f9f3709b","session_id":"6196c7045683802cdfede352","condition":"contingent","relevant_dimensions":["wings","pattern"],"bee_group":{"antennae":"X","wings":"2","pattern":"D","legs":"X"},"action":"harvest","summary":"good-harvest","bonus":1.300000000000001},{"rt":511.19999998807907,"stimulus":"\n                    <p><b>Action: <em>harvest</em></b></p>\n                    <p>This is the bee that you just saw.</p>\n                    <img src=\"bees-with-color/bee-B1SF.svg\" width=\"200\">\n                    <p><span class=\"greenText\"><b>Successful harvest!</b></span><br>Your pay has increased by $0.02. Your bonus pay is now $0.98.</p>\n            ","response":0,"trial_type":"html-button-response","trial_index":132,"time_elapsed":459496,"internal_node_id":"0.0-4.0-1.62","subject_id":"5f38c9aa0c68ee3f7c72f7b4","study_id":"60edd13110225f80f9f3709b","session_id":"6196c7045683802cdfede352","condition":"contingent","relevant_dimensions":["wings","pattern"],"bee_group":{"antennae":"X","wings":"2","pattern":"D","legs":"X"},"bonus":1.300000000000001},{"rt":1103.300000011921,"stimulus":"bees-with-color/bee-B1DM.svg","response":1,"trial_type":"image-button-response","trial_index":133,"time_elapsed":460601,"internal_node_id":"0.0-4.0-0.63","subject_id":"5f38c9aa0c68ee3f7c72f7b4","study_id":"60edd13110225f80f9f3709b","session_id":"6196c7045683802cdfede352","condition":"contingent","relevant_dimensions":["wings","pattern"],"bee_group":{"antennae":"X","wings":"2","pattern":"D","legs":"X"},"action":"avoid","summary":"bad-avoid","bonus":1.300000000000001},{"rt":510.2000000476837,"stimulus":"\n                    <p><b>Action: <em>avoid</em></b></p>\n                    <p>This is the bee that you just saw.</p>\n                    <img src=\"bees-with-color/bee-B1DM.svg\" width=\"200\">\n                    <p><br>Your bonus pay is unchanged, and remains at $0.98.</p>\n            ","response":0,"trial_type":"html-button-response","trial_index":134,"time_elapsed":461112,"internal_node_id":"0.0-4.0-1.63","subject_id":"5f38c9aa0c68ee3f7c72f7b4","study_id":"60edd13110225f80f9f3709b","session_id":"6196c7045683802cdfede352","condition":"contingent","relevant_dimensions":["wings","pattern"],"bee_group":{"antennae":"X","wings":"2","pattern":"D","legs":"X"},"bonus":1.300000000000001},{"rt":9961.099999964237,"stimulus":"You have completed the first part of this experiment.<br><br>You will now begin a shorter second part, in which you will receive no feedback.<br>The same rules regarding bonus pay apply.<br><br>Press any key to begin.","response":"enter","trial_type":"html-keyboard-response","trial_index":135,"time_elapsed":471073,"internal_node_id":"0.0-5.0","subject_id":"5f38c9aa0c68ee3f7c72f7b4","study_id":"60edd13110225f80f9f3709b","session_id":"6196c7045683802cdfede352","condition":"contingent","relevant_dimensions":["wings","pattern"],"bee_group":{"antennae":"X","wings":"2","pattern":"D","legs":"X"},"bonus":1.300000000000001},{"rt":1919.8999999761581,"stimulus":"bees-with-color/bee-A1SF.svg","response":0,"trial_type":"image-button-response","trial_index":136,"time_elapsed":473000,"internal_node_id":"0.0-6.0-0.0","subject_id":"5f38c9aa0c68ee3f7c72f7b4","study_id":"60edd13110225f80f9f3709b","session_id":"6196c7045683802cdfede352","condition":"contingent","relevant_dimensions":["wings","pattern"],"bee_group":{"antennae":"X","wings":"2","pattern":"D","legs":"X"},"bonus":1.300000000000001},{"rt":2965.800000011921,"stimulus":"bees-with-color/bee-B1DF.svg","response":1,"trial_type":"image-button-response","trial_index":137,"time_elapsed":475967,"internal_node_id":"0.0-6.0-0.1","subject_id":"5f38c9aa0c68ee3f7c72f7b4","study_id":"60edd13110225f80f9f3709b","session_id":"6196c7045683802cdfede352","condition":"contingent","relevant_dimensions":["wings","pattern"],"bee_group":{"antennae":"X","wings":"2","pattern":"D","legs":"X"},"bonus":1.300000000000001},{"rt":814.3000000119209,"stimulus":"bees-with-color/bee-B1DM.svg","response":1,"trial_type":"image-button-response","trial_index":138,"time_elapsed":476784,"internal_node_id":"0.0-6.0-0.2","subject_id":"5f38c9aa0c68ee3f7c72f7b4","study_id":"60edd13110225f80f9f3709b","session_id":"6196c7045683802cdfede352","condition":"contingent","relevant_dimensions":["wings","pattern"],"bee_group":{"antennae":"X","wings":"2","pattern":"D","legs":"X"},"bonus":1.300000000000001},{"rt":854,"stimulus":"bees-with-color/bee-A1DM.svg","response":1,"trial_type":"image-button-response","trial_index":139,"time_elapsed":477639,"internal_node_id":"0.0-6.0-0.3","subject_id":"5f38c9aa0c68ee3f7c72f7b4","study_id":"60edd13110225f80f9f3709b","session_id":"6196c7045683802cdfede352","condition":"contingent","relevant_dimensions":["wings","pattern"],"bee_group":{"antennae":"X","wings":"2","pattern":"D","legs":"X"},"bonus":1.300000000000001},{"rt":629.8999999761581,"stimulus":"bees-with-color/bee-A2DM.svg","response":1,"trial_type":"image-button-response","trial_index":140,"time_elapsed":478271,"internal_node_id":"0.0-6.0-0.4","subject_id":"5f38c9aa0c68ee3f7c72f7b4","study_id":"60edd13110225f80f9f3709b","session_id":"6196c7045683802cdfede352","condition":"contingent","relevant_dimensions":["wings","pattern"],"bee_group":{"antennae":"X","wings":"2","pattern":"D","legs":"X"},"bonus":1.300000000000001},{"rt":1182.4000000357628,"stimulus":"bees-with-color/bee-B2DM.svg","response":1,"trial_type":"image-button-response","trial_index":141,"time_elapsed":479455,"internal_node_id":"0.0-6.0-0.5","subject_id":"5f38c9aa0c68ee3f7c72f7b4","study_id":"60edd13110225f80f9f3709b","session_id":"6196c7045683802cdfede352","condition":"contingent","relevant_dimensions":["wings","pattern"],"bee_group":{"antennae":"X","wings":"2","pattern":"D","legs":"X"},"bonus":1.300000000000001},{"rt":757.6999999880791,"stimulus":"bees-with-color/bee-B1SM.svg","response":0,"trial_type":"image-button-response","trial_index":142,"time_elapsed":480215,"internal_node_id":"0.0-6.0-0.6","subject_id":"5f38c9aa0c68ee3f7c72f7b4","study_id":"60edd13110225f80f9f3709b","session_id":"6196c7045683802cdfede352","condition":"contingent","relevant_dimensions":["wings","pattern"],"bee_group":{"antennae":"X","wings":"2","pattern":"D","legs":"X"},"bonus":1.300000000000001},{"rt":774.5,"stimulus":"bees-with-color/bee-A2SM.svg","response":0,"trial_type":"image-button-response","trial_index":143,"time_elapsed":480991,"internal_node_id":"0.0-6.0-0.7","subject_id":"5f38c9aa0c68ee3f7c72f7b4","study_id":"60edd13110225f80f9f3709b","session_id":"6196c7045683802cdfede352","condition":"contingent","relevant_dimensions":["wings","pattern"],"bee_group":{"antennae":"X","wings":"2","pattern":"D","legs":"X"},"bonus":1.300000000000001},{"rt":3150.599999964237,"stimulus":"bees-with-color/bee-B1SF.svg","response":0,"trial_type":"image-button-response","trial_index":144,"time_elapsed":484144,"internal_node_id":"0.0-6.0-0.8","subject_id":"5f38c9aa0c68ee3f7c72f7b4","study_id":"60edd13110225f80f9f3709b","session_id":"6196c7045683802cdfede352","condition":"contingent","relevant_dimensions":["wings","pattern"],"bee_group":{"antennae":"X","wings":"2","pattern":"D","legs":"X"},"bonus":1.300000000000001},{"rt":926.1999999880791,"stimulus":"bees-with-color/bee-A1DF.svg","response":1,"trial_type":"image-button-response","trial_index":145,"time_elapsed":485072,"internal_node_id":"0.0-6.0-0.9","subject_id":"5f38c9aa0c68ee3f7c72f7b4","study_id":"60edd13110225f80f9f3709b","session_id":"6196c7045683802cdfede352","condition":"contingent","relevant_dimensions":["wings","pattern"],"bee_group":{"antennae":"X","wings":"2","pattern":"D","legs":"X"},"bonus":1.300000000000001},{"rt":1909.5,"stimulus":"bees-with-color/bee-A1SM.svg","response":0,"trial_type":"image-button-response","trial_index":146,"time_elapsed":486983,"internal_node_id":"0.0-6.0-0.10","subject_id":"5f38c9aa0c68ee3f7c72f7b4","study_id":"60edd13110225f80f9f3709b","session_id":"6196c7045683802cdfede352","condition":"contingent","relevant_dimensions":["wings","pattern"],"bee_group":{"antennae":"X","wings":"2","pattern":"D","legs":"X"},"bonus":1.300000000000001},{"rt":934.1000000238419,"stimulus":"bees-with-color/bee-A2SF.svg","response":0,"trial_type":"image-button-response","trial_index":147,"time_elapsed":487919,"internal_node_id":"0.0-6.0-0.11","subject_id":"5f38c9aa0c68ee3f7c72f7b4","study_id":"60edd13110225f80f9f3709b","session_id":"6196c7045683802cdfede352","condition":"contingent","relevant_dimensions":["wings","pattern"],"bee_group":{"antennae":"X","wings":"2","pattern":"D","legs":"X"},"bonus":1.300000000000001},{"rt":750.7000000476837,"stimulus":"bees-with-color/bee-B2SM.svg","response":0,"trial_type":"image-button-response","trial_index":148,"time_elapsed":488671,"internal_node_id":"0.0-6.0-0.12","subject_id":"5f38c9aa0c68ee3f7c72f7b4","study_id":"60edd13110225f80f9f3709b","session_id":"6196c7045683802cdfede352","condition":"contingent","relevant_dimensions":["wings","pattern"],"bee_group":{"antennae":"X","wings":"2","pattern":"D","legs":"X"},"bonus":1.300000000000001},{"rt":919.3000000119209,"stimulus":"bees-with-color/bee-B2DF.svg","response":1,"trial_type":"image-button-response","trial_index":149,"time_elapsed":489592,"internal_node_id":"0.0-6.0-0.13","subject_id":"5f38c9aa0c68ee3f7c72f7b4","study_id":"60edd13110225f80f9f3709b","session_id":"6196c7045683802cdfede352","condition":"contingent","relevant_dimensions":["wings","pattern"],"bee_group":{"antennae":"X","wings":"2","pattern":"D","legs":"X"},"bonus":1.300000000000001},{"rt":917.9000000357628,"stimulus":"bees-with-color/bee-A2DF.svg","response":1,"trial_type":"image-button-response","trial_index":150,"time_elapsed":490511,"internal_node_id":"0.0-6.0-0.14","subject_id":"5f38c9aa0c68ee3f7c72f7b4","study_id":"60edd13110225f80f9f3709b","session_id":"6196c7045683802cdfede352","condition":"contingent","relevant_dimensions":["wings","pattern"],"bee_group":{"antennae":"X","wings":"2","pattern":"D","legs":"X"},"bonus":1.300000000000001},{"rt":686.1999999880791,"stimulus":"bees-with-color/bee-B2SF.svg","response":0,"trial_type":"image-button-response","trial_index":151,"time_elapsed":491199,"internal_node_id":"0.0-6.0-0.15","subject_id":"5f38c9aa0c68ee3f7c72f7b4","study_id":"60edd13110225f80f9f3709b","session_id":"6196c7045683802cdfede352","condition":"contingent","relevant_dimensions":["wings","pattern"],"bee_group":{"antennae":"X","wings":"2","pattern":"D","legs":"X"},"bonus":1.300000000000001},{"rt":902.6999999880791,"stimulus":"bees-with-color/bee-B2DM.svg","response":1,"trial_type":"image-button-response","trial_index":152,"time_elapsed":492103,"internal_node_id":"0.0-6.0-0.16","subject_id":"5f38c9aa0c68ee3f7c72f7b4","study_id":"60edd13110225f80f9f3709b","session_id":"6196c7045683802cdfede352","condition":"contingent","relevant_dimensions":["wings","pattern"],"bee_group":{"antennae":"X","wings":"2","pattern":"D","legs":"X"},"bonus":1.300000000000001},{"rt":926.9000000357628,"stimulus":"bees-with-color/bee-B1DF.svg","response":1,"trial_type":"image-button-response","trial_index":153,"time_elapsed":493031,"internal_node_id":"0.0-6.0-0.17","subject_id":"5f38c9aa0c68ee3f7c72f7b4","study_id":"60edd13110225f80f9f3709b","session_id":"6196c7045683802cdfede352","condition":"contingent","relevant_dimensions":["wings","pattern"],"bee_group":{"antennae":"X","wings":"2","pattern":"D","legs":"X"},"bonus":1.300000000000001},{"rt":774.3000000119209,"stimulus":"bees-with-color/bee-B1SM.svg","response":0,"trial_type":"image-button-response","trial_index":154,"time_elapsed":493807,"internal_node_id":"0.0-6.0-0.18","subject_id":"5f38c9aa0c68ee3f7c72f7b4","study_id":"60edd13110225f80f9f3709b","session_id":"6196c7045683802cdfede352","condition":"contingent","relevant_dimensions":["wings","pattern"],"bee_group":{"antennae":"X","wings":"2","pattern":"D","legs":"X"},"bonus":1.300000000000001},{"rt":870.6999999880791,"stimulus":"bees-with-color/bee-B2SM.svg","response":0,"trial_type":"image-button-response","trial_index":155,"time_elapsed":494679,"internal_node_id":"0.0-6.0-0.19","subject_id":"5f38c9aa0c68ee3f7c72f7b4","study_id":"60edd13110225f80f9f3709b","session_id":"6196c7045683802cdfede352","condition":"contingent","relevant_dimensions":["wings","pattern"],"bee_group":{"antennae":"X","wings":"2","pattern":"D","legs":"X"},"bonus":1.300000000000001},{"rt":1038.8999999761581,"stimulus":"bees-with-color/bee-A1DF.svg","response":1,"trial_type":"image-button-response","trial_index":156,"time_elapsed":495719,"internal_node_id":"0.0-6.0-0.20","subject_id":"5f38c9aa0c68ee3f7c72f7b4","study_id":"60edd13110225f80f9f3709b","session_id":"6196c7045683802cdfede352","condition":"contingent","relevant_dimensions":["wings","pattern"],"bee_group":{"antennae":"X","wings":"2","pattern":"D","legs":"X"},"bonus":1.300000000000001},{"rt":758.1999999880791,"stimulus":"bees-with-color/bee-A2SF.svg","response":0,"trial_type":"image-button-response","trial_index":157,"time_elapsed":496479,"internal_node_id":"0.0-6.0-0.21","subject_id":"5f38c9aa0c68ee3f7c72f7b4","study_id":"60edd13110225f80f9f3709b","session_id":"6196c7045683802cdfede352","condition":"contingent","relevant_dimensions":["wings","pattern"],"bee_group":{"antennae":"X","wings":"2","pattern":"D","legs":"X"},"bonus":1.300000000000001},{"rt":742.6999999880791,"stimulus":"bees-with-color/bee-A2SM.svg","response":0,"trial_type":"image-button-response","trial_index":158,"time_elapsed":497223,"internal_node_id":"0.0-6.0-0.22","subject_id":"5f38c9aa0c68ee3f7c72f7b4","study_id":"60edd13110225f80f9f3709b","session_id":"6196c7045683802cdfede352","condition":"contingent","relevant_dimensions":["wings","pattern"],"bee_group":{"antennae":"X","wings":"2","pattern":"D","legs":"X"},"bonus":1.300000000000001},{"rt":806.8000000119209,"stimulus":"bees-with-color/bee-A2DF.svg","response":1,"trial_type":"image-button-response","trial_index":159,"time_elapsed":498031,"internal_node_id":"0.0-6.0-0.23","subject_id":"5f38c9aa0c68ee3f7c72f7b4","study_id":"60edd13110225f80f9f3709b","session_id":"6196c7045683802cdfede352","condition":"contingent","relevant_dimensions":["wings","pattern"],"bee_group":{"antennae":"X","wings":"2","pattern":"D","legs":"X"},"bonus":1.300000000000001},{"rt":982.8000000119209,"stimulus":"bees-with-color/bee-A1SF.svg","response":0,"trial_type":"image-button-response","trial_index":160,"time_elapsed":499015,"internal_node_id":"0.0-6.0-0.24","subject_id":"5f38c9aa0c68ee3f7c72f7b4","study_id":"60edd13110225f80f9f3709b","session_id":"6196c7045683802cdfede352","condition":"contingent","relevant_dimensions":["wings","pattern"],"bee_group":{"antennae":"X","wings":"2","pattern":"D","legs":"X"},"bonus":1.300000000000001},{"rt":950.5,"stimulus":"bees-with-color/bee-A2DM.svg","response":1,"trial_type":"image-button-response","trial_index":161,"time_elapsed":499968,"internal_node_id":"0.0-6.0-0.25","subject_id":"5f38c9aa0c68ee3f7c72f7b4","study_id":"60edd13110225f80f9f3709b","session_id":"6196c7045683802cdfede352","condition":"contingent","relevant_dimensions":["wings","pattern"],"bee_group":{"antennae":"X","wings":"2","pattern":"D","legs":"X"},"bonus":1.300000000000001},{"rt":661.8000000119209,"stimulus":"bees-with-color/bee-A1DM.svg","response":1,"trial_type":"image-button-response","trial_index":162,"time_elapsed":500631,"internal_node_id":"0.0-6.0-0.26","subject_id":"5f38c9aa0c68ee3f7c72f7b4","study_id":"60edd13110225f80f9f3709b","session_id":"6196c7045683802cdfede352","condition":"contingent","relevant_dimensions":["wings","pattern"],"bee_group":{"antennae":"X","wings":"2","pattern":"D","legs":"X"},"bonus":1.300000000000001},{"rt":574.6000000238419,"stimulus":"bees-with-color/bee-B2DF.svg","respons