[{"success":true,"trial_type":"fullscreen","trial_index":0,"time_elapsed":6619,"internal_node_id":"0.0-0.0","subject_id":"610bce3ab86d818fca5066a3","study_id":"6197b3f67c2b5cd3b6d9596a","session_id":"6197b88b5545c270d08ef401","condition":"contingent","relevant_dimensions":["antennae","pattern"],"bee_group":{"antennae":"B","wings":"X","pattern":"D","legs":"X"},"bonus":0.6800000000000005},{"success":true,"timeout":false,"failed_images":[],"failed_audio":[],"failed_video":[],"trial_type":"preload","trial_index":1,"time_elapsed":11853,"internal_node_id":"0.0-1.0","subject_id":"610bce3ab86d818fca5066a3","study_id":"6197b3f67c2b5cd3b6d9596a","session_id":"6197b88b5545c270d08ef401","condition":"contingent","relevant_dimensions":["antennae","pattern"],"bee_group":{"antennae":"B","wings":"X","pattern":"D","legs":"X"},"bonus":0.6800000000000005},{"rt":4310.400000035763,"stimulus":"Welcome! Press any key to begin.","response":"arrowdown","trial_type":"html-keyboard-response","trial_index":2,"time_elapsed":16164,"internal_node_id":"0.0-2.0","subject_id":"610bce3ab86d818fca5066a3","study_id":"6197b3f67c2b5cd3b6d9596a","session_id":"6197b88b5545c270d08ef401","condition":"contingent","relevant_dimensions":["antennae","pattern"],"bee_group":{"antennae":"B","wings":"X","pattern":"D","legs":"X"},"bonus":0.6800000000000005},{"view_history":[{"page_index":0,"viewing_time":7211.300000011921},{"page_index":1,"viewing_time":24827.899999976158},{"page_index":2,"viewing_time":6252.100000023842},{"page_index":3,"viewing_time":11315.799999952316},{"page_index":4,"viewing_time":7216},{"page_index":5,"viewing_time":3501.300000011921},{"page_index":6,"viewing_time":6111.100000023842},{"page_index":7,"viewing_time":9875.599999964237},{"page_index":6,"viewing_time":9377.800000011921},{"page_index":7,"viewing_time":3210.199999988079},{"page_index":8,"viewing_time":6488.300000011921},{"page_index":9,"viewing_time":4021.199999988079},{"page_index":10,"viewing_time":2620.600000023842},{"page_index":11,"viewing_time":5371.800000011921},{"page_index":12,"viewing_time":15582.199999988079},{"page_index":13,"viewing_time":1320},{"page_index":14,"viewing_time":4988.199999988079}],"rt":129292.09999996424,"trial_type":"instructions","trial_index":3,"time_elapsed":145457,"internal_node_id":"0.0-3.0-0.0","subject_id":"610bce3ab86d818fca5066a3","study_id":"6197b3f67c2b5cd3b6d9596a","session_id":"6197b88b5545c270d08ef401","condition":"contingent","relevant_dimensions":["antennae","pattern"],"bee_group":{"antennae":"B","wings":"X","pattern":"D","legs":"X"},"bonus":0.6800000000000005},{"rt":27690.899999976158,"response":{"Q0":["Two or six legs","Stripes or spots on body","Single or double wings","Antennae or no antennae"]},"question_order":[0],"trial_type":"survey-multi-select","trial_index":4,"time_elapsed":173156,"internal_node_id":"0.0-3.0-1.0","subject_id":"610bce3ab86d818fca5066a3","study_id":"6197b3f67c2b5cd3b6d9596a","session_id":"6197b88b5545c270d08ef401","condition":"contingent","relevant_dimensions":["antennae","pattern"],"bee_group":{"antennae":"B","wings":"X","pattern":"D","legs":"X"},"correct":true,"bonus":0.6800000000000005},{"rt":24138.099999964237,"response":{"Q1":"Yes.","Q2":"Based on the order in which you see the bees.","Q3":"You do not learn if it was friendly or dangerous, and do not alter your bonus."},"question_order":[0,1,2],"trial_type":"survey-multi-choice","trial_index":5,"time_elapsed":197300,"internal_node_id":"0.0-3.0-2.0","subject_id":"610bce3ab86d818fca5066a3","study_id":"6197b3f67c2b5cd3b6d9596a","session_id":"6197b88b5545c270d08ef401","condition":"contingent","relevant_dimensions":["antennae","pattern"],"bee_group":{"antennae":"B","wings":"X","pattern":"D","legs":"X"},"correct":false,"bonus":0.6800000000000005},{"rt":4410.800000011921,"stimulus":"<p>You did not answer all comprehension questions correctly.<br>Press <b>continue</b> to review the instructions again.</p>","response":0,"trial_type":"html-button-response","trial_index":6,"time_elapsed":201717,"internal_node_id":"0.0-3.0-3.0","subject_id":"610bce3ab86d818fca5066a3","study_id":"6197b3f67c2b5cd3b6d9596a","session_id":"6197b88b5545c270d08ef401","condition":"contingent","relevant_dimensions":["antennae","pattern"],"bee_group":{"antennae":"B","wings":"X","pattern":"D","legs":"X"},"bonus":0.6800000000000005},{"view_history":[{"page_index":0,"viewing_time":2059.600000023842},{"page_index":1,"viewing_time":19877.80000001192},{"page_index":2,"viewing_time":19624.19999998808},{"page_index":3,"viewing_time":19972},{"page_index":4,"viewing_time":17860},{"page_index":5,"viewing_time":2548.100000023842},{"page_index":6,"viewing_time":3997.699999988079},{"page_index":7,"viewing_time":3016.099999964237},{"page_index":8,"viewing_time":1394.1000000238419},{"page_index":9,"viewing_time":2034},{"page_index":10,"viewing_time":1130},{"page_index":11,"viewing_time":2469.899999976158},{"page_index":12,"viewing_time":1552.2000000476837},{"page_index":13,"viewing_time":1125.3999999761581},{"page_index":14,"viewing_time":856.8000000119209}],"rt":99518.30000001192,"trial_type":"instructions","trial_index":7,"time_elapsed":301237,"internal_node_id":"0.0-3.0-4.0-0.0","subject_id":"610bce3ab86d818fca5066a3","study_id":"6197b3f67c2b5cd3b6d9596a","session_id":"6197b88b5545c270d08ef401","condition":"contingent","relevant_dimensions":["antennae","pattern"],"bee_group":{"antennae":"B","wings":"X","pattern":"D","legs":"X"},"bonus":0.6800000000000005},{"rt":5578.600000023842,"response":{"Q0":["Two or six legs","Stripes or spots on body","Single or double wings","Antennae or no antennae"]},"question_order":[0],"trial_type":"survey-multi-select","trial_index":8,"time_elapsed":306821,"internal_node_id":"0.0-3.0-4.0-1.0","subject_id":"610bce3ab86d818fca5066a3","study_id":"6197b3f67c2b5cd3b6d9596a","session_id":"6197b88b5545c270d08ef401","condition":"contingent","relevant_dimensions":["antennae","pattern"],"bee_group":{"antennae":"B","wings":"X","pattern":"D","legs":"X"},"correct":true,"bonus":0.6800000000000005},{"rt":38757.10000002384,"response":{"Q1":"No.","Q2":"Based on the four features of the bee.","Q3":"You do not learn if it was friendly or dangerous, and do not alter your bonus."},"question_order":[0,1,2],"trial_type":"survey-multi-choice","trial_index":9,"time_elapsed":345585,"internal_node_id":"0.0-3.0-4.0-2.0","subject_id":"610bce3ab86d818fca5066a3","study_id":"6197b3f67c2b5cd3b6d9596a","session_id":"6197b88b5545c270d08ef401","condition":"contingent","relevant_dimensions":["antennae","pattern"],"bee_group":{"antennae":"B","wings":"X","pattern":"D","legs":"X"},"correct":true,"bonus":0.6800000000000005},{"rt":2715.399999976158,"stimulus":"<p>Congrats, you got everything right<br>When you're ready, click the button below to continue to the experiment.</p>","response":0,"trial_type":"html-button-response","trial_index":10,"time_elapsed":348307,"internal_node_id":"0.0-3.0-4.0-3.0","subject_id":"610bce3ab86d818fca5066a3","study_id":"6197b3f67c2b5cd3b6d9596a","session_id":"6197b88b5545c270d08ef401","condition":"contingent","relevant_dimensions":["antennae","pattern"],"bee_group":{"antennae":"B","wings":"X","pattern":"D","legs":"X"},"bonus":0.6800000000000005},{"rt":22639.5,"stimulus":"bees-with-color/bee-B1DF.svg","response":0,"trial_type":"image-button-response","trial_index":11,"time_elapsed":370951,"internal_node_id":"0.0-4.0-0.0","subject_id":"610bce3ab86d818fca5066a3","study_id":"6197b3f67c2b5cd3b6d9596a","session_id":"6197b88b5545c270d08ef401","condition":"contingent","relevant_dimensions":["antennae","pattern"],"bee_group":{"antennae":"B","wings":"X","pattern":"D","legs":"X"},"action":"harvest","summary":"bad-harvest","bonus":0.6800000000000005},{"rt":12864.600000023842,"stimulus":"\n                    <p><b>Action: <em>harvest</em></b></p>\n                    <p>This is the bee that you just saw.</p>\n                    <img src=\"bees-with-color/bee-B1DF.svg\" width=\"200\">\n                    <p><span class=\"redText\">Bad choice, the bee was angry.</span><br><b>You have been stung!</b><br>Your pay has been decreased by $0.10. Your bonus pay is now $0.44.</p>\n            ","response":0,"trial_type":"html-button-response","trial_index":12,"time_elapsed":383823,"internal_node_id":"0.0-4.0-1.0","subject_id":"610bce3ab86d818fca5066a3","study_id":"6197b3f67c2b5cd3b6d9596a","session_id":"6197b88b5545c270d08ef401","condition":"contingent","relevant_dimensions":["antennae","pattern"],"bee_group":{"antennae":"B","wings":"X","pattern":"D","legs":"X"},"bonus":0.6800000000000005},{"rt":3955.199999988079,"stimulus":"bees-with-color/bee-A2SF.svg","response":0,"trial_type":"image-button-response","trial_index":13,"time_elapsed":387781,"internal_node_id":"0.0-4.0-0.1","subject_id":"610bce3ab86d818fca5066a3","study_id":"6197b3f67c2b5cd3b6d9596a","session_id":"6197b88b5545c270d08ef401","condition":"contingent","relevant_dimensions":["antennae","pattern"],"bee_group":{"antennae":"B","wings":"X","pattern":"D","legs":"X"},"action":"harvest","summary":"good-harvest","bonus":0.6800000000000005},{"rt":7801.699999988079,"stimulus":"\n                    <p><b>Action: <em>harvest</em></b></p>\n                    <p>This is the bee that you just saw.</p>\n                    <img src=\"bees-with-color/bee-A2SF.svg\" width=\"200\">\n                    <p><span class=\"greenText\"><b>Successful harvest!</b></span><br>Your pay has increased by $0.02. Your bonus pay is now $0.46.</p>\n            ","response":0,"trial_type":"html-button-response","trial_index":14,"time_elapsed":395585,"internal_node_id":"0.0-4.0-1.1","subject_id":"610bce3ab86d818fca5066a3","study_id":"6197b3f67c2b5cd3b6d9596a","session_id":"6197b88b5545c270d08ef401","condition":"contingent","relevant_dimensions":["antennae","pattern"],"bee_group":{"antennae":"B","wings":"X","pattern":"D","legs":"X"},"bonus":0.6800000000000005},{"rt":2130.600000023842,"stimulus":"bees-with-color/bee-B1SF.svg","response":0,"trial_type":"image-button-response","trial_index":15,"time_elapsed":397719,"internal_node_id":"0.0-4.0-0.2","subject_id":"610bce3ab86d818fca5066a3","study_id":"6197b3f67c2b5cd3b6d9596a","session_id":"6197b88b5545c270d08ef401","condition":"contingent","relevant_dimensions":["antennae","pattern"],"bee_group":{"antennae":"B","wings":"X","pattern":"D","legs":"X"},"action":"harvest","summary":"good-harvest","bonus":0.6800000000000005},{"rt":3497.199999988079,"stimulus":"\n                    <p><b>Action: <em>harvest</em></b></p>\n                    <p>This is the bee that you just saw.</p>\n                    <img src=\"bees-with-color/bee-B1SF.svg\" width=\"200\">\n                    <p><span class=\"greenText\"><b>Successful harvest!</b></span><br>Your pay has increased by $0.02. Your bonus pay is now $0.48.</p>\n            ","response":0,"trial_type":"html-button-response","trial_index":16,"time_elapsed":401219,"internal_node_id":"0.0-4.0-1.2","subject_id":"610bce3ab86d818fca5066a3","study_id":"6197b3f67c2b5cd3b6d9596a","session_id":"6197b88b5545c270d08ef401","condition":"contingent","relevant_dimensions":["antennae","pattern"],"bee_group":{"antennae":"B","wings":"X","pattern":"D","legs":"X"},"bonus":0.6800000000000005},{"rt":4982.699999988079,"stimulus":"bees-with-color/bee-A2SM.svg","response":1,"trial_type":"image-button-response","trial_index":17,"time_elapsed":406205,"internal_node_id":"0.0-4.0-0.3","subject_id":"610bce3ab86d818fca5066a3","study_id":"6197b3f67c2b5cd3b6d9596a","session_id":"6197b88b5545c270d08ef401","condition":"contingent","relevant_dimensions":["antennae","pattern"],"bee_group":{"antennae":"B","wings":"X","pattern":"D","legs":"X"},"action":"avoid","summary":"bad-avoid","bonus":0.6800000000000005},{"rt":3969.7000000476837,"stimulus":"\n                    <p><b>Action: <em>avoid</em></b></p>\n                    <p>This is the bee that you just saw.</p>\n                    <img src=\"bees-with-color/bee-A2SM.svg\" width=\"200\">\n                    <p><br>Your bonus pay is unchanged, and remains at $0.48.</p>\n            ","response":0,"trial_type":"html-button-response","trial_index":18,"time_elapsed":410177,"internal_node_id":"0.0-4.0-1.3","subject_id":"610bce3ab86d818fca5066a3","study_id":"6197b3f67c2b5cd3b6d9596a","session_id":"6197b88b5545c270d08ef401","condition":"contingent","relevant_dimensions":["antennae","pattern"],"bee_group":{"antennae":"B","wings":"X","pattern":"D","legs":"X"},"bonus":0.6800000000000005},{"rt":5480.299999952316,"stimulus":"bees-with-color/bee-B2SF.svg","response":0,"trial_type":"image-button-response","trial_index":19,"time_elapsed":415661,"internal_node_id":"0.0-4.0-0.4","subject_id":"610bce3ab86d818fca5066a3","study_id":"6197b3f67c2b5cd3b6d9596a","session_id":"6197b88b5545c270d08ef401","condition":"contingent","relevant_dimensions":["antennae","pattern"],"bee_group":{"antennae":"B","wings":"X","pattern":"D","legs":"X"},"action":"harvest","summary":"good-harvest","bonus":0.6800000000000005},{"rt":1353.4000000357628,"stimulus":"\n                    <p><b>Action: <em>harvest</em></b></p>\n                    <p>This is the bee that you just saw.</p>\n                    <img src=\"bees-with-color/bee-B2SF.svg\" width=\"200\">\n                    <p><span class=\"greenText\"><b>Successful harvest!</b></span><br>Your pay has increased by $0.02. Your bonus pay is now $0.50.</p>\n            ","response":0,"trial_type":"html-button-response","trial_index":20,"time_elapsed":417017,"internal_node_id":"0.0-4.0-1.4","subject_id":"610bce3ab86d818fca5066a3","study_id":"6197b3f67c2b5cd3b6d9596a","session_id":"6197b88b5545c270d08ef401","condition":"contingent","relevant_dimensions":["antennae","pattern"],"bee_group":{"antennae":"B","wings":"X","pattern":"D","legs":"X"},"bonus":0.6800000000000005},{"rt":2072.699999988079,"stimulus":"bees-with-color/bee-A2DM.svg","response":1,"trial_type":"image-button-response","trial_index":21,"time_elapsed":419093,"internal_node_id":"0.0-4.0-0.5","subject_id":"610bce3ab86d818fca5066a3","study_id":"6197b3f67c2b5cd3b6d9596a","session_id":"6197b88b5545c270d08ef401","condition":"contingent","relevant_dimensions":["antennae","pattern"],"bee_group":{"antennae":"B","wings":"X","pattern":"D","legs":"X"},"action":"avoid","summary":"bad-avoid","bonus":0.6800000000000005},{"rt":3681.2999999523163,"stimulus":"\n                    <p><b>Action: <em>avoid</em></b></p>\n                    <p>This is the bee that you just saw.</p>\n                    <img src=\"bees-with-color/bee-A2DM.svg\" width=\"200\">\n                    <p><br>Your bonus pay is unchanged, and remains at $0.50.</p>\n            ","response":0,"trial_type":"html-button-response","trial_index":22,"time_elapsed":422776,"internal_node_id":"0.0-4.0-1.5","subject_id":"610bce3ab86d818fca5066a3","study_id":"6197b3f67c2b5cd3b6d9596a","session_id":"6197b88b5545c270d08ef401","condition":"contingent","relevant_dimensions":["antennae","pattern"],"bee_group":{"antennae":"B","wings":"X","pattern":"D","legs":"X"},"bonus":0.6800000000000005},{"rt":4756.900000035763,"stimulus":"bees-with-color/bee-A1DF.svg","response":0,"trial_type":"image-button-response","trial_index":23,"time_elapsed":427537,"internal_node_id":"0.0-4.0-0.6","subject_id":"610bce3ab86d818fca5066a3","study_id":"6197b3f67c2b5cd3b6d9596a","session_id":"6197b88b5545c270d08ef401","condition":"contingent","relevant_dimensions":["antennae","pattern"],"bee_group":{"antennae":"B","wings":"X","pattern":"D","legs":"X"},"action":"harvest","summary":"good-harvest","bonus":0.6800000000000005},{"rt":1246.7000000476837,"stimulus":"\n                    <p><b>Action: <em>harvest</em></b></p>\n                    <p>This is the bee that you just saw.</p>\n                    <img src=\"bees-with-color/bee-A1DF.svg\" width=\"200\">\n                    <p><span class=\"greenText\"><b>Successful harvest!</b></span><br>Your pay has increased by $0.02. Your bonus pay is now $0.52.</p>\n            ","response":0,"trial_type":"html-button-response","trial_index":24,"time_elapsed":428786,"internal_node_id":"0.0-4.0-1.6","subject_id":"610bce3ab86d818fca5066a3","study_id":"6197b3f67c2b5cd3b6d9596a","session_id":"6197b88b5545c270d08ef401","condition":"contingent","relevant_dimensions":["antennae","pattern"],"bee_group":{"antennae":"B","wings":"X","pattern":"D","legs":"X"},"bonus":0.6800000000000005},{"rt":2163.300000011921,"stimulus":"bees-with-color/bee-B2DM.svg","response":1,"trial_type":"image-button-response","trial_index":25,"time_elapsed":430953,"internal_node_id":"0.0-4.0-0.7","subject_id":"610bce3ab86d818fca5066a3","study_id":"6197b3f67c2b5cd3b6d9596a","session_id":"6197b88b5545c270d08ef401","condition":"contingent","relevant_dimensions":["antennae","pattern"],"bee_group":{"antennae":"B","wings":"X","pattern":"D","legs":"X"},"action":"avoid","summary":"good-avoid","bonus":0.6800000000000005},{"rt":1131.2999999523163,"stimulus":"\n                    <p><b>Action: <em>avoid</em></b></p>\n                    <p>This is the bee that you just saw.</p>\n                    <img src=\"bees-with-color/bee-B2DM.svg\" width=\"200\">\n                    <p><br>Your bonus pay is unchanged, and remains at $0.52.</p>\n            ","response":0,"trial_type":"html-button-response","trial_index":26,"time_elapsed":432087,"internal_node_id":"0.0-4.0-1.7","subject_id":"610bce3ab86d818fca5066a3","study_id":"6197b3f67c2b5cd3b6d9596a","session_id":"6197b88b5545c270d08ef401","condition":"contingent","relevant_dimensions":["antennae","pattern"],"bee_group":{"antennae":"B","wings":"X","pattern":"D","legs":"X"},"bonus":0.6800000000000005},{"rt":3298.899999976158,"stimulus":"bees-with-color/bee-B2SM.svg","response":0,"trial_type":"image-button-response","trial_index":27,"time_elapsed":435388,"internal_node_id":"0.0-4.0-0.8","subject_id":"610bce3ab86d818fca5066a3","study_id":"6197b3f67c2b5cd3b6d9596a","session_id":"6197b88b5545c270d08ef401","condition":"contingent","relevant_dimensions":["antennae","pattern"],"bee_group":{"antennae":"B","wings":"X","pattern":"D","legs":"X"},"action":"harvest","summary":"good-harvest","bonus":0.6800000000000005},{"rt":1099.800000011921,"stimulus":"\n                    <p><b>Action: <em>harvest</em></b></p>\n                    <p>This is the bee that you just saw.</p>\n                    <img src=\"bees-with-color/bee-B2SM.svg\" width=\"200\">\n                    <p><span class=\"greenText\"><b>Successful harvest!</b></span><br>Your pay has increased by $0.02. Your bonus pay is now $0.54.</p>\n            ","response":0,"trial_type":"html-button-response","trial_index":28,"time_elapsed":436490,"internal_node_id":"0.0-4.0-1.8","subject_id":"610bce3ab86d818fca5066a3","study_id":"6197b3f67c2b5cd3b6d9596a","session_id":"6197b88b5545c270d08ef401","condition":"contingent","relevant_dimensions":["antennae","pattern"],"bee_group":{"antennae":"B","wings":"X","pattern":"D","legs":"X"},"bonus":0.6800000000000005},{"rt":2561.699999988079,"stimulus":"bees-with-color/bee-A1SF.svg","response":0,"trial_type":"image-button-response","trial_index":29,"time_elapsed":439054,"internal_node_id":"0.0-4.0-0.9","subject_id":"610bce3ab86d818fca5066a3","study_id":"6197b3f67c2b5cd3b6d9596a","session_id":"6197b88b5545c270d08ef401","condition":"contingent","relevant_dimensions":["antennae","pattern"],"bee_group":{"antennae":"B","wings":"X","pattern":"D","legs":"X"},"action":"harvest","summary":"good-harvest","bonus":0.6800000000000005},{"rt":1000.1999999880791,"stimulus":"\n                    <p><b>Action: <em>harvest</em></b></p>\n                    <p>This is the bee that you just saw.</p>\n                    <img src=\"bees-with-color/bee-A1SF.svg\" width=\"200\">\n                    <p><span class=\"greenText\"><b>Successful harvest!</b></span><br>Your pay has increased by $0.02. Your bonus pay is now $0.56.</p>\n            ","response":0,"trial_type":"html-button-response","trial_index":30,"time_elapsed":440056,"internal_node_id":"0.0-4.0-1.9","subject_id":"610bce3ab86d818fca5066a3","study_id":"6197b3f67c2b5cd3b6d9596a","session_id":"6197b88b5545c270d08ef401","condition":"contingent","relevant_dimensions":["antennae","pattern"],"bee_group":{"antennae":"B","wings":"X","pattern":"D","legs":"X"},"bonus":0.6800000000000005},{"rt":2050.199999988079,"stimulus":"bees-with-color/bee-B1SM.svg","response":0,"trial_type":"image-button-response","trial_index":31,"time_elapsed":442108,"internal_node_id":"0.0-4.0-0.10","subject_id":"610bce3ab86d818fca5066a3","study_id":"6197b3f67c2b5cd3b6d9596a","session_id":"6197b88b5545c270d08ef401","condition":"contingent","relevant_dimensions":["antennae","pattern"],"bee_group":{"antennae":"B","wings":"X","pattern":"D","legs":"X"},"action":"harvest","summary":"good-harvest","bonus":0.6800000000000005},{"rt":926,"stimulus":"\n                    <p><b>Action: <em>harvest</em></b></p>\n                    <p>This is the bee that you just saw.</p>\n                    <img src=\"bees-with-color/bee-B1SM.svg\" width=\"200\">\n                    <p><span class=\"greenText\"><b>Successful harvest!</b></span><br>Your pay has increased by $0.02. Your bonus pay is now $0.58.</p>\n            ","response":0,"trial_type":"html-button-response","trial_index":32,"time_elapsed":443036,"internal_node_id":"0.0-4.0-1.10","subject_id":"610bce3ab86d818fca5066a3","study_id":"6197b3f67c2b5cd3b6d9596a","session_id":"6197b88b5545c270d08ef401","condition":"contingent","relevant_dimensions":["antennae","pattern"],"bee_group":{"antennae":"B","wings":"X","pattern":"D","legs":"X"},"bonus":0.6800000000000005},{"rt":6887.800000011921,"stimulus":"bees-with-color/bee-B2DF.svg","response":0,"trial_type":"image-button-response","trial_index":33,"time_elapsed":449926,"internal_node_id":"0.0-4.0-0.11","subject_id":"610bce3ab86d818fca5066a3","study_id":"6197b3f67c2b5cd3b6d9596a","session_id":"6197b88b5545c270d08ef401","condition":"contingent","relevant_dimensions":["antennae","pattern"],"bee_group":{"antennae":"B","wings":"X","pattern":"D","legs":"X"},"action":"harvest","summary":"bad-harvest","bonus":0.6800000000000005},{"rt":5123.800000011921,"stimulus":"\n                    <p><b>Action: <em>harvest</em></b></p>\n                    <p>This is the bee that you just saw.</p>\n                    <img src=\"bees-with-color/bee-B2DF.svg\" width=\"200\">\n                    <p><span class=\"redText\">Bad choice, the bee was angry.</span><br><b>You have been stung!</b><br>Your pay has been decreased by $0.10. Your bonus pay is now $0.48.</p>\n            ","response":0,"trial_type":"html-button-response","trial_index":34,"time_elapsed":455052,"internal_node_id":"0.0-4.0-1.11","subject_id":"610bce3ab86d818fca5066a3","study_id":"6197b3f67c2b5cd3b6d9596a","session_id":"6197b88b5545c270d08ef401","condition":"contingent","relevant_dimensions":["antennae","pattern"],"bee_group":{"antennae":"B","wings":"X","pattern":"D","legs":"X"},"bonus":0.6800000000000005},{"rt":4699.300000011921,"stimulus":"bees-with-color/bee-A1SM.svg","response":0,"trial_type":"image-button-response","trial_index":35,"time_elapsed":459754,"internal_node_id":"0.0-4.0-0.12","subject_id":"610bce3ab86d818fca5066a3","study_id":"6197b3f67c2b5cd3b6d9596a","session_id":"6197b88b5545c270d08ef401","condition":"contingent","relevant_dimensions":["antennae","pattern"],"bee_group":{"antennae":"B","wings":"X","pattern":"D","legs":"X"},"action":"harvest","summary":"good-harvest","bonus":0.6800000000000005},{"rt":1115.8999999761581,"stimulus":"\n                    <p><b>Action: <em>harvest</em></b></p>\n                    <p>This is the bee that you just saw.</p>\n                    <img src=\"bees-with-color/bee-A1SM.svg\" width=\"200\">\n                    <p><span class=\"greenText\"><b>Successful harvest!</b></span><br>Your pay has increased by $0.02. Your bonus pay is now $0.50.</p>\n            ","response":0,"trial_type":"html-button-response","trial_index":36,"time_elapsed":460873,"internal_node_id":"0.0-4.0-1.12","subject_id":"610bce3ab86d818fca5066a3","study_id":"6197b3f67c2b5cd3b6d9596a","session_id":"6197b88b5545c270d08ef401","condition":"contingent","relevant_dimensions":["antennae","pattern"],"bee_group":{"antennae":"B","wings":"X","pattern":"D","legs":"X"},"bonus":0.6800000000000005},{"rt":2007.199999988079,"stimulus":"bees-with-color/bee-B1DM.svg","response":1,"trial_type":"image-button-response","trial_index":37,"time_elapsed":462883,"internal_node_id":"0.0-4.0-0.13","subject_id":"610bce3ab86d818fca5066a3","study_id":"6197b3f67c2b5cd3b6d9596a","session_id":"6197b88b5545c270d08ef401","condition":"contingent","relevant_dimensions":["antennae","pattern"],"bee_group":{"antennae":"B","wings":"X","pattern":"D","legs":"X"},"action":"avoid","summary":"good-avoid","bonus":0.6800000000000005},{"rt":1301.5,"stimulus":"\n                    <p><b>Action: <em>avoid</em></b></p>\n                    <p>This is the bee that you just saw.</p>\n                    <img src=\"bees-with-color/bee-B1DM.svg\" width=\"200\">\n                    <p><br>Your bonus pay is unchanged, and remains at $0.50.</p>\n            ","response":0,"trial_type":"html-button-response","trial_index":38,"time_elapsed":464186,"internal_node_id":"0.0-4.0-1.13","subject_id":"610bce3ab86d818fca5066a3","study_id":"6197b3f67c2b5cd3b6d9596a","session_id":"6197b88b5545c270d08ef401","condition":"contingent","relevant_dimensions":["antennae","pattern"],"bee_group":{"antennae":"B","wings":"X","pattern":"D","legs":"X"},"bonus":0.6800000000000005},{"rt":3313.399999976158,"stimulus":"bees-with-color/bee-A2DF.svg","response":1,"trial_type":"image-button-response","trial_index":39,"time_elapsed":467502,"internal_node_id":"0.0-4.0-0.14","subject_id":"610bce3ab86d818fca5066a3","study_id":"6197b3f67c2b5cd3b6d9596a","session_id":"6197b88b5545c270d08ef401","condition":"contingent","relevant_dimensions":["antennae","pattern"],"bee_group":{"antennae":"B","wings":"X","pattern":"D","legs":"X"},"action":"avoid","summary":"bad-avoid","bonus":0.6800000000000005},{"rt":1001.7999999523163,"stimulus":"\n                    <p><b>Action: <em>avoid</em></b></p>\n                    <p>This is the bee that you just saw.</p>\n                    <img src=\"bees-with-color/bee-A2DF.svg\" width=\"200\">\n                    <p><br>Your bonus pay is unchanged, and remains at $0.50.</p>\n            ","response":0,"trial_type":"html-button-response","trial_index":40,"time_elapsed":468506,"internal_node_id":"0.0-4.0-1.14","subject_id":"610bce3ab86d818fca5066a3","study_id":"6197b3f67c2b5cd3b6d9596a","session_id":"6197b88b5545c270d08ef401","condition":"contingent","relevant_dimensions":["antennae","pattern"],"bee_group":{"antennae":"B","wings":"X","pattern":"D","legs":"X"},"bonus":0.6800000000000005},{"rt":1489.0999999642372,"stimulus":"bees-with-color/bee-A1DM.svg","response":1,"trial_type":"image-button-response","trial_index":41,"time_elapsed":469998,"internal_node_id":"0.0-4.0-0.15","subject_id":"610bce3ab86d818fca5066a3","study_id":"6197b3f67c2b5cd3b6d9596a","session_id":"6197b88b5545c270d08ef401","condition":"contingent","relevant_dimensions":["antennae","pattern"],"bee_group":{"antennae":"B","wings":"X","pattern":"D","legs":"X"},"action":"avoid","summary":"bad-avoid","bonus":0.6800000000000005},{"rt":831.6999999880791,"stimulus":"\n                    <p><b>Action: <em>avoid</em></b></p>\n                    <p>This is the bee that you just saw.</p>\n                    <img src=\"bees-with-color/bee-A1DM.svg\" width=\"200\">\n                    <p><br>Your bonus pay is unchanged, and remains at $0.50.</p>\n            ","response":0,"trial_type":"html-button-response","trial_index":42,"time_elapsed":470832,"internal_node_id":"0.0-4.0-1.15","subject_id":"610bce3ab86d818fca5066a3","study_id":"6197b3f67c2b5cd3b6d9596a","session_id":"6197b88b5545c270d08ef401","condition":"contingent","relevant_dimensions":["antennae","pattern"],"bee_group":{"antennae":"B","wings":"X","pattern":"D","legs":"X"},"bonus":0.6800000000000005},{"rt":1388.300000011921,"stimulus":"bees-with-color/bee-A1DM.svg","response":0,"trial_type":"image-button-response","trial_index":43,"time_elapsed":472223,"internal_node_id":"0.0-4.0-0.16","subject_id":"610bce3ab86d818fca5066a3","study_id":"6197b3f67c2b5cd3b6d9596a","session_id":"6197b88b5545c270d08ef401","condition":"contingent","relevant_dimensions":["antennae","pattern"],"bee_group":{"antennae":"B","wings":"X","pattern":"D","legs":"X"},"action":"harvest","summary":"good-harvest","bonus":0.6800000000000005},{"rt":901.5999999642372,"stimulus":"\n                    <p><b>Action: <em>harvest</em></b></p>\n                    <p>This is the bee that you just saw.</p>\n                    <img src=\"bees-with-color/bee-A1DM.svg\" width=\"200\">\n                    <p><span class=\"greenText\"><b>Successful harvest!</b></span><br>Your pay has increased by $0.02. Your bonus pay is now $0.52.</p>\n            ","response":0,"trial_type":"html-button-response","trial_index":44,"time_elapsed":473126,"internal_node_id":"0.0-4.0-1.16","subject_id":"610bce3ab86d818fca5066a3","study_id":"6197b3f67c2b5cd3b6d9596a","session_id":"6197b88b5545c270d08ef401","condition":"contingent","relevant_dimensions":["antennae","pattern"],"bee_group":{"antennae":"B","wings":"X","pattern":"D","legs":"X"},"bonus":0.6800000000000005},{"rt":2481,"stimulus":"bees-with-color/bee-B1DM.svg","response":0,"trial_type":"image-button-response","trial_index":45,"time_elapsed":475611,"internal_node_id":"0.0-4.0-0.17","subject_id":"610bce3ab86d818fca5066a3","study_id":"6197b3f67c2b5cd3b6d9596a","session_id":"6197b88b5545c270d08ef401","condition":"contingent","relevant_dimensions":["antennae","pattern"],"bee_group":{"antennae":"B","wings":"X","pattern":"D","legs":"X"},"action":"harvest","summary":"bad-harvest","bonus":0.6800000000000005},{"rt":8549.800000011921,"stimulus":"\n                    <p><b>Action: <em>harvest</em></b></p>\n                    <p>This is the bee that you just saw.</p>\n                    <img src=\"bees-with-color/bee-B1DM.svg\" width=\"200\">\n                    <p><span class=\"redText\">Bad choice, the bee was angry.</span><br><b>You have been stung!</b><br>Your pay has been decreased by $0.10. Your bonus pay is now $0.42.</p>\n            ","response":0,"trial_type":"html-button-response","trial_index":46,"time_elapsed":484163,"internal_node_id":"0.0-4.0-1.17","subject_id":"610bce3ab86d818fca5066a3","study_id":"6197b3f67c2b5cd3b6d9596a","session_id":"6197b88b5545c270d08ef401","condition":"contingent","relevant_dimensions":["antennae","pattern"],"bee_group":{"antennae":"B","wings":"X","pattern":"D","legs":"X"},"bonus":0.6800000000000005},{"rt":2465.400000035763,"stimulus":"bees-with-color/bee-A2SM.svg","response":0,"trial_type":"image-button-response","trial_index":47,"time_elapsed":486632,"internal_node_id":"0.0-4.0-0.18","subject_id":"610bce3ab86d818fca5066a3","study_id":"6197b3f67c2b5cd3b6d9596a","session_id":"6197b88b5545c270d08ef401","condition":"contingent","relevant_dimensions":["antennae","pattern"],"bee_group":{"antennae":"B","wings":"X","pattern":"D","legs":"X"},"action":"harvest","summary":"good-harvest","bonus":0.6800000000000005},{"rt":882.6999999880791,"stimulus":"\n                    <p><b>Action: <em>harvest</em></b></p>\n                    <p>This is the bee that you just saw.</p>\n                    <img src=\"bees-with-color/bee-A2SM.svg\" width=\"200\">\n                    <p><span class=\"greenText\"><b>Successful harvest!</b></span><br>Your pay has increased by $0.02. Your bonus pay is now $0.44.</p>\n            ","response":0,"trial_type":"html-button-response","trial_index":48,"time_elapsed":487517,"internal_node_id":"0.0-4.0-1.18","subject_id":"610bce3ab86d818fca5066a3","study_id":"6197b3f67c2b5cd3b6d9596a","session_id":"6197b88b5545c270d08ef401","condition":"contingent","relevant_dimensions":["antennae","pattern"],"bee_group":{"antennae":"B","wings":"X","pattern":"D","legs":"X"},"bonus":0.6800000000000005},{"rt":2509.899999976158,"stimulus":"bees-with-color/bee-A1DF.svg","response":1,"trial_type":"image-button-response","trial_index":49,"time_elapsed":490029,"internal_node_id":"0.0-4.0-0.19","subject_id":"610bce3ab86d818fca5066a3","study_id":"6197b3f67c2b5cd3b6d9596a","session_id":"6197b88b5545c270d08ef401","condition":"contingent","relevant_dimensions":["antennae","pattern"],"bee_group":{"antennae":"B","wings":"X","pattern":"D","legs":"X"},"action":"avoid","summary":"bad-avoid","bonus":0.6800000000000005},{"rt":833.3000000119209,"stimulus":"\n                    <p><b>Action: <em>avoid</em></b></p>\n                    <p>This is the bee that you just saw.</p>\n                    <img src=\"bees-with-color/bee-A1DF.svg\" width=\"200\">\n                    <p><br>Your bonus pay is unchanged, and remains at $0.44.</p>\n            ","response":0,"trial_type":"html-button-response","trial_index":50,"time_elapsed":490865,"internal_node_id":"0.0-4.0-1.19","subject_id":"610bce3ab86d818fca5066a3","study_id":"6197b3f67c2b5cd3b6d9596a","session_id":"6197b88b5545c270d08ef401","condition":"contingent","relevant_dimensions":["antennae","pattern"],"bee_group":{"antennae":"B","wings":"X","pattern":"D","legs":"X"},"bonus":0.6800000000000005},{"rt":2084.899999976158,"stimulus":"bees-with-color/bee-A2DF.svg","response":0,"trial_type":"image-button-response","trial_index":51,"time_elapsed":492953,"internal_node_id":"0.0-4.0-0.20","subject_id":"610bce3ab86d818fca5066a3","study_id":"6197b3f67c2b5cd3b6d9596a","session_id":"6197b88b5545c270d08ef401","condition":"contingent","relevant_dimensions":["antennae","pattern"],"bee_group":{"antennae":"B","wings":"X","pattern":"D","legs":"X"},"action":"harvest","summary":"good-harvest","bonus":0.6800000000000005},{"rt":807.7000000476837,"stimulus":"\n                    <p><b>Action: <em>harvest</em></b></p>\n                    <p>This is the bee that you just saw.</p>\n                    <img src=\"bees-with-color/bee-A2DF.svg\" width=\"200\">\n                    <p><span class=\"greenText\"><b>Successful harvest!</b></span><br>Your pay has increased by $0.02. Your bonus pay is now $0.46.</p>\n            ","response":0,"trial_type":"html-button-response","trial_index":52,"time_elapsed":493763,"internal_node_id":"0.0-4.0-1.20","subject_id":"610bce3ab86d818fca5066a3","study_id":"6197b3f67c2b5cd3b6d9596a","session_id":"6197b88b5545c270d08ef401","condition":"contingent","relevant_dimensions":["antennae","pattern"],"bee_group":{"antennae":"B","wings":"X","pattern":"D","legs":"X"},"bonus":0.6800000000000005},{"rt":15647.299999952316,"stimulus":"bees-with-color/bee-B1SM.svg","response":0,"trial_type":"image-button-response","trial_index":53,"time_elapsed":509413,"internal_node_id":"0.0-4.0-0.21","subject_id":"610bce3ab86d818fca5066a3","study_id":"6197b3f67c2b5cd3b6d9596a","session_id":"6197b88b5545c270d08ef401","condition":"contingent","relevant_dimensions":["antennae","pattern"],"bee_group":{"antennae":"B","wings":"X","pattern":"D","legs":"X"},"action":"harvest","summary":"good-harvest","bonus":0.6800000000000005},{"rt":987.2999999523163,"stimulus":"\n                    <p><b>Action: <em>harvest</em></b></p>\n                    <p>This is the bee that you just saw.</p>\n                    <img src=\"bees-with-color/bee-B1SM.svg\" width=\"200\">\n                    <p><span class=\"greenText\"><b>Successful harvest!</b></span><br>Your pay has increased by $0.02. Your bonus pay is now $0.48.</p>\n            ","response":0,"trial_type":"html-button-response","trial_index":54,"time_elapsed":510403,"internal_node_id":"0.0-4.0-1.21","subject_id":"610bce3ab86d818fca5066a3","study_id":"6197b3f67c2b5cd3b6d9596a","session_id":"6197b88b5545c270d08ef401","condition":"contingent","relevant_dimensions":["antennae","pattern"],"bee_group":{"antennae":"B","wings":"X","pattern":"D","legs":"X"},"bonus":0.6800000000000005},{"rt":1482.0999999642372,"stimulus":"bees-with-color/bee-B2SM.svg","response":1,"trial_type":"image-button-response","trial_index":55,"time_elapsed":511891,"internal_node_id":"0.0-4.0-0.22","subject_id":"610bce3ab86d818fca5066a3","study_id":"6197b3f67c2b5cd3b6d9596a","session_id":"6197b88b5545c270d08ef401","condition":"contingent","relevant_dimensions":["antennae","pattern"],"bee_group":{"antennae":"B","wings":"X","pattern":"D","legs":"X"},"action":"avoid","summary":"bad-avoid","bonus":0.6800000000000005},{"rt":1359.5,"stimulus":"\n                    <p><b>Action: <em>avoid</em></b></p>\n                    <p>This is the bee that you just saw.</p>\n                    <img src=\"bees-with-color/bee-B2SM.svg\" width=\"200\">\n                    <p><br>Your bonus pay is unchanged, and remains at $0.48.</p>\n            ","response":0,"trial_type":"html-button-response","trial_index":56,"time_elapsed":513252,"internal_node_id":"0.0-4.0-1.22","subject_id":"610bce3ab86d818fca5066a3","study_id":"6197b3f67c2b5cd3b6d9596a","session_id":"6197b88b5545c270d08ef401","condition":"contingent","relevant_dimensions":["antennae","pattern"],"bee_group":{"antennae":"B","wings":"X","pattern":"D","legs":"X"},"bonus":0.6800000000000005},{"rt":2332.7999999523163,"stimulus":"bees-with-color/bee-B2DF.svg","response":1,"trial_type":"image-button-response","trial_index":57,"time_elapsed":515587,"internal_node_id":"0.0-4.0-0.23","subject_id":"610bce3ab86d818fca5066a3","study_id":"6197b3f67c2b5cd3b6d9596a","session_id":"6197b88b5545c270d08ef401","condition":"contingent","relevant_dimensions":["antennae","pattern"],"bee_group":{"antennae":"B","wings":"X","pattern":"D","legs":"X"},"action":"avoid","summary":"good-avoid","bonus":0.6800000000000005},{"rt":1486.0999999642372,"stimulus":"\n                    <p><b>Action: <em>avoid</em></b></p>\n                    <p>This is the bee that you just saw.</p>\n                    <img src=\"bees-with-color/bee-B2DF.svg\" width=\"200\">\n                    <p><br>Your bonus pay is unchanged, and remains at $0.48.</p>\n            ","response":0,"trial_type":"html-button-response","trial_index":58,"time_elapsed":517075,"internal_node_id":"0.0-4.0-1.23","subject_id":"610bce3ab86d818fca5066a3","study_id":"6197b3f67c2b5cd3b6d9596a","session_id":"6197b88b5545c270d08ef401","condition":"contingent","relevant_dimensions":["antennae","pattern"],"bee_group":{"antennae":"B","wings":"X","pattern":"D","legs":"X"},"bonus":0.6800000000000005},{"rt":1231.4000000357628,"stimulus":"bees-with-color/bee-A1SM.svg","response":0,"trial_type":"image-button-response","trial_index":59,"time_elapsed":518309,"internal_node_id":"0.0-4.0-0.24","subject_id":"610bce3ab86d818fca5066a3","study_id":"6197b3f67c2b5cd3b6d9596a","session_id":"6197b88b5545c270d08ef401","condition":"contingent","relevant_dimensions":["antennae","pattern"],"bee_group":{"antennae":"B","wings":"X","pattern":"D","legs":"X"},"action":"harvest","summary":"good-harvest","bonus":0.6800000000000005},{"rt":1050,"stimulus":"\n                    <p><b>Action: <em>harvest</em></b></p>\n                    <p>This is the bee that you just saw.</p>\n                    <img src=\"bees-with-color/bee-A1SM.svg\" width=\"200\">\n                    <p><span class=\"greenText\"><b>Successful harvest!</b></span><br>Your pay has increased by $0.02. Your bonus pay is now $0.50.</p>\n            ","response":0,"trial_type":"html-button-response","trial_index":60,"time_elapsed":519361,"internal_node_id":"0.0-4.0-1.24","subject_id":"610bce3ab86d818fca5066a3","study_id":"6197b3f67c2b5cd3b6d9596a","session_id":"6197b88b5545c270d08ef401","condition":"contingent","relevant_dimensions":["antennae","pattern"],"bee_group":{"antennae":"B","wings":"X","pattern":"D","legs":"X"},"bonus":0.6800000000000005},{"rt":1572.300000011921,"stimulus":"bees-with-color/bee-A2SF.svg","response":1,"trial_type":"image-button-response","trial_index":61,"time_elapsed":520935,"internal_node_id":"0.0-4.0-0.25","subject_id":"610bce3ab86d818fca5066a3","study_id":"6197b3f67c2b5cd3b6d9596a","session_id":"6197b88b5545c270d08ef401","condition":"contingent","relevant_dimensions":["antennae","pattern"],"bee_group":{"antennae":"B","wings":"X","pattern":"D","legs":"X"},"action":"avoid","summary":"bad-avoid","bonus":0.6800000000000005},{"rt":1260.300000011921,"stimulus":"\n                    <p><b>Action: <em>avoid</em></b></p>\n                    <p>This is the bee that you just saw.</p>\n                    <img src=\"bees-with-color/bee-A2SF.svg\" width=\"200\">\n                    <p><br>Your bonus pay is unchanged, and remains at $0.50.</p>\n            ","response":0,"trial_type":"html-button-response","trial_index":62,"time_elapsed":522197,"internal_node_id":"0.0-4.0-1.25","subject_id":"610bce3ab86d818fca5066a3","study_id":"6197b3f67c2b5cd3b6d9596a","session_id":"6197b88b5545c270d08ef401","condition":"contingent","relevant_dimensions":["antennae","pattern"],"bee_group":{"antennae":"B","wings":"X","pattern":"D","legs":"X"},"bonus":0.6800000000000005},{"rt":1743.800000011921,"stimulus":"bees-with-color/bee-B2SF.svg","response":0,"trial_type":"image-button-response","trial_index":63,"time_elapsed":523943,"internal_node_id":"0.0-4.0-0.26","subject_id":"610bce3ab86d818fca5066a3","study_id":"6197b3f67c2b5cd3b6d9596a","session_id":"6197b88b5545c270d08ef401","condition":"contingent","relevant_dimensions":["antennae","pattern"],"bee_group":{"antennae":"B","wings":"X","pattern":"D","legs":"X"},"action":"harvest","summary":"good-harvest","bonus":0.6800000000000005},{"rt":862.6000000238419,"stimulus":"\n                    <p><b>Action: <em>harvest</em></b></p>\n                    <p>This is the bee that you just saw.</p>\n                    <img src=\"bees-with-color/bee-B2SF.svg\" width=\"200\">\n                    <p><span class=\"greenText\"><b>Successful harvest!</b></span><br>Your pay has increased by $0.02. Your bonus pay is now $0.52.</p>\n            ","response":0,"trial_type":"html-button-response","trial_index":64,"time_elapsed":524807,"internal_node_id":"0.0-4.0-1.26","subject_id":"610bce3ab86d818fca5066a3","study_id":"6197b3f67c2b5cd3b6d9596a","session_id":"6197b88b5545c270d08ef401","condition":"contingent","relevant_dimensions":["antennae","pattern"],"bee_group":{"antennae":"B","wings":"X","pattern":"D","legs":"X"},"bonus":0.6800000000000005},{"rt":1485.8999999761581,"stimulus":"bees-with-color/bee-B2DM.svg","response":1,"trial_type":"image-button-response","trial_index":65,"time_elapsed":526295,"internal_node_id":"0.0-4.0-0.27","subject_id":"610bce3ab86d818fca5066a3","study_id":"6197b3f67c2b5cd3b6d9596a","session_id":"6197b88b5545c270d08ef401","condition":"contingent","relevant_dimensions":["antennae","pattern"],"bee_group":{"antennae":"B","wings":"X","pattern":"D","legs":"X"},"action":"avoid","summary":"good-avoid","bonus":0.6800000000000005},{"rt":799.8999999761581,"stimulus":"\n                    <p><b>Action: <em>avoid</em></b></p>\n                    <p>This is the bee that you just saw.</p>\n                    <img src=\"bees-with-color/bee-B2DM.svg\" width=\"200\">\n                    <p><br>Your bonus pay is unchanged, and remains at $0.52.</p>\n            ","response":0,"trial_type":"html-button-response","trial_index":66,"time_elapsed":527097,"internal_node_id":"0.0-4.0-1.27","subject_id":"610bce3ab86d818fca5066a3","study_id":"6197b3f67c2b5cd3b6d9596a","session_id":"6197b88b5545c270d08ef401","condition":"contingent","relevant_dimensions":["antennae","pattern"],"bee_group":{"antennae":"B","wings":"X","pattern":"D","legs":"X"},"bonus":0.6800000000000005},{"rt":1332,"stimulus":"bees-with-color/bee-A2DM.svg","response":1,"trial_type":"image-button-response","trial_index":67,"time_elapsed":528431,"internal_node_id":"0.0-4.0-0.28","subject_id":"610bce3ab86d818fca5066a3","study_id":"6197b3f67c2b5cd3b6d9596a","session_id":"6197b88b5545c270d08ef401","condition":"contingent","relevant_dimensions":["antennae","pattern"],"bee_group":{"antennae":"B","wings":"X","pattern":"D","legs":"X"},"action":"avoid","summary":"bad-avoid","bonus":0.6800000000000005},{"rt":787.6000000238419,"stimulus":"\n                    <p><b>Action: <em>avoid</em></b></p>\n                    <p>This is the bee that you just saw.</p>\n                    <img src=\"bees-with-color/bee-A2DM.svg\" width=\"200\">\n                    <p><br>Your bonus pay is unchanged, and remains at $0.52.</p>\n            ","response":0,"trial_type":"html-button-response","trial_index":68,"time_elapsed":529221,"internal_node_id":"0.0-4.0-1.28","subject_id":"610bce3ab86d818fca5066a3","study_id":"6197b3f67c2b5cd3b6d9596a","session_id":"6197b88b5545c270d08ef401","condition":"contingent","relevant_dimensions":["antennae","pattern"],"bee_group":{"antennae":"B","wings":"X","pattern":"D","legs":"X"},"bonus":0.6800000000000005},{"rt":484.0999999642372,"stimulus":"bees-with-color/bee-B1DF.svg","response":1,"trial_type":"image-button-response","trial_index":69,"time_elapsed":529707,"internal_node_id":"0.0-4.0-0.29","subject_id":"610bce3ab86d818fca5066a3","study_id":"6197b3f67c2b5cd3b6d9596a","session_id":"6197b88b5545c270d08ef401","condition":"contingent","relevant_dimensions":["antennae","pattern"],"bee_group":{"antennae":"B","wings":"X","pattern":"D","legs":"X"},"action":"avoid","summary":"good-avoid","bonus":0.6800000000000005},{"rt":581.5999999642372,"stimulus":"\n                    <p><b>Action: <em>avoid</em></b></p>\n                    <p>This is the bee that you just saw.</p>\n                    <img src=\"bees-with-color/bee-B1DF.svg\" width=\"200\">\n                    <p><br>Your bonus pay is unchanged, and remains at $0.52.</p>\n            ","response":0,"trial_type":"html-button-response","trial_index":70,"time_elapsed":530291,"internal_node_id":"0.0-4.0-1.29","subject_id":"610bce3ab86d818fca5066a3","study_id":"6197b3f67c2b5cd3b6d9596a","session_id":"6197b88b5545c270d08ef401","condition":"contingent","relevant_dimensions":["antennae","pattern"],"bee_group":{"antennae":"B","wings":"X","pattern":"D","legs":"X"},"bonus":0.6800000000000005},{"rt":543.4000000357628,"stimulus":"bees-with-color/bee-A1SF.svg","response":1,"trial_type":"image-button-response","trial_index":71,"time_elapsed":530837,"internal_node_id":"0.0-4.0-0.30","subject_id":"610bce3ab86d818fca5066a3","study_id":"6197b3f67c2b5cd3b6d9596a","session_id":"6197b88b5545c270d08ef401","condition":"contingent","relevant_dimensions":["antennae","pattern"],"bee_group":{"antennae":"B","wings":"X","pattern":"D","legs":"X"},"action":"avoid","summary":"bad-avoid","bonus":0.6800000000000005},{"rt":551.8000000119209,"stimulus":"\n                    <p><b>Action: <em>avoid</em></b></p>\n                    <p>This is the bee that you just saw.</p>\n                    <img src=\"bees-with-color/bee-A1SF.svg\" width=\"200\">\n                    <p><br>Your bonus pay is unchanged, and remains at $0.52.</p>\n            ","response":0,"trial_type":"html-button-response","trial_index":72,"time_elapsed":531391,"internal_node_id":"0.0-4.0-1.30","subject_id":"610bce3ab86d818fca5066a3","study_id":"6197b3f67c2b5cd3b6d9596a","session_id":"6197b88b5545c270d08ef401","condition":"contingent","relevant_dimensions":["antennae","pattern"],"bee_group":{"antennae":"B","wings":"X","pattern":"D","legs":"X"},"bonus":0.6800000000000005},{"rt":842.1999999880791,"stimulus":"bees-with-color/bee-B1SF.svg","response":1,"trial_type":"image-button-response","trial_index":73,"time_elapsed":532235,"internal_node_id":"0.0-4.0-0.31","subject_id":"610bce3ab86d818fca5066a3","study_id":"6197b3f67c2b5cd3b6d9596a","session_id":"6197b88b5545c270d08ef401","condition":"contingent","relevant_dimensions":["antennae","pattern"],"bee_group":{"antennae":"B","wings":"X","pattern":"D","legs":"X"},"action":"avoid","summary":"bad-avoid","bonus":0.6800000000000005},{"rt":573.7999999523163,"stimulus":"\n                    <p><b>Action: <em>avoid</em></b></p>\n                    <p>This is the bee that you just saw.</p>\n                    <img src=\"bees-with-color/bee-B1SF.svg\" width=\"200\">\n                    <p><br>Your bonus pay is unchanged, and remains at $0.52.</p>\n            ","response":0,"trial_type":"html-button-response","trial_index":74,"time_elapsed":532811,"internal_node_id":"0.0-4.0-1.31","subject_id":"610bce3ab86d818fca5066a3","study_id":"6197b3f67c2b5cd3b6d9596a","session_id":"6197b88b5545c270d08ef401","condition":"contingent","relevant_dimensions":["antennae","pattern"],"bee_group":{"antennae":"B","wings":"X","pattern":"D","legs":"X"},"bonus":0.6800000000000005},{"rt":661.8999999761581,"stimulus":"bees-with-color/bee-B1SF.svg","response":1,"trial_type":"image-button-response","trial_index":75,"time_elapsed":533475,"internal_node_id":"0.0-4.0-0.32","subject_id":"610bce3ab86d818fca5066a3","study_id":"6197b3f67c2b5cd3b6d9596a","session_id":"6197b88b5545c270d08ef401","condition":"contingent","relevant_dimensions":["antennae","pattern"],"bee_group":{"antennae":"B","wings":"X","pattern":"D","legs":"X"},"action":"avoid","summary":"bad-avoid","bonus":0.6800000000000005},{"rt":541.5,"stimulus":"\n                    <p><b>Action: <em>avoid</em></b></p>\n                    <p>This is the bee that you just saw.</p>\n                    <img src=\"bees-with-color/bee-B1SF.svg\" width=\"200\">\n                    <p><br>Your bonus pay is unchanged, and remains at $0.52.</p>\n            ","response":0,"trial_type":"html-button-response","trial_index":76,"time_elapsed":534019,"internal_node_id":"0.0-4.0-1.32","subject_id":"610bce3ab86d818fca5066a3","study_id":"6197b3f67c2b5cd3b6d9596a","session_id":"6197b88b5545c270d08ef401","condition":"contingent","relevant_dimensions":["antennae","pattern"],"bee_group":{"antennae":"B","wings":"X","pattern":"D","legs":"X"},"bonus":0.6800000000000005},{"rt":482.39999997615814,"stimulus":"bees-with-color/bee-A1SM.svg","response":1,"trial_type":"image-button-response","trial_index":77,"time_elapsed":534503,"internal_node_id":"0.0-4.0-0.33","subject_id":"610bce3ab86d818fca5066a3","study_id":"6197b3f67c2b5cd3b6d9596a","session_id":"6197b88b5545c270d08ef401","condition":"contingent","relevant_dimensions":["antennae","pattern"],"bee_group":{"antennae":"B","wings":"X","pattern":"D","legs":"X"},"action":"avoid","summary":"bad-avoid","bonus":0.6800000000000005},{"rt":497.80000001192093,"stimulus":"\n                    <p><b>Action: <em>avoid</em></b></p>\n                    <p>This is the bee that you just saw.</p>\n                    <img src=\"bees-with-color/bee-A1SM.svg\" width=\"200\">\n                    <p><br>Your bonus pay is unchanged, and remains at $0.52.</p>\n            ","response":0,"trial_type":"html-button-response","trial_index":78,"time_elapsed":535003,"internal_node_id":"0.0-4.0-1.33","subject_id":"610bce3ab86d818fca5066a3","study_id":"6197b3f67c2b5cd3b6d9596a","session_id":"6197b88b5545c270d08ef401","condition":"contingent","relevant_dimensions":["antennae","pattern"],"bee_group":{"antennae":"B","wings":"X","pattern":"D","legs":"X"},"bonus":0.6800000000000005},{"rt":432.19999998807907,"stimulus":"bees-with-color/bee-A2SM.svg","response":1,"trial_type":"image-button-response","trial_index":79,"time_elapsed":535437,"internal_node_id":"0.0-4.0-0.34","subject_id":"610bce3ab86d818fca5066a3","study_id":"6197b3f67c2b5cd3b6d9596a","session_id":"6197b88b5545c270d08ef401","condition":"contingent","relevant_dimensions":["antennae","pattern"],"bee_group":{"antennae":"B","wings":"X","pattern":"D","legs":"X"},"action":"avoid","summary":"bad-avoid","bonus":0.6800000000000005},{"rt":453.80000001192093,"stimulus":"\n                    <p><b>Action: <em>avoid</em></b></p>\n                    <p>This is the bee that you just saw.</p>\n                    <img src=\"bees-with-color/bee-A2SM.svg\" width=\"200\">\n                    <p><br>Your bonus pay is unchanged, and remains at $0.52.</p>\n            ","response":0,"trial_type":"html-button-response","trial_index":80,"time_elapsed":535893,"internal_node_id":"0.0-4.0-1.34","subject_id":"610bce3ab86d818fca5066a3","study_id":"6197b3f67c2b5cd3b6d9596a","session_id":"6197b88b5545c270d08ef401","condition":"contingent","relevant_dimensions":["antennae","pattern"],"bee_group":{"antennae":"B","wings":"X","pattern":"D","legs":"X"},"bonus":0.6800000000000005},{"rt":532.1000000238419,"stimulus":"bees-with-color/bee-B1DF.svg","response":1,"trial_type":"image-button-response","trial_index":81,"time_elapsed":536427,"internal_node_id":"0.0-4.0-0.35","subject_id":"610bce3ab86d818fca5066a3","study_id":"6197b3f67c2b5cd3b6d9596a","session_id":"6197b88b5545c270d08ef401","condition":"contingent","relevant_dimensions":["antennae","pattern"],"bee_group":{"antennae":"B","wings":"X","pattern":"D","legs":"X"},"action":"avoid","summary":"good-avoid","bonus":0.6800000000000005},{"rt":441.39999997615814,"stimulus":"\n                    <p><b>Action: <em>avoid</em></b></p>\n                    <p>This is the bee that you just saw.</p>\n                    <img src=\"bees-with-color/bee-B1DF.svg\" width=\"200\">\n                    <p><br>Your bonus pay is unchanged, and remains at $0.52.</p>\n            ","response":0,"trial_type":"html-button-response","trial_index":82,"time_elapsed":536871,"internal_node_id":"0.0-4.0-1.35","subject_id":"610bce3ab86d818fca5066a3","study_id":"6197b3f67c2b5cd3b6d9596a","session_id":"6197b88b5545c270d08ef401","condition":"contingent","relevant_dimensions":["antennae","pattern"],"bee_group":{"antennae":"B","wings":"X","pattern":"D","legs":"X"},"bonus":0.6800000000000005},{"rt":400.30000001192093,"stimulus":"bees-with-color/bee-B2SM.svg","response":1,"trial_type":"image-button-response","trial_index":83,"time_elapsed":537273,"internal_node_id":"0.0-4.0-0.36","subject_id":"610bce3ab86d818fca5066a3","study_id":"6197b3f67c2b5cd3b6d9596a","session_id":"6197b88b5545c270d08ef401","condition":"contingent","relevant_dimensions":["antennae","pattern"],"bee_group":{"antennae":"B","wings":"X","pattern":"D","legs":"X"},"action":"avoid","summary":"bad-avoid","bonus":0.6800000000000005},{"rt":555.8000000119209,"stimulus":"\n                    <p><b>Action: <em>avoid</em></b></p>\n                    <p>This is the bee that you just saw.</p>\n                    <img src=\"bees-with-color/bee-B2SM.svg\" width=\"200\">\n                    <p><br>Your bonus pay is unchanged, and remains at $0.52.</p>\n            ","response":0,"trial_type":"html-button-response","trial_index":84,"time_elapsed":537831,"internal_node_id":"0.0-4.0-1.36","subject_id":"610bce3ab86d818fca5066a3","study_id":"6197b3f67c2b5cd3b6d9596a","session_id":"6197b88b5545c270d08ef401","condition":"contingent","relevant_dimensions":["antennae","pattern"],"bee_group":{"antennae":"B","wings":"X","pattern":"D","legs":"X"},"bonus":0.6800000000000005},{"rt":405.60000002384186,"stimulus":"bees-with-color/bee-A2DF.svg","response":1,"trial_type":"image-button-response","trial_index":85,"time_elapsed":538239,"internal_node_id":"0.0-4.0-0.37","subject_id":"610bce3ab86d818fca5066a3","study_id":"6197b3f67c2b5cd3b6d9596a","session_id":"6197b88b5545c270d08ef401","condition":"contingent","relevant_dimensions":["antennae","pattern"],"bee_group":{"antennae":"B","wings":"X","pattern":"D","legs":"X"},"action":"avoid","summary":"bad-avoid","bonus":0.6800000000000005},{"rt":562.1999999880791,"stimulus":"\n                    <p><b>Action: <em>avoid</em></b></p>\n                    <p>This is the bee that you just saw.</p>\n                    <img src=\"bees-with-color/bee-A2DF.svg\" width=\"200\">\n                    <p><br>Your bonus pay is unchanged, and remains at $0.52.</p>\n            ","response":0,"trial_type":"html-button-response","trial_index":86,"time_elapsed":538803,"internal_node_id":"0.0-4.0-1.37","subject_id":"610bce3ab86d818fca5066a3","study_id":"6197b3f67c2b5cd3b6d9596a","session_id":"6197b88b5545c270d08ef401","condition":"contingent","relevant_dimensions":["antennae","pattern"],"bee_group":{"antennae":"B","wings":"X","pattern":"D","legs":"X"},"bonus":0.6800000000000005},{"rt":2213.7999999523163,"stimulus":"bees-with-color/bee-B2SF.svg","response":0,"trial_type":"image-button-response","trial_index":87,"time_elapsed":541019,"internal_node_id":"0.0-4.0-0.38","subject_id":"610bce3ab86d818fca5066a3","study_id":"6197b3f67c2b5cd3b6d9596a","session_id":"6197b88b5545c270d08ef401","condition":"contingent","relevant_dimensions":["antennae","pattern"],"bee_group":{"antennae":"B","wings":"X","pattern":"D","legs":"X"},"action":"harvest","summary":"good-harvest","bonus":0.6800000000000005},{"rt":929.5,"stimulus":"\n                    <p><b>Action: <em>harvest</em></b></p>\n                    <p>This is the bee that you just saw.</p>\n                    <img src=\"bees-with-color/bee-B2SF.svg\" width=\"200\">\n                    <p><span class=\"greenText\"><b>Successful harvest!</b></span><br>Your pay has increased by $0.02. Your bonus pay is now $0.54.</p>\n            ","response":0,"trial_type":"html-button-response","trial_index":88,"time_elapsed":541951,"internal_node_id":"0.0-4.0-1.38","subject_id":"610bce3ab86d818fca5066a3","study_id":"6197b3f67c2b5cd3b6d9596a","session_id":"6197b88b5545c270d08ef401","condition":"contingent","relevant_dimensions":["antennae","pattern"],"bee_group":{"antennae":"B","wings":"X","pattern":"D","legs":"X"},"bonus":0.6800000000000005},{"rt":585.6999999880791,"stimulus":"bees-with-color/bee-B2DF.svg","response":1,"trial_type":"image-button-response","trial_index":89,"time_elapsed":542539,"internal_node_id":"0.0-4.0-0.39","subject_id":"610bce3ab86d818fca5066a3","study_id":"6197b3f67c2b5cd3b6d9596a","session_id":"6197b88b5545c270d08ef401","condition":"contingent","relevant_dimensions":["antennae","pattern"],"bee_group":{"antennae":"B","wings":"X","pattern":"D","legs":"X"},"action":"avoid","summary":"good-avoid","bonus":0.6800000000000005},{"rt":1107.199999988079,"stimulus":"\n                    <p><b>Action: <em>avoid</em></b></p>\n                    <p>This is the bee that you just saw.</p>\n                    <img src=\"bees-with-color/bee-B2DF.svg\" width=\"200\">\n                    <p><br>Your bonus pay is unchanged, and remains at $0.54.</p>\n            ","response":0,"trial_type":"html-button-response","trial_index":90,"time_elapsed":543649,"internal_node_id":"0.0-4.0-1.39","subject_id":"610bce3ab86d818fca5066a3","study_id":"6197b3f67c2b5cd3b6d9596a","session_id":"6197b88b5545c270d08ef401","condition":"contingent","relevant_dimensions":["antennae","pattern"],"bee_group":{"antennae":"B","wings":"X","pattern":"D","legs":"X"},"bonus":0.6800000000000005},{"rt":1695.800000011921,"stimulus":"bees-with-color/bee-A1SF.svg","response":0,"trial_type":"image-button-response","trial_index":91,"time_elapsed":545347,"internal_node_id":"0.0-4.0-0.40","subject_id":"610bce3ab86d818fca5066a3","study_id":"6197b3f67c2b5cd3b6d9596a","session_id":"6197b88b5545c270d08ef401","condition":"contingent","relevant_dimensions":["antennae","pattern"],"bee_group":{"antennae":"B","wings":"X","pattern":"D","legs":"X"},"action":"harvest","summary":"good-harvest","bonus":0.6800000000000005},{"rt":717.3999999761581,"stimulus":"\n                    <p><b>Action: <em>harvest</em></b></p>\n                    <p>This is the bee that you just saw.</p>\n                    <img src=\"bees-with-color/bee-A1SF.svg\" width=\"200\">\n                    <p><span class=\"greenText\"><b>Successful harvest!</b></span><br>Your pay has increased by $0.02. Your bonus pay is now $0.56.</p>\n            ","response":0,"trial_type":"html-button-response","trial_index":92,"time_elapsed":546067,"internal_node_id":"0.0-4.0-1.40","subject_id":"610bce3ab86d818fca5066a3","study_id":"6197b3f67c2b5cd3b6d9596a","session_id":"6197b88b5545c270d08ef401","condition":"contingent","relevant_dimensions":["antennae","pattern"],"bee_group":{"antennae":"B","wings":"X","pattern":"D","legs":"X"},"bonus":0.6800000000000005},{"rt":676,"stimulus":"bees-with-color/bee-B2DM.svg","response":1,"trial_type":"image-button-response","trial_index":93,"time_elapsed":546745,"internal_node_id":"0.0-4.0-0.41","subject_id":"610bce3ab86d818fca5066a3","study_id":"6197b3f67c2b5cd3b6d9596a","session_id":"6197b88b5545c270d08ef401","condition":"contingent","relevant_dimensions":["antennae","pattern"],"bee_group":{"antennae":"B","wings":"X","pattern":"D","legs":"X"},"action":"avoid","summary":"good-avoid","bonus":0.6800000000000005},{"rt":775.1999999880791,"stimulus":"\n                    <p><b>Action: <em>avoid</em></b></p>\n                    <p>This is the bee that you just saw.</p>\n                    <img src=\"bees-with-color/bee-B2DM.svg\" width=\"200\">\n                    <p><br>Your bonus pay is unchanged, and remains at $0.56.</p>\n            ","response":0,"trial_type":"html-button-response","trial_index":94,"time_elapsed":547523,"internal_node_id":"0.0-4.0-1.41","subject_id":"610bce3ab86d818fca5066a3","study_id":"6197b3f67c2b5cd3b6d9596a","session_id":"6197b88b5545c270d08ef401","condition":"contingent","relevant_dimensions":["antennae","pattern"],"bee_group":{"antennae":"B","wings":"X","pattern":"D","legs":"X"},"bonus":0.6800000000000005},{"rt":1089.5,"stimulus":"bees-with-color/bee-A2DM.svg","response":1,"trial_type":"image-button-response","trial_index":95,"time_elapsed":548614,"internal_node_id":"0.0-4.0-0.42","subject_id":"610bce3ab86d818fca5066a3","study_id":"6197b3f67c2b5cd3b6d9596a","session_id":"6197b88b5545c270d08ef401","condition":"contingent","relevant_dimensions":["antennae","pattern"],"bee_group":{"antennae":"B","wings":"X","pattern":"D","legs":"X"},"action":"avoid","summary":"bad-avoid","bonus":0.6800000000000005},{"rt":711.2999999523163,"stimulus":"\n                    <p><b>Action: <em>avoid</em></b></p>\n                    <p>This is the bee that you just saw.</p>\n                    <img src=\"bees-with-color/bee-A2DM.svg\" width=\"200\">\n                    <p><br>Your bonus pay is unchanged, and remains at $0.56.</p>\n            ","response":0,"trial_type":"html-button-response","trial_index":96,"time_elapsed":549327,"internal_node_id":"0.0-4.0-1.42","subject_id":"610bce3ab86d818fca5066a3","study_id":"6197b3f67c2b5cd3b6d9596a","session_id":"6197b88b5545c270d08ef401","condition":"contingent","relevant_dimensions":["antennae","pattern"],"bee_group":{"antennae":"B","wings":"X","pattern":"D","legs":"X"},"bonus":0.6800000000000005},{"rt":860.3999999761581,"stimulus":"bees-with-color/bee-A1DM.svg","response":1,"trial_type":"image-button-response","trial_index":97,"time_elapsed":550189,"internal_node_id":"0.0-4.0-0.43","subject_id":"610bce3ab86d818fca5066a3","study_id":"6197b3f67c2b5cd3b6d9596a","session_id":"6197b88b5545c270d08ef401","condition":"contingent","relevant_dimensions":["antennae","pattern"],"bee_group":{"antennae":"B","wings":"X","pattern":"D","legs":"X"},"action":"avoid","summary":"bad-avoid","bonus":0.6800000000000005},{"rt":706.1999999880791,"stimulus":"\n                    <p><b>Action: <em>avoid</em></b></p>\n                    <p>This is the bee that you just saw.</p>\n                    <img src=\"bees-with-color/bee-A1DM.svg\" width=\"200\">\n                    <p><br>Your bonus pay is unchanged, and remains at $0.56.</p>\n            ","response":0,"trial_type":"html-button-response","trial_index":98,"time_elapsed":550897,"internal_node_id":"0.0-4.0-1.43","subject_id":"610bce3ab86d818fca5066a3","study_id":"6197b3f67c2b5cd3b6d9596a","session_id":"6197b88b5545c270d08ef401","condition":"contingent","relevant_dimensions":["antennae","pattern"],"bee_group":{"antennae":"B","wings":"X","pattern":"D","legs":"X"},"bonus":0.6800000000000005},{"rt":858,"stimulus":"bees-with-color/bee-A1DF.svg","response":1,"trial_type":"image-button-response","trial_index":99,"time_elapsed":551757,"internal_node_id":"0.0-4.0-0.44","subject_id":"610bce3ab86d818fca5066a3","study_id":"6197b3f67c2b5cd3b6d9596a","session_id":"6197b88b5545c270d08ef401","condition":"contingent","relevant_dimensions":["antennae","pattern"],"bee_group":{"antennae":"B","wings":"X","pattern":"D","legs":"X"},"action":"avoid","summary":"bad-avoid","bonus":0.6800000000000005},{"rt":730.0999999642372,"stimulus":"\n                    <p><b>Action: <em>avoid</em></b></p>\n                    <p>This is the bee that you just saw.</p>\n                    <img src=\"bees-with-color/bee-A1DF.svg\" width=\"200\">\n                    <p><br>Your bonus pay is unchanged, and remains at $0.56.</p>\n            ","response":0,"trial_type":"html-button-response","trial_index":100,"time_elapsed":552489,"internal_node_id":"0.0-4.0-1.44","subject_id":"610bce3ab86d818fca5066a3","study_id":"6197b3f67c2b5cd3b6d9596a","session_id":"6197b88b5545c270d08ef401","condition":"contingent","relevant_dimensions":["antennae","pattern"],"bee_group":{"antennae":"B","wings":"X","pattern":"D","legs":"X"},"bonus":0.6800000000000005},{"rt":930.1000000238419,"stimulus":"bees-with-color/bee-B1DM.svg","response":1,"trial_type":"image-button-response","trial_index":101,"time_elapsed":553421,"internal_node_id":"0.0-4.0-0.45","subject_id":"610bce3ab86d818fca5066a3","study_id":"6197b3f67c2b5cd3b6d9596a","session_id":"6197b88b5545c270d08ef401","condition":"contingent","relevant_dimensions":["antennae","pattern"],"bee_group":{"antennae":"B","wings":"X","pattern":"D","legs":"X"},"action":"avoid","summary":"good-avoid","bonus":0.6800000000000005},{"rt":820.1999999880791,"stimulus":"\n                    <p><b>Action: <em>avoid</em></b></p>\n                    <p>This is the bee that you just saw.</p>\n                    <img src=\"bees-with-color/bee-B1DM.svg\" width=\"200\">\n                    <p><br>Your bonus pay is unchanged, and remains at $0.56.</p>\n            ","response":0,"trial_type":"html-button-response","trial_index":102,"time_elapsed":554243,"internal_node_id":"0.0-4.0-1.45","subject_id":"610bce3ab86d818fca5066a3","study_id":"6197b3f67c2b5cd3b6d9596a","session_id":"6197b88b5545c270d08ef401","condition":"contingent","relevant_dimensions":["antennae","pattern"],"bee_group":{"antennae":"B","wings":"X","pattern":"D","legs":"X"},"bonus":0.6800000000000005},{"rt":1226.0999999642372,"stimulus":"bees-with-color/bee-B1SM.svg","response":0,"trial_type":"image-button-response","trial_index":103,"time_elapsed":555471,"internal_node_id":"0.0-4.0-0.46","subject_id":"610bce3ab86d818fca5066a3","study_id":"6197b3f67c2b5cd3b6d9596a","session_id":"6197b88b5545c270d08ef401","condition":"contingent","relevant_dimensions":["antennae","pattern"],"bee_group":{"antennae":"B","wings":"X","pattern":"D","legs":"X"},"action":"harvest","summary":"good-harvest","bonus":0.6800000000000005},{"rt":1910,"stimulus":"\n                    <p><b>Action: <em>harvest</em></b></p>\n                    <p>This is the bee that you just saw.</p>\n                    <img src=\"bees-with-color/bee-B1SM.svg\" width=\"200\">\n                    <p><span class=\"greenText\"><b>Successful harvest!</b></span><br>Your pay has increased by $0.02. Your bonus pay is now $0.58.</p>\n            ","response":0,"trial_type":"html-button-response","trial_index":104,"time_elapsed":557383,"internal_node_id":"0.0-4.0-1.46","subject_id":"610bce3ab86d818fca5066a3","study_id":"6197b3f67c2b5cd3b6d9596a","session_id":"6197b88b5545c270d08ef401","condition":"contingent","relevant_dimensions":["antennae","pattern"],"bee_group":{"antennae":"B","wings":"X","pattern":"D","legs":"X"},"bonus":0.6800000000000005},{"rt":765.6999999880791,"stimulus":"bees-with-color/bee-A2SF.svg","response":1,"trial_type":"image-button-response","trial_index":105,"time_elapsed":558150,"internal_node_id":"0.0-4.0-0.47","subject_id":"610bce3ab86d818fca5066a3","study_id":"6197b3f67c2b5cd3b6d9596a","session_id":"6197b88b5545c270d08ef401","condition":"contingent","relevant_dimensions":["antennae","pattern"],"bee_group":{"antennae":"B","wings":"X","pattern":"D","legs":"X"},"action":"avoid","summary":"bad-avoid","bonus":0.6800000000000005},{"rt":914.5,"stimulus":"\n                    <p><b>Action: <em>avoid</em></b></p>\n                    <p>This is the bee that you just saw.</p>\n                    <img src=\"bees-with-color/bee-A2SF.svg\" width=\"200\">\n                    <p><br>Your bonus pay is unchanged, and remains at $0.58.</p>\n            ","response":0,"trial_type":"html-button-response","trial_index":106,"time_elapsed":559067,"internal_node_id":"0.0-4.0-1.47","subject_id":"610bce3ab86d818fca5066a3","study_id":"6197b3f67c2b5cd3b6d9596a","session_id":"6197b88b5545c270d08ef401","condition":"contingent","relevant_dimensions":["antennae","pattern"],"bee_group":{"antennae":"B","wings":"X","pattern":"D","legs":"X"},"bonus":0.6800000000000005},{"rt":832.1999999880791,"stimulus":"bees-with-color/bee-B1DM.svg","response":1,"trial_type":"image-button-response","trial_index":107,"time_elapsed":559901,"internal_node_id":"0.0-4.0-0.48","subject_id":"610bce3ab86d818fca5066a3","study_id":"6197b3f67c2b5cd3b6d9596a","session_id":"6197b88b5545c270d08ef401","condition":"contingent","relevant_dimensions":["antennae","pattern"],"bee_group":{"antennae":"B","wings":"X","pattern":"D","legs":"X"},"action":"avoid","summary":"good-avoid","bonus":0.6800000000000005},{"rt":1371.8999999761581,"stimulus":"\n                    <p><b>Action: <em>avoid</em></b></p>\n                    <p>This is the bee that you just saw.</p>\n                    <img src=\"bees-with-color/bee-B1DM.svg\" width=\"200\">\n                    <p><br>Your bonus pay is unchanged, and remains at $0.58.</p>\n            ","response":0,"trial_type":"html-button-response","trial_index":108,"time_elapsed":561275,"internal_node_id":"0.0-4.0-1.48","subject_id":"610bce3ab86d818fca5066a3","study_id":"6197b3f67c2b5cd3b6d9596a","session_id":"6197b88b5545c270d08ef401","condition":"contingent","relevant_dimensions":["antennae","pattern"],"bee_group":{"antennae":"B","wings":"X","pattern":"D","legs":"X"},"bonus":0.6800000000000005},{"rt":3001.900000035763,"stimulus":"bees-with-color/bee-B2SM.svg","response":1,"trial_type":"image-button-response","trial_index":109,"time_elapsed":564279,"internal_node_id":"0.0-4.0-0.49","subject_id":"610bce3ab86d818fca5066a3","study_id":"6197b3f67c2b5cd3b6d9596a","session_id":"6197b88b5545c270d08ef401","condition":"contingent","relevant_dimensions":["antennae","pattern"],"bee_group":{"antennae":"B","wings":"X","pattern":"D","legs":"X"},"action":"avoid","summary":"bad-avoid","bonus":0.6800000000000005},{"rt":618.1999999880791,"stimulus":"\n                    <p><b>Action: <em>avoid</em></b></p>\n                    <p>This is the bee that you just saw.</p>\n                    <img src=\"bees-with-color/bee-B2SM.svg\" width=\"200\">\n                    <p><br>Your bonus pay is unchanged, and remains at $0.58.</p>\n            ","response":0,"trial_type":"html-button-response","trial_index":110,"time_elapsed":564899,"internal_node_id":"0.0-4.0-1.49","subject_id":"610bce3ab86d818fca5066a3","study_id":"6197b3f67c2b5cd3b6d9596a","session_id":"6197b88b5545c270d08ef401","condition":"contingent","relevant_dimensions":["antennae","pattern"],"bee_group":{"antennae":"B","wings":"X","pattern":"D","legs":"X"},"bonus":0.6800000000000005},{"rt":475.89999997615814,"stimulus":"bees-with-color/bee-A1DF.svg","response":1,"trial_type":"image-button-response","trial_index":111,"time_elapsed":565377,"internal_node_id":"0.0-4.0-0.50","subject_id":"610bce3ab86d818fca5066a3","study_id":"6197b3f67c2b5cd3b6d9596a","session_id":"6197b88b5545c270d08ef401","condition":"contingent","relevant_dimensions":["antennae","pattern"],"bee_group":{"antennae":"B","wings":"X","pattern":"D","legs":"X"},"action":"avoid","summary":"bad-avoid","bonus":0.6800000000000005},{"rt":501.80000001192093,"stimulus":"\n                    <p><b>Action: <em>avoid</em></b></p>\n                    <p>This is the bee that you just saw.</p>\n                    <img src=\"bees-with-color/bee-A1DF.svg\" width=\"200\">\n                    <p><br>Your bonus pay is unchanged, and remains at $0.58.</p>\n            ","response":0,"trial_type":"html-button-response","trial_index":112,"time_elapsed":565881,"internal_node_id":"0.0-4.0-1.50","subject_id":"610bce3ab86d818fca5066a3","study_id":"6197b3f67c2b5cd3b6d9596a","session_id":"6197b88b5545c270d08ef401","condition":"contingent","relevant_dimensions":["antennae","pattern"],"bee_group":{"antennae":"B","wings":"X","pattern":"D","legs":"X"},"bonus":0.6800000000000005},{"rt":456,"stimulus":"bees-with-color/bee-A1DM.svg","response":1,"trial_type":"image-button-response","trial_index":113,"time_elapsed":566339,"internal_node_id":"0.0-4.0-0.51","subject_id":"610bce3ab86d818fca5066a3","study_id":"6197b3f67c2b5cd3b6d9596a","session_id":"6197b88b5545c270d08ef401","condition":"contingent","relevant_dimensions":["antennae","pattern"],"bee_group":{"antennae":"B","wings":"X","pattern":"D","legs":"X"},"action":"avoid","summary":"bad-avoid","bonus":0.6800000000000005},{"rt":493.89999997615814,"stimulus":"\n                    <p><b>Action: <em>avoid</em></b></p>\n                    <p>This is the bee that you just saw.</p>\n                    <img src=\"bees-with-color/bee-A1DM.svg\" width=\"200\">\n                    <p><br>Your bonus pay is unchanged, and remains at $0.58.</p>\n            ","response":0,"trial_type":"html-button-response","trial_index":114,"time_elapsed":566835,"internal_node_id":"0.0-4.0-1.51","subject_id":"610bce3ab86d818fca5066a3","study_id":"6197b3f67c2b5cd3b6d9596a","session_id":"6197b88b5545c270d08ef401","condition":"contingent","relevant_dimensions":["antennae","pattern"],"bee_group":{"antennae":"B","wings":"X","pattern":"D","legs":"X"},"bonus":0.6800000000000005},{"rt":549.8999999761581,"stimulus":"bees-with-color/bee-A1SF.svg","response":1,"trial_type":"image-button-response","trial_index":115,"time_elapsed":567387,"internal_node_id":"0.0-4.0-0.52","subject_id":"610bce3ab86d818fca5066a3","study_id":"6197b3f67c2b5cd3b6d9596a","session_id":"6197b88b5545c270d08ef401","condition":"contingent","relevant_dimensions":["antennae","pattern"],"bee_group":{"antennae":"B","wings":"X","pattern":"D","legs":"X"},"action":"avoid","summary":"bad-avoid","bonus":0.6800000000000005},{"rt":630.1999999880791,"stimulus":"\n                    <p><b>Action: <em>avoid</em></b></p>\n                    <p>This is the bee that you just saw.</p>\n                    <img src=\"bees-with-color/bee-A1SF.svg\" width=\"200\">\n                    <p><br>Your bonus pay is unchanged, and remains at $0.58.</p>\n            ","response":0,"trial_type":"html-button-response","trial_index":116,"time_elapsed":568019,"internal_node_id":"0.0-4.0-1.52","subject_id":"610bce3ab86d818fca5066a3","study_id":"6197b3f67c2b5cd3b6d9596a","session_id":"6197b88b5545c270d08ef401","condition":"contingent","relevant_dimensions":["antennae","pattern"],"bee_group":{"antennae":"B","wings":"X","pattern":"D","legs":"X"},"bonus":0.6800000000000005},{"rt":437.60000002384186,"stimulus":"bees-with-color/bee-A2DM.svg","response":1,"trial_type":"image-button-response","trial_index":117,"time_elapsed":568459,"internal_node_id":"0.0-4.0-0.53","subject_id":"610bce3ab86d818fca5066a3","study_id":"6197b3f67c2b5cd3b6d9596a","session_id":"6197b88b5545c270d08ef401","condition":"contingent","relevant_dimensions":["antennae","pattern"],"bee_group":{"antennae":"B","wings":"X","pattern":"D","legs":"X"},"action":"avoid","summary":"bad-avoid","bonus":0.6800000000000005},{"rt":511.89999997615814,"stimulus":"\n                    <p><b>Action: <em>avoid</em></b></p>\n                    <p>This is the bee that you just saw.</p>\n                    <img src=\"bees-with-color/bee-A2DM.svg\" width=\"200\">\n                    <p><br>Your bonus pay is unchanged, and remains at $0.58.</p>\n            ","response":0,"trial_type":"html-button-response","trial_index":118,"time_elapsed":568973,"internal_node_id":"0.0-4.0-1.53","subject_id":"610bce3ab86d818fca5066a3","study_id":"6197b3f67c2b5cd3b6d9596a","session_id":"6197b88b5545c270d08ef401","condition":"contingent","relevant_dimensions":["antennae","pattern"],"bee_group":{"antennae":"B","wings":"X","pattern":"D","legs":"X"},"bonus":0.6800000000000005},{"rt":495.9000000357628,"stimulus":"bees-with-color/bee-B2SF.svg","response":1,"trial_type":"image-button-response","trial_index":119,"time_elapsed":569471,"internal_node_id":"0.0-4.0-0.54","subject_id":"610bce3ab86d818fca5066a3","study_id":"6197b3f67c2b5cd3b6d9596a","session_id":"6197b88b5545c270d08ef401","condition":"contingent","relevant_dimensions":["antennae","pattern"],"bee_group":{"antennae":"B","wings":"X","pattern":"D","legs":"X"},"action":"avoid","summary":"bad-avoid","bonus":0.6800000000000005},{"rt":415.60000002384186,"stimulus":"\n                    <p><b>Action: <em>avoid</em></b></p>\n                    <p>This is the bee that you just saw.</p>\n                    <img src=\"bees-with-color/bee-B2SF.svg\" width=\"200\">\n                    <p><br>Your bonus pay is unchanged, and remains at $0.58.</p>\n            ","response":0,"trial_type":"html-button-response","trial_index":120,"time_elapsed":569889,"internal_node_id":"0.0-4.0-1.54","subject_id":"610bce3ab86d818fca5066a3","study_id":"6197b3f67c2b5cd3b6d9596a","session_id":"6197b88b5545c270d08ef401","condition":"contingent","relevant_dimensions":["antennae","pattern"],"bee_group":{"antennae":"B","wings":"X","pattern":"D","legs":"X"},"bonus":0.6800000000000005},{"rt":395.7999999523163,"stimulus":"bees-with-color/bee-B2DF.svg","response":1,"trial_type":"image-button-response","trial_index":121,"time_elapsed":570286,"internal_node_id":"0.0-4.0-0.55","subject_id":"610bce3ab86d818fca5066a3","study_id":"6197b3f67c2b5cd3b6d9596a","session_id":"6197b88b5545c270d08ef401","condition":"contingent","relevant_dimensions":["antennae","pattern"],"bee_group":{"antennae":"B","wings":"X","pattern":"D","legs":"X"},"action":"avoid","summary":"good-avoid","bonus":0.6800000000000005},{"rt":500.10000002384186,"stimulus":"\n                    <p><b>Action: <em>avoid</em></b></p>\n                    <p>This is the bee that you just saw.</p>\n                    <img src=\"bees-with-color/bee-B2DF.svg\" width=\"200\">\n                    <p><br>Your bonus pay is unchanged, and remains at $0.58.</p>\n            ","response":0,"trial_type":"html-button-response","trial_index":122,"time_elapsed":570789,"internal_node_id":"0.0-4.0-1.55","subject_id":"610bce3ab86d818fca5066a3","study_id":"6197b3f67c2b5cd3b6d9596a","session_id":"6197b88b5545c270d08ef401","condition":"contingent","relevant_dimensions":["antennae","pattern"],"bee_group":{"antennae":"B","wings":"X","pattern":"D","legs":"X"},"bonus":0.6800000000000005},{"rt":442,"stimulus":"bees-with-color/bee-A2DF.svg","response":1,"trial_type":"image-button-response","trial_index":123,"time_elapsed":571233,"internal_node_id":"0.0-4.0-0.56","subject_id":"610bce3ab86d818fca5066a3","study_id":"6197b3f67c2b5cd3b6d9596a","session_id":"6197b88b5545c270d08ef401","condition":"contingent","relevant_dimensions":["antennae","pattern"],"bee_group":{"antennae":"B","wings":"X","pattern":"D","legs":"X"},"action":"avoid","summary":"bad-avoid","bonus":0.6800000000000005},{"rt":437.5999999642372,"stimulus":"\n                    <p><b>Action: <em>avoid</em></b></p>\n                    <p>This is the bee that you just saw.</p>\n                    <img src=\"bees-with-color/bee-A2DF.svg\" width=\"200\">\n                    <p><br>Your bonus pay is unchanged, and remains at $0.58.</p>\n            ","response":0,"trial_type":"html-button-response","trial_index":124,"time_elapsed":571672,"internal_node_id":"0.0-4.0-1.56","subject_id":"610bce3ab86d818fca5066a3","study_id":"6197b3f67c2b5cd3b6d9596a","session_id":"6197b88b5545c270d08ef401","condition":"contingent","relevant_dimensions":["antennae","pattern"],"bee_group":{"antennae":"B","wings":"X","pattern":"D","legs":"X"},"bonus":0.6800000000000005},{"rt":398.5999999642372,"stimulus":"bees-with-color/bee-A1SM.svg","response":1,"trial_type":"image-button-response","trial_index":125,"time_elapsed":572073,"internal_node_id":"0.0-4.0-0.57","subject_id":"610bce3ab86d818fca5066a3","study_id":"6197b3f67c2b5cd3b6d9596a","session_id":"6197b88b5545c270d08ef401","condition":"contingent","relevant_dimensions":["antennae","pattern"],"bee_group":{"antennae":"B","wings":"X","pattern":"D","legs":"X"},"action":"avoid","summary":"bad-avoid","bonus":0.6800000000000005},{"rt":431.80000001192093,"stimulus":"\n                    <p><b>Action: <em>avoid</em></b></p>\n                    <p>This is the bee that you just saw.</p>\n                    <img src=\"bees-with-color/bee-A1SM.svg\" width=\"200\">\n                    <p><br>Your bonus pay is unchanged, and remains at $0.58.</p>\n            ","response":0,"trial_type":"html-button-response","trial_index":126,"time_elapsed":572507,"internal_node_id":"0.0-4.0-1.57","subject_id":"610bce3ab86d818fca5066a3","study_id":"6197b3f67c2b5cd3b6d9596a","session_id":"6197b88b5545c270d08ef401","condition":"contingent","relevant_dimensions":["antennae","pattern"],"bee_group":{"antennae":"B","wings":"X","pattern":"D","legs":"X"},"bonus":0.6800000000000005},{"rt":981.7000000476837,"stimulus":"bees-with-color/bee-B1SF.svg","response":1,"trial_type":"image-button-response","trial_index":127,"time_elapsed":573491,"internal_node_id":"0.0-4.0-0.58","subject_id":"610bce3ab86d818fca5066a3","study_id":"6197b3f67c2b5cd3b6d9596a","session_id":"6197b88b5545c270d08ef401","condition":"contingent","relevant_dimensions":["antennae","pattern"],"bee_group":{"antennae":"B","wings":"X","pattern":"D","legs":"X"},"action":"avoid","summary":"bad-avoid","bonus":0.6800000000000005},{"rt":826.8000000119209,"stimulus":"\n                    <p><b>Action: <em>avoid</em></b></p>\n                    <p>This is the bee that you just saw.</p>\n                    <img src=\"bees-with-color/bee-B1SF.svg\" width=\"200\">\n                    <p><br>Your bonus pay is unchanged, and remains at $0.58.</p>\n            ","response":0,"trial_type":"html-button-response","trial_index":128,"time_elapsed":574320,"internal_node_id":"0.0-4.0-1.58","subject_id":"610bce3ab86d818fca5066a3","study_id":"6197b3f67c2b5cd3b6d9596a","session_id":"6197b88b5545c270d08ef401","condition":"contingent","relevant_dimensions":["antennae","pattern"],"bee_group":{"antennae":"B","wings":"X","pattern":"D","legs":"X"},"bonus":0.6800000000000005},{"rt":770.4000000357628,"stimulus":"bees-with-color/bee-B1SM.svg","response":1,"trial_type":"image-button-response","trial_index":129,"time_elapsed":575093,"internal_node_id":"0.0-4.0-0.59","subject_id":"610bce3ab86d818fca5066a3","study_id":"6197b3f67c2b5cd3b6d9596a","session_id":"6197b88b5545c270d08ef401","condition":"contingent","relevant_dimensions":["antennae","pattern"],"bee_group":{"antennae":"B","wings":"X","pattern":"D","legs":"X"},"action":"avoid","summary":"bad-avoid","bonus":0.6800000000000005},{"rt":696,"stimulus":"\n                    <p><b>Action: <em>avoid</em></b></p>\n                    <p>This is the bee that you just saw.</p>\n                    <img src=\"bees-with-color/bee-B1SM.svg\" width=\"200\">\n                    <p><br>Your bonus pay is unchanged, and remains at $0.58.</p>\n            ","response":0,"trial_type":"html-button-response","trial_index":130,"time_elapsed":575791,"internal_node_id":"0.0-4.0-1.59","subject_id":"610bce3ab86d818fca5066a3","study_id":"6197b3f67c2b5cd3b6d9596a","session_id":"6197b88b5545c270d08ef401","condition":"contingent","relevant_dimensions":["antennae","pattern"],"bee_group":{"antennae":"B","wings":"X","pattern":"D","legs":"X"},"bonus":0.6800000000000005},{"rt":405.2000000476837,"stimulus":"bees-with-color/bee-B1DF.svg","response":1,"trial_type":"image-button-response","trial_index":131,"time_elapsed":576199,"internal_node_id":"0.0-4.0-0.60","subject_id":"610bce3ab86d818fca5066a3","study_id":"6197b3f67c2b5cd3b6d9596a","session_id":"6197b88b5545c270d08ef401","condition":"contingent","relevant_dimensions":["antennae","pattern"],"bee_group":{"antennae":"B","wings":"X","pattern":"D","legs":"X"},"action":"avoid","summary":"good-avoid","bonus":0.6800000000000005},{"rt":383.60000002384186,"stimulus":"\n                    <p><b>Action: <em>avoid</em></b></p>\n                    <p>This is the bee that you just saw.</p>\n                    <img src=\"bees-with-color/bee-B1DF.svg\" width=\"200\">\n                    <p><br>Your bonus pay is unchanged, and remains at $0.58.</p>\n            ","response":0,"trial_type":"html-button-response","trial_index":132,"time_elapsed":576585,"internal_node_id":"0.0-4.0-1.60","subject_id":"610bce3ab86d818fca5066a3","study_id":"6197b3f67c2b5cd3b6d9596a","session_id":"6197b88b5545c270d08ef401","condition":"contingent","relevant_dimensions":["antennae","pattern"],"bee_group":{"antennae":"B","wings":"X","pattern":"D","legs":"X"},"bonus":0.6800000000000005},{"rt":1228,"stimulus":"bees-with-color/bee-A2SF.svg","response":1,"trial_type":"image-button-response","trial_index":133,"time_elapsed":577815,"internal_node_id":"0.0-4.0-0.61","subject_id":"610bce3ab86d818fca5066a3","study_id":"6197b3f67c2b5cd3b6d9596a","session_id":"6197b88b5545c270d08ef401","condition":"contingent","relevant_dimensions":["antennae","pattern"],"bee_group":{"antennae":"B","wings":"X","pattern":"D","legs":"X"},"action":"avoid","summary":"bad-avoid","bonus":0.6800000000000005},{"rt":557.0999999642372,"stimulus":"\n                    <p><b>Action: <em>avoid</em></b></p>\n                    <p>This is the bee that you just saw.</p>\n                    <img src=\"bees-with-color/bee-A2SF.svg\" width=\"200\">\n                    <p><br>Your bonus pay is unchanged, and remains at $0.58.</p>\n            ","response":0,"trial_type":"html-button-response","trial_index":134,"time_elapsed":578374,"internal_node_id":"0.0-4.0-1.61","subject_id":"610bce3ab86d818fca5066a3","study_id":"6197b3f67c2b5cd3b6d9596a","session_id":"6197b88b5545c270d08ef401","condition":"contingent","relevant_dimensions":["antennae","pattern"],"bee_group":{"antennae":"B","wings":"X","pattern":"D","legs":"X"},"bonus":0.6800000000000005},{"rt":374.9000000357628,"stimulus":"bees-with-color/bee-A2SM.svg","response":1,"trial_type":"image-button-response","trial_index":135,"time_elapsed":578751,"internal_node_id":"0.0-4.0-0.62","subject_id":"610bce3ab86d818fca5066a3","study_id":"6197b3f67c2b5cd3b6d9596a","session_id":"6197b88b5545c270d08ef401","condition":"contingent","relevant_dimensions":["antennae","pattern"],"bee_group":{"antennae":"B","wings":"X","pattern":"D","legs":"X"},"action":"avoid","summary":"bad-avoid","bonus":0.6800000000000005},{"rt":957.3000000119209,"stimulus":"\n                    <p><b>Action: <em>avoid</em></b></p>\n                    <p>This is the bee that you just saw.</p>\n                    <img src=\"bees-with-color/bee-A2SM.svg\" width=\"200\">\n                    <p><br>Your bonus pay is unchanged, and remains at $0.58.</p>\n            ","response":0,"trial_type":"html-button-response","trial_index":136,"time_elapsed":579710,"internal_node_id":"0.0-4.0-1.62","subject_id":"610bce3ab86d818fca5066a3","study_id":"6197b3f67c2b5cd3b6d9596a","session_id":"6197b88b5545c270d08ef401","condition":"contingent","relevant_dimensions":["antennae","pattern"],"bee_group":{"antennae":"B","wings":"X","pattern":"D","legs":"X"},"bonus":0.6800000000000005},{"rt":464.39999997615814,"stimulus":"bees-with-color/bee-B2DM.svg","response":1,"trial_type":"image-button-response","trial_index":137,"time_elapsed":580177,"internal_node_id":"0.0-4.0-0.63","subject_id":"610bce3ab86d818fca5066a3","study_id":"6197b3f67c2b5cd3b6d9596a","session_id":"6197b88b5545c270d08ef401","condition":"contingent","relevant_dimensions":["antennae","pattern"],"bee_group":{"antennae":"B","wings":"X","pattern":"D","legs":"X"},"action":"avoid","summary":"good-avoid","bonus":0.6800000000000005},{"rt":611.3999999761581,"stimulus":"\n                    <p><b>Action: <em>avoid</em></b></p>\n                    <p>This is the bee that you just saw.</p>\n                    <img src=\"bees-with-color/bee-B2DM.svg\" width=\"200\">\n                    <p><br>Your bonus pay is unchanged, and remains at $0.58.</p>\n            ","response":0,"trial_type":"html-button-response","trial_index":138,"time_elapsed":580791,"internal_node_id":"0.0-4.0-1.63","subject_id":"610bce3ab86d818fca5066a3","study_id":"6197b3f67c2b5cd3b6d9596a","session_id":"6197b88b5545c270d08ef401","condition":"contingent","relevant_dimensions":["antennae","pattern"],"bee_group":{"antennae":"B","wings":"X","pattern":"D","legs":"X"},"bonus":0.6800000000000005},{"rt":3838.300000011921,"stimulus":"You have completed the first part of this experiment.<br><br>You will now begin a shorter second part, in which you will receive no feedback.<br>The same rules regarding bonus pay apply.<br><br>Press any key to begin.","response":"arrowdown","trial_type":"html-keyboard-response","trial_index":139,"time_elapsed":584631,"internal_node_id":"0.0-5.0","subject_id":"610bce3ab86d818fca5066a3","study_id":"6197b3f67c2b5cd3b6d9596a","session_id":"6197b88b5545c270d08ef401","condition":"contingent","relevant_dimensions":["antennae","pattern"],"bee_group":{"antennae":"B","wings":"X","pattern":"D","legs":"X"},"bonus":0.6800000000000005},{"rt":5941.900000035763,"stimulus":"bees-with-color/bee-A2SM.svg","response":0,"trial_type":"image-button-response","trial_index":140,"time_elapsed":590585,"internal_node_id":"0.0-6.0-0.0","subject_id":"610bce3ab86d818fca5066a3","study_id":"6197b3f67c2b5cd3b6d9596a","session_id":"6197b88b5545c270d08ef401","condition":"contingent","relevant_dimensions":["antennae","pattern"],"bee_group":{"antennae":"B","wings":"X","pattern":"D","legs":"X"},"bonus":0.6800000000000005},{"rt":3722.5,"stimulus":"bees-with-color/bee-B2SF.svg","response":1,"trial_type":"image-button-response","trial_index":141,"time_elapsed":594311,"internal_node_id":"0.0-6.0-0.1","subject_id":"610bce3ab86d818fca5066a3","study_id":"6197b3f67c2b5cd3b6d9596a","session_id":"6197b88b5545c270d08ef401","condition":"contingent","relevant_dimensions":["antennae","pattern"],"bee_group":{"antennae":"B","wings":"X","pattern":"D","legs":"X"},"bonus":0.6800000000000005},{"rt":495.10000002384186,"stimulus":"bees-with-color/bee-B1SF.svg","response":1,"trial_type":"image-button-response","trial_index":142,"time_elapsed":594809,"internal_node_id":"0.0-6.0-0.2","subject_id":"610bce3ab86d818fca5066a3","study_id":"6197b3f67c2b5cd3b6d9596a","session_id":"6197b88b5545c270d08ef401","condition":"contingent","relevant_dimensions":["antennae","pattern"],"bee_group":{"antennae":"B","wings":"X","pattern":"D","legs":"X"},"bonus":0.6800000000000005},{"rt":925.1999999880791,"stimulus":"bees-with-color/bee-B2DF.svg","response":1,"trial_type":"image-button-response","trial_index":143,"time_elapsed":595737,"internal_node_id":"0.0-6.0-0.3","subject_id":"610bce3ab86d818fca5066a3","study_id":"6197b3f67c2b5cd3b6d9596a","session_id":"6197b88b5545c270d08ef401","condition":"contingent","relevant_dimensions":["antennae","pattern"],"bee_group":{"antennae":"B","wings":"X","pattern":"D","legs":"X"},"bonus":0.6800000000000005},{"rt":799.2999999523163,"stimulus":"bees-with-color/bee-A1SM.svg","response":0,"trial_type":"image-button-response","trial_index":144,"time_elapsed":596539,"internal_node_id":"0.0-6.0-0.4","subject_id":"610bce3ab86d818fca5066a3","study_id":"6197b3f67c2b5cd3b6d9596a","session_id":"6197b88b5545c270d08ef401","condition":"contingent","relevant_dimensions":["antennae","pattern"],"bee_group":{"antennae":"B","wings":"X","pattern":"D","legs":"X"},"bonus":0.6800000000000005},{"rt":2035.199999988079,"stimulus":"bees-with-color/bee-A2DF.svg","response":1,"trial_type":"image-button-response","trial_index":145,"time_elapsed":598577,"internal_node_id":"0.0-6.0-0.5","subject_id":"610bce3ab86d818fca5066a3","study_id":"6197b3f67c2b5cd3b6d9596a","session_id":"6197b88b5545c270d08ef401","condition":"contingent","relevant_dimensions":["antennae","pattern"],"bee_group":{"antennae":"B","wings":"X","pattern":"D","legs":"X"},"bonus":0.6800000000000005},{"rt":495.30000001192093,"stimulus":"bees-with-color/bee-B2DM.svg","response":1,"trial_type":"image-button-response","trial_index":146,"time_elapsed":599075,"internal_node_id":"0.0-6.0-0.6","subject_id":"610bce3ab86d818fca5066a3","study_id":"6197b3f67c2b5cd3b6d9596a","session_id":"6197b88b5545c270d08ef401","condition":"contingent","relevant_dimensions":["antennae","pattern"],"bee_group":{"antennae":"B","wings":"X","pattern":"D","legs":"X"},"bonus":0.6800000000000005},{"rt":811.2999999523163,"stimulus":"bees-with-color/bee-A1SF.svg","response":0,"trial_type":"image-button-response","trial_index":147,"time_elapsed":599889,"internal_node_id":"0.0-6.0-0.7","subject_id":"610bce3ab86d818fca5066a3","study_id":"6197b3f67c2b5cd3b6d9596a","session_id":"6197b88b5545c270d08ef401","condition":"contingent","relevant_dimensions":["antennae","pattern"],"bee_group":{"antennae":"B","wings":"X","pattern":"D","legs":"X"},"bonus":0.6800000000000005},{"rt":531.2999999523163,"stimulus":"bees-with-color/bee-B1SM.svg","response":1,"trial_type":"image-button-response","trial_index":148,"time_elapsed":600423,"internal_node_id":"0.0-6.0-0.8","subject_id":"610bce3ab86d818fca5066a3","study_id":"6197b3f67c2b5cd3b6d9596a","session_id":"6197b88b5545c270d08ef401","condition":"contingent","relevant_dimensions":["antennae","pattern"],"bee_group":{"antennae":"B","wings":"X","pattern":"D","legs":"X"},"bonus":0.6800000000000005},{"rt":670.5,"stimulus":"bees-with-color/bee-B1DM.svg","response":1,"trial_type":"image-button-response","trial_index":149,"time_elapsed":601097,"internal_node_id":"0.0-6.0-0.9","subject_id":"610bce3ab86d818fca5066a3","study_id":"6197b3f67c2b5cd3b6d9596a","session_id":"6197b88b5545c270d08ef401","condition":"contingent","relevant_dimensions":["antennae","pattern"],"bee_group":{"antennae":"B","wings":"X","pattern":"D","legs":"X"},"bonus":0.6800000000000005},{"rt":927.3000000119209,"stimulus":"bees-with-color/bee-A1DM.svg","response":1,"trial_type":"image-button-response","trial_index":150,"time_elapsed":602027,"internal_node_id":"0.0-6.0-0.10","subject_id":"610bce3ab86d818fca5066a3","study_id":"6197b3f67c2b5cd3b6d9596a","session_id":"6197b88b5545c270d08ef401","condition":"contingent","relevant_dimensions":["antennae","pattern"],"bee_group":{"antennae":"B","wings":"X","pattern":"D","legs":"X"},"bonus":0.6800000000000005},{"rt":465.89999997615814,"stimulus":"bees-with-color/bee-A1DF.svg","response":1,"trial_type":"image-button-response","trial_index":151,"time_elapsed":602495,"internal_node_id":"0.0-6.0-0.11","subject_id":"610bce3ab86d818fca5066a3","study_id":"6197b3f67c2b5cd3b6d9596a","session_id":"6197b88b5545c270d08ef401","condition":"contingent","relevant_dimensions":["antennae","pattern"],"bee_group":{"antennae":"B","wings":"X","pattern":"D","legs":"X"},"bonus":0.6800000000000005},{"rt":465.39999997615814,"stimulus":"bees-with-color/bee-A2DM.svg","response":1,"trial_type":"image-button-response","trial_index":152,"time_elapsed":602963,"internal_node_id":"0.0-6.0-0.12","subject_id":"610bce3ab86d818fca5066a3","study_id":"6197b3f67c2b5cd3b6d9596a","session_id":"6197b88b5545c270d08ef401","condition":"contingent","relevant_dimensions":["antennae","pattern"],"bee_group":{"antennae":"B","wings":"X","pattern":"D","legs":"X"},"bonus":0.6800000000000005},{"rt":444.69999998807907,"stimulus":"bees-with-color/bee-B1DF.svg","response":1,"trial_type":"image-button-response","trial_index":153,"time_elapsed":603411,"internal_node_id":"0.0-6.0-0.13","subject_id":"610bce3ab86d818fca5066a3","study_id":"6197b3f67c2b5cd3b6d9596a","session_id":"6197b88b5545c270d08ef401","condition":"contingent","relevant_dimensions":["antennae","pattern"],"bee_group":{"antennae":"B","wings":"X","pattern":"D","legs":"X"},"bonus":0.6800000000000005},{"rt":955.2999999523163,"stimulus":"bees-with-color/bee-A2SF.svg","response":0,"trial_type":"image-button-response","trial_index":154,"time_elapsed":604369,"internal_node_id":"0.0-6.0-0.14","subject_id":"610bce3ab86d818fca5066a3","study_id":"6197b3f67c2b5cd3b6d9596a","session_id":"6197b88b5545c270d08ef401","condition":"contingent","relevant_dimensions":["antennae","pattern"],"bee_group":{"antennae":"B","wings":"X","pattern":"D","legs":"X"},"bonus":0.6800000000000005},{"rt":593.2999999523163,"stimulus":"bees-with-color/bee-B2SM.svg","response":1,"trial_type":"image-button-response","trial_index":155,"time_elapsed":604965,"internal_node_id":"0.0-6.0-0.15","subject_id":"610bce3ab86d818fca5066a3","study_id":"6197b3f67c2b5cd3b6d9596a","session_id":"6197b88b5545c270d08ef401","condition":"contingent","relevant_dimensions":["antennae","pattern"],"bee_group":{"antennae":"B","wings":"X","pattern":"D","legs":"X"},"bonus":0.6800000000000005},{"rt":405.80000001192093,"stimulus":"bees-with-color/bee-A2DM.svg","response":1,"trial_type":"image-button-response","trial_index":156,"time_elapsed":605373,"internal_node_id":"0.0-6.0-0.16","subject_id":"610bce3ab86d818fca5066a3","study_id":"6197b3f67c2b5cd3b6d9596a","session_id":"6197b88b5545c270d08ef401","condition":"contingent","relevant_dimensions":["antennae","pattern"],"bee_group":{"antennae":"B","wings":"X","pattern":"D","legs":"X"},"bonus":0.6800000000000005},{"rt":1949,"stimulus":"bees-with-color/bee-A2DF.svg","response":1,"trial_type":"image-button-response","trial_index":157,"time_elapsed":607324,"internal_node_id":"0.0-6.0-0.17","subject_id":"610bce3ab86d818fca5066a3","study_id":"6197b3f67c2b5cd3b6d9596a","session_id":"6197b88b5545c270d08ef401","condition":"contingent","relevant_dimensions":["antennae","pattern"],"bee_group":{"antennae":"B","wings":"X","pattern":"D","legs":"X"},"bonus":0.6800000000000005},{"rt":450,"stimulus":"bees-with-color/bee-B1DM.svg","response":1,"trial_type":"image-button-response","trial_index":158,"time_elapsed":607777,"internal_node_id":"0.0-6.0-0.18","subject_id":"610bce3ab86d818fca5066a3","study_id":"6197b3f67c2b5cd3b6d9596a","session_id":"6197b88b5545c270d08ef401","condition":"contingent","relevant_dimensions":["antennae","pattern"],"bee_group":{"antennae":"B","wings":"X","pattern":"D","legs":"X"},"bonus":0.6800000000000005},{"rt":407.69999998807907,"stimulus":"bees-with-color/bee-A1DM.svg","response":1,"trial_type":"image-button-response","trial_index":159,"time_elapsed":608187,"internal_node_id":"0.0-6.0-0.19","subject_id":"610bce3ab86d818fca5066a3","study_id":"6197b3f67c2b5cd3b6d9596a","session_id":"6197b88b5545c270d08ef401","condition":"contingent","relevant_dimensions":["antennae","pattern"],"bee_group":{"antennae":"B","wings":"X","pattern":"D","legs":"X"},"bonus":0.6800000000000005},{"rt":779.3999999761581,"stimulus":"bees-with-color/bee-B1SF.svg","response":0,"trial_type":"image-button-response","trial_index":160,"time_elapsed":608969,"internal_node_id":"0.0-6.0-0.20","subject_id":"610bce3ab86d818fca5066a3","study_id":"6197b3f67c2b5cd3b6d9596a","session_id":"6197b88b5545c270d08ef401","condition":"contingent","relevant_dimensions":["antennae","pattern"],"bee_group":{"antennae":"B","wings":"X","pattern":"D","legs":"X"},"bonus":0.6800000000000005},{"rt":404.19999998807907,"stimulus":"bees-with-color/bee-B2SF.svg","response":1,"trial_type":"image-button-response","trial_index":161,"time_elapsed":609375,"internal_node_id":"0.0-6.0-0.21","subject_id":"610bce3ab86d818fca5066a3","study_id":"6197b3f67c2b5cd3b6d9596a","session_id":"6197b88b5545c270d08ef401","condition":"contingent","relevant_dimensions":["antennae","pattern"],"bee_group":{"antennae":"B","wings":"X","pattern":"D","legs":"X"},"bonus":0.6800000000000005},{"rt":417.19999998807907,"stimulus":"bees-with-color/bee-A2SF.svg","response":1,"trial_type":"image-button-response","trial_index":162,"time_elapsed":609795,"internal_node_id":"0.0-6.0-0.22","subject_id":"610bce3ab86d818fca5066a3","study_id":"6197b3f67c2b5cd3b6d9596a","session_id":"6197b88b5545c270d08ef401","condition":"contingent","relevant_dimensions":["antennae","pattern"],"bee_group":{"antennae":"B","wings":"X","pattern":"D","