[{"success":true,"trial_type":"fullscreen","trial_index":0,"time_elapsed":155977,"internal_node_id":"0.0-0.0","subject_id":"5e9069f2d4e249374820cc8e","study_id":"60edd13110225f80f9f3709b","session_id":"6196c4a5fc55f670c356109a","condition":"contingent","relevant_dimensions":["antennae","pattern"],"bee_group":{"antennae":"A","wings":"X","pattern":"S","legs":"X"},"bonus":1.3800000000000014},{"success":true,"timeout":false,"failed_images":[],"failed_audio":[],"failed_video":[],"trial_type":"preload","trial_index":1,"time_elapsed":157558,"internal_node_id":"0.0-1.0","subject_id":"5e9069f2d4e249374820cc8e","study_id":"60edd13110225f80f9f3709b","session_id":"6196c4a5fc55f670c356109a","condition":"contingent","relevant_dimensions":["antennae","pattern"],"bee_group":{"antennae":"A","wings":"X","pattern":"S","legs":"X"},"bonus":1.3800000000000014},{"rt":3222.600000000093,"stimulus":"Welcome! Press any key to begin.","response":"arrowright","trial_type":"html-keyboard-response","trial_index":2,"time_elapsed":160781,"internal_node_id":"0.0-2.0","subject_id":"5e9069f2d4e249374820cc8e","study_id":"60edd13110225f80f9f3709b","session_id":"6196c4a5fc55f670c356109a","condition":"contingent","relevant_dimensions":["antennae","pattern"],"bee_group":{"antennae":"A","wings":"X","pattern":"S","legs":"X"},"bonus":1.3800000000000014},{"view_history":[{"page_index":0,"viewing_time":3946},{"page_index":1,"viewing_time":17825.700000000186},{"page_index":2,"viewing_time":3304.5},{"page_index":3,"viewing_time":6465.100000000093},{"page_index":2,"viewing_time":2496.399999999907},{"page_index":1,"viewing_time":1247.8999999999069},{"page_index":2,"viewing_time":6048.799999999814},{"page_index":3,"viewing_time":1160.3000000002794},{"page_index":4,"viewing_time":14537.600000000093},{"page_index":5,"viewing_time":2256.2999999998137},{"page_index":6,"viewing_time":25411.299999999814},{"page_index":7,"viewing_time":4248.5},{"page_index":8,"viewing_time":2144.3000000002794},{"page_index":9,"viewing_time":1784.5},{"page_index":10,"viewing_time":6896.699999999721},{"page_index":11,"viewing_time":5344.4000000003725},{"page_index":10,"viewing_time":976.2999999998137},{"page_index":9,"viewing_time":896},{"page_index":8,"viewing_time":824.1000000000931},{"page_index":7,"viewing_time":832.3999999999069},{"page_index":8,"viewing_time":1280},{"page_index":9,"viewing_time":248},{"page_index":10,"viewing_time":320},{"page_index":11,"viewing_time":14889.900000000373},{"page_index":12,"viewing_time":5232.5999999996275},{"page_index":13,"viewing_time":1200.2000000001863},{"page_index":14,"viewing_time":3129.5},{"page_index":13,"viewing_time":566.8999999994412},{"page_index":12,"viewing_time":1360.300000000745},{"page_index":13,"viewing_time":752.1999999992549},{"page_index":14,"viewing_time":463.90000000037253}],"rt":138091.19999999972,"trial_type":"instructions","trial_index":3,"time_elapsed":298872,"internal_node_id":"0.0-3.0-0.0","subject_id":"5e9069f2d4e249374820cc8e","study_id":"60edd13110225f80f9f3709b","session_id":"6196c4a5fc55f670c356109a","condition":"contingent","relevant_dimensions":["antennae","pattern"],"bee_group":{"antennae":"A","wings":"X","pattern":"S","legs":"X"},"bonus":1.3800000000000014},{"rt":10608.299999999814,"response":{"Q0":["Two or six legs","Stripes or spots on body","Single or double wings","Antennae or no antennae"]},"question_order":[0],"trial_type":"survey-multi-select","trial_index":4,"time_elapsed":309490,"internal_node_id":"0.0-3.0-1.0","subject_id":"5e9069f2d4e249374820cc8e","study_id":"60edd13110225f80f9f3709b","session_id":"6196c4a5fc55f670c356109a","condition":"contingent","relevant_dimensions":["antennae","pattern"],"bee_group":{"antennae":"A","wings":"X","pattern":"S","legs":"X"},"correct":true,"bonus":1.3800000000000014},{"rt":18653,"response":{"Q1":"No.","Q2":"Based on the four features of the bee.","Q3":"You do not learn if it was friendly or dangerous, and do not alter your bonus."},"question_order":[0,1,2],"trial_type":"survey-multi-choice","trial_index":5,"time_elapsed":328149,"internal_node_id":"0.0-3.0-2.0","subject_id":"5e9069f2d4e249374820cc8e","study_id":"60edd13110225f80f9f3709b","session_id":"6196c4a5fc55f670c356109a","condition":"contingent","relevant_dimensions":["antennae","pattern"],"bee_group":{"antennae":"A","wings":"X","pattern":"S","legs":"X"},"correct":true,"bonus":1.3800000000000014},{"rt":1299.2999999998137,"stimulus":"<p>Congrats, you got everything right<br>When you're ready, click the button below to continue to the experiment.</p>","response":0,"trial_type":"html-button-response","trial_index":6,"time_elapsed":329452,"internal_node_id":"0.0-3.0-3.0","subject_id":"5e9069f2d4e249374820cc8e","study_id":"60edd13110225f80f9f3709b","session_id":"6196c4a5fc55f670c356109a","condition":"contingent","relevant_dimensions":["antennae","pattern"],"bee_group":{"antennae":"A","wings":"X","pattern":"S","legs":"X"},"bonus":1.3800000000000014},{"rt":13734.599999999627,"stimulus":"bees-with-color/bee-B1SF.svg","response":0,"trial_type":"image-button-response","trial_index":7,"time_elapsed":343190,"internal_node_id":"0.0-4.0-0.0","subject_id":"5e9069f2d4e249374820cc8e","study_id":"60edd13110225f80f9f3709b","session_id":"6196c4a5fc55f670c356109a","condition":"contingent","relevant_dimensions":["antennae","pattern"],"bee_group":{"antennae":"A","wings":"X","pattern":"S","legs":"X"},"action":"harvest","summary":"good-harvest","bonus":1.3800000000000014},{"rt":9805.900000000373,"stimulus":"\n                    <p><b>Action: <em>harvest</em></b></p>\n                    <p>This is the bee that you just saw.</p>\n                    <img src=\"bees-with-color/bee-B1SF.svg\" width=\"200\">\n                    <p><span class=\"greenText\"><b>Successful harvest!</b></span><br>Your pay has increased by $0.02. Your bonus pay is now $0.56.</p>\n            ","response":0,"trial_type":"html-button-response","trial_index":8,"time_elapsed":352999,"internal_node_id":"0.0-4.0-1.0","subject_id":"5e9069f2d4e249374820cc8e","study_id":"60edd13110225f80f9f3709b","session_id":"6196c4a5fc55f670c356109a","condition":"contingent","relevant_dimensions":["antennae","pattern"],"bee_group":{"antennae":"A","wings":"X","pattern":"S","legs":"X"},"bonus":1.3800000000000014},{"rt":6837.799999999814,"stimulus":"bees-with-color/bee-A1SF.svg","response":0,"trial_type":"image-button-response","trial_index":9,"time_elapsed":359840,"internal_node_id":"0.0-4.0-0.1","subject_id":"5e9069f2d4e249374820cc8e","study_id":"60edd13110225f80f9f3709b","session_id":"6196c4a5fc55f670c356109a","condition":"contingent","relevant_dimensions":["antennae","pattern"],"bee_group":{"antennae":"A","wings":"X","pattern":"S","legs":"X"},"action":"harvest","summary":"bad-harvest","bonus":1.3800000000000014},{"rt":19783.89999999944,"stimulus":"\n                    <p><b>Action: <em>harvest</em></b></p>\n                    <p>This is the bee that you just saw.</p>\n                    <img src=\"bees-with-color/bee-A1SF.svg\" width=\"200\">\n                    <p><span class=\"redText\">Bad choice, the bee was angry.</span><br><b>You have been stung!</b><br>Your pay has been decreased by $0.10. Your bonus pay is now $0.46.</p>\n            ","response":0,"trial_type":"html-button-response","trial_index":10,"time_elapsed":379626,"internal_node_id":"0.0-4.0-1.1","subject_id":"5e9069f2d4e249374820cc8e","study_id":"60edd13110225f80f9f3709b","session_id":"6196c4a5fc55f670c356109a","condition":"contingent","relevant_dimensions":["antennae","pattern"],"bee_group":{"antennae":"A","wings":"X","pattern":"S","legs":"X"},"bonus":1.3800000000000014},{"rt":3734.4000000003725,"stimulus":"bees-with-color/bee-A2DM.svg","response":0,"trial_type":"image-button-response","trial_index":11,"time_elapsed":383363,"internal_node_id":"0.0-4.0-0.2","subject_id":"5e9069f2d4e249374820cc8e","study_id":"60edd13110225f80f9f3709b","session_id":"6196c4a5fc55f670c356109a","condition":"contingent","relevant_dimensions":["antennae","pattern"],"bee_group":{"antennae":"A","wings":"X","pattern":"S","legs":"X"},"action":"harvest","summary":"good-harvest","bonus":1.3800000000000014},{"rt":12647.299999999814,"stimulus":"\n                    <p><b>Action: <em>harvest</em></b></p>\n                    <p>This is the bee that you just saw.</p>\n                    <img src=\"bees-with-color/bee-A2DM.svg\" width=\"200\">\n                    <p><span class=\"greenText\"><b>Successful harvest!</b></span><br>Your pay has increased by $0.02. Your bonus pay is now $0.48.</p>\n            ","response":0,"trial_type":"html-button-response","trial_index":12,"time_elapsed":396012,"internal_node_id":"0.0-4.0-1.2","subject_id":"5e9069f2d4e249374820cc8e","study_id":"60edd13110225f80f9f3709b","session_id":"6196c4a5fc55f670c356109a","condition":"contingent","relevant_dimensions":["antennae","pattern"],"bee_group":{"antennae":"A","wings":"X","pattern":"S","legs":"X"},"bonus":1.3800000000000014},{"rt":3006.5999999996275,"stimulus":"bees-with-color/bee-B2DM.svg","response":0,"trial_type":"image-button-response","trial_index":13,"time_elapsed":399021,"internal_node_id":"0.0-4.0-0.3","subject_id":"5e9069f2d4e249374820cc8e","study_id":"60edd13110225f80f9f3709b","session_id":"6196c4a5fc55f670c356109a","condition":"contingent","relevant_dimensions":["antennae","pattern"],"bee_group":{"antennae":"A","wings":"X","pattern":"S","legs":"X"},"action":"harvest","summary":"good-harvest","bonus":1.3800000000000014},{"rt":12167.900000000373,"stimulus":"\n                    <p><b>Action: <em>harvest</em></b></p>\n                    <p>This is the bee that you just saw.</p>\n                    <img src=\"bees-with-color/bee-B2DM.svg\" width=\"200\">\n                    <p><span class=\"greenText\"><b>Successful harvest!</b></span><br>Your pay has increased by $0.02. Your bonus pay is now $0.50.</p>\n            ","response":0,"trial_type":"html-button-response","trial_index":14,"time_elapsed":411190,"internal_node_id":"0.0-4.0-1.3","subject_id":"5e9069f2d4e249374820cc8e","study_id":"60edd13110225f80f9f3709b","session_id":"6196c4a5fc55f670c356109a","condition":"contingent","relevant_dimensions":["antennae","pattern"],"bee_group":{"antennae":"A","wings":"X","pattern":"S","legs":"X"},"bonus":1.3800000000000014},{"rt":3486.5,"stimulus":"bees-with-color/bee-B1DM.svg","response":0,"trial_type":"image-button-response","trial_index":15,"time_elapsed":414679,"internal_node_id":"0.0-4.0-0.4","subject_id":"5e9069f2d4e249374820cc8e","study_id":"60edd13110225f80f9f3709b","session_id":"6196c4a5fc55f670c356109a","condition":"contingent","relevant_dimensions":["antennae","pattern"],"bee_group":{"antennae":"A","wings":"X","pattern":"S","legs":"X"},"action":"harvest","summary":"good-harvest","bonus":1.3800000000000014},{"rt":12599.799999999814,"stimulus":"\n                    <p><b>Action: <em>harvest</em></b></p>\n                    <p>This is the bee that you just saw.</p>\n                    <img src=\"bees-with-color/bee-B1DM.svg\" width=\"200\">\n                    <p><span class=\"greenText\"><b>Successful harvest!</b></span><br>Your pay has increased by $0.02. Your bonus pay is now $0.52.</p>\n            ","response":0,"trial_type":"html-button-response","trial_index":16,"time_elapsed":427281,"internal_node_id":"0.0-4.0-1.4","subject_id":"5e9069f2d4e249374820cc8e","study_id":"60edd13110225f80f9f3709b","session_id":"6196c4a5fc55f670c356109a","condition":"contingent","relevant_dimensions":["antennae","pattern"],"bee_group":{"antennae":"A","wings":"X","pattern":"S","legs":"X"},"bonus":1.3800000000000014},{"rt":3022.5,"stimulus":"bees-with-color/bee-A2SM.svg","response":0,"trial_type":"image-button-response","trial_index":17,"time_elapsed":430305,"internal_node_id":"0.0-4.0-0.5","subject_id":"5e9069f2d4e249374820cc8e","study_id":"60edd13110225f80f9f3709b","session_id":"6196c4a5fc55f670c356109a","condition":"contingent","relevant_dimensions":["antennae","pattern"],"bee_group":{"antennae":"A","wings":"X","pattern":"S","legs":"X"},"action":"harvest","summary":"bad-harvest","bonus":1.3800000000000014},{"rt":16431.599999999627,"stimulus":"\n                    <p><b>Action: <em>harvest</em></b></p>\n                    <p>This is the bee that you just saw.</p>\n                    <img src=\"bees-with-color/bee-A2SM.svg\" width=\"200\">\n                    <p><span class=\"redText\">Bad choice, the bee was angry.</span><br><b>You have been stung!</b><br>Your pay has been decreased by $0.10. Your bonus pay is now $0.42.</p>\n            ","response":0,"trial_type":"html-button-response","trial_index":18,"time_elapsed":446739,"internal_node_id":"0.0-4.0-1.5","subject_id":"5e9069f2d4e249374820cc8e","study_id":"60edd13110225f80f9f3709b","session_id":"6196c4a5fc55f670c356109a","condition":"contingent","relevant_dimensions":["antennae","pattern"],"bee_group":{"antennae":"A","wings":"X","pattern":"S","legs":"X"},"bonus":1.3800000000000014},{"rt":3598.0999999996275,"stimulus":"bees-with-color/bee-B2SM.svg","response":0,"trial_type":"image-button-response","trial_index":19,"time_elapsed":450340,"internal_node_id":"0.0-4.0-0.6","subject_id":"5e9069f2d4e249374820cc8e","study_id":"60edd13110225f80f9f3709b","session_id":"6196c4a5fc55f670c356109a","condition":"contingent","relevant_dimensions":["antennae","pattern"],"bee_group":{"antennae":"A","wings":"X","pattern":"S","legs":"X"},"action":"harvest","summary":"good-harvest","bonus":1.3800000000000014},{"rt":12911.800000000745,"stimulus":"\n                    <p><b>Action: <em>harvest</em></b></p>\n                    <p>This is the bee that you just saw.</p>\n                    <img src=\"bees-with-color/bee-B2SM.svg\" width=\"200\">\n                    <p><span class=\"greenText\"><b>Successful harvest!</b></span><br>Your pay has increased by $0.02. Your bonus pay is now $0.44.</p>\n            ","response":0,"trial_type":"html-button-response","trial_index":20,"time_elapsed":463254,"internal_node_id":"0.0-4.0-1.6","subject_id":"5e9069f2d4e249374820cc8e","study_id":"60edd13110225f80f9f3709b","session_id":"6196c4a5fc55f670c356109a","condition":"contingent","relevant_dimensions":["antennae","pattern"],"bee_group":{"antennae":"A","wings":"X","pattern":"S","legs":"X"},"bonus":1.3800000000000014},{"rt":7646.5,"stimulus":"bees-with-color/bee-B2DF.svg","response":0,"trial_type":"image-button-response","trial_index":21,"time_elapsed":470903,"internal_node_id":"0.0-4.0-0.7","subject_id":"5e9069f2d4e249374820cc8e","study_id":"60edd13110225f80f9f3709b","session_id":"6196c4a5fc55f670c356109a","condition":"contingent","relevant_dimensions":["antennae","pattern"],"bee_group":{"antennae":"A","wings":"X","pattern":"S","legs":"X"},"action":"harvest","summary":"good-harvest","bonus":1.3800000000000014},{"rt":9031.100000000559,"stimulus":"\n                    <p><b>Action: <em>harvest</em></b></p>\n                    <p>This is the bee that you just saw.</p>\n                    <img src=\"bees-with-color/bee-B2DF.svg\" width=\"200\">\n                    <p><span class=\"greenText\"><b>Successful harvest!</b></span><br>Your pay has increased by $0.02. Your bonus pay is now $0.46.</p>\n            ","response":0,"trial_type":"html-button-response","trial_index":22,"time_elapsed":479936,"internal_node_id":"0.0-4.0-1.7","subject_id":"5e9069f2d4e249374820cc8e","study_id":"60edd13110225f80f9f3709b","session_id":"6196c4a5fc55f670c356109a","condition":"contingent","relevant_dimensions":["antennae","pattern"],"bee_group":{"antennae":"A","wings":"X","pattern":"S","legs":"X"},"bonus":1.3800000000000014},{"rt":4781.799999999814,"stimulus":"bees-with-color/bee-A1DM.svg","response":0,"trial_type":"image-button-response","trial_index":23,"time_elapsed":484721,"internal_node_id":"0.0-4.0-0.8","subject_id":"5e9069f2d4e249374820cc8e","study_id":"60edd13110225f80f9f3709b","session_id":"6196c4a5fc55f670c356109a","condition":"contingent","relevant_dimensions":["antennae","pattern"],"bee_group":{"antennae":"A","wings":"X","pattern":"S","legs":"X"},"action":"harvest","summary":"good-harvest","bonus":1.3800000000000014},{"rt":13743.299999999814,"stimulus":"\n                    <p><b>Action: <em>harvest</em></b></p>\n                    <p>This is the bee that you just saw.</p>\n                    <img src=\"bees-with-color/bee-A1DM.svg\" width=\"200\">\n                    <p><span class=\"greenText\"><b>Successful harvest!</b></span><br>Your pay has increased by $0.02. Your bonus pay is now $0.48.</p>\n            ","response":0,"trial_type":"html-button-response","trial_index":24,"time_elapsed":498466,"internal_node_id":"0.0-4.0-1.8","subject_id":"5e9069f2d4e249374820cc8e","study_id":"60edd13110225f80f9f3709b","session_id":"6196c4a5fc55f670c356109a","condition":"contingent","relevant_dimensions":["antennae","pattern"],"bee_group":{"antennae":"A","wings":"X","pattern":"S","legs":"X"},"bonus":1.3800000000000014},{"rt":5590.5,"stimulus":"bees-with-color/bee-B1DF.svg","response":0,"trial_type":"image-button-response","trial_index":25,"time_elapsed":504059,"internal_node_id":"0.0-4.0-0.9","subject_id":"5e9069f2d4e249374820cc8e","study_id":"60edd13110225f80f9f3709b","session_id":"6196c4a5fc55f670c356109a","condition":"contingent","relevant_dimensions":["antennae","pattern"],"bee_group":{"antennae":"A","wings":"X","pattern":"S","legs":"X"},"action":"harvest","summary":"good-harvest","bonus":1.3800000000000014},{"rt":16959.799999999814,"stimulus":"\n                    <p><b>Action: <em>harvest</em></b></p>\n                    <p>This is the bee that you just saw.</p>\n                    <img src=\"bees-with-color/bee-B1DF.svg\" width=\"200\">\n                    <p><span class=\"greenText\"><b>Successful harvest!</b></span><br>Your pay has increased by $0.02. Your bonus pay is now $0.50.</p>\n            ","response":0,"trial_type":"html-button-response","trial_index":26,"time_elapsed":521021,"internal_node_id":"0.0-4.0-1.9","subject_id":"5e9069f2d4e249374820cc8e","study_id":"60edd13110225f80f9f3709b","session_id":"6196c4a5fc55f670c356109a","condition":"contingent","relevant_dimensions":["antennae","pattern"],"bee_group":{"antennae":"A","wings":"X","pattern":"S","legs":"X"},"bonus":1.3800000000000014},{"rt":8495.399999999441,"stimulus":"bees-with-color/bee-B2SF.svg","response":0,"trial_type":"image-button-response","trial_index":27,"time_elapsed":529518,"internal_node_id":"0.0-4.0-0.10","subject_id":"5e9069f2d4e249374820cc8e","study_id":"60edd13110225f80f9f3709b","session_id":"6196c4a5fc55f670c356109a","condition":"contingent","relevant_dimensions":["antennae","pattern"],"bee_group":{"antennae":"A","wings":"X","pattern":"S","legs":"X"},"action":"harvest","summary":"good-harvest","bonus":1.3800000000000014},{"rt":18096.200000000186,"stimulus":"\n                    <p><b>Action: <em>harvest</em></b></p>\n                    <p>This is the bee that you just saw.</p>\n                    <img src=\"bees-with-color/bee-B2SF.svg\" width=\"200\">\n                    <p><span class=\"greenText\"><b>Successful harvest!</b></span><br>Your pay has increased by $0.02. Your bonus pay is now $0.52.</p>\n            ","response":0,"trial_type":"html-button-response","trial_index":28,"time_elapsed":547616,"internal_node_id":"0.0-4.0-1.10","subject_id":"5e9069f2d4e249374820cc8e","study_id":"60edd13110225f80f9f3709b","session_id":"6196c4a5fc55f670c356109a","condition":"contingent","relevant_dimensions":["antennae","pattern"],"bee_group":{"antennae":"A","wings":"X","pattern":"S","legs":"X"},"bonus":1.3800000000000014},{"rt":3846.7999999998137,"stimulus":"bees-with-color/bee-A2DF.svg","response":0,"trial_type":"image-button-response","trial_index":29,"time_elapsed":551464,"internal_node_id":"0.0-4.0-0.11","subject_id":"5e9069f2d4e249374820cc8e","study_id":"60edd13110225f80f9f3709b","session_id":"6196c4a5fc55f670c356109a","condition":"contingent","relevant_dimensions":["antennae","pattern"],"bee_group":{"antennae":"A","wings":"X","pattern":"S","legs":"X"},"action":"harvest","summary":"good-harvest","bonus":1.3800000000000014},{"rt":15472.199999999255,"stimulus":"\n                    <p><b>Action: <em>harvest</em></b></p>\n                    <p>This is the bee that you just saw.</p>\n                    <img src=\"bees-with-color/bee-A2DF.svg\" width=\"200\">\n                    <p><span class=\"greenText\"><b>Successful harvest!</b></span><br>Your pay has increased by $0.02. Your bonus pay is now $0.54.</p>\n            ","response":0,"trial_type":"html-button-response","trial_index":30,"time_elapsed":566938,"internal_node_id":"0.0-4.0-1.11","subject_id":"5e9069f2d4e249374820cc8e","study_id":"60edd13110225f80f9f3709b","session_id":"6196c4a5fc55f670c356109a","condition":"contingent","relevant_dimensions":["antennae","pattern"],"bee_group":{"antennae":"A","wings":"X","pattern":"S","legs":"X"},"bonus":1.3800000000000014},{"rt":3973.600000000559,"stimulus":"bees-with-color/bee-B1SM.svg","response":0,"trial_type":"image-button-response","trial_index":31,"time_elapsed":570915,"internal_node_id":"0.0-4.0-0.12","subject_id":"5e9069f2d4e249374820cc8e","study_id":"60edd13110225f80f9f3709b","session_id":"6196c4a5fc55f670c356109a","condition":"contingent","relevant_dimensions":["antennae","pattern"],"bee_group":{"antennae":"A","wings":"X","pattern":"S","legs":"X"},"action":"harvest","summary":"good-harvest","bonus":1.3800000000000014},{"rt":116572.70000000019,"stimulus":"\n                    <p><b>Action: <em>harvest</em></b></p>\n                    <p>This is the bee that you just saw.</p>\n                    <img src=\"bees-with-color/bee-B1SM.svg\" width=\"200\">\n                    <p><span class=\"greenText\"><b>Successful harvest!</b></span><br>Your pay has increased by $0.02. Your bonus pay is now $0.56.</p>\n            ","response":0,"trial_type":"html-button-response","trial_index":32,"time_elapsed":687490,"internal_node_id":"0.0-4.0-1.12","subject_id":"5e9069f2d4e249374820cc8e","study_id":"60edd13110225f80f9f3709b","session_id":"6196c4a5fc55f670c356109a","condition":"contingent","relevant_dimensions":["antennae","pattern"],"bee_group":{"antennae":"A","wings":"X","pattern":"S","legs":"X"},"bonus":1.3800000000000014},{"rt":3814.399999999441,"stimulus":"bees-with-color/bee-A2SF.svg","response":0,"trial_type":"image-button-response","trial_index":33,"time_elapsed":691306,"internal_node_id":"0.0-4.0-0.13","subject_id":"5e9069f2d4e249374820cc8e","study_id":"60edd13110225f80f9f3709b","session_id":"6196c4a5fc55f670c356109a","condition":"contingent","relevant_dimensions":["antennae","pattern"],"bee_group":{"antennae":"A","wings":"X","pattern":"S","legs":"X"},"action":"harvest","summary":"bad-harvest","bonus":1.3800000000000014},{"rt":11455.5,"stimulus":"\n                    <p><b>Action: <em>harvest</em></b></p>\n                    <p>This is the bee that you just saw.</p>\n                    <img src=\"bees-with-color/bee-A2SF.svg\" width=\"200\">\n                    <p><span class=\"redText\">Bad choice, the bee was angry.</span><br><b>You have been stung!</b><br>Your pay has been decreased by $0.10. Your bonus pay is now $0.46.</p>\n            ","response":0,"trial_type":"html-button-response","trial_index":34,"time_elapsed":702764,"internal_node_id":"0.0-4.0-1.13","subject_id":"5e9069f2d4e249374820cc8e","study_id":"60edd13110225f80f9f3709b","session_id":"6196c4a5fc55f670c356109a","condition":"contingent","relevant_dimensions":["antennae","pattern"],"bee_group":{"antennae":"A","wings":"X","pattern":"S","legs":"X"},"bonus":1.3800000000000014},{"rt":4406.700000000186,"stimulus":"bees-with-color/bee-A1DF.svg","response":0,"trial_type":"image-button-response","trial_index":35,"time_elapsed":707173,"internal_node_id":"0.0-4.0-0.14","subject_id":"5e9069f2d4e249374820cc8e","study_id":"60edd13110225f80f9f3709b","session_id":"6196c4a5fc55f670c356109a","condition":"contingent","relevant_dimensions":["antennae","pattern"],"bee_group":{"antennae":"A","wings":"X","pattern":"S","legs":"X"},"action":"harvest","summary":"good-harvest","bonus":1.3800000000000014},{"rt":11759.599999999627,"stimulus":"\n                    <p><b>Action: <em>harvest</em></b></p>\n                    <p>This is the bee that you just saw.</p>\n                    <img src=\"bees-with-color/bee-A1DF.svg\" width=\"200\">\n                    <p><span class=\"greenText\"><b>Successful harvest!</b></span><br>Your pay has increased by $0.02. Your bonus pay is now $0.48.</p>\n            ","response":0,"trial_type":"html-button-response","trial_index":36,"time_elapsed":718934,"internal_node_id":"0.0-4.0-1.14","subject_id":"5e9069f2d4e249374820cc8e","study_id":"60edd13110225f80f9f3709b","session_id":"6196c4a5fc55f670c356109a","condition":"contingent","relevant_dimensions":["antennae","pattern"],"bee_group":{"antennae":"A","wings":"X","pattern":"S","legs":"X"},"bonus":1.3800000000000014},{"rt":7174.5999999996275,"stimulus":"bees-with-color/bee-A1SM.svg","response":0,"trial_type":"image-button-response","trial_index":37,"time_elapsed":726111,"internal_node_id":"0.0-4.0-0.15","subject_id":"5e9069f2d4e249374820cc8e","study_id":"60edd13110225f80f9f3709b","session_id":"6196c4a5fc55f670c356109a","condition":"contingent","relevant_dimensions":["antennae","pattern"],"bee_group":{"antennae":"A","wings":"X","pattern":"S","legs":"X"},"action":"harvest","summary":"bad-harvest","bonus":1.3800000000000014},{"rt":19112.200000000186,"stimulus":"\n                    <p><b>Action: <em>harvest</em></b></p>\n                    <p>This is the bee that you just saw.</p>\n                    <img src=\"bees-with-color/bee-A1SM.svg\" width=\"200\">\n                    <p><span class=\"redText\">Bad choice, the bee was angry.</span><br><b>You have been stung!</b><br>Your pay has been decreased by $0.10. Your bonus pay is now $0.38.</p>\n            ","response":0,"trial_type":"html-button-response","trial_index":38,"time_elapsed":745225,"internal_node_id":"0.0-4.0-1.15","subject_id":"5e9069f2d4e249374820cc8e","study_id":"60edd13110225f80f9f3709b","session_id":"6196c4a5fc55f670c356109a","condition":"contingent","relevant_dimensions":["antennae","pattern"],"bee_group":{"antennae":"A","wings":"X","pattern":"S","legs":"X"},"bonus":1.3800000000000014},{"rt":7198.799999999814,"stimulus":"bees-with-color/bee-A2DF.svg","response":0,"trial_type":"image-button-response","trial_index":39,"time_elapsed":752426,"internal_node_id":"0.0-4.0-0.16","subject_id":"5e9069f2d4e249374820cc8e","study_id":"60edd13110225f80f9f3709b","session_id":"6196c4a5fc55f670c356109a","condition":"contingent","relevant_dimensions":["antennae","pattern"],"bee_group":{"antennae":"A","wings":"X","pattern":"S","legs":"X"},"action":"harvest","summary":"good-harvest","bonus":1.3800000000000014},{"rt":798.1000000005588,"stimulus":"\n                    <p><b>Action: <em>harvest</em></b></p>\n                    <p>This is the bee that you just saw.</p>\n                    <img src=\"bees-with-color/bee-A2DF.svg\" width=\"200\">\n                    <p><span class=\"greenText\"><b>Successful harvest!</b></span><br>Your pay has increased by $0.02. Your bonus pay is now $0.40.</p>\n            ","response":0,"trial_type":"html-button-response","trial_index":40,"time_elapsed":753226,"internal_node_id":"0.0-4.0-1.16","subject_id":"5e9069f2d4e249374820cc8e","study_id":"60edd13110225f80f9f3709b","session_id":"6196c4a5fc55f670c356109a","condition":"contingent","relevant_dimensions":["antennae","pattern"],"bee_group":{"antennae":"A","wings":"X","pattern":"S","legs":"X"},"bonus":1.3800000000000014},{"rt":3414.5999999996275,"stimulus":"bees-with-color/bee-B2SF.svg","response":0,"trial_type":"image-button-response","trial_index":41,"time_elapsed":756642,"internal_node_id":"0.0-4.0-0.17","subject_id":"5e9069f2d4e249374820cc8e","study_id":"60edd13110225f80f9f3709b","session_id":"6196c4a5fc55f670c356109a","condition":"contingent","relevant_dimensions":["antennae","pattern"],"bee_group":{"antennae":"A","wings":"X","pattern":"S","legs":"X"},"action":"harvest","summary":"good-harvest","bonus":1.3800000000000014},{"rt":814.5,"stimulus":"\n                    <p><b>Action: <em>harvest</em></b></p>\n                    <p>This is the bee that you just saw.</p>\n                    <img src=\"bees-with-color/bee-B2SF.svg\" width=\"200\">\n                    <p><span class=\"greenText\"><b>Successful harvest!</b></span><br>Your pay has increased by $0.02. Your bonus pay is now $0.42.</p>\n            ","response":0,"trial_type":"html-button-response","trial_index":42,"time_elapsed":757458,"internal_node_id":"0.0-4.0-1.17","subject_id":"5e9069f2d4e249374820cc8e","study_id":"60edd13110225f80f9f3709b","session_id":"6196c4a5fc55f670c356109a","condition":"contingent","relevant_dimensions":["antennae","pattern"],"bee_group":{"antennae":"A","wings":"X","pattern":"S","legs":"X"},"bonus":1.3800000000000014},{"rt":6711.200000000186,"stimulus":"bees-with-color/bee-A2SM.svg","response":1,"trial_type":"image-button-response","trial_index":43,"time_elapsed":764171,"internal_node_id":"0.0-4.0-0.18","subject_id":"5e9069f2d4e249374820cc8e","study_id":"60edd13110225f80f9f3709b","session_id":"6196c4a5fc55f670c356109a","condition":"contingent","relevant_dimensions":["antennae","pattern"],"bee_group":{"antennae":"A","wings":"X","pattern":"S","legs":"X"},"action":"avoid","summary":"good-avoid","bonus":1.3800000000000014},{"rt":1678.5999999996275,"stimulus":"\n                    <p><b>Action: <em>avoid</em></b></p>\n                    <p>This is the bee that you just saw.</p>\n                    <img src=\"bees-with-color/bee-A2SM.svg\" width=\"200\">\n                    <p><br>Your bonus pay is unchanged, and remains at $0.42.</p>\n            ","response":0,"trial_type":"html-button-response","trial_index":44,"time_elapsed":765851,"internal_node_id":"0.0-4.0-1.18","subject_id":"5e9069f2d4e249374820cc8e","study_id":"60edd13110225f80f9f3709b","session_id":"6196c4a5fc55f670c356109a","condition":"contingent","relevant_dimensions":["antennae","pattern"],"bee_group":{"antennae":"A","wings":"X","pattern":"S","legs":"X"},"bonus":1.3800000000000014},{"rt":5686.9000000003725,"stimulus":"bees-with-color/bee-A1DF.svg","response":0,"trial_type":"image-button-response","trial_index":45,"time_elapsed":771540,"internal_node_id":"0.0-4.0-0.19","subject_id":"5e9069f2d4e249374820cc8e","study_id":"60edd13110225f80f9f3709b","session_id":"6196c4a5fc55f670c356109a","condition":"contingent","relevant_dimensions":["antennae","pattern"],"bee_group":{"antennae":"A","wings":"X","pattern":"S","legs":"X"},"action":"harvest","summary":"good-harvest","bonus":1.3800000000000014},{"rt":838.3999999994412,"stimulus":"\n                    <p><b>Action: <em>harvest</em></b></p>\n                    <p>This is the bee that you just saw.</p>\n                    <img src=\"bees-with-color/bee-A1DF.svg\" width=\"200\">\n                    <p><span class=\"greenText\"><b>Successful harvest!</b></span><br>Your pay has increased by $0.02. Your bonus pay is now $0.44.</p>\n            ","response":0,"trial_type":"html-button-response","trial_index":46,"time_elapsed":772380,"internal_node_id":"0.0-4.0-1.19","subject_id":"5e9069f2d4e249374820cc8e","study_id":"60edd13110225f80f9f3709b","session_id":"6196c4a5fc55f670c356109a","condition":"contingent","relevant_dimensions":["antennae","pattern"],"bee_group":{"antennae":"A","wings":"X","pattern":"S","legs":"X"},"bonus":1.3800000000000014},{"rt":4190.799999999814,"stimulus":"bees-with-color/bee-B1SM.svg","response":0,"trial_type":"image-button-response","trial_index":47,"time_elapsed":776573,"internal_node_id":"0.0-4.0-0.20","subject_id":"5e9069f2d4e249374820cc8e","study_id":"60edd13110225f80f9f3709b","session_id":"6196c4a5fc55f670c356109a","condition":"contingent","relevant_dimensions":["antennae","pattern"],"bee_group":{"antennae":"A","wings":"X","pattern":"S","legs":"X"},"action":"harvest","summary":"good-harvest","bonus":1.3800000000000014},{"rt":4591.299999999814,"stimulus":"\n                    <p><b>Action: <em>harvest</em></b></p>\n                    <p>This is the bee that you just saw.</p>\n                    <img src=\"bees-with-color/bee-B1SM.svg\" width=\"200\">\n                    <p><span class=\"greenText\"><b>Successful harvest!</b></span><br>Your pay has increased by $0.02. Your bonus pay is now $0.46.</p>\n            ","response":0,"trial_type":"html-button-response","trial_index":48,"time_elapsed":781166,"internal_node_id":"0.0-4.0-1.20","subject_id":"5e9069f2d4e249374820cc8e","study_id":"60edd13110225f80f9f3709b","session_id":"6196c4a5fc55f670c356109a","condition":"contingent","relevant_dimensions":["antennae","pattern"],"bee_group":{"antennae":"A","wings":"X","pattern":"S","legs":"X"},"bonus":1.3800000000000014},{"rt":3838.2000000001863,"stimulus":"bees-with-color/bee-B1DF.svg","response":0,"trial_type":"image-button-response","trial_index":49,"time_elapsed":785006,"internal_node_id":"0.0-4.0-0.21","subject_id":"5e9069f2d4e249374820cc8e","study_id":"60edd13110225f80f9f3709b","session_id":"6196c4a5fc55f670c356109a","condition":"contingent","relevant_dimensions":["antennae","pattern"],"bee_group":{"antennae":"A","wings":"X","pattern":"S","legs":"X"},"action":"harvest","summary":"good-harvest","bonus":1.3800000000000014},{"rt":726.0999999996275,"stimulus":"\n                    <p><b>Action: <em>harvest</em></b></p>\n                    <p>This is the bee that you just saw.</p>\n                    <img src=\"bees-with-color/bee-B1DF.svg\" width=\"200\">\n                    <p><span class=\"greenText\"><b>Successful harvest!</b></span><br>Your pay has increased by $0.02. Your bonus pay is now $0.48.</p>\n            ","response":0,"trial_type":"html-button-response","trial_index":50,"time_elapsed":785734,"internal_node_id":"0.0-4.0-1.21","subject_id":"5e9069f2d4e249374820cc8e","study_id":"60edd13110225f80f9f3709b","session_id":"6196c4a5fc55f670c356109a","condition":"contingent","relevant_dimensions":["antennae","pattern"],"bee_group":{"antennae":"A","wings":"X","pattern":"S","legs":"X"},"bonus":1.3800000000000014},{"rt":4358.4000000003725,"stimulus":"bees-with-color/bee-A1SF.svg","response":1,"trial_type":"image-button-response","trial_index":51,"time_elapsed":790095,"internal_node_id":"0.0-4.0-0.22","subject_id":"5e9069f2d4e249374820cc8e","study_id":"60edd13110225f80f9f3709b","session_id":"6196c4a5fc55f670c356109a","condition":"contingent","relevant_dimensions":["antennae","pattern"],"bee_group":{"antennae":"A","wings":"X","pattern":"S","legs":"X"},"action":"avoid","summary":"good-avoid","bonus":1.3800000000000014},{"rt":1086.5,"stimulus":"\n                    <p><b>Action: <em>avoid</em></b></p>\n                    <p>This is the bee that you just saw.</p>\n                    <img src=\"bees-with-color/bee-A1SF.svg\" width=\"200\">\n                    <p><br>Your bonus pay is unchanged, and remains at $0.48.</p>\n            ","response":0,"trial_type":"html-button-response","trial_index":52,"time_elapsed":791183,"internal_node_id":"0.0-4.0-1.22","subject_id":"5e9069f2d4e249374820cc8e","study_id":"60edd13110225f80f9f3709b","session_id":"6196c4a5fc55f670c356109a","condition":"contingent","relevant_dimensions":["antennae","pattern"],"bee_group":{"antennae":"A","wings":"X","pattern":"S","legs":"X"},"bonus":1.3800000000000014},{"rt":5630.700000000186,"stimulus":"bees-with-color/bee-B2SM.svg","response":0,"trial_type":"image-button-response","trial_index":53,"time_elapsed":796815,"internal_node_id":"0.0-4.0-0.23","subject_id":"5e9069f2d4e249374820cc8e","study_id":"60edd13110225f80f9f3709b","session_id":"6196c4a5fc55f670c356109a","condition":"contingent","relevant_dimensions":["antennae","pattern"],"bee_group":{"antennae":"A","wings":"X","pattern":"S","legs":"X"},"action":"harvest","summary":"good-harvest","bonus":1.3800000000000014},{"rt":790.3000000007451,"stimulus":"\n                    <p><b>Action: <em>harvest</em></b></p>\n                    <p>This is the bee that you just saw.</p>\n                    <img src=\"bees-with-color/bee-B2SM.svg\" width=\"200\">\n                    <p><span class=\"greenText\"><b>Successful harvest!</b></span><br>Your pay has increased by $0.02. Your bonus pay is now $0.50.</p>\n            ","response":0,"trial_type":"html-button-response","trial_index":54,"time_elapsed":797608,"internal_node_id":"0.0-4.0-1.23","subject_id":"5e9069f2d4e249374820cc8e","study_id":"60edd13110225f80f9f3709b","session_id":"6196c4a5fc55f670c356109a","condition":"contingent","relevant_dimensions":["antennae","pattern"],"bee_group":{"antennae":"A","wings":"X","pattern":"S","legs":"X"},"bonus":1.3800000000000014},{"rt":3518.2999999998137,"stimulus":"bees-with-color/bee-A2SF.svg","response":0,"trial_type":"image-button-response","trial_index":55,"time_elapsed":801128,"internal_node_id":"0.0-4.0-0.24","subject_id":"5e9069f2d4e249374820cc8e","study_id":"60edd13110225f80f9f3709b","session_id":"6196c4a5fc55f670c356109a","condition":"contingent","relevant_dimensions":["antennae","pattern"],"bee_group":{"antennae":"A","wings":"X","pattern":"S","legs":"X"},"action":"harvest","summary":"bad-harvest","bonus":1.3800000000000014},{"rt":9447.200000000186,"stimulus":"\n                    <p><b>Action: <em>harvest</em></b></p>\n                    <p>This is the bee that you just saw.</p>\n                    <img src=\"bees-with-color/bee-A2SF.svg\" width=\"200\">\n                    <p><span class=\"redText\">Bad choice, the bee was angry.</span><br><b>You have been stung!</b><br>Your pay has been decreased by $0.10. Your bonus pay is now $0.40.</p>\n            ","response":0,"trial_type":"html-button-response","trial_index":56,"time_elapsed":810577,"internal_node_id":"0.0-4.0-1.24","subject_id":"5e9069f2d4e249374820cc8e","study_id":"60edd13110225f80f9f3709b","session_id":"6196c4a5fc55f670c356109a","condition":"contingent","relevant_dimensions":["antennae","pattern"],"bee_group":{"antennae":"A","wings":"X","pattern":"S","legs":"X"},"bonus":1.3800000000000014},{"rt":5894.800000000745,"stimulus":"bees-with-color/bee-A1SM.svg","response":1,"trial_type":"image-button-response","trial_index":57,"time_elapsed":816475,"internal_node_id":"0.0-4.0-0.25","subject_id":"5e9069f2d4e249374820cc8e","study_id":"60edd13110225f80f9f3709b","session_id":"6196c4a5fc55f670c356109a","condition":"contingent","relevant_dimensions":["antennae","pattern"],"bee_group":{"antennae":"A","wings":"X","pattern":"S","legs":"X"},"action":"avoid","summary":"good-avoid","bonus":1.3800000000000014},{"rt":853.9000000003725,"stimulus":"\n                    <p><b>Action: <em>avoid</em></b></p>\n                    <p>This is the bee that you just saw.</p>\n                    <img src=\"bees-with-color/bee-A1SM.svg\" width=\"200\">\n                    <p><br>Your bonus pay is unchanged, and remains at $0.40.</p>\n            ","response":0,"trial_type":"html-button-response","trial_index":58,"time_elapsed":817331,"internal_node_id":"0.0-4.0-1.25","subject_id":"5e9069f2d4e249374820cc8e","study_id":"60edd13110225f80f9f3709b","session_id":"6196c4a5fc55f670c356109a","condition":"contingent","relevant_dimensions":["antennae","pattern"],"bee_group":{"antennae":"A","wings":"X","pattern":"S","legs":"X"},"bonus":1.3800000000000014},{"rt":3038.2999999998137,"stimulus":"bees-with-color/bee-B1SF.svg","response":0,"trial_type":"image-button-response","trial_index":59,"time_elapsed":820371,"internal_node_id":"0.0-4.0-0.26","subject_id":"5e9069f2d4e249374820cc8e","study_id":"60edd13110225f80f9f3709b","session_id":"6196c4a5fc55f670c356109a","condition":"contingent","relevant_dimensions":["antennae","pattern"],"bee_group":{"antennae":"A","wings":"X","pattern":"S","legs":"X"},"action":"harvest","summary":"good-harvest","bonus":1.3800000000000014},{"rt":670.4000000003725,"stimulus":"\n                    <p><b>Action: <em>harvest</em></b></p>\n                    <p>This is the bee that you just saw.</p>\n                    <img src=\"bees-with-color/bee-B1SF.svg\" width=\"200\">\n                    <p><span class=\"greenText\"><b>Successful harvest!</b></span><br>Your pay has increased by $0.02. Your bonus pay is now $0.42.</p>\n            ","response":0,"trial_type":"html-button-response","trial_index":60,"time_elapsed":821043,"internal_node_id":"0.0-4.0-1.26","subject_id":"5e9069f2d4e249374820cc8e","study_id":"60edd13110225f80f9f3709b","session_id":"6196c4a5fc55f670c356109a","condition":"contingent","relevant_dimensions":["antennae","pattern"],"bee_group":{"antennae":"A","wings":"X","pattern":"S","legs":"X"},"bonus":1.3800000000000014},{"rt":3781.7999999998137,"stimulus":"bees-with-color/bee-B2DF.svg","response":0,"trial_type":"image-button-response","trial_index":61,"time_elapsed":824828,"internal_node_id":"0.0-4.0-0.27","subject_id":"5e9069f2d4e249374820cc8e","study_id":"60edd13110225f80f9f3709b","session_id":"6196c4a5fc55f670c356109a","condition":"contingent","relevant_dimensions":["antennae","pattern"],"bee_group":{"antennae":"A","wings":"X","pattern":"S","legs":"X"},"action":"harvest","summary":"good-harvest","bonus":1.3800000000000014},{"rt":670.2999999998137,"stimulus":"\n                    <p><b>Action: <em>harvest</em></b></p>\n                    <p>This is the bee that you just saw.</p>\n                    <img src=\"bees-with-color/bee-B2DF.svg\" width=\"200\">\n                    <p><span class=\"greenText\"><b>Successful harvest!</b></span><br>Your pay has increased by $0.02. Your bonus pay is now $0.44.</p>\n            ","response":0,"trial_type":"html-button-response","trial_index":62,"time_elapsed":825500,"internal_node_id":"0.0-4.0-1.27","subject_id":"5e9069f2d4e249374820cc8e","study_id":"60edd13110225f80f9f3709b","session_id":"6196c4a5fc55f670c356109a","condition":"contingent","relevant_dimensions":["antennae","pattern"],"bee_group":{"antennae":"A","wings":"X","pattern":"S","legs":"X"},"bonus":1.3800000000000014},{"rt":5318.5999999996275,"stimulus":"bees-with-color/bee-B1DM.svg","response":0,"trial_type":"image-button-response","trial_index":63,"time_elapsed":830820,"internal_node_id":"0.0-4.0-0.28","subject_id":"5e9069f2d4e249374820cc8e","study_id":"60edd13110225f80f9f3709b","session_id":"6196c4a5fc55f670c356109a","condition":"contingent","relevant_dimensions":["antennae","pattern"],"bee_group":{"antennae":"A","wings":"X","pattern":"S","legs":"X"},"action":"harvest","summary":"good-harvest","bonus":1.3800000000000014},{"rt":734.1999999992549,"stimulus":"\n                    <p><b>Action: <em>harvest</em></b></p>\n                    <p>This is the bee that you just saw.</p>\n                    <img src=\"bees-with-color/bee-B1DM.svg\" width=\"200\">\n                    <p><span class=\"greenText\"><b>Successful harvest!</b></span><br>Your pay has increased by $0.02. Your bonus pay is now $0.46.</p>\n            ","response":0,"trial_type":"html-button-response","trial_index":64,"time_elapsed":831556,"internal_node_id":"0.0-4.0-1.28","subject_id":"5e9069f2d4e249374820cc8e","study_id":"60edd13110225f80f9f3709b","session_id":"6196c4a5fc55f670c356109a","condition":"contingent","relevant_dimensions":["antennae","pattern"],"bee_group":{"antennae":"A","wings":"X","pattern":"S","legs":"X"},"bonus":1.3800000000000014},{"rt":6567.299999999814,"stimulus":"bees-with-color/bee-A1DM.svg","response":0,"trial_type":"image-button-response","trial_index":65,"time_elapsed":838125,"internal_node_id":"0.0-4.0-0.29","subject_id":"5e9069f2d4e249374820cc8e","study_id":"60edd13110225f80f9f3709b","session_id":"6196c4a5fc55f670c356109a","condition":"contingent","relevant_dimensions":["antennae","pattern"],"bee_group":{"antennae":"A","wings":"X","pattern":"S","legs":"X"},"action":"harvest","summary":"good-harvest","bonus":1.3800000000000014},{"rt":12447.799999999814,"stimulus":"\n                    <p><b>Action: <em>harvest</em></b></p>\n                    <p>This is the bee that you just saw.</p>\n                    <img src=\"bees-with-color/bee-A1DM.svg\" width=\"200\">\n                    <p><span class=\"greenText\"><b>Successful harvest!</b></span><br>Your pay has increased by $0.02. Your bonus pay is now $0.48.</p>\n            ","response":0,"trial_type":"html-button-response","trial_index":66,"time_elapsed":850574,"internal_node_id":"0.0-4.0-1.29","subject_id":"5e9069f2d4e249374820cc8e","study_id":"60edd13110225f80f9f3709b","session_id":"6196c4a5fc55f670c356109a","condition":"contingent","relevant_dimensions":["antennae","pattern"],"bee_group":{"antennae":"A","wings":"X","pattern":"S","legs":"X"},"bonus":1.3800000000000014},{"rt":6934.9000000003725,"stimulus":"bees-with-color/bee-A2DM.svg","response":0,"trial_type":"image-button-response","trial_index":67,"time_elapsed":857511,"internal_node_id":"0.0-4.0-0.30","subject_id":"5e9069f2d4e249374820cc8e","study_id":"60edd13110225f80f9f3709b","session_id":"6196c4a5fc55f670c356109a","condition":"contingent","relevant_dimensions":["antennae","pattern"],"bee_group":{"antennae":"A","wings":"X","pattern":"S","legs":"X"},"action":"harvest","summary":"good-harvest","bonus":1.3800000000000014},{"rt":710.7999999998137,"stimulus":"\n                    <p><b>Action: <em>harvest</em></b></p>\n                    <p>This is the bee that you just saw.</p>\n                    <img src=\"bees-with-color/bee-A2DM.svg\" width=\"200\">\n                    <p><span class=\"greenText\"><b>Successful harvest!</b></span><br>Your pay has increased by $0.02. Your bonus pay is now $0.50.</p>\n            ","response":0,"trial_type":"html-button-response","trial_index":68,"time_elapsed":858224,"internal_node_id":"0.0-4.0-1.30","subject_id":"5e9069f2d4e249374820cc8e","study_id":"60edd13110225f80f9f3709b","session_id":"6196c4a5fc55f670c356109a","condition":"contingent","relevant_dimensions":["antennae","pattern"],"bee_group":{"antennae":"A","wings":"X","pattern":"S","legs":"X"},"bonus":1.3800000000000014},{"rt":8446.699999999255,"stimulus":"bees-with-color/bee-B2DM.svg","response":0,"trial_type":"image-button-response","trial_index":69,"time_elapsed":866673,"internal_node_id":"0.0-4.0-0.31","subject_id":"5e9069f2d4e249374820cc8e","study_id":"60edd13110225f80f9f3709b","session_id":"6196c4a5fc55f670c356109a","condition":"contingent","relevant_dimensions":["antennae","pattern"],"bee_group":{"antennae":"A","wings":"X","pattern":"S","legs":"X"},"action":"harvest","summary":"good-harvest","bonus":1.3800000000000014},{"rt":2998.7000000001863,"stimulus":"\n                    <p><b>Action: <em>harvest</em></b></p>\n                    <p>This is the bee that you just saw.</p>\n                    <img src=\"bees-with-color/bee-B2DM.svg\" width=\"200\">\n                    <p><span class=\"greenText\"><b>Successful harvest!</b></span><br>Your pay has increased by $0.02. Your bonus pay is now $0.52.</p>\n            ","response":0,"trial_type":"html-button-response","trial_index":70,"time_elapsed":869673,"internal_node_id":"0.0-4.0-1.31","subject_id":"5e9069f2d4e249374820cc8e","study_id":"60edd13110225f80f9f3709b","session_id":"6196c4a5fc55f670c356109a","condition":"contingent","relevant_dimensions":["antennae","pattern"],"bee_group":{"antennae":"A","wings":"X","pattern":"S","legs":"X"},"bonus":1.3800000000000014},{"rt":7695.199999999255,"stimulus":"bees-with-color/bee-A1DF.svg","response":0,"trial_type":"image-button-response","trial_index":71,"time_elapsed":877370,"internal_node_id":"0.0-4.0-0.32","subject_id":"5e9069f2d4e249374820cc8e","study_id":"60edd13110225f80f9f3709b","session_id":"6196c4a5fc55f670c356109a","condition":"contingent","relevant_dimensions":["antennae","pattern"],"bee_group":{"antennae":"A","wings":"X","pattern":"S","legs":"X"},"action":"harvest","summary":"good-harvest","bonus":1.3800000000000014},{"rt":782.3999999994412,"stimulus":"\n                    <p><b>Action: <em>harvest</em></b></p>\n                    <p>This is the bee that you just saw.</p>\n                    <img src=\"bees-with-color/bee-A1DF.svg\" width=\"200\">\n                    <p><span class=\"greenText\"><b>Successful harvest!</b></span><br>Your pay has increased by $0.02. Your bonus pay is now $0.54.</p>\n            ","response":0,"trial_type":"html-button-response","trial_index":72,"time_elapsed":878154,"internal_node_id":"0.0-4.0-1.32","subject_id":"5e9069f2d4e249374820cc8e","study_id":"60edd13110225f80f9f3709b","session_id":"6196c4a5fc55f670c356109a","condition":"contingent","relevant_dimensions":["antennae","pattern"],"bee_group":{"antennae":"A","wings":"X","pattern":"S","legs":"X"},"bonus":1.3800000000000014},{"rt":4102.200000000186,"stimulus":"bees-with-color/bee-B1DF.svg","response":0,"trial_type":"image-button-response","trial_index":73,"time_elapsed":882258,"internal_node_id":"0.0-4.0-0.33","subject_id":"5e9069f2d4e249374820cc8e","study_id":"60edd13110225f80f9f3709b","session_id":"6196c4a5fc55f670c356109a","condition":"contingent","relevant_dimensions":["antennae","pattern"],"bee_group":{"antennae":"A","wings":"X","pattern":"S","legs":"X"},"action":"harvest","summary":"good-harvest","bonus":1.3800000000000014},{"rt":670.2999999998137,"stimulus":"\n                    <p><b>Action: <em>harvest</em></b></p>\n                    <p>This is the bee that you just saw.</p>\n                    <img src=\"bees-with-color/bee-B1DF.svg\" width=\"200\">\n                    <p><span class=\"greenText\"><b>Successful harvest!</b></span><br>Your pay has increased by $0.02. Your bonus pay is now $0.56.</p>\n            ","response":0,"trial_type":"html-button-response","trial_index":74,"time_elapsed":882930,"internal_node_id":"0.0-4.0-1.33","subject_id":"5e9069f2d4e249374820cc8e","study_id":"60edd13110225f80f9f3709b","session_id":"6196c4a5fc55f670c356109a","condition":"contingent","relevant_dimensions":["antennae","pattern"],"bee_group":{"antennae":"A","wings":"X","pattern":"S","legs":"X"},"bonus":1.3800000000000014},{"rt":4542.799999999814,"stimulus":"bees-with-color/bee-A1SF.svg","response":1,"trial_type":"image-button-response","trial_index":75,"time_elapsed":887475,"internal_node_id":"0.0-4.0-0.34","subject_id":"5e9069f2d4e249374820cc8e","study_id":"60edd13110225f80f9f3709b","session_id":"6196c4a5fc55f670c356109a","condition":"contingent","relevant_dimensions":["antennae","pattern"],"bee_group":{"antennae":"A","wings":"X","pattern":"S","legs":"X"},"action":"avoid","summary":"good-avoid","bonus":1.3800000000000014},{"rt":686,"stimulus":"\n                    <p><b>Action: <em>avoid</em></b></p>\n                    <p>This is the bee that you just saw.</p>\n                    <img src=\"bees-with-color/bee-A1SF.svg\" width=\"200\">\n                    <p><br>Your bonus pay is unchanged, and remains at $0.56.</p>\n            ","response":0,"trial_type":"html-button-response","trial_index":76,"time_elapsed":888163,"internal_node_id":"0.0-4.0-1.34","subject_id":"5e9069f2d4e249374820cc8e","study_id":"60edd13110225f80f9f3709b","session_id":"6196c4a5fc55f670c356109a","condition":"contingent","relevant_dimensions":["antennae","pattern"],"bee_group":{"antennae":"A","wings":"X","pattern":"S","legs":"X"},"bonus":1.3800000000000014},{"rt":6638.9000000003725,"stimulus":"bees-with-color/bee-A1SM.svg","response":1,"trial_type":"image-button-response","trial_index":77,"time_elapsed":894804,"internal_node_id":"0.0-4.0-0.35","subject_id":"5e9069f2d4e249374820cc8e","study_id":"60edd13110225f80f9f3709b","session_id":"6196c4a5fc55f670c356109a","condition":"contingent","relevant_dimensions":["antennae","pattern"],"bee_group":{"antennae":"A","wings":"X","pattern":"S","legs":"X"},"action":"avoid","summary":"good-avoid","bonus":1.3800000000000014},{"rt":621.7000000001863,"stimulus":"\n                    <p><b>Action: <em>avoid</em></b></p>\n                    <p>This is the bee that you just saw.</p>\n                    <img src=\"bees-with-color/bee-A1SM.svg\" width=\"200\">\n                    <p><br>Your bonus pay is unchanged, and remains at $0.56.</p>\n            ","response":0,"trial_type":"html-button-response","trial_index":78,"time_elapsed":895428,"internal_node_id":"0.0-4.0-1.35","subject_id":"5e9069f2d4e249374820cc8e","study_id":"60edd13110225f80f9f3709b","session_id":"6196c4a5fc55f670c356109a","condition":"contingent","relevant_dimensions":["antennae","pattern"],"bee_group":{"antennae":"A","wings":"X","pattern":"S","legs":"X"},"bonus":1.3800000000000014},{"rt":4790.299999999814,"stimulus":"bees-with-color/bee-A2DF.svg","response":0,"trial_type":"image-button-response","trial_index":79,"time_elapsed":900221,"internal_node_id":"0.0-4.0-0.36","subject_id":"5e9069f2d4e249374820cc8e","study_id":"60edd13110225f80f9f3709b","session_id":"6196c4a5fc55f670c356109a","condition":"contingent","relevant_dimensions":["antennae","pattern"],"bee_group":{"antennae":"A","wings":"X","pattern":"S","legs":"X"},"action":"harvest","summary":"good-harvest","bonus":1.3800000000000014},{"rt":597.8000000007451,"stimulus":"\n                    <p><b>Action: <em>harvest</em></b></p>\n                    <p>This is the bee that you just saw.</p>\n                    <img src=\"bees-with-color/bee-A2DF.svg\" width=\"200\">\n                    <p><span class=\"greenText\"><b>Successful harvest!</b></span><br>Your pay has increased by $0.02. Your bonus pay is now $0.58.</p>\n            ","response":0,"trial_type":"html-button-response","trial_index":80,"time_elapsed":900821,"internal_node_id":"0.0-4.0-1.36","subject_id":"5e9069f2d4e249374820cc8e","study_id":"60edd13110225f80f9f3709b","session_id":"6196c4a5fc55f670c356109a","condition":"contingent","relevant_dimensions":["antennae","pattern"],"bee_group":{"antennae":"A","wings":"X","pattern":"S","legs":"X"},"bonus":1.3800000000000014},{"rt":2158.2000000001863,"stimulus":"bees-with-color/bee-B2DF.svg","response":0,"trial_type":"image-button-response","trial_index":81,"time_elapsed":902981,"internal_node_id":"0.0-4.0-0.37","subject_id":"5e9069f2d4e249374820cc8e","study_id":"60edd13110225f80f9f3709b","session_id":"6196c4a5fc55f670c356109a","condition":"contingent","relevant_dimensions":["antennae","pattern"],"bee_group":{"antennae":"A","wings":"X","pattern":"S","legs":"X"},"action":"harvest","summary":"good-harvest","bonus":1.3800000000000014},{"rt":670.3999999994412,"stimulus":"\n                    <p><b>Action: <em>harvest</em></b></p>\n                    <p>This is the bee that you just saw.</p>\n                    <img src=\"bees-with-color/bee-B2DF.svg\" width=\"200\">\n                    <p><span class=\"greenText\"><b>Successful harvest!</b></span><br>Your pay has increased by $0.02. Your bonus pay is now $0.60.</p>\n            ","response":0,"trial_type":"html-button-response","trial_index":82,"time_elapsed":903653,"internal_node_id":"0.0-4.0-1.37","subject_id":"5e9069f2d4e249374820cc8e","study_id":"60edd13110225f80f9f3709b","session_id":"6196c4a5fc55f670c356109a","condition":"contingent","relevant_dimensions":["antennae","pattern"],"bee_group":{"antennae":"A","wings":"X","pattern":"S","legs":"X"},"bonus":1.3800000000000014},{"rt":3054.5999999996275,"stimulus":"bees-with-color/bee-A2DM.svg","response":0,"trial_type":"image-button-response","trial_index":83,"time_elapsed":906710,"internal_node_id":"0.0-4.0-0.38","subject_id":"5e9069f2d4e249374820cc8e","study_id":"60edd13110225f80f9f3709b","session_id":"6196c4a5fc55f670c356109a","condition":"contingent","relevant_dimensions":["antennae","pattern"],"bee_group":{"antennae":"A","wings":"X","pattern":"S","legs":"X"},"action":"harvest","summary":"good-harvest","bonus":1.3800000000000014},{"rt":590.3000000007451,"stimulus":"\n                    <p><b>Action: <em>harvest</em></b></p>\n                    <p>This is the bee that you just saw.</p>\n                    <img src=\"bees-with-color/bee-A2DM.svg\" width=\"200\">\n                    <p><span class=\"greenText\"><b>Successful harvest!</b></span><br>Your pay has increased by $0.02. Your bonus pay is now $0.62.</p>\n            ","response":0,"trial_type":"html-button-response","trial_index":84,"time_elapsed":907302,"internal_node_id":"0.0-4.0-1.38","subject_id":"5e9069f2d4e249374820cc8e","study_id":"60edd13110225f80f9f3709b","session_id":"6196c4a5fc55f670c356109a","condition":"contingent","relevant_dimensions":["antennae","pattern"],"bee_group":{"antennae":"A","wings":"X","pattern":"S","legs":"X"},"bonus":1.3800000000000014},{"rt":2086.0999999996275,"stimulus":"bees-with-color/bee-B2DM.svg","response":0,"trial_type":"image-button-response","trial_index":85,"time_elapsed":909390,"internal_node_id":"0.0-4.0-0.39","subject_id":"5e9069f2d4e249374820cc8e","study_id":"60edd13110225f80f9f3709b","session_id":"6196c4a5fc55f670c356109a","condition":"contingent","relevant_dimensions":["antennae","pattern"],"bee_group":{"antennae":"A","wings":"X","pattern":"S","legs":"X"},"action":"harvest","summary":"good-harvest","bonus":1.3800000000000014},{"rt":634.5,"stimulus":"\n                    <p><b>Action: <em>harvest</em></b></p>\n                    <p>This is the bee that you just saw.</p>\n                    <img src=\"bees-with-color/bee-B2DM.svg\" width=\"200\">\n                    <p><span class=\"greenText\"><b>Successful harvest!</b></span><br>Your pay has increased by $0.02. Your bonus pay is now $0.64.</p>\n            ","response":0,"trial_type":"html-button-response","trial_index":86,"time_elapsed":910030,"internal_node_id":"0.0-4.0-1.39","subject_id":"5e9069f2d4e249374820cc8e","study_id":"60edd13110225f80f9f3709b","session_id":"6196c4a5fc55f670c356109a","condition":"contingent","relevant_dimensions":["antennae","pattern"],"bee_group":{"antennae":"A","wings":"X","pattern":"S","legs":"X"},"bonus":1.3800000000000014},{"rt":3982.5,"stimulus":"bees-with-color/bee-B2SM.svg","response":0,"trial_type":"image-button-response","trial_index":87,"time_elapsed":914015,"internal_node_id":"0.0-4.0-0.40","subject_id":"5e9069f2d4e249374820cc8e","study_id":"60edd13110225f80f9f3709b","session_id":"6196c4a5fc55f670c356109a","condition":"contingent","relevant_dimensions":["antennae","pattern"],"bee_group":{"antennae":"A","wings":"X","pattern":"S","legs":"X"},"action":"harvest","summary":"good-harvest","bonus":1.3800000000000014},{"rt":599.5999999996275,"stimulus":"\n                    <p><b>Action: <em>harvest</em></b></p>\n                    <p>This is the bee that you just saw.</p>\n                    <img src=\"bees-with-color/bee-B2SM.svg\" width=\"200\">\n                    <p><span class=\"greenText\"><b>Successful harvest!</b></span><br>Your pay has increased by $0.02. Your bonus pay is now $0.66.</p>\n            ","response":0,"trial_type":"html-button-response","trial_index":88,"time_elapsed":914617,"internal_node_id":"0.0-4.0-1.40","subject_id":"5e9069f2d4e249374820cc8e","study_id":"60edd13110225f80f9f3709b","session_id":"6196c4a5fc55f670c356109a","condition":"contingent","relevant_dimensions":["antennae","pattern"],"bee_group":{"antennae":"A","wings":"X","pattern":"S","legs":"X"},"bonus":1.3800000000000014},{"rt":3474.2999999998137,"stimulus":"bees-with-color/bee-B1SF.svg","response":0,"trial_type":"image-button-response","trial_index":89,"time_elapsed":918095,"internal_node_id":"0.0-4.0-0.41","subject_id":"5e9069f2d4e249374820cc8e","study_id":"60edd13110225f80f9f3709b","session_id":"6196c4a5fc55f670c356109a","condition":"contingent","relevant_dimensions":["antennae","pattern"],"bee_group":{"antennae":"A","wings":"X","pattern":"S","legs":"X"},"action":"harvest","summary":"good-harvest","bonus":1.3800000000000014},{"rt":629.5999999996275,"stimulus":"\n                    <p><b>Action: <em>harvest</em></b></p>\n                    <p>This is the bee that you just saw.</p>\n                    <img src=\"bees-with-color/bee-B1SF.svg\" width=\"200\">\n                    <p><span class=\"greenText\"><b>Successful harvest!</b></span><br>Your pay has increased by $0.02. Your bonus pay is now $0.68.</p>\n            ","response":0,"trial_type":"html-button-response","trial_index":90,"time_elapsed":918727,"internal_node_id":"0.0-4.0-1.41","subject_id":"5e9069f2d4e249374820cc8e","study_id":"60edd13110225f80f9f3709b","session_id":"6196c4a5fc55f670c356109a","condition":"contingent","relevant_dimensions":["antennae","pattern"],"bee_group":{"antennae":"A","wings":"X","pattern":"S","legs":"X"},"bonus":1.3800000000000014},{"rt":6182.100000000559,"stimulus":"bees-with-color/bee-A2SF.svg","response":1,"trial_type":"image-button-response","trial_index":91,"time_elapsed":924912,"internal_node_id":"0.0-4.0-0.42","subject_id":"5e9069f2d4e249374820cc8e","study_id":"60edd13110225f80f9f3709b","session_id":"6196c4a5fc55f670c356109a","condition":"contingent","relevant_dimensions":["antennae","pattern"],"bee_group":{"antennae":"A","wings":"X","pattern":"S","legs":"X"},"action":"avoid","summary":"good-avoid","bonus":1.3800000000000014},{"rt":686.8999999994412,"stimulus":"\n                    <p><b>Action: <em>avoid</em></b></p>\n                    <p>This is the bee that you just saw.</p>\n                    <img src=\"bees-with-color/bee-A2SF.svg\" width=\"200\">\n                    <p><br>Your bonus pay is unchanged, and remains at $0.68.</p>\n            ","response":0,"trial_type":"html-button-response","trial_index":92,"time_elapsed":925600,"internal_node_id":"0.0-4.0-1.42","subject_id":"5e9069f2d4e249374820cc8e","study_id":"60edd13110225f80f9f3709b","session_id":"6196c4a5fc55f670c356109a","condition":"contingent","relevant_dimensions":["antennae","pattern"],"bee_group":{"antennae":"A","wings":"X","pattern":"S","legs":"X"},"bonus":1.3800000000000014},{"rt":5254.5999999996275,"stimulus":"bees-with-color/bee-B2SF.svg","response":0,"trial_type":"image-button-response","trial_index":93,"time_elapsed":930856,"internal_node_id":"0.0-4.0-0.43","subject_id":"5e9069f2d4e249374820cc8e","study_id":"60edd13110225f80f9f3709b","session_id":"6196c4a5fc55f670c356109a","condition":"contingent","relevant_dimensions":["antennae","pattern"],"bee_group":{"antennae":"A","wings":"X","pattern":"S","legs":"X"},"action":"harvest","summary":"good-harvest","bonus":1.3800000000000014},{"rt":646.5999999996275,"stimulus":"\n                    <p><b>Action: <em>harvest</em></b></p>\n                    <p>This is the bee that you just saw.</p>\n                    <img src=\"bees-with-color/bee-B2SF.svg\" width=\"200\">\n                    <p><span class=\"greenText\"><b>Successful harvest!</b></span><br>Your pay has increased by $0.02. Your bonus pay is now $0.70.</p>\n            ","response":0,"trial_type":"html-button-response","trial_index":94,"time_elapsed":931505,"internal_node_id":"0.0-4.0-1.43","subject_id":"5e9069f2d4e249374820cc8e","study_id":"60edd13110225f80f9f3709b","session_id":"6196c4a5fc55f670c356109a","condition":"contingent","relevant_dimensions":["antennae","pattern"],"bee_group":{"antennae":"A","wings":"X","pattern":"S","legs":"X"},"bonus":1.3800000000000014},{"rt":5262.299999999814,"stimulus":"bees-with-color/bee-B1DM.svg","response":0,"trial_type":"image-button-response","trial_index":95,"time_elapsed":936770,"internal_node_id":"0.0-4.0-0.44","subject_id":"5e9069f2d4e249374820cc8e","study_id":"60edd13110225f80f9f3709b","session_id":"6196c4a5fc55f670c356109a","condition":"contingent","relevant_dimensions":["antennae","pattern"],"bee_group":{"antennae":"A","wings":"X","pattern":"S","legs":"X"},"action":"harvest","summary":"good-harvest","bonus":1.3800000000000014},{"rt":903,"stimulus":"\n                    <p><b>Action: <em>harvest</em></b></p>\n                    <p>This is the bee that you just saw.</p>\n                    <img src=\"bees-with-color/bee-B1DM.svg\" width=\"200\">\n                    <p><span class=\"greenText\"><b>Successful harvest!</b></span><br>Your pay has increased by $0.02. Your bonus pay is now $0.72.</p>\n            ","response":0,"trial_type":"html-button-response","trial_index":96,"time_elapsed":937674,"internal_node_id":"0.0-4.0-1.44","subject_id":"5e9069f2d4e249374820cc8e","study_id":"60edd13110225f80f9f3709b","session_id":"6196c4a5fc55f670c356109a","condition":"contingent","relevant_dimensions":["antennae","pattern"],"bee_group":{"antennae":"A","wings":"X","pattern":"S","legs":"X"},"bonus":1.3800000000000014},{"rt":4862.4000000003725,"stimulus":"bees-with-color/bee-A1DM.svg","response":0,"trial_type":"image-button-response","trial_index":97,"time_elapsed":942538,"internal_node_id":"0.0-4.0-0.45","subject_id":"5e9069f2d4e249374820cc8e","study_id":"60edd13110225f80f9f3709b","session_id":"6196c4a5fc55f670c356109a","condition":"contingent","relevant_dimensions":["antennae","pattern"],"bee_group":{"antennae":"A","wings":"X","pattern":"S","legs":"X"},"action":"harvest","summary":"good-harvest","bonus":1.3800000000000014},{"rt":791,"stimulus":"\n                    <p><b>Action: <em>harvest</em></b></p>\n                    <p>This is the bee that you just saw.</p>\n                    <img src=\"bees-with-color/bee-A1DM.svg\" width=\"200\">\n                    <p><span class=\"greenText\"><b>Successful harvest!</b></span><br>Your pay has increased by $0.02. Your bonus pay is now $0.74.</p>\n            ","response":0,"trial_type":"html-button-response","trial_index":98,"time_elapsed":943331,"internal_node_id":"0.0-4.0-1.45","subject_id":"5e9069f2d4e249374820cc8e","study_id":"60edd13110225f80f9f3709b","session_id":"6196c4a5fc55f670c356109a","condition":"contingent","relevant_dimensions":["antennae","pattern"],"bee_group":{"antennae":"A","wings":"X","pattern":"S","legs":"X"},"bonus":1.3800000000000014},{"rt":3685.5,"stimulus":"bees-with-color/bee-B1SM.svg","response":0,"trial_type":"image-button-response","trial_index":99,"time_elapsed":947019,"internal_node_id":"0.0-4.0-0.46","subject_id":"5e9069f2d4e249374820cc8e","study_id":"60edd13110225f80f9f3709b","session_id":"6196c4a5fc55f670c356109a","condition":"contingent","relevant_dimensions":["antennae","pattern"],"bee_group":{"antennae":"A","wings":"X","pattern":"S","legs":"X"},"action":"harvest","summary":"good-harvest","bonus":1.3800000000000014},{"rt":622.5,"stimulus":"\n                    <p><b>Action: <em>harvest</em></b></p>\n                    <p>This is the bee that you just saw.</p>\n                    <img src=\"bees-with-color/bee-B1SM.svg\" width=\"200\">\n                    <p><span class=\"greenText\"><b>Successful harvest!</b></span><br>Your pay has increased by $0.02. Your bonus pay is now $0.76.</p>\n            ","response":0,"trial_type":"html-button-response","trial_index":100,"time_elapsed":947643,"internal_node_id":"0.0-4.0-1.46","subject_id":"5e9069f2d4e249374820cc8e","study_id":"60edd13110225f80f9f3709b","session_id":"6196c4a5fc55f670c356109a","condition":"contingent","relevant_dimensions":["antennae","pattern"],"bee_group":{"antennae":"A","wings":"X","pattern":"S","legs":"X"},"bonus":1.3800000000000014},{"rt":10647.099999999627,"stimulus":"bees-with-color/bee-A2SM.svg","response":1,"trial_type":"image-button-response","trial_index":101,"time_elapsed":958293,"internal_node_id":"0.0-4.0-0.47","subject_id":"5e9069f2d4e249374820cc8e","study_id":"60edd13110225f80f9f3709b","session_id":"6196c4a5fc55f670c356109a","condition":"contingent","relevant_dimensions":["antennae","pattern"],"bee_group":{"antennae":"A","wings":"X","pattern":"S","legs":"X"},"action":"avoid","summary":"good-avoid","bonus":1.3800000000000014},{"rt":702.2999999998137,"stimulus":"\n                    <p><b>Action: <em>avoid</em></b></p>\n                    <p>This is the bee that you just saw.</p>\n                    <img src=\"bees-with-color/bee-A2SM.svg\" width=\"200\">\n                    <p><br>Your bonus pay is unchanged, and remains at $0.76.</p>\n            ","response":0,"trial_type":"html-button-response","trial_index":102,"time_elapsed":958997,"internal_node_id":"0.0-4.0-1.47","subject_id":"5e9069f2d4e249374820cc8e","study_id":"60edd13110225f80f9f3709b","session_id":"6196c4a5fc55f670c356109a","condition":"contingent","relevant_dimensions":["antennae","pattern"],"bee_group":{"antennae":"A","wings":"X","pattern":"S","legs":"X"},"bonus":1.3800000000000014},{"rt":1958.2999999998137,"stimulus":"bees-with-color/bee-B1SM.svg","response":0,"trial_type":"image-button-response","trial_index":103,"time_elapsed":960957,"internal_node_id":"0.0-4.0-0.48","subject_id":"5e9069f2d4e249374820cc8e","study_id":"60edd13110225f80f9f3709b","session_id":"6196c4a5fc55f670c356109a","condition":"contingent","relevant_dimensions":["antennae","pattern"],"bee_group":{"antennae":"A","wings":"X","pattern":"S","legs":"X"},"action":"harvest","summary":"good-harvest","bonus":1.3800000000000014},{"rt":630.5999999996275,"stimulus":"\n                    <p><b>Action: <em>harvest</em></b></p>\n                    <p>This is the bee that you just saw.</p>\n                    <img src=\"bees-with-color/bee-B1SM.svg\" width=\"200\">\n                    <p><span class=\"greenText\"><b>Successful harvest!</b></span><br>Your pay has increased by $0.02. Your bonus pay is now $0.78.</p>\n            ","response":0,"trial_type":"html-button-response","trial_index":104,"time_elapsed":961589,"internal_node_id":"0.0-4.0-1.48","subject_id":"5e9069f2d4e249374820cc8e","study_id":"60edd13110225f80f9f3709b","session_id":"6196c4a5fc55f670c356109a","condition":"contingent","relevant_dimensions":["antennae","pattern"],"bee_group":{"antennae":"A","wings":"X","pattern":"S","legs":"X"},"bonus":1.3800000000000014},{"rt":2814.9000000003725,"stimulus":"bees-with-color/bee-B1DF.svg","response":0,"trial_type":"image-button-response","trial_index":105,"time_elapsed":964405,"internal_node_id":"0.0-4.0-0.49","subject_id":"5e9069f2d4e249374820cc8e","study_id":"60edd13110225f80f9f3709b","session_id":"6196c4a5fc55f670c356109a","condition":"contingent","relevant_dimensions":["antennae","pattern"],"bee_group":{"antennae":"A","wings":"X","pattern":"S","legs":"X"},"action":"harvest","summary":"good-harvest","bonus":1.3800000000000014},{"rt":702.2999999998137,"stimulus":"\n                    <p><b>Action: <em>harvest</em></b></p>\n                    <p>This is the bee that you just saw.</p>\n                    <img src=\"bees-with-color/bee-B1DF.svg\" width=\"200\">\n                    <p><span class=\"greenText\"><b>Successful harvest!</b></span><br>Your pay has increased by $0.02. Your bonus pay is now $0.80.</p>\n            ","response":0,"trial_type":"html-button-response","trial_index":106,"time_elapsed":965109,"internal_node_id":"0.0-4.0-1.49","subject_id":"5e9069f2d4e249374820cc8e","study_id":"60edd13110225f80f9f3709b","session_id":"6196c4a5fc55f670c356109a","condition":"contingent","relevant_dimensions":["antennae","pattern"],"bee_group":{"antennae":"A","wings":"X","pattern":"S","legs":"X"},"bonus":1.3800000000000014},{"rt":3030.7000000001863,"stimulus":"bees-with-color/bee-A1SF.svg","response":0,"trial_type":"image-button-response","trial_index":107,"time_elapsed":968142,"internal_node_id":"0.0-4.0-0.50","subject_id":"5e9069f2d4e249374820cc8e","study_id":"60edd13110225f80f9f3709b","session_id":"6196c4a5fc55f670c356109a","condition":"contingent","relevant_dimensions":["antennae","pattern"],"bee_group":{"antennae":"A","wings":"X","pattern":"S","legs":"X"},"action":"harvest","summary":"bad-harvest","bonus":1.3800000000000014},{"rt":3822.9000000003725,"stimulus":"\n                    <p><b>Action: <em>harvest</em></b></p>\n                    <p>This is the bee that you just saw.</p>\n                    <img src=\"bees-with-color/bee-A1SF.svg\" width=\"200\">\n                    <p><span class=\"redText\">Bad choice, the bee was angry.</span><br><b>You have been stung!</b><br>Your pay has been decreased by $0.10. Your bonus pay is now $0.70.</p>\n            ","response":0,"trial_type":"html-button-response","trial_index":108,"time_elapsed":971966,"internal_node_id":"0.0-4.0-1.50","subject_id":"5e9069f2d4e249374820cc8e","study_id":"60edd13110225f80f9f3709b","session_id":"6196c4a5fc55f670c356109a","condition":"contingent","relevant_dimensions":["antennae","pattern"],"bee_group":{"antennae":"A","wings":"X","pattern":"S","legs":"X"},"bonus":1.3800000000000014},{"rt":14119.799999999814,"stimulus":"bees-with-color/bee-A2DM.svg","response":0,"trial_type":"image-button-response","trial_index":109,"time_elapsed":986088,"internal_node_id":"0.0-4.0-0.51","subject_id":"5e9069f2d4e249374820cc8e","study_id":"60edd13110225f80f9f3709b","session_id":"6196c4a5fc55f670c356109a","condition":"contingent","relevant_dimensions":["antennae","pattern"],"bee_group":{"antennae":"A","wings":"X","pattern":"S","legs":"X"},"action":"harvest","summary":"good-harvest","bonus":1.3800000000000014},{"rt":734.5,"stimulus":"\n                    <p><b>Action: <em>harvest</em></b></p>\n                    <p>This is the bee that you just saw.</p>\n                    <img src=\"bees-with-color/bee-A2DM.svg\" width=\"200\">\n                    <p><span class=\"greenText\"><b>Successful harvest!</b></span><br>Your pay has increased by $0.02. Your bonus pay is now $0.72.</p>\n            ","response":0,"trial_type":"html-button-response","trial_index":110,"time_elapsed":986825,"internal_node_id":"0.0-4.0-1.51","subject_id":"5e9069f2d4e249374820cc8e","study_id":"60edd13110225f80f9f3709b","session_id":"6196c4a5fc55f670c356109a","condition":"contingent","relevant_dimensions":["antennae","pattern"],"bee_group":{"antennae":"A","wings":"X","pattern":"S","legs":"X"},"bonus":1.3800000000000014},{"rt":10062.900000000373,"stimulus":"bees-with-color/bee-A2SF.svg","response":1,"trial_type":"image-button-response","trial_index":111,"time_elapsed":996890,"internal_node_id":"0.0-4.0-0.52","subject_id":"5e9069f2d4e249374820cc8e","study_id":"60edd13110225f80f9f3709b","session_id":"6196c4a5fc55f670c356109a","condition":"contingent","relevant_dimensions":["antennae","pattern"],"bee_group":{"antennae":"A","wings":"X","pattern":"S","legs":"X"},"action":"avoid","summary":"good-avoid","bonus":1.3800000000000014},{"rt":734.0999999996275,"stimulus":"\n                    <p><b>Action: <em>avoid</em></b></p>\n                    <p>This is the bee that you just saw.</p>\n                    <img src=\"bees-with-color/bee-A2SF.svg\" width=\"200\">\n                    <p><br>Your bonus pay is unchanged, and remains at $0.72.</p>\n            ","response":0,"trial_type":"html-button-response","trial_index":112,"time_elapsed":997625,"internal_node_id":"0.0-4.0-1.52","subject_id":"5e9069f2d4e249374820cc8e","study_id":"60edd13110225f80f9f3709b","session_id":"6196c4a5fc55f670c356109a","condition":"contingent","relevant_dimensions":["antennae","pattern"],"bee_group":{"antennae":"A","wings":"X","pattern":"S","legs":"X"},"bonus":1.3800000000000014},{"rt":10895.299999999814,"stimulus":"bees-with-color/bee-A1DF.svg","response":0,"trial_type":"image-button-response","trial_index":113,"time_elapsed":1008523,"internal_node_id":"0.0-4.0-0.53","subject_id":"5e9069f2d4e249374820cc8e","study_id":"60edd13110225f80f9f3709b","session_id":"6196c4a5fc55f670c356109a","condition":"contingent","relevant_dimensions":["antennae","pattern"],"bee_group":{"antennae":"A","wings":"X","pattern":"S","legs":"X"},"action":"harvest","summary":"good-harvest","bonus":1.3800000000000014},{"rt":646.1000000005588,"stimulus":"\n                    <p><b>Action: <em>harvest</em></b></p>\n                    <p>This is the bee that you just saw.</p>\n                    <img src=\"bees-with-color/bee-A1DF.svg\" width=\"200\">\n                    <p><span class=\"greenText\"><b>Successful harvest!</b></span><br>Your pay has increased by $0.02. Your bonus pay is now $0.74.</p>\n            ","response":0,"trial_type":"html-button-response","trial_index":114,"time_elapsed":1009171,"internal_node_id":"0.0-4.0-1.53","subject_id":"5e9069f2d4e249374820cc8e","study_id":"60edd13110225f80f9f3709b","session_id":"6196c4a5fc55f670c356109a","condition":"contingent","relevant_dimensions":["antennae","pattern"],"bee_group":{"antennae":"A","wings":"X","pattern":"S","legs":"X"},"bonus":1.3800000000000014},{"rt":2926.5,"stimulus":"bees-with-color/bee-A1DM.svg","response":0,"trial_type":"image-button-response","trial_index":115,"time_elapsed":1012099,"internal_node_id":"0.0-4.0-0.54","subject_id":"5e9069f2d4e249374820cc8e","study_id":"60edd13110225f80f9f3709b","session_id":"6196c4a5fc55f670c356109a","condition":"contingent","relevant_dimensions":["antennae","pattern"],"bee_group":{"antennae":"A","wings":"X","pattern":"S","legs":"X"},"action":"harvest","summary":"good-harvest","bonus":1.3800000000000014},{"rt":702.4000000003725,"stimulus":"\n                    <p><b>Action: <em>harvest</em></b></p>\n                    <p>This is the bee that you just saw.</p>\n                    <img src=\"bees-with-color/bee-A1DM.svg\" width=\"200\">\n                    <p><span class=\"greenText\"><b>Successful harvest!</b></span><br>Your pay has increased by $0.02. Your bonus pay is now $0.76.</p>\n            ","response":0,"trial_type":"html-button-response","trial_index":116,"time_elapsed":1012804,"internal_node_id":"0.0-4.0-1.54","subject_id":"5e9069f2d4e249374820cc8e","study_id":"60edd13110225f80f9f3709b","session_id":"6196c4a5fc55f670c356109a","condition":"contingent","relevant_dimensions":["antennae","pattern"],"bee_group":{"antennae":"A","wings":"X","pattern":"S","legs":"X"},"bonus":1.3800000000000014},{"rt":8710.700000000186,"stimulus":"bees-with-color/bee-B2SM.svg","response":0,"trial_type":"image-button-response","trial_index":117,"time_elapsed":1021516,"internal_node_id":"0.0-4.0-0.55","subject_id":"5e9069f2d4e249374820cc8e","study_id":"60edd13110225f80f9f3709b","session_id":"6196c4a5fc55f670c356109a","condition":"contingent","relevant_dimensions":["antennae","pattern"],"bee_group":{"antennae":"A","wings":"X","pattern":"S","legs":"X"},"action":"harvest","summary":"good-harvest","bonus":1.3800000000000014},{"rt":566.3000000007451,"stimulus":"\n                    <p><b>Action: <em>harvest</em></b></p>\n                    <p>This is the bee that you just saw.</p>\n                    <img src=\"bees-with-color/bee-B2SM.svg\" width=\"200\">\n                    <p><span class=\"greenText\"><b>Successful harvest!</b></span><br>Your pay has increased by $0.02. Your bonus pay is now $0.78.</p>\n            ","response":0,"trial_type":"html-button-response","trial_index":118,"time_elapsed":1022085,"internal_node_id":"0.0-4.0-1.55","subject_id":"5e9069f2d4e249374820cc8e","study_id":"60edd13110225f80f9f3709b","session_id":"6196c4a5fc55f670c356109a","condition":"contingent","relevant_dimensions":["antennae","pattern"],"bee_group":{"antennae":"A","wings":"X","pattern":"S","legs":"X"},"bonus":1.3800000000000014},{"rt":3349.7999999998137,"stimulus":"bees-with-color/bee-B1SF.svg","response":0,"trial_type":"image-button-response","trial_index":119,"time_elapsed":1025437,"internal_node_id":"0.0-4.0-0.56","subject_id":"5e9069f2d4e249374820cc8e","study_id":"60edd13110225f80f9f3709b","session_id":"6196c4a5fc55f670c356109a","condition":"contingent","relevant_dimensions":["antennae","pattern"],"bee_group":{"antennae":"A","wings":"X","pattern":"S","legs":"X"},"action":"harvest","summary":"good-harvest","bonus":1.3800000000000014},{"rt":550.5,"stimulus":"\n                    <p><b>Action: <em>harvest</em></b></p>\n                    <p>This is the bee that you just saw.</p>\n                    <img src=\"bees-with-color/bee-B1SF.svg\" width=\"200\">\n                    <p><span class=\"greenText\"><b>Successful harvest!</b></span><br>Your pay has increased by $0.02. Your bonus pay is now $0.80.</p>\n            ","response":0,"trial_type":"html-button-response","trial_index":120,"time_elapsed":1025989,"internal_node_id":"0.0-4.0-1.56","subject_id":"5e9069f2d4e249374820cc8e","study_id":"60edd13110225f80f9f3709b","session_id":"6196c4a5fc55f670c356109a","condition":"contingent","relevant_dimensions":["antennae","pattern"],"bee_group":{"antennae":"A","wings":"X","pattern":"S","legs":"X"},"bonus":1.3800000000000014},{"rt":7951.299999999814,"stimulus":"bees-with-color/bee-A2SM.svg","response":1,"trial_type":"image-button-response","trial_index":121,"time_elapsed":1033942,"internal_node_id":"0.0-4.0-0.57","subject_id":"5e9069f2d4e249374820cc8e","study_id":"60edd13110225f80f9f3709b","session_id":"6196c4a5fc55f670c356109a","condition":"contingent","relevant_dimensions":["antennae","pattern"],"bee_group":{"antennae":"A","wings":"X","pattern":"S","legs":"X"},"action":"avoid","summary":"good-avoid","bonus":1.3800000000000014},{"rt":589.9000000003725,"stimulus":"\n                    <p><b>Action: <em>avoid</em></b></p>\n                    <p>This is the bee that you just saw.</p>\n                    <img src=\"bees-with-color/bee-A2SM.svg\" width=\"200\">\n                    <p><br>Your bonus pay is unchanged, and remains at $0.80.</p>\n            ","response":0,"trial_type":"html-button-response","trial_index":122,"time_elapsed":1034534,"internal_node_id":"0.0-4.0-1.57","subject_id":"5e9069f2d4e249374820cc8e","study_id":"60edd13110225f80f9f3709b","session_id":"6196c4a5fc55f670c356109a","condition":"contingent","relevant_dimensions":["antennae","pattern"],"bee_group":{"antennae":"A","wings":"X","pattern":"S","legs":"X"},"bonus":1.3800000000000014},{"rt":6222.0999999996275,"stimulus":"bees-with-color/bee-A1SM.svg","response":1,"trial_type":"image-button-response","trial_index":123,"time_elapsed":1040759,"internal_node_id":"0.0-4.0-0.58","subject_id":"5e9069f2d4e249374820cc8e","study_id":"60edd13110225f80f9f3709b","session_id":"6196c4a5fc55f670c356109a","condition":"contingent","relevant_dimensions":["antennae","pattern"],"bee_group":{"antennae":"A","wings":"X","pattern":"S","legs":"X"},"action":"avoid","summary":"good-avoid","bonus":1.3800000000000014},{"rt":662.1000000005588,"stimulus":"\n                    <p><b>Action: <em>avoid</em></b></p>\n                    <p>This is the bee that you just saw.</p>\n                    <img src=\"bees-with-color/bee-A1SM.svg\" width=\"200\">\n                    <p><br>Your bonus pay is unchanged, and remains at $0.80.</p>\n            ","response":0,"trial_type":"html-button-response","trial_index":124,"time_elapsed":1041423,"internal_node_id":"0.0-4.0-1.58","subject_id":"5e9069f2d4e249374820cc8e","study_id":"60edd13110225f80f9f3709b","session_id":"6196c4a5fc55f670c356109a","condition":"contingent","relevant_dimensions":["antennae","pattern"],"bee_group":{"antennae":"A","wings":"X","pattern":"S","legs":"X"},"bonus":1.3800000000000014},{"rt":4134.700000000186,"stimulus":"bees-with-color/bee-B2DM.svg","response":0,"trial_type":"image-button-response","trial_index":125,"time_elapsed":1045560,"internal_node_id":"0.0-4.0-0.59","subject_id":"5e9069f2d4e249374820cc8e","study_id":"60edd13110225f80f9f3709b","session_id":"6196c4a5fc55f670c356109a","condition":"contingent","relevant_dimensions":["antennae","pattern"],"bee_group":{"antennae":"A","wings":"X","pattern":"S","legs":"X"},"action":"harvest","summary":"good-harvest","bonus":1.3800000000000014},{"rt":638.4000000003725,"stimulus":"\n                    <p><b>Action: <em>harvest</em></b></p>\n                    <p>This is the bee that you just saw.</p>\n                    <img src=\"bees-with-color/bee-B2DM.svg\" width=\"200\">\n                    <p><span class=\"greenText\"><b>Successful harvest!</b></span><br>Your pay has increased by $0.02. Your bonus pay is now $0.82.</p>\n            ","response":0,"trial_type":"html-button-response","trial_index":126,"time_elapsed":1046199,"internal_node_id":"0.0-4.0-1.59","subject_id":"5e9069f2d4e249374820cc8e","study_id":"60edd13110225f80f9f3709b","session_id":"6196c4a5fc55f670c356109a","condition":"contingent","relevant_dimensions":["antennae","pattern"],"bee_group":{"antennae":"A","wings":"X","pattern":"S","legs":"X"},"bonus":1.3800000000000014},{"rt":9175.100000000559,"stimulus":"bees-with-color/bee-B2DF.svg","response":0,"trial_type":"image-button-response","trial_index":127,"time_elapsed":1055377,"internal_node_id":"0.0-4.0-0.60","subject_id":"5e9069f2d4e249374820cc8e","study_id":"60edd13110225f80f9f3709b","session_id":"6196c4a5fc55f670c356109a","condition":"contingent","relevant_dimensions":["antennae","pattern"],"bee_group":{"antennae":"A","wings":"X","pattern":"S","legs":"X"},"action":"harvest","summary":"good-harvest","bonus":1.3800000000000014},{"rt":1103,"stimulus":"\n                    <p><b>Action: <em>harvest</em></b></p>\n                    <p>This is the bee that you just saw.</p>\n                    <img src=\"bees-with-color/bee-B2DF.svg\" width=\"200\">\n                    <p><span class=\"greenText\"><b>Successful harvest!</b></span><br>Your pay has increased by $0.02. Your bonus pay is now $0.84.</p>\n            ","response":0,"trial_type":"html-button-response","trial_index":128,"time_elapsed":1056481,"internal_node_id":"0.0-4.0-1.60","subject_id":"5e9069f2d4e249374820cc8e","study_id":"60edd13110225f80f9f3709b","session_id":"6196c4a5fc55f670c356109a","condition":"contingent","relevant_dimensions":["antennae","pattern"],"bee_group":{"antennae":"A","wings":"X","pattern":"S","legs":"X"},"bonus":1.3800000000000014},{"rt":13175.599999999627,"stimulus":"bees-with-color/bee-B1DM.svg","response":0,"trial_type":"image-button-response","trial_index":129,"time_elapsed":1069658,"internal_node_id":"0.0-4.0-0.61","subject_id":"5e9069f2d4e249374820cc8e","study_id":"60edd13110225f80f9f3709b","session_id":"6196c4a5fc55f670c356109a","condition":"contingent","relevant_dimensions":["antennae","pattern"],"bee_group":{"antennae":"A","wings":"X","pattern":"S","legs":"X"},"action":"harvest","summary":"good-harvest","bonus":1.3800000000000014},{"rt":774.4000000003725,"stimulus":"\n                    <p><b>Action: <em>harvest</em></b></p>\n                    <p>This is the bee that you just saw.</p>\n                    <img src=\"bees-with-color/bee-B1DM.svg\" width=\"200\">\n                    <p><span class=\"greenText\"><b>Successful harvest!</b></span><br>Your pay has increased by $0.02. Your bonus pay is now $0.86.</p>\n            ","response":0,"trial_type":"html-button-response","trial_index":130,"time_elapsed":1070434,"internal_node_id":"0.0-4.0-1.61","subject_id":"5e9069f2d4e249374820cc8e","study_id":"60edd13110225f80f9f3709b","session_id":"6196c4a5fc55f670c356109a","condition":"contingent","relevant_dimensions":["antennae","pattern"],"bee_group":{"antennae":"A","wings":"X","pattern":"S","legs":"X"},"bonus":1.3800000000000014},{"rt":8183.100000000559,"stimulus":"bees-with-color/bee-A2DF.svg","response":0,"trial_type":"image-button-response","trial_index":131,"time_elapsed":1078619,"internal_node_id":"0.0-4.0-0.62","subject_id":"5e9069f2d4e249374820cc8e","study_id":"60edd13110225f80f9f3709b","session_id":"6196c4a5fc55f670c356109a","condition":"contingent","relevant_dimensions":["antennae","pattern"],"bee_group":{"antennae":"A","wings":"X","pattern":"S","legs":"X"},"action":"harvest","summary":"good-harvest","bonus":1.3800000000000014},{"rt":910.5999999996275,"stimulus":"\n                    <p><b>Action: <em>harvest</em></b></p>\n                    <p>This is the bee that you just saw.</p>\n                    <img src=\"bees-with-color/bee-A2DF.svg\" width=\"200\">\n                    <p><span class=\"greenText\"><b>Successful harvest!</b></span><br>Your pay has increased by $0.02. Your bonus pay is now $0.88.</p>\n            ","response":0,"trial_type":"html-button-response","trial_index":132,"time_elapsed":1079531,"internal_node_id":"0.0-4.0-1.62","subject_id":"5e9069f2d4e249374820cc8e","study_id":"60edd13110225f80f9f3709b","session_id":"6196c4a5fc55f670c356109a","condition":"contingent","relevant_dimensions":["antennae","pattern"],"bee_group":{"antennae":"A","wings":"X","pattern":"S","legs":"X"},"bonus":1.3800000000000014},{"rt":11031.299999999814,"stimulus":"bees-with-color/bee-B2SF.svg","response":0,"trial_type":"image-button-response","trial_index":133,"time_elapsed":1090565,"internal_node_id":"0.0-4.0-0.63","subject_id":"5e9069f2d4e249374820cc8e","study_id":"60edd13110225f80f9f3709b","session_id":"6196c4a5fc55f670c356109a","condition":"contingent","relevant_dimensions":["antennae","pattern"],"bee_group":{"antennae":"A","wings":"X","pattern":"S","legs":"X"},"action":"harvest","summary":"good-harvest","bonus":1.3800000000000014},{"rt":742.5999999996275,"stimulus":"\n                    <p><b>Action: <em>harvest</em></b></p>\n                    <p>This is the bee that you just saw.</p>\n                    <img src=\"bees-with-color/bee-B2SF.svg\" width=\"200\">\n                    <p><span class=\"greenText\"><b>Successful harvest!</b></span><br>Your pay has increased by $0.02. Your bonus pay is now $0.90.</p>\n            ","response":0,"trial_type":"html-button-response","trial_index":134,"time_elapsed":1091309,"internal_node_id":"0.0-4.0-1.63","subject_id":"5e9069f2d4e249374820cc8e","study_id":"60edd13110225f80f9f3709b","session_id":"6196c4a5fc55f670c356109a","condition":"contingent","relevant_dimensions":["antennae","pattern"],"bee_group":{"antennae":"A","wings":"X","pattern":"S","legs":"X"},"bonus":1.3800000000000014},{"rt":5047.799999999814,"stimulus":"You have completed the first part of this experiment.<br><br>You will now begin a shorter second part, in which you will receive no feedback.<br>The same rules regarding bonus pay apply.<br><br>Press any key to begin.","response":" ","trial_type":"html-keyboard-response","trial_index":135,"time_elapsed":1096359,"internal_node_id":"0.0-5.0","subject_id":"5e9069f2d4e249374820cc8e","study_id":"60edd13110225f80f9f3709b","session_id":"6196c4a5fc55f670c356109a","condition":"contingent","relevant_dimensions":["antennae","pattern"],"bee_group":{"antennae":"A","wings":"X","pattern":"S","legs":"X"},"bonus":1.3800000000000014},{"rt":11862.400000000373,"stimulus":"bees-with-color/bee-A1DM.svg","response":0,"trial_type":"image-button-response","trial_index":136,"time_elapsed":1108231,"internal_node_id":"0.0-6.0-0.0","subject_id":"5e9069f2d4e249374820cc8e","study_id":"60edd13110225f80f9f3709b","session_id":"6196c4a5fc55f670c356109a","condition":"contingent","relevant_dimensions":["antennae","pattern"],"bee_group":{"antennae":"A","wings":"X","pattern":"S","legs":"X"},"bonus":1.3800000000000014},{"rt":18022.599999999627,"stimulus":"bees-with-color/bee-A2DF.svg","response":0,"trial_type":"image-button-response","trial_index":137,"time_elapsed":1126258,"internal_node_id":"0.0-6.0-0.1","subject_id":"5e9069f2d4e249374820cc8e","study_id":"60edd13110225f80f9f3709b","session_id":"6196c4a5fc55f670c356109a","condition":"contingent","relevant_dimensions":["antennae","pattern"],"bee_group":{"antennae":"A","wings":"X","pattern":"S","legs":"X"},"bonus":1.3800000000000014},{"rt":7685.700000000186,"stimulus":"bees-with-color/bee-B1DM.svg","response":0,"trial_type":"image-button-response","trial_index":138,"time_elapsed":1133946,"internal_node_id":"0.0-6.0-0.2","subject_id":"5e9069f2d4e249374820cc8e","study_id":"60edd13110225f80f9f3709b","session_id":"6196c4a5fc55f670c356109a","condition":"contingent","relevant_dimensions":["antennae","pattern"],"bee_group":{"antennae":"A","wings":"X","pattern":"S","legs":"X"},"bonus":1.3800000000000014},{"rt":2565.5,"stimulus":"bees-with-color/bee-A1SF.svg","response":1,"trial_type":"image-button-response","trial_index":139,"time_elapsed":1136515,"internal_node_id":"0.0-6.0-0.3","subject_id":"5e9069f2d4e249374820cc8e","study_id":"60edd13110225f80f9f3709b","session_id":"6196c4a5fc55f670c356109a","condition":"contingent","relevant_dimensions":["antennae","pattern"],"bee_group":{"antennae":"A","wings":"X","pattern":"S","legs":"X"},"bonus":1.3800000000000014},{"rt":7309.800000000745,"stimulus":"bees-with-color/bee-B1SM.svg","response":0,"trial_type":"image-button-response","trial_index":140,"time_elapsed":1143828,"internal_node_id":"0.0-6.0-0.4","subject_id":"5e9069f2d4e249374820cc8e","study_id":"60edd13110225f80f9f3709b","session_id":"6196c4a5fc55f670c356109a","condition":"contingent","relevant_dimensions":["antennae","pattern"],"bee_group":{"antennae":"A","wings":"X","pattern":"S","legs":"X"},"bonus":1.3800000000000014},{"rt":5101.9000000003725,"stimulus":"bees-with-color/bee-A2SM.svg","response":1,"trial_type":"image-button-response","trial_index":141,"time_elapsed":1148932,"internal_node_id":"0.0-6.0-0.5","subject_id":"5e9069f2d4e249374820cc8e","study_id":"60edd13110225f80f9f3709b","session_id":"6196c4a5fc55f670c356109a","condition":"contingent","relevant_dimensions":["antennae","pattern"],"bee_group":{"antennae":"A","wings":"X","pattern":"S","legs":"X"},"bonus":1.3800000000000014},{"rt":7053.600000000559,"stimulus":"bees-with-color/bee-B2SF.svg","response":0,"trial_type":"image-button-response","trial_index":142,"time_elapsed":1155989,"internal_node_id":"0.0-6.0-0.6","subject_id":"5e9069f2d4e249374820cc8e","study_id":"60edd13110225f80f9f3709b","session_id":"6196c4a5fc55f670c356109a","condition":"contingent","relevant_dimensions":["antennae","pattern"],"bee_group":{"antennae":"A","wings":"X","pattern":"S","legs":"X"},"bonus":1.3800000000000014},{"rt":9878.600000000559,"stimulus":"bees-with-color/bee-A1DF.svg","response":0,"trial_type":"image-button-response","trial_index":143,"time_elapsed":1165871,"internal_node_id":"0.0-6.0-0.7","subject_id":"5e9069f2d4e249374820cc8e","study_id":"60edd13110225f80f9f3709b","session_id":"6196c4a5fc55f670c356109a","condition":"contingent","relevant_dimensions":["antennae","pattern"],"bee_group":{"antennae":"A","wings":"X","pattern":"S","legs":"X"},"bonus":1.3800000000000014},{"rt":5501.299999999814,"stimulus":"bees-with-color/bee-A2SF.svg","response":1,"trial_type":"image-button-response","trial_index":144,"time_elapsed":1171375,"internal_node_id":"0.0-6.0-0.8","subject_id":"5e9069f2d4e249374820cc8e","study_id":"60edd13110225f80f9f3709b","session_id":"6196c4a5fc55f670c356109a","condition":"contingent","relevant_dimensions":["antennae","pattern"],"bee_group":{"antennae":"A","wings":"X","pattern":"S","legs":"X"},"bonus":1.3800000000000014},{"rt":17847.599999999627,"stimulus":"bees-with-color/bee-B2DM.svg","response":0,"trial_type":"image-button-response","trial_index":145,"time_elapsed":1189226,"internal_node_id":"0.0-6.0-0.9","subject_id":"5e9069f2d4e249374820cc8e","study_id":"60edd13110225f80f9f3709b","session_id":"6196c4a5fc55f670c356109a","condition":"contingent","relevant_dimensions":["antennae","pattern"],"bee_group":{"antennae":"A","wings":"X","pattern":"S","legs":"X"},"bonus":1.3800000000000014},{"rt":4045.7000000001863,"stimulus":"bees-with-color/bee-B1DF.svg","response":0,"trial_type":"image-button-response","trial_index":146,"time_elapsed":1193274,"internal_node_id":"0.0-6.0-0.10","subject_id":"5e9069f2d4e249374820cc8e","study_id":"60edd13110225f80f9f3709b","session_id":"6196c4a5fc55f670c356109a","condition":"contingent","relevant_dimensions":["antennae","pattern"],"bee_group":{"antennae":"A","wings":"X","pattern":"S","legs":"X"},"bonus":1.3800000000000014},{"rt":10470.599999999627,"stimulus":"bees-with-color/bee-A2DM.svg","response":0,"trial_type":"image-button-response","trial_index":147,"time_elapsed":1203748,"internal_node_id":"0.0-6.0-0.11","subject_id":"5e9069f2d4e249374820cc8e","study_id":"60edd13110225f80f9f3709b","session_id":"6196c4a5fc55f670c356109a","condition":"contingent","relevant_dimensions":["antennae","pattern"],"bee_group":{"antennae":"A","wings":"X","pattern":"S","legs":"X"},"bonus":1.3800000000000014},{"rt":6718.5,"stimulus":"bees-with-color/bee-A1SM.svg","response":1,"trial_type":"image-button-response","trial_index":148,"time_elapsed":1210469,"internal_node_id":"0.0-6.0-0.12","subject_id":"5e9069f2d4e249374820cc8e","study_id":"60edd13110225f80f9f3709b","session_id":"6196c4a5fc55f670c356109a","condition":"contingent","relevant_dimensions":["antennae","pattern"],"bee_group":{"antennae":"A","wings":"X","pattern":"S","legs":"X"},"bonus":1.3800000000000014},{"rt":3677.9000000003725,"stimulus":"bees-with-color/bee-B2DF.svg","response":0,"trial_type":"image-button-response","trial_index":149,"time_elapsed":1214149,"internal_node_id":"0.0-6.0-0.13","subject_id":"5e9069f2d4e249374820cc8e","study_id":"60edd13110225f80f9f3709b","session_id":"6196c4a5fc55f670c356109a","condition":"contingent","relevant_dimensions":["antennae","pattern"],"bee_group":{"antennae":"A","wings":"X","pattern":"S","legs":"X"},"bonus":1.3800000000000014},{"rt":11782.799999999814,"stimulus":"bees-with-color/bee-B2SM.svg","response":0,"trial_type":"image-button-response","trial_index":150,"time_elapsed":1225934,"internal_node_id":"0.0-6.0-0.14","subject_id":"5e9069f2d4e249374820cc8e","study_id":"60edd13110225f80f9f3709b","session_id":"6196c4a5fc55f670c356109a","condition":"contingent","relevant_dimensions":["antennae","pattern"],"bee_group":{"antennae":"A","wings":"X","pattern":"S","legs":"X"},"bonus":1.3800000000000014},{"rt":6822.299999999814,"stimulus":"bees-with-color/bee-B1SF.svg","response":0,"trial_type":"image-button-response","trial_index":151,"time_elapsed":1232760,"internal_node_id":"0.0-6.0-0.15","subject_id":"5e9069f2d4e249374820cc8e","study_id":"60edd13110225f80f9f3709b","session_id":"6196c4a5fc55f670c356109a","condition":"contingent","relevant_dimensions":["antennae","pattern"],"bee_group":{"antennae":"A","wings":"X","pattern":"S","legs":"X"},"bonus":1.3800000000000014},{"rt":9615.099999999627,"stimulus":"bees-with-color/bee-A1SM.svg","response":1,"trial_type":"image-button-response","trial_index":152,"time_elapsed":1242377,"internal_node_id":"0.0-6.0-0.16","subject_id":"5e9069f2d4e249374820cc8e","study_id":"60edd13110225f80f9f3709b","session_id":"6196c4a5fc55f670c356109a","condition":"contingent","relevant_dimensions":["antennae","pattern"],"bee_group":{"antennae":"A","wings":"X","pattern":"S","legs":"X"},"bonus":1.3800000000000014},{"rt":5839,"stimulus":"bees-with-color/bee-A1DM.svg","response":0,"trial_type":"image-button-response","trial_index":153,"time_elapsed":1248218,"internal_node_id":"0.0-6.0-0.17","subject_id":"5e9069f2d4e249374820cc8e","study_id":"60edd13110225f80f9f3709b","session_id":"6196c4a5fc55f670c356109a","condition":"contingent","relevant_dimensions":["antennae","pattern"],"bee_group":{"antennae":"A","wings":"X","pattern":"S","legs":"X"},"bonus":1.3800000000000014},{"rt":4676.799999999814,"stimulus":"bees-with-color/bee-A2SM.svg","response":1,"trial_type":"image-button-response","trial_index":154,"time_elapsed":1252897,"internal_node_id":"0.0-6.0-0.18","subject_id":"5e9069f2d4e249374820cc8e","study_id":"60edd13110225f80f9f3709b","session_id":"6196c4a5fc55f670c356109a","condition":"contingent","relevant_dimensions":["antennae","pattern"],"bee_group":{"antennae":"A","wings":"X","pattern":"S","legs":"X"},"bonus":1.3800000000000014},{"rt":9951.200000000186,"stimulus":"bees-with-color/bee-B2SF.svg","response":0,"trial_type":"image-button-response","trial_index":155,"time_elapsed":1262851,"internal_node_id":"0.0-6.0-0.19","subject_id":"5e9069f2d4e249374820cc8e","study_id":"60edd13110225f80f9f3709b","session_id":"6196c4a5fc55f670c356109a","condition":"contingent","relevant_dimensions":["antennae","pattern"],"bee_group":{"antennae":"A","wings":"X","pattern":"S","legs":"X"},"bonus":1.3800000000000014},{"rt":2653.5,"stimulus":"bees-with-color/bee-A2DF.svg","response":0,"trial_type":"image-button-response","trial_index":156,"time_elapsed":1265507,"internal_node_id":"0.0-6.0-0.20","subject_id":"5e9069f2d4e249374820cc8e","study_id":"60edd13110225f80f9f3709b","session_id":"6196c4a5fc55f670c356109a","condition":"contingent","relevant_dimensions":["antennae","pattern"],"bee_group":{"antennae":"A","wings":"X","pattern":"S","legs":"X"},"bonus":1.3800000000000014},{"rt":2782.7999999998137,"stimulus":"bees-with-color/bee-B1SF.svg","response":0,"trial_type":"image-button-response","trial_index":157,"time_elapsed":1268292,"internal_node_id":"0.0-6.0-0.21","subject_id":"5e9069f2d4e249374820cc8e","study_id":"60edd13110225f80f9f3709b","session_id":"6196c4a5fc55f670c356109a","condition":"contingent","relevant_dimensions":["antennae","pattern"],"bee_gr