[{"success":true,"trial_type":"fullscreen","trial_index":0,"time_elapsed":7272,"internal_node_id":"0.0-0.0","subject_id":"61322d8486840a4a87d32266","study_id":"6197b3f67c2b5cd3b6d9596a","session_id":"6197b59a0ae11082c41004ba","condition":"full-information","relevant_dimensions":["wings","pattern"],"bee_group":{"antennae":"X","wings":"2","pattern":"S","legs":"X"},"bonus":1.6400000000000012},{"success":true,"timeout":false,"failed_images":[],"failed_audio":[],"failed_video":[],"trial_type":"preload","trial_index":1,"time_elapsed":10118,"internal_node_id":"0.0-1.0","subject_id":"61322d8486840a4a87d32266","study_id":"6197b3f67c2b5cd3b6d9596a","session_id":"6197b59a0ae11082c41004ba","condition":"full-information","relevant_dimensions":["wings","pattern"],"bee_group":{"antennae":"X","wings":"2","pattern":"S","legs":"X"},"bonus":1.6400000000000012},{"rt":2669.100000023842,"stimulus":"Welcome! Press any key to begin.","response":"/","trial_type":"html-keyboard-response","trial_index":2,"time_elapsed":12791,"internal_node_id":"0.0-2.0","subject_id":"61322d8486840a4a87d32266","study_id":"6197b3f67c2b5cd3b6d9596a","session_id":"6197b59a0ae11082c41004ba","condition":"full-information","relevant_dimensions":["wings","pattern"],"bee_group":{"antennae":"X","wings":"2","pattern":"S","legs":"X"},"bonus":1.6400000000000012},{"view_history":[{"page_index":0,"viewing_time":8508.899999976158},{"page_index":1,"viewing_time":24135},{"page_index":2,"viewing_time":15124},{"page_index":3,"viewing_time":23518.200000047684},{"page_index":4,"viewing_time":12915},{"page_index":5,"viewing_time":13909.899999976158},{"page_index":6,"viewing_time":16883.899999976158},{"page_index":7,"viewing_time":7208.200000047684},{"page_index":8,"viewing_time":6186.100000023842},{"page_index":9,"viewing_time":5082.799999952316},{"page_index":10,"viewing_time":3940.3000000715256},{"page_index":11,"viewing_time":15578.699999928474},{"page_index":12,"viewing_time":14633.100000023842},{"page_index":13,"viewing_time":1689.1000000238419},{"page_index":14,"viewing_time":3409.6999999284744}],"rt":172723.20000004768,"trial_type":"instructions","trial_index":3,"time_elapsed":185514,"internal_node_id":"0.0-3.0-0.0","subject_id":"61322d8486840a4a87d32266","study_id":"6197b3f67c2b5cd3b6d9596a","session_id":"6197b59a0ae11082c41004ba","condition":"full-information","relevant_dimensions":["wings","pattern"],"bee_group":{"antennae":"X","wings":"2","pattern":"S","legs":"X"},"bonus":1.6400000000000012},{"rt":14292.400000095367,"response":{"Q0":["Two or six legs","Stripes or spots on body","Single or double wings","Antennae or no antennae"]},"question_order":[0],"trial_type":"survey-multi-select","trial_index":4,"time_elapsed":199810,"internal_node_id":"0.0-3.0-1.0","subject_id":"61322d8486840a4a87d32266","study_id":"6197b3f67c2b5cd3b6d9596a","session_id":"6197b59a0ae11082c41004ba","condition":"full-information","relevant_dimensions":["wings","pattern"],"bee_group":{"antennae":"X","wings":"2","pattern":"S","legs":"X"},"correct":true,"bonus":1.6400000000000012},{"rt":28497.5,"response":{"Q1":"No.","Q2":"Based on the four features of the bee.","Q3":"You learn if it was friendly or dangerous, but do not alter your bonus."},"question_order":[0,1,2],"trial_type":"survey-multi-choice","trial_index":5,"time_elapsed":228310,"internal_node_id":"0.0-3.0-2.0","subject_id":"61322d8486840a4a87d32266","study_id":"6197b3f67c2b5cd3b6d9596a","session_id":"6197b59a0ae11082c41004ba","condition":"full-information","relevant_dimensions":["wings","pattern"],"bee_group":{"antennae":"X","wings":"2","pattern":"S","legs":"X"},"correct":true,"bonus":1.6400000000000012},{"rt":5246.199999928474,"stimulus":"<p>Congrats, you got everything right<br>When you're ready, click the button below to continue to the experiment.</p>","response":0,"trial_type":"html-button-response","trial_index":6,"time_elapsed":233558,"internal_node_id":"0.0-3.0-3.0","subject_id":"61322d8486840a4a87d32266","study_id":"6197b3f67c2b5cd3b6d9596a","session_id":"6197b59a0ae11082c41004ba","condition":"full-information","relevant_dimensions":["wings","pattern"],"bee_group":{"antennae":"X","wings":"2","pattern":"S","legs":"X"},"bonus":1.6400000000000012},{"rt":66688.80000007153,"stimulus":"bees-with-color/bee-B2DM.svg","response":0,"trial_type":"image-button-response","trial_index":7,"time_elapsed":300250,"internal_node_id":"0.0-4.0-0.0","subject_id":"61322d8486840a4a87d32266","study_id":"6197b3f67c2b5cd3b6d9596a","session_id":"6197b59a0ae11082c41004ba","condition":"full-information","relevant_dimensions":["wings","pattern"],"bee_group":{"antennae":"X","wings":"2","pattern":"S","legs":"X"},"action":"harvest","summary":"good-harvest","bonus":1.6400000000000012},{"rt":16476.399999976158,"stimulus":"\n                    <p><b>Action: <em>harvest</em></b></p>\n                    <p>This is the bee that you just saw.</p>\n                    <img src=\"bees-with-color/bee-B2DM.svg\" width=\"200\">\n                    <p><span class=\"greenText\"><b>Successful harvest!</b></span><br>Your pay has increased by $0.02. Your bonus pay is now $0.56.</p>\n            ","response":0,"trial_type":"html-button-response","trial_index":8,"time_elapsed":316759,"internal_node_id":"0.0-4.0-1.0","subject_id":"61322d8486840a4a87d32266","study_id":"6197b3f67c2b5cd3b6d9596a","session_id":"6197b59a0ae11082c41004ba","condition":"full-information","relevant_dimensions":["wings","pattern"],"bee_group":{"antennae":"X","wings":"2","pattern":"S","legs":"X"},"bonus":1.6400000000000012},{"rt":21395.700000047684,"stimulus":"bees-with-color/bee-A1SM.svg","response":0,"trial_type":"image-button-response","trial_index":9,"time_elapsed":338157,"internal_node_id":"0.0-4.0-0.1","subject_id":"61322d8486840a4a87d32266","study_id":"6197b3f67c2b5cd3b6d9596a","session_id":"6197b59a0ae11082c41004ba","condition":"full-information","relevant_dimensions":["wings","pattern"],"bee_group":{"antennae":"X","wings":"2","pattern":"S","legs":"X"},"action":"harvest","summary":"good-harvest","bonus":1.6400000000000012},{"rt":7358.800000071526,"stimulus":"\n                    <p><b>Action: <em>harvest</em></b></p>\n                    <p>This is the bee that you just saw.</p>\n                    <img src=\"bees-with-color/bee-A1SM.svg\" width=\"200\">\n                    <p><span class=\"greenText\"><b>Successful harvest!</b></span><br>Your pay has increased by $0.02. Your bonus pay is now $0.58.</p>\n            ","response":0,"trial_type":"html-button-response","trial_index":10,"time_elapsed":345518,"internal_node_id":"0.0-4.0-1.1","subject_id":"61322d8486840a4a87d32266","study_id":"6197b3f67c2b5cd3b6d9596a","session_id":"6197b59a0ae11082c41004ba","condition":"full-information","relevant_dimensions":["wings","pattern"],"bee_group":{"antennae":"X","wings":"2","pattern":"S","legs":"X"},"bonus":1.6400000000000012},{"rt":25210.5,"stimulus":"bees-with-color/bee-A1SF.svg","response":1,"trial_type":"image-button-response","trial_index":11,"time_elapsed":370731,"internal_node_id":"0.0-4.0-0.2","subject_id":"61322d8486840a4a87d32266","study_id":"6197b3f67c2b5cd3b6d9596a","session_id":"6197b59a0ae11082c41004ba","condition":"full-information","relevant_dimensions":["wings","pattern"],"bee_group":{"antennae":"X","wings":"2","pattern":"S","legs":"X"},"action":"avoid","summary":"bad-avoid","bonus":1.6400000000000012},{"rt":7391.399999976158,"stimulus":"\n                    <p><b>Action: <em>avoid</em></b></p>\n                    <p>This is the bee that you just saw.</p>\n                    <img src=\"bees-with-color/bee-A1SF.svg\" width=\"200\">\n                    <p><span class=\"redText\">Bad choice,</span> the bee was friendly.<br>Your bonus pay is unchanged, and remains at $0.58.</p>\n            ","response":0,"trial_type":"html-button-response","trial_index":12,"time_elapsed":378124,"internal_node_id":"0.0-4.0-1.2","subject_id":"61322d8486840a4a87d32266","study_id":"6197b3f67c2b5cd3b6d9596a","session_id":"6197b59a0ae11082c41004ba","condition":"full-information","relevant_dimensions":["wings","pattern"],"bee_group":{"antennae":"X","wings":"2","pattern":"S","legs":"X"},"bonus":1.6400000000000012},{"rt":21938,"stimulus":"bees-with-color/bee-A2SM.svg","response":1,"trial_type":"image-button-response","trial_index":13,"time_elapsed":400063,"internal_node_id":"0.0-4.0-0.3","subject_id":"61322d8486840a4a87d32266","study_id":"6197b3f67c2b5cd3b6d9596a","session_id":"6197b59a0ae11082c41004ba","condition":"full-information","relevant_dimensions":["wings","pattern"],"bee_group":{"antennae":"X","wings":"2","pattern":"S","legs":"X"},"action":"avoid","summary":"good-avoid","bonus":1.6400000000000012},{"rt":8371.700000047684,"stimulus":"\n                    <p><b>Action: <em>avoid</em></b></p>\n                    <p>This is the bee that you just saw.</p>\n                    <img src=\"bees-with-color/bee-A2SM.svg\" width=\"200\">\n                    <p><span class=\"greenText\">Good choice!</span>  This bee would have stung you.<br>Your bonus pay is unchanged, and remains at $0.58.</p>\n            ","response":0,"trial_type":"html-button-response","trial_index":14,"time_elapsed":408436,"internal_node_id":"0.0-4.0-1.3","subject_id":"61322d8486840a4a87d32266","study_id":"6197b3f67c2b5cd3b6d9596a","session_id":"6197b59a0ae11082c41004ba","condition":"full-information","relevant_dimensions":["wings","pattern"],"bee_group":{"antennae":"X","wings":"2","pattern":"S","legs":"X"},"bonus":1.6400000000000012},{"rt":35732.199999928474,"stimulus":"bees-with-color/bee-B2SF.svg","response":0,"trial_type":"image-button-response","trial_index":15,"time_elapsed":444170,"internal_node_id":"0.0-4.0-0.4","subject_id":"61322d8486840a4a87d32266","study_id":"6197b3f67c2b5cd3b6d9596a","session_id":"6197b59a0ae11082c41004ba","condition":"full-information","relevant_dimensions":["wings","pattern"],"bee_group":{"antennae":"X","wings":"2","pattern":"S","legs":"X"},"action":"harvest","summary":"bad-harvest","bonus":1.6400000000000012},{"rt":5660.399999976158,"stimulus":"\n                    <p><b>Action: <em>harvest</em></b></p>\n                    <p>This is the bee that you just saw.</p>\n                    <img src=\"bees-with-color/bee-B2SF.svg\" width=\"200\">\n                    <p><span class=\"redText\">Bad choice, the bee was angry.</span><br><b>You have been stung!</b><br>Your pay has been decreased by $0.10. Your bonus pay is now $0.48.</p>\n            ","response":0,"trial_type":"html-button-response","trial_index":16,"time_elapsed":449832,"internal_node_id":"0.0-4.0-1.4","subject_id":"61322d8486840a4a87d32266","study_id":"6197b3f67c2b5cd3b6d9596a","session_id":"6197b59a0ae11082c41004ba","condition":"full-information","relevant_dimensions":["wings","pattern"],"bee_group":{"antennae":"X","wings":"2","pattern":"S","legs":"X"},"bonus":1.6400000000000012},{"rt":31845.5,"stimulus":"bees-with-color/bee-B1SF.svg","response":0,"trial_type":"image-button-response","trial_index":17,"time_elapsed":481679,"internal_node_id":"0.0-4.0-0.5","subject_id":"61322d8486840a4a87d32266","study_id":"6197b3f67c2b5cd3b6d9596a","session_id":"6197b59a0ae11082c41004ba","condition":"full-information","relevant_dimensions":["wings","pattern"],"bee_group":{"antennae":"X","wings":"2","pattern":"S","legs":"X"},"action":"harvest","summary":"good-harvest","bonus":1.6400000000000012},{"rt":5151,"stimulus":"\n                    <p><b>Action: <em>harvest</em></b></p>\n                    <p>This is the bee that you just saw.</p>\n                    <img src=\"bees-with-color/bee-B1SF.svg\" width=\"200\">\n                    <p><span class=\"greenText\"><b>Successful harvest!</b></span><br>Your pay has increased by $0.02. Your bonus pay is now $0.50.</p>\n            ","response":0,"trial_type":"html-button-response","trial_index":18,"time_elapsed":486832,"internal_node_id":"0.0-4.0-1.5","subject_id":"61322d8486840a4a87d32266","study_id":"6197b3f67c2b5cd3b6d9596a","session_id":"6197b59a0ae11082c41004ba","condition":"full-information","relevant_dimensions":["wings","pattern"],"bee_group":{"antennae":"X","wings":"2","pattern":"S","legs":"X"},"bonus":1.6400000000000012},{"rt":54438,"stimulus":"bees-with-color/bee-B1DM.svg","response":1,"trial_type":"image-button-response","trial_index":19,"time_elapsed":541273,"internal_node_id":"0.0-4.0-0.6","subject_id":"61322d8486840a4a87d32266","study_id":"6197b3f67c2b5cd3b6d9596a","session_id":"6197b59a0ae11082c41004ba","condition":"full-information","relevant_dimensions":["wings","pattern"],"bee_group":{"antennae":"X","wings":"2","pattern":"S","legs":"X"},"action":"avoid","summary":"bad-avoid","bonus":1.6400000000000012},{"rt":14261.099999904633,"stimulus":"\n                    <p><b>Action: <em>avoid</em></b></p>\n                    <p>This is the bee that you just saw.</p>\n                    <img src=\"bees-with-color/bee-B1DM.svg\" width=\"200\">\n                    <p><span class=\"redText\">Bad choice,</span> the bee was friendly.<br>Your bonus pay is unchanged, and remains at $0.50.</p>\n            ","response":0,"trial_type":"html-button-response","trial_index":20,"time_elapsed":555535,"internal_node_id":"0.0-4.0-1.6","subject_id":"61322d8486840a4a87d32266","study_id":"6197b3f67c2b5cd3b6d9596a","session_id":"6197b59a0ae11082c41004ba","condition":"full-information","relevant_dimensions":["wings","pattern"],"bee_group":{"antennae":"X","wings":"2","pattern":"S","legs":"X"},"bonus":1.6400000000000012},{"rt":36822.60000002384,"stimulus":"bees-with-color/bee-A2DF.svg","response":0,"trial_type":"image-button-response","trial_index":21,"time_elapsed":592359,"internal_node_id":"0.0-4.0-0.7","subject_id":"61322d8486840a4a87d32266","study_id":"6197b3f67c2b5cd3b6d9596a","session_id":"6197b59a0ae11082c41004ba","condition":"full-information","relevant_dimensions":["wings","pattern"],"bee_group":{"antennae":"X","wings":"2","pattern":"S","legs":"X"},"action":"harvest","summary":"good-harvest","bonus":1.6400000000000012},{"rt":10427,"stimulus":"\n                    <p><b>Action: <em>harvest</em></b></p>\n                    <p>This is the bee that you just saw.</p>\n                    <img src=\"bees-with-color/bee-A2DF.svg\" width=\"200\">\n                    <p><span class=\"greenText\"><b>Successful harvest!</b></span><br>Your pay has increased by $0.02. Your bonus pay is now $0.52.</p>\n            ","response":0,"trial_type":"html-button-response","trial_index":22,"time_elapsed":602787,"internal_node_id":"0.0-4.0-1.7","subject_id":"61322d8486840a4a87d32266","study_id":"6197b3f67c2b5cd3b6d9596a","session_id":"6197b59a0ae11082c41004ba","condition":"full-information","relevant_dimensions":["wings","pattern"],"bee_group":{"antennae":"X","wings":"2","pattern":"S","legs":"X"},"bonus":1.6400000000000012},{"rt":37515.300000071526,"stimulus":"bees-with-color/bee-A2DM.svg","response":0,"trial_type":"image-button-response","trial_index":23,"time_elapsed":640306,"internal_node_id":"0.0-4.0-0.8","subject_id":"61322d8486840a4a87d32266","study_id":"6197b3f67c2b5cd3b6d9596a","session_id":"6197b59a0ae11082c41004ba","condition":"full-information","relevant_dimensions":["wings","pattern"],"bee_group":{"antennae":"X","wings":"2","pattern":"S","legs":"X"},"action":"harvest","summary":"good-harvest","bonus":1.6400000000000012},{"rt":7192.100000023842,"stimulus":"\n                    <p><b>Action: <em>harvest</em></b></p>\n                    <p>This is the bee that you just saw.</p>\n                    <img src=\"bees-with-color/bee-A2DM.svg\" width=\"200\">\n                    <p><span class=\"greenText\"><b>Successful harvest!</b></span><br>Your pay has increased by $0.02. Your bonus pay is now $0.54.</p>\n            ","response":0,"trial_type":"html-button-response","trial_index":24,"time_elapsed":647499,"internal_node_id":"0.0-4.0-1.8","subject_id":"61322d8486840a4a87d32266","study_id":"6197b3f67c2b5cd3b6d9596a","session_id":"6197b59a0ae11082c41004ba","condition":"full-information","relevant_dimensions":["wings","pattern"],"bee_group":{"antennae":"X","wings":"2","pattern":"S","legs":"X"},"bonus":1.6400000000000012},{"rt":60548.90000009537,"stimulus":"bees-with-color/bee-A1DM.svg","response":1,"trial_type":"image-button-response","trial_index":25,"time_elapsed":708049,"internal_node_id":"0.0-4.0-0.9","subject_id":"61322d8486840a4a87d32266","study_id":"6197b3f67c2b5cd3b6d9596a","session_id":"6197b59a0ae11082c41004ba","condition":"full-information","relevant_dimensions":["wings","pattern"],"bee_group":{"antennae":"X","wings":"2","pattern":"S","legs":"X"},"action":"avoid","summary":"bad-avoid","bonus":1.6400000000000012},{"rt":7225.700000047684,"stimulus":"\n                    <p><b>Action: <em>avoid</em></b></p>\n                    <p>This is the bee that you just saw.</p>\n                    <img src=\"bees-with-color/bee-A1DM.svg\" width=\"200\">\n                    <p><span class=\"redText\">Bad choice,</span> the bee was friendly.<br>Your bonus pay is unchanged, and remains at $0.54.</p>\n            ","response":0,"trial_type":"html-button-response","trial_index":26,"time_elapsed":715277,"internal_node_id":"0.0-4.0-1.9","subject_id":"61322d8486840a4a87d32266","study_id":"6197b3f67c2b5cd3b6d9596a","session_id":"6197b59a0ae11082c41004ba","condition":"full-information","relevant_dimensions":["wings","pattern"],"bee_group":{"antennae":"X","wings":"2","pattern":"S","legs":"X"},"bonus":1.6400000000000012},{"rt":80268.10000002384,"stimulus":"bees-with-color/bee-A2SF.svg","response":1,"trial_type":"image-button-response","trial_index":27,"time_elapsed":795547,"internal_node_id":"0.0-4.0-0.10","subject_id":"61322d8486840a4a87d32266","study_id":"6197b3f67c2b5cd3b6d9596a","session_id":"6197b59a0ae11082c41004ba","condition":"full-information","relevant_dimensions":["wings","pattern"],"bee_group":{"antennae":"X","wings":"2","pattern":"S","legs":"X"},"action":"avoid","summary":"good-avoid","bonus":1.6400000000000012},{"rt":18023,"stimulus":"\n                    <p><b>Action: <em>avoid</em></b></p>\n                    <p>This is the bee that you just saw.</p>\n                    <img src=\"bees-with-color/bee-A2SF.svg\" width=\"200\">\n                    <p><span class=\"greenText\">Good choice!</span>  This bee would have stung you.<br>Your bonus pay is unchanged, and remains at $0.54.</p>\n            ","response":0,"trial_type":"html-button-response","trial_index":28,"time_elapsed":813572,"internal_node_id":"0.0-4.0-1.10","subject_id":"61322d8486840a4a87d32266","study_id":"6197b3f67c2b5cd3b6d9596a","session_id":"6197b59a0ae11082c41004ba","condition":"full-information","relevant_dimensions":["wings","pattern"],"bee_group":{"antennae":"X","wings":"2","pattern":"S","legs":"X"},"bonus":1.6400000000000012},{"rt":54020.39999997616,"stimulus":"bees-with-color/bee-B1DF.svg","response":1,"trial_type":"image-button-response","trial_index":29,"time_elapsed":867594,"internal_node_id":"0.0-4.0-0.11","subject_id":"61322d8486840a4a87d32266","study_id":"6197b3f67c2b5cd3b6d9596a","session_id":"6197b59a0ae11082c41004ba","condition":"full-information","relevant_dimensions":["wings","pattern"],"bee_group":{"antennae":"X","wings":"2","pattern":"S","legs":"X"},"action":"avoid","summary":"bad-avoid","bonus":1.6400000000000012},{"rt":7648.300000071526,"stimulus":"\n                    <p><b>Action: <em>avoid</em></b></p>\n                    <p>This is the bee that you just saw.</p>\n                    <img src=\"bees-with-color/bee-B1DF.svg\" width=\"200\">\n                    <p><span class=\"redText\">Bad choice,</span> the bee was friendly.<br>Your bonus pay is unchanged, and remains at $0.54.</p>\n            ","response":0,"trial_type":"html-button-response","trial_index":30,"time_elapsed":875243,"internal_node_id":"0.0-4.0-1.11","subject_id":"61322d8486840a4a87d32266","study_id":"6197b3f67c2b5cd3b6d9596a","session_id":"6197b59a0ae11082c41004ba","condition":"full-information","relevant_dimensions":["wings","pattern"],"bee_group":{"antennae":"X","wings":"2","pattern":"S","legs":"X"},"bonus":1.6400000000000012},{"rt":47496.799999952316,"stimulus":"bees-with-color/bee-B2SM.svg","response":0,"trial_type":"image-button-response","trial_index":31,"time_elapsed":922742,"internal_node_id":"0.0-4.0-0.12","subject_id":"61322d8486840a4a87d32266","study_id":"6197b3f67c2b5cd3b6d9596a","session_id":"6197b59a0ae11082c41004ba","condition":"full-information","relevant_dimensions":["wings","pattern"],"bee_group":{"antennae":"X","wings":"2","pattern":"S","legs":"X"},"action":"harvest","summary":"bad-harvest","bonus":1.6400000000000012},{"rt":5266.200000047684,"stimulus":"\n                    <p><b>Action: <em>harvest</em></b></p>\n                    <p>This is the bee that you just saw.</p>\n                    <img src=\"bees-with-color/bee-B2SM.svg\" width=\"200\">\n                    <p><span class=\"redText\">Bad choice, the bee was angry.</span><br><b>You have been stung!</b><br>Your pay has been decreased by $0.10. Your bonus pay is now $0.44.</p>\n            ","response":0,"trial_type":"html-button-response","trial_index":32,"time_elapsed":928010,"internal_node_id":"0.0-4.0-1.12","subject_id":"61322d8486840a4a87d32266","study_id":"6197b3f67c2b5cd3b6d9596a","session_id":"6197b59a0ae11082c41004ba","condition":"full-information","relevant_dimensions":["wings","pattern"],"bee_group":{"antennae":"X","wings":"2","pattern":"S","legs":"X"},"bonus":1.6400000000000012},{"rt":45689.5,"stimulus":"bees-with-color/bee-B1SM.svg","response":0,"trial_type":"image-button-response","trial_index":33,"time_elapsed":973701,"internal_node_id":"0.0-4.0-0.13","subject_id":"61322d8486840a4a87d32266","study_id":"6197b3f67c2b5cd3b6d9596a","session_id":"6197b59a0ae11082c41004ba","condition":"full-information","relevant_dimensions":["wings","pattern"],"bee_group":{"antennae":"X","wings":"2","pattern":"S","legs":"X"},"action":"harvest","summary":"good-harvest","bonus":1.6400000000000012},{"rt":5170.600000023842,"stimulus":"\n                    <p><b>Action: <em>harvest</em></b></p>\n                    <p>This is the bee that you just saw.</p>\n                    <img src=\"bees-with-color/bee-B1SM.svg\" width=\"200\">\n                    <p><span class=\"greenText\"><b>Successful harvest!</b></span><br>Your pay has increased by $0.02. Your bonus pay is now $0.46.</p>\n            ","response":0,"trial_type":"html-button-response","trial_index":34,"time_elapsed":978873,"internal_node_id":"0.0-4.0-1.13","subject_id":"61322d8486840a4a87d32266","study_id":"6197b3f67c2b5cd3b6d9596a","session_id":"6197b59a0ae11082c41004ba","condition":"full-information","relevant_dimensions":["wings","pattern"],"bee_group":{"antennae":"X","wings":"2","pattern":"S","legs":"X"},"bonus":1.6400000000000012},{"rt":50639.39999997616,"stimulus":"bees-with-color/bee-A1DF.svg","response":0,"trial_type":"image-button-response","trial_index":35,"time_elapsed":1029514,"internal_node_id":"0.0-4.0-0.14","subject_id":"61322d8486840a4a87d32266","study_id":"6197b3f67c2b5cd3b6d9596a","session_id":"6197b59a0ae11082c41004ba","condition":"full-information","relevant_dimensions":["wings","pattern"],"bee_group":{"antennae":"X","wings":"2","pattern":"S","legs":"X"},"action":"harvest","summary":"good-harvest","bonus":1.6400000000000012},{"rt":7591.900000095367,"stimulus":"\n                    <p><b>Action: <em>harvest</em></b></p>\n                    <p>This is the bee that you just saw.</p>\n                    <img src=\"bees-with-color/bee-A1DF.svg\" width=\"200\">\n                    <p><span class=\"greenText\"><b>Successful harvest!</b></span><br>Your pay has increased by $0.02. Your bonus pay is now $0.48.</p>\n            ","response":0,"trial_type":"html-button-response","trial_index":36,"time_elapsed":1037107,"internal_node_id":"0.0-4.0-1.14","subject_id":"61322d8486840a4a87d32266","study_id":"6197b3f67c2b5cd3b6d9596a","session_id":"6197b59a0ae11082c41004ba","condition":"full-information","relevant_dimensions":["wings","pattern"],"bee_group":{"antennae":"X","wings":"2","pattern":"S","legs":"X"},"bonus":1.6400000000000012},{"rt":44256.299999952316,"stimulus":"bees-with-color/bee-B2DF.svg","response":0,"trial_type":"image-button-response","trial_index":37,"time_elapsed":1081365,"internal_node_id":"0.0-4.0-0.15","subject_id":"61322d8486840a4a87d32266","study_id":"6197b3f67c2b5cd3b6d9596a","session_id":"6197b59a0ae11082c41004ba","condition":"full-information","relevant_dimensions":["wings","pattern"],"bee_group":{"antennae":"X","wings":"2","pattern":"S","legs":"X"},"action":"harvest","summary":"good-harvest","bonus":1.6400000000000012},{"rt":6297.699999928474,"stimulus":"\n                    <p><b>Action: <em>harvest</em></b></p>\n                    <p>This is the bee that you just saw.</p>\n                    <img src=\"bees-with-color/bee-B2DF.svg\" width=\"200\">\n                    <p><span class=\"greenText\"><b>Successful harvest!</b></span><br>Your pay has increased by $0.02. Your bonus pay is now $0.50.</p>\n            ","response":0,"trial_type":"html-button-response","trial_index":38,"time_elapsed":1087664,"internal_node_id":"0.0-4.0-1.15","subject_id":"61322d8486840a4a87d32266","study_id":"6197b3f67c2b5cd3b6d9596a","session_id":"6197b59a0ae11082c41004ba","condition":"full-information","relevant_dimensions":["wings","pattern"],"bee_group":{"antennae":"X","wings":"2","pattern":"S","legs":"X"},"bonus":1.6400000000000012},{"rt":23028.200000047684,"stimulus":"bees-with-color/bee-A1SM.svg","response":0,"trial_type":"image-button-response","trial_index":39,"time_elapsed":1110694,"internal_node_id":"0.0-4.0-0.16","subject_id":"61322d8486840a4a87d32266","study_id":"6197b3f67c2b5cd3b6d9596a","session_id":"6197b59a0ae11082c41004ba","condition":"full-information","relevant_dimensions":["wings","pattern"],"bee_group":{"antennae":"X","wings":"2","pattern":"S","legs":"X"},"action":"harvest","summary":"good-harvest","bonus":1.6400000000000012},{"rt":5986.600000023842,"stimulus":"\n                    <p><b>Action: <em>harvest</em></b></p>\n                    <p>This is the bee that you just saw.</p>\n                    <img src=\"bees-with-color/bee-A1SM.svg\" width=\"200\">\n                    <p><span class=\"greenText\"><b>Successful harvest!</b></span><br>Your pay has increased by $0.02. Your bonus pay is now $0.52.</p>\n            ","response":0,"trial_type":"html-button-response","trial_index":40,"time_elapsed":1116682,"internal_node_id":"0.0-4.0-1.16","subject_id":"61322d8486840a4a87d32266","study_id":"6197b3f67c2b5cd3b6d9596a","session_id":"6197b59a0ae11082c41004ba","condition":"full-information","relevant_dimensions":["wings","pattern"],"bee_group":{"antennae":"X","wings":"2","pattern":"S","legs":"X"},"bonus":1.6400000000000012},{"rt":23740.600000023842,"stimulus":"bees-with-color/bee-B1DF.svg","response":0,"trial_type":"image-button-response","trial_index":41,"time_elapsed":1140424,"internal_node_id":"0.0-4.0-0.17","subject_id":"61322d8486840a4a87d32266","study_id":"6197b3f67c2b5cd3b6d9596a","session_id":"6197b59a0ae11082c41004ba","condition":"full-information","relevant_dimensions":["wings","pattern"],"bee_group":{"antennae":"X","wings":"2","pattern":"S","legs":"X"},"action":"harvest","summary":"good-harvest","bonus":1.6400000000000012},{"rt":1761.3000000715256,"stimulus":"\n                    <p><b>Action: <em>harvest</em></b></p>\n                    <p>This is the bee that you just saw.</p>\n                    <img src=\"bees-with-color/bee-B1DF.svg\" width=\"200\">\n                    <p><span class=\"greenText\"><b>Successful harvest!</b></span><br>Your pay has increased by $0.02. Your bonus pay is now $0.54.</p>\n            ","response":0,"trial_type":"html-button-response","trial_index":42,"time_elapsed":1142187,"internal_node_id":"0.0-4.0-1.17","subject_id":"61322d8486840a4a87d32266","study_id":"6197b3f67c2b5cd3b6d9596a","session_id":"6197b59a0ae11082c41004ba","condition":"full-information","relevant_dimensions":["wings","pattern"],"bee_group":{"antennae":"X","wings":"2","pattern":"S","legs":"X"},"bonus":1.6400000000000012},{"rt":19880.200000047684,"stimulus":"bees-with-color/bee-A1SF.svg","response":0,"trial_type":"image-button-response","trial_index":43,"time_elapsed":1162069,"internal_node_id":"0.0-4.0-0.18","subject_id":"61322d8486840a4a87d32266","study_id":"6197b3f67c2b5cd3b6d9596a","session_id":"6197b59a0ae11082c41004ba","condition":"full-information","relevant_dimensions":["wings","pattern"],"bee_group":{"antennae":"X","wings":"2","pattern":"S","legs":"X"},"action":"harvest","summary":"good-harvest","bonus":1.6400000000000012},{"rt":1965.6000000238419,"stimulus":"\n                    <p><b>Action: <em>harvest</em></b></p>\n                    <p>This is the bee that you just saw.</p>\n                    <img src=\"bees-with-color/bee-A1SF.svg\" width=\"200\">\n                    <p><span class=\"greenText\"><b>Successful harvest!</b></span><br>Your pay has increased by $0.02. Your bonus pay is now $0.56.</p>\n            ","response":0,"trial_type":"html-button-response","trial_index":44,"time_elapsed":1164036,"internal_node_id":"0.0-4.0-1.18","subject_id":"61322d8486840a4a87d32266","study_id":"6197b3f67c2b5cd3b6d9596a","session_id":"6197b59a0ae11082c41004ba","condition":"full-information","relevant_dimensions":["wings","pattern"],"bee_group":{"antennae":"X","wings":"2","pattern":"S","legs":"X"},"bonus":1.6400000000000012},{"rt":61496.5,"stimulus":"bees-with-color/bee-A2SF.svg","response":1,"trial_type":"image-button-response","trial_index":45,"time_elapsed":1225534,"internal_node_id":"0.0-4.0-0.19","subject_id":"61322d8486840a4a87d32266","study_id":"6197b3f67c2b5cd3b6d9596a","session_id":"6197b59a0ae11082c41004ba","condition":"full-information","relevant_dimensions":["wings","pattern"],"bee_group":{"antennae":"X","wings":"2","pattern":"S","legs":"X"},"action":"avoid","summary":"good-avoid","bonus":1.6400000000000012},{"rt":7510.799999952316,"stimulus":"\n                    <p><b>Action: <em>avoid</em></b></p>\n                    <p>This is the bee that you just saw.</p>\n                    <img src=\"bees-with-color/bee-A2SF.svg\" width=\"200\">\n                    <p><span class=\"greenText\">Good choice!</span>  This bee would have stung you.<br>Your bonus pay is unchanged, and remains at $0.56.</p>\n            ","response":0,"trial_type":"html-button-response","trial_index":46,"time_elapsed":1233046,"internal_node_id":"0.0-4.0-1.19","subject_id":"61322d8486840a4a87d32266","study_id":"6197b3f67c2b5cd3b6d9596a","session_id":"6197b59a0ae11082c41004ba","condition":"full-information","relevant_dimensions":["wings","pattern"],"bee_group":{"antennae":"X","wings":"2","pattern":"S","legs":"X"},"bonus":1.6400000000000012},{"rt":17764.100000023842,"stimulus":"bees-with-color/bee-B1DM.svg","response":0,"trial_type":"image-button-response","trial_index":47,"time_elapsed":1250812,"internal_node_id":"0.0-4.0-0.20","subject_id":"61322d8486840a4a87d32266","study_id":"6197b3f67c2b5cd3b6d9596a","session_id":"6197b59a0ae11082c41004ba","condition":"full-information","relevant_dimensions":["wings","pattern"],"bee_group":{"antennae":"X","wings":"2","pattern":"S","legs":"X"},"action":"harvest","summary":"good-harvest","bonus":1.6400000000000012},{"rt":2865.5,"stimulus":"\n                    <p><b>Action: <em>harvest</em></b></p>\n                    <p>This is the bee that you just saw.</p>\n                    <img src=\"bees-with-color/bee-B1DM.svg\" width=\"200\">\n                    <p><span class=\"greenText\"><b>Successful harvest!</b></span><br>Your pay has increased by $0.02. Your bonus pay is now $0.58.</p>\n            ","response":0,"trial_type":"html-button-response","trial_index":48,"time_elapsed":1253679,"internal_node_id":"0.0-4.0-1.20","subject_id":"61322d8486840a4a87d32266","study_id":"6197b3f67c2b5cd3b6d9596a","session_id":"6197b59a0ae11082c41004ba","condition":"full-information","relevant_dimensions":["wings","pattern"],"bee_group":{"antennae":"X","wings":"2","pattern":"S","legs":"X"},"bonus":1.6400000000000012},{"rt":11378.5,"stimulus":"bees-with-color/bee-B2SF.svg","response":1,"trial_type":"image-button-response","trial_index":49,"time_elapsed":1265059,"internal_node_id":"0.0-4.0-0.21","subject_id":"61322d8486840a4a87d32266","study_id":"6197b3f67c2b5cd3b6d9596a","session_id":"6197b59a0ae11082c41004ba","condition":"full-information","relevant_dimensions":["wings","pattern"],"bee_group":{"antennae":"X","wings":"2","pattern":"S","legs":"X"},"action":"avoid","summary":"good-avoid","bonus":1.6400000000000012},{"rt":1991.1000000238419,"stimulus":"\n                    <p><b>Action: <em>avoid</em></b></p>\n                    <p>This is the bee that you just saw.</p>\n                    <img src=\"bees-with-color/bee-B2SF.svg\" width=\"200\">\n                    <p><span class=\"greenText\">Good choice!</span>  This bee would have stung you.<br>Your bonus pay is unchanged, and remains at $0.58.</p>\n            ","response":0,"trial_type":"html-button-response","trial_index":50,"time_elapsed":1267052,"internal_node_id":"0.0-4.0-1.21","subject_id":"61322d8486840a4a87d32266","study_id":"6197b3f67c2b5cd3b6d9596a","session_id":"6197b59a0ae11082c41004ba","condition":"full-information","relevant_dimensions":["wings","pattern"],"bee_group":{"antennae":"X","wings":"2","pattern":"S","legs":"X"},"bonus":1.6400000000000012},{"rt":7868.300000071526,"stimulus":"bees-with-color/bee-B2DM.svg","response":0,"trial_type":"image-button-response","trial_index":51,"time_elapsed":1274922,"internal_node_id":"0.0-4.0-0.22","subject_id":"61322d8486840a4a87d32266","study_id":"6197b3f67c2b5cd3b6d9596a","session_id":"6197b59a0ae11082c41004ba","condition":"full-information","relevant_dimensions":["wings","pattern"],"bee_group":{"antennae":"X","wings":"2","pattern":"S","legs":"X"},"action":"harvest","summary":"good-harvest","bonus":1.6400000000000012},{"rt":5959.899999976158,"stimulus":"\n                    <p><b>Action: <em>harvest</em></b></p>\n                    <p>This is the bee that you just saw.</p>\n                    <img src=\"bees-with-color/bee-B2DM.svg\" width=\"200\">\n                    <p><span class=\"greenText\"><b>Successful harvest!</b></span><br>Your pay has increased by $0.02. Your bonus pay is now $0.60.</p>\n            ","response":0,"trial_type":"html-button-response","trial_index":52,"time_elapsed":1280883,"internal_node_id":"0.0-4.0-1.22","subject_id":"61322d8486840a4a87d32266","study_id":"6197b3f67c2b5cd3b6d9596a","session_id":"6197b59a0ae11082c41004ba","condition":"full-information","relevant_dimensions":["wings","pattern"],"bee_group":{"antennae":"X","wings":"2","pattern":"S","legs":"X"},"bonus":1.6400000000000012},{"rt":30008.200000047684,"stimulus":"bees-with-color/bee-B1SM.svg","response":0,"trial_type":"image-button-response","trial_index":53,"time_elapsed":1310893,"internal_node_id":"0.0-4.0-0.23","subject_id":"61322d8486840a4a87d32266","study_id":"6197b3f67c2b5cd3b6d9596a","session_id":"6197b59a0ae11082c41004ba","condition":"full-information","relevant_dimensions":["wings","pattern"],"bee_group":{"antennae":"X","wings":"2","pattern":"S","legs":"X"},"action":"harvest","summary":"good-harvest","bonus":1.6400000000000012},{"rt":2017.2999999523163,"stimulus":"\n                    <p><b>Action: <em>harvest</em></b></p>\n                    <p>This is the bee that you just saw.</p>\n                    <img src=\"bees-with-color/bee-B1SM.svg\" width=\"200\">\n                    <p><span class=\"greenText\"><b>Successful harvest!</b></span><br>Your pay has increased by $0.02. Your bonus pay is now $0.62.</p>\n            ","response":0,"trial_type":"html-button-response","trial_index":54,"time_elapsed":1312912,"internal_node_id":"0.0-4.0-1.23","subject_id":"61322d8486840a4a87d32266","study_id":"6197b3f67c2b5cd3b6d9596a","session_id":"6197b59a0ae11082c41004ba","condition":"full-information","relevant_dimensions":["wings","pattern"],"bee_group":{"antennae":"X","wings":"2","pattern":"S","legs":"X"},"bonus":1.6400000000000012},{"rt":21235.199999928474,"stimulus":"bees-with-color/bee-A2SM.svg","response":1,"trial_type":"image-button-response","trial_index":55,"time_elapsed":1334149,"internal_node_id":"0.0-4.0-0.24","subject_id":"61322d8486840a4a87d32266","study_id":"6197b3f67c2b5cd3b6d9596a","session_id":"6197b59a0ae11082c41004ba","condition":"full-information","relevant_dimensions":["wings","pattern"],"bee_group":{"antennae":"X","wings":"2","pattern":"S","legs":"X"},"action":"avoid","summary":"good-avoid","bonus":1.6400000000000012},{"rt":2071.5,"stimulus":"\n                    <p><b>Action: <em>avoid</em></b></p>\n                    <p>This is the bee that you just saw.</p>\n                    <img src=\"bees-with-color/bee-A2SM.svg\" width=\"200\">\n                    <p><span class=\"greenText\">Good choice!</span>  This bee would have stung you.<br>Your bonus pay is unchanged, and remains at $0.62.</p>\n            ","response":0,"trial_type":"html-button-response","trial_index":56,"time_elapsed":1336222,"internal_node_id":"0.0-4.0-1.24","subject_id":"61322d8486840a4a87d32266","study_id":"6197b3f67c2b5cd3b6d9596a","session_id":"6197b59a0ae11082c41004ba","condition":"full-information","relevant_dimensions":["wings","pattern"],"bee_group":{"antennae":"X","wings":"2","pattern":"S","legs":"X"},"bonus":1.6400000000000012},{"rt":24379.399999976158,"stimulus":"bees-with-color/bee-A1DM.svg","response":0,"trial_type":"image-button-response","trial_index":57,"time_elapsed":1360604,"internal_node_id":"0.0-4.0-0.25","subject_id":"61322d8486840a4a87d32266","study_id":"6197b3f67c2b5cd3b6d9596a","session_id":"6197b59a0ae11082c41004ba","condition":"full-information","relevant_dimensions":["wings","pattern"],"bee_group":{"antennae":"X","wings":"2","pattern":"S","legs":"X"},"action":"harvest","summary":"good-harvest","bonus":1.6400000000000012},{"rt":2162.5,"stimulus":"\n                    <p><b>Action: <em>harvest</em></b></p>\n                    <p>This is the bee that you just saw.</p>\n                    <img src=\"bees-with-color/bee-A1DM.svg\" width=\"200\">\n                    <p><span class=\"greenText\"><b>Successful harvest!</b></span><br>Your pay has increased by $0.02. Your bonus pay is now $0.64.</p>\n            ","response":0,"trial_type":"html-button-response","trial_index":58,"time_elapsed":1362767,"internal_node_id":"0.0-4.0-1.25","subject_id":"61322d8486840a4a87d32266","study_id":"6197b3f67c2b5cd3b6d9596a","session_id":"6197b59a0ae11082c41004ba","condition":"full-information","relevant_dimensions":["wings","pattern"],"bee_group":{"antennae":"X","wings":"2","pattern":"S","legs":"X"},"bonus":1.6400000000000012},{"rt":15599.399999976158,"stimulus":"bees-with-color/bee-B1SF.svg","response":0,"trial_type":"image-button-response","trial_index":59,"time_elapsed":1378368,"internal_node_id":"0.0-4.0-0.26","subject_id":"61322d8486840a4a87d32266","study_id":"6197b3f67c2b5cd3b6d9596a","session_id":"6197b59a0ae11082c41004ba","condition":"full-information","relevant_dimensions":["wings","pattern"],"bee_group":{"antennae":"X","wings":"2","pattern":"S","legs":"X"},"action":"harvest","summary":"good-harvest","bonus":1.6400000000000012},{"rt":1871.7000000476837,"stimulus":"\n                    <p><b>Action: <em>harvest</em></b></p>\n                    <p>This is the bee that you just saw.</p>\n                    <img src=\"bees-with-color/bee-B1SF.svg\" width=\"200\">\n                    <p><span class=\"greenText\"><b>Successful harvest!</b></span><br>Your pay has increased by $0.02. Your bonus pay is now $0.66.</p>\n            ","response":0,"trial_type":"html-button-response","trial_index":60,"time_elapsed":1380242,"internal_node_id":"0.0-4.0-1.26","subject_id":"61322d8486840a4a87d32266","study_id":"6197b3f67c2b5cd3b6d9596a","session_id":"6197b59a0ae11082c41004ba","condition":"full-information","relevant_dimensions":["wings","pattern"],"bee_group":{"antennae":"X","wings":"2","pattern":"S","legs":"X"},"bonus":1.6400000000000012},{"rt":28823.600000023842,"stimulus":"bees-with-color/bee-A1DF.svg","response":0,"trial_type":"image-button-response","trial_index":61,"time_elapsed":1409067,"internal_node_id":"0.0-4.0-0.27","subject_id":"61322d8486840a4a87d32266","study_id":"6197b3f67c2b5cd3b6d9596a","session_id":"6197b59a0ae11082c41004ba","condition":"full-information","relevant_dimensions":["wings","pattern"],"bee_group":{"antennae":"X","wings":"2","pattern":"S","legs":"X"},"action":"harvest","summary":"good-harvest","bonus":1.6400000000000012},{"rt":2698.100000023842,"stimulus":"\n                    <p><b>Action: <em>harvest</em></b></p>\n                    <p>This is the bee that you just saw.</p>\n                    <img src=\"bees-with-color/bee-A1DF.svg\" width=\"200\">\n                    <p><span class=\"greenText\"><b>Successful harvest!</b></span><br>Your pay has increased by $0.02. Your bonus pay is now $0.68.</p>\n            ","response":0,"trial_type":"html-button-response","trial_index":62,"time_elapsed":1411767,"internal_node_id":"0.0-4.0-1.27","subject_id":"61322d8486840a4a87d32266","study_id":"6197b3f67c2b5cd3b6d9596a","session_id":"6197b59a0ae11082c41004ba","condition":"full-information","relevant_dimensions":["wings","pattern"],"bee_group":{"antennae":"X","wings":"2","pattern":"S","legs":"X"},"bonus":1.6400000000000012},{"rt":31601.199999928474,"stimulus":"bees-with-color/bee-B2DF.svg","response":0,"trial_type":"image-button-response","trial_index":63,"time_elapsed":1443369,"internal_node_id":"0.0-4.0-0.28","subject_id":"61322d8486840a4a87d32266","study_id":"6197b3f67c2b5cd3b6d9596a","session_id":"6197b59a0ae11082c41004ba","condition":"full-information","relevant_dimensions":["wings","pattern"],"bee_group":{"antennae":"X","wings":"2","pattern":"S","legs":"X"},"action":"harvest","summary":"good-harvest","bonus":1.6400000000000012},{"rt":3840,"stimulus":"\n                    <p><b>Action: <em>harvest</em></b></p>\n                    <p>This is the bee that you just saw.</p>\n                    <img src=\"bees-with-color/bee-B2DF.svg\" width=\"200\">\n                    <p><span class=\"greenText\"><b>Successful harvest!</b></span><br>Your pay has increased by $0.02. Your bonus pay is now $0.70.</p>\n            ","response":0,"trial_type":"html-button-response","trial_index":64,"time_elapsed":1447210,"internal_node_id":"0.0-4.0-1.28","subject_id":"61322d8486840a4a87d32266","study_id":"6197b3f67c2b5cd3b6d9596a","session_id":"6197b59a0ae11082c41004ba","condition":"full-information","relevant_dimensions":["wings","pattern"],"bee_group":{"antennae":"X","wings":"2","pattern":"S","legs":"X"},"bonus":1.6400000000000012},{"rt":23557.700000047684,"stimulus":"bees-with-color/bee-B2SM.svg","response":1,"trial_type":"image-button-response","trial_index":65,"time_elapsed":1470770,"internal_node_id":"0.0-4.0-0.29","subject_id":"61322d8486840a4a87d32266","study_id":"6197b3f67c2b5cd3b6d9596a","session_id":"6197b59a0ae11082c41004ba","condition":"full-information","relevant_dimensions":["wings","pattern"],"bee_group":{"antennae":"X","wings":"2","pattern":"S","legs":"X"},"action":"avoid","summary":"good-avoid","bonus":1.6400000000000012},{"rt":2413.7000000476837,"stimulus":"\n                    <p><b>Action: <em>avoid</em></b></p>\n                    <p>This is the bee that you just saw.</p>\n                    <img src=\"bees-with-color/bee-B2SM.svg\" width=\"200\">\n                    <p><span class=\"greenText\">Good choice!</span>  This bee would have stung you.<br>Your bonus pay is unchanged, and remains at $0.70.</p>\n            ","response":0,"trial_type":"html-button-response","trial_index":66,"time_elapsed":1473185,"internal_node_id":"0.0-4.0-1.29","subject_id":"61322d8486840a4a87d32266","study_id":"6197b3f67c2b5cd3b6d9596a","session_id":"6197b59a0ae11082c41004ba","condition":"full-information","relevant_dimensions":["wings","pattern"],"bee_group":{"antennae":"X","wings":"2","pattern":"S","legs":"X"},"bonus":1.6400000000000012},{"rt":11464.200000047684,"stimulus":"bees-with-color/bee-A2DF.svg","response":0,"trial_type":"image-button-response","trial_index":67,"time_elapsed":1484651,"internal_node_id":"0.0-4.0-0.30","subject_id":"61322d8486840a4a87d32266","study_id":"6197b3f67c2b5cd3b6d9596a","session_id":"6197b59a0ae11082c41004ba","condition":"full-information","relevant_dimensions":["wings","pattern"],"bee_group":{"antennae":"X","wings":"2","pattern":"S","legs":"X"},"action":"harvest","summary":"good-harvest","bonus":1.6400000000000012},{"rt":1763.6000000238419,"stimulus":"\n                    <p><b>Action: <em>harvest</em></b></p>\n                    <p>This is the bee that you just saw.</p>\n                    <img src=\"bees-with-color/bee-A2DF.svg\" width=\"200\">\n                    <p><span class=\"greenText\"><b>Successful harvest!</b></span><br>Your pay has increased by $0.02. Your bonus pay is now $0.72.</p>\n            ","response":0,"trial_type":"html-button-response","trial_index":68,"time_elapsed":1486416,"internal_node_id":"0.0-4.0-1.30","subject_id":"61322d8486840a4a87d32266","study_id":"6197b3f67c2b5cd3b6d9596a","session_id":"6197b59a0ae11082c41004ba","condition":"full-information","relevant_dimensions":["wings","pattern"],"bee_group":{"antennae":"X","wings":"2","pattern":"S","legs":"X"},"bonus":1.6400000000000012},{"rt":21873.200000047684,"stimulus":"bees-with-color/bee-A2DM.svg","response":0,"trial_type":"image-button-response","trial_index":69,"time_elapsed":1508291,"internal_node_id":"0.0-4.0-0.31","subject_id":"61322d8486840a4a87d32266","study_id":"6197b3f67c2b5cd3b6d9596a","session_id":"6197b59a0ae11082c41004ba","condition":"full-information","relevant_dimensions":["wings","pattern"],"bee_group":{"antennae":"X","wings":"2","pattern":"S","legs":"X"},"action":"harvest","summary":"good-harvest","bonus":1.6400000000000012},{"rt":1517.9000000953674,"stimulus":"\n                    <p><b>Action: <em>harvest</em></b></p>\n                    <p>This is the bee that you just saw.</p>\n                    <img src=\"bees-with-color/bee-A2DM.svg\" width=\"200\">\n                    <p><span class=\"greenText\"><b>Successful harvest!</b></span><br>Your pay has increased by $0.02. Your bonus pay is now $0.74.</p>\n            ","response":0,"trial_type":"html-button-response","trial_index":70,"time_elapsed":1509810,"internal_node_id":"0.0-4.0-1.31","subject_id":"61322d8486840a4a87d32266","study_id":"6197b3f67c2b5cd3b6d9596a","session_id":"6197b59a0ae11082c41004ba","condition":"full-information","relevant_dimensions":["wings","pattern"],"bee_group":{"antennae":"X","wings":"2","pattern":"S","legs":"X"},"bonus":1.6400000000000012},{"rt":13049,"stimulus":"bees-with-color/bee-A2DM.svg","response":0,"trial_type":"image-button-response","trial_index":71,"time_elapsed":1522861,"internal_node_id":"0.0-4.0-0.32","subject_id":"61322d8486840a4a87d32266","study_id":"6197b3f67c2b5cd3b6d9596a","session_id":"6197b59a0ae11082c41004ba","condition":"full-information","relevant_dimensions":["wings","pattern"],"bee_group":{"antennae":"X","wings":"2","pattern":"S","legs":"X"},"action":"harvest","summary":"good-harvest","bonus":1.6400000000000012},{"rt":1076.3999999761581,"stimulus":"\n                    <p><b>Action: <em>harvest</em></b></p>\n                    <p>This is the bee that you just saw.</p>\n                    <img src=\"bees-with-color/bee-A2DM.svg\" width=\"200\">\n                    <p><span class=\"greenText\"><b>Successful harvest!</b></span><br>Your pay has increased by $0.02. Your bonus pay is now $0.76.</p>\n            ","response":0,"trial_type":"html-button-response","trial_index":72,"time_elapsed":1523939,"internal_node_id":"0.0-4.0-1.32","subject_id":"61322d8486840a4a87d32266","study_id":"6197b3f67c2b5cd3b6d9596a","session_id":"6197b59a0ae11082c41004ba","condition":"full-information","relevant_dimensions":["wings","pattern"],"bee_group":{"antennae":"X","wings":"2","pattern":"S","legs":"X"},"bonus":1.6400000000000012},{"rt":21932.299999952316,"stimulus":"bees-with-color/bee-B1SM.svg","response":0,"trial_type":"image-button-response","trial_index":73,"time_elapsed":1545873,"internal_node_id":"0.0-4.0-0.33","subject_id":"61322d8486840a4a87d32266","study_id":"6197b3f67c2b5cd3b6d9596a","session_id":"6197b59a0ae11082c41004ba","condition":"full-information","relevant_dimensions":["wings","pattern"],"bee_group":{"antennae":"X","wings":"2","pattern":"S","legs":"X"},"action":"harvest","summary":"good-harvest","bonus":1.6400000000000012},{"rt":1426,"stimulus":"\n                    <p><b>Action: <em>harvest</em></b></p>\n                    <p>This is the bee that you just saw.</p>\n                    <img src=\"bees-with-color/bee-B1SM.svg\" width=\"200\">\n                    <p><span class=\"greenText\"><b>Successful harvest!</b></span><br>Your pay has increased by $0.02. Your bonus pay is now $0.78.</p>\n            ","response":0,"trial_type":"html-button-response","trial_index":74,"time_elapsed":1547301,"internal_node_id":"0.0-4.0-1.33","subject_id":"61322d8486840a4a87d32266","study_id":"6197b3f67c2b5cd3b6d9596a","session_id":"6197b59a0ae11082c41004ba","condition":"full-information","relevant_dimensions":["wings","pattern"],"bee_group":{"antennae":"X","wings":"2","pattern":"S","legs":"X"},"bonus":1.6400000000000012},{"rt":16156.199999928474,"stimulus":"bees-with-color/bee-B2DM.svg","response":0,"trial_type":"image-button-response","trial_index":75,"time_elapsed":1563458,"internal_node_id":"0.0-4.0-0.34","subject_id":"61322d8486840a4a87d32266","study_id":"6197b3f67c2b5cd3b6d9596a","session_id":"6197b59a0ae11082c41004ba","condition":"full-information","relevant_dimensions":["wings","pattern"],"bee_group":{"antennae":"X","wings":"2","pattern":"S","legs":"X"},"action":"harvest","summary":"good-harvest","bonus":1.6400000000000012},{"rt":1072.6999999284744,"stimulus":"\n                    <p><b>Action: <em>harvest</em></b></p>\n                    <p>This is the bee that you just saw.</p>\n                    <img src=\"bees-with-color/bee-B2DM.svg\" width=\"200\">\n                    <p><span class=\"greenText\"><b>Successful harvest!</b></span><br>Your pay has increased by $0.02. Your bonus pay is now $0.80.</p>\n            ","response":0,"trial_type":"html-button-response","trial_index":76,"time_elapsed":1564532,"internal_node_id":"0.0-4.0-1.34","subject_id":"61322d8486840a4a87d32266","study_id":"6197b3f67c2b5cd3b6d9596a","session_id":"6197b59a0ae11082c41004ba","condition":"full-information","relevant_dimensions":["wings","pattern"],"bee_group":{"antennae":"X","wings":"2","pattern":"S","legs":"X"},"bonus":1.6400000000000012},{"rt":17752.300000071526,"stimulus":"bees-with-color/bee-A2SF.svg","response":1,"trial_type":"image-button-response","trial_index":77,"time_elapsed":1582286,"internal_node_id":"0.0-4.0-0.35","subject_id":"61322d8486840a4a87d32266","study_id":"6197b3f67c2b5cd3b6d9596a","session_id":"6197b59a0ae11082c41004ba","condition":"full-information","relevant_dimensions":["wings","pattern"],"bee_group":{"antennae":"X","wings":"2","pattern":"S","legs":"X"},"action":"avoid","summary":"good-avoid","bonus":1.6400000000000012},{"rt":2418.7000000476837,"stimulus":"\n                    <p><b>Action: <em>avoid</em></b></p>\n                    <p>This is the bee that you just saw.</p>\n                    <img src=\"bees-with-color/bee-A2SF.svg\" width=\"200\">\n                    <p><span class=\"greenText\">Good choice!</span>  This bee would have stung you.<br>Your bonus pay is unchanged, and remains at $0.80.</p>\n            ","response":0,"trial_type":"html-button-response","trial_index":78,"time_elapsed":1584706,"internal_node_id":"0.0-4.0-1.35","subject_id":"61322d8486840a4a87d32266","study_id":"6197b3f67c2b5cd3b6d9596a","session_id":"6197b59a0ae11082c41004ba","condition":"full-information","relevant_dimensions":["wings","pattern"],"bee_group":{"antennae":"X","wings":"2","pattern":"S","legs":"X"},"bonus":1.6400000000000012},{"rt":13821.399999976158,"stimulus":"bees-with-color/bee-A1SF.svg","response":0,"trial_type":"image-button-response","trial_index":79,"time_elapsed":1598529,"internal_node_id":"0.0-4.0-0.36","subject_id":"61322d8486840a4a87d32266","study_id":"6197b3f67c2b5cd3b6d9596a","session_id":"6197b59a0ae11082c41004ba","condition":"full-information","relevant_dimensions":["wings","pattern"],"bee_group":{"antennae":"X","wings":"2","pattern":"S","legs":"X"},"action":"harvest","summary":"good-harvest","bonus":1.6400000000000012},{"rt":1172.5999999046326,"stimulus":"\n                    <p><b>Action: <em>harvest</em></b></p>\n                    <p>This is the bee that you just saw.</p>\n                    <img src=\"bees-with-color/bee-A1SF.svg\" width=\"200\">\n                    <p><span class=\"greenText\"><b>Successful harvest!</b></span><br>Your pay has increased by $0.02. Your bonus pay is now $0.82.</p>\n            ","response":0,"trial_type":"html-button-response","trial_index":80,"time_elapsed":1599703,"internal_node_id":"0.0-4.0-1.36","subject_id":"61322d8486840a4a87d32266","study_id":"6197b3f67c2b5cd3b6d9596a","session_id":"6197b59a0ae11082c41004ba","condition":"full-information","relevant_dimensions":["wings","pattern"],"bee_group":{"antennae":"X","wings":"2","pattern":"S","legs":"X"},"bonus":1.6400000000000012},{"rt":10370.600000023842,"stimulus":"bees-with-color/bee-A1SM.svg","response":0,"trial_type":"image-button-response","trial_index":81,"time_elapsed":1610075,"internal_node_id":"0.0-4.0-0.37","subject_id":"61322d8486840a4a87d32266","study_id":"6197b3f67c2b5cd3b6d9596a","session_id":"6197b59a0ae11082c41004ba","condition":"full-information","relevant_dimensions":["wings","pattern"],"bee_group":{"antennae":"X","wings":"2","pattern":"S","legs":"X"},"action":"harvest","summary":"good-harvest","bonus":1.6400000000000012},{"rt":896.5,"stimulus":"\n                    <p><b>Action: <em>harvest</em></b></p>\n                    <p>This is the bee that you just saw.</p>\n                    <img src=\"bees-with-color/bee-A1SM.svg\" width=\"200\">\n                    <p><span class=\"greenText\"><b>Successful harvest!</b></span><br>Your pay has increased by $0.02. Your bonus pay is now $0.84.</p>\n            ","response":0,"trial_type":"html-button-response","trial_index":82,"time_elapsed":1610973,"internal_node_id":"0.0-4.0-1.37","subject_id":"61322d8486840a4a87d32266","study_id":"6197b3f67c2b5cd3b6d9596a","session_id":"6197b59a0ae11082c41004ba","condition":"full-information","relevant_dimensions":["wings","pattern"],"bee_group":{"antennae":"X","wings":"2","pattern":"S","legs":"X"},"bonus":1.6400000000000012},{"rt":20221.5,"stimulus":"bees-with-color/bee-B2SM.svg","response":1,"trial_type":"image-button-response","trial_index":83,"time_elapsed":1631196,"internal_node_id":"0.0-4.0-0.38","subject_id":"61322d8486840a4a87d32266","study_id":"6197b3f67c2b5cd3b6d9596a","session_id":"6197b59a0ae11082c41004ba","condition":"full-information","relevant_dimensions":["wings","pattern"],"bee_group":{"antennae":"X","wings":"2","pattern":"S","legs":"X"},"action":"avoid","summary":"good-avoid","bonus":1.6400000000000012},{"rt":1566.7000000476837,"stimulus":"\n                    <p><b>Action: <em>avoid</em></b></p>\n                    <p>This is the bee that you just saw.</p>\n                    <img src=\"bees-with-color/bee-B2SM.svg\" width=\"200\">\n                    <p><span class=\"greenText\">Good choice!</span>  This bee would have stung you.<br>Your bonus pay is unchanged, and remains at $0.84.</p>\n            ","response":0,"trial_type":"html-button-response","trial_index":84,"time_elapsed":1632764,"internal_node_id":"0.0-4.0-1.38","subject_id":"61322d8486840a4a87d32266","study_id":"6197b3f67c2b5cd3b6d9596a","session_id":"6197b59a0ae11082c41004ba","condition":"full-information","relevant_dimensions":["wings","pattern"],"bee_group":{"antennae":"X","wings":"2","pattern":"S","legs":"X"},"bonus":1.6400000000000012},{"rt":14398.900000095367,"stimulus":"bees-with-color/bee-B1DM.svg","response":0,"trial_type":"image-button-response","trial_index":85,"time_elapsed":1647165,"internal_node_id":"0.0-4.0-0.39","subject_id":"61322d8486840a4a87d32266","study_id":"6197b3f67c2b5cd3b6d9596a","session_id":"6197b59a0ae11082c41004ba","condition":"full-information","relevant_dimensions":["wings","pattern"],"bee_group":{"antennae":"X","wings":"2","pattern":"S","legs":"X"},"action":"harvest","summary":"good-harvest","bonus":1.6400000000000012},{"rt":1525.6000000238419,"stimulus":"\n                    <p><b>Action: <em>harvest</em></b></p>\n                    <p>This is the bee that you just saw.</p>\n                    <img src=\"bees-with-color/bee-B1DM.svg\" width=\"200\">\n                    <p><span class=\"greenText\"><b>Successful harvest!</b></span><br>Your pay has increased by $0.02. Your bonus pay is now $0.86.</p>\n            ","response":0,"trial_type":"html-button-response","trial_index":86,"time_elapsed":1648692,"internal_node_id":"0.0-4.0-1.39","subject_id":"61322d8486840a4a87d32266","study_id":"6197b3f67c2b5cd3b6d9596a","session_id":"6197b59a0ae11082c41004ba","condition":"full-information","relevant_dimensions":["wings","pattern"],"bee_group":{"antennae":"X","wings":"2","pattern":"S","legs":"X"},"bonus":1.6400000000000012},{"rt":14194.600000023842,"stimulus":"bees-with-color/bee-B2SF.svg","response":1,"trial_type":"image-button-response","trial_index":87,"time_elapsed":1662889,"internal_node_id":"0.0-4.0-0.40","subject_id":"61322d8486840a4a87d32266","study_id":"6197b3f67c2b5cd3b6d9596a","session_id":"6197b59a0ae11082c41004ba","condition":"full-information","relevant_dimensions":["wings","pattern"],"bee_group":{"antennae":"X","wings":"2","pattern":"S","legs":"X"},"action":"avoid","summary":"good-avoid","bonus":1.6400000000000012},{"rt":2851.5,"stimulus":"\n                    <p><b>Action: <em>avoid</em></b></p>\n                    <p>This is the bee that you just saw.</p>\n                    <img src=\"bees-with-color/bee-B2SF.svg\" width=\"200\">\n                    <p><span class=\"greenText\">Good choice!</span>  This bee would have stung you.<br>Your bonus pay is unchanged, and remains at $0.86.</p>\n            ","response":0,"trial_type":"html-button-response","trial_index":88,"time_elapsed":1665741,"internal_node_id":"0.0-4.0-1.40","subject_id":"61322d8486840a4a87d32266","study_id":"6197b3f67c2b5cd3b6d9596a","session_id":"6197b59a0ae11082c41004ba","condition":"full-information","relevant_dimensions":["wings","pattern"],"bee_group":{"antennae":"X","wings":"2","pattern":"S","legs":"X"},"bonus":1.6400000000000012},{"rt":21743.600000023842,"stimulus":"bees-with-color/bee-A1DF.svg","response":0,"trial_type":"image-button-response","trial_index":89,"time_elapsed":1687487,"internal_node_id":"0.0-4.0-0.41","subject_id":"61322d8486840a4a87d32266","study_id":"6197b3f67c2b5cd3b6d9596a","session_id":"6197b59a0ae11082c41004ba","condition":"full-information","relevant_dimensions":["wings","pattern"],"bee_group":{"antennae":"X","wings":"2","pattern":"S","legs":"X"},"action":"harvest","summary":"good-harvest","bonus":1.6400000000000012},{"rt":1080.5,"stimulus":"\n                    <p><b>Action: <em>harvest</em></b></p>\n                    <p>This is the bee that you just saw.</p>\n                    <img src=\"bees-with-color/bee-A1DF.svg\" width=\"200\">\n                    <p><span class=\"greenText\"><b>Successful harvest!</b></span><br>Your pay has increased by $0.02. Your bonus pay is now $0.88.</p>\n            ","response":0,"trial_type":"html-button-response","trial_index":90,"time_elapsed":1688569,"internal_node_id":"0.0-4.0-1.41","subject_id":"61322d8486840a4a87d32266","study_id":"6197b3f67c2b5cd3b6d9596a","session_id":"6197b59a0ae11082c41004ba","condition":"full-information","relevant_dimensions":["wings","pattern"],"bee_group":{"antennae":"X","wings":"2","pattern":"S","legs":"X"},"bonus":1.6400000000000012},{"rt":19180.899999976158,"stimulus":"bees-with-color/bee-A1DM.svg","response":0,"trial_type":"image-button-response","trial_index":91,"time_elapsed":1707751,"internal_node_id":"0.0-4.0-0.42","subject_id":"61322d8486840a4a87d32266","study_id":"6197b3f67c2b5cd3b6d9596a","session_id":"6197b59a0ae11082c41004ba","condition":"full-information","relevant_dimensions":["wings","pattern"],"bee_group":{"antennae":"X","wings":"2","pattern":"S","legs":"X"},"action":"harvest","summary":"good-harvest","bonus":1.6400000000000012},{"rt":1102.2999999523163,"stimulus":"\n                    <p><b>Action: <em>harvest</em></b></p>\n                    <p>This is the bee that you just saw.</p>\n                    <img src=\"bees-with-color/bee-A1DM.svg\" width=\"200\">\n                    <p><span class=\"greenText\"><b>Successful harvest!</b></span><br>Your pay has increased by $0.02. Your bonus pay is now $0.90.</p>\n            ","response":0,"trial_type":"html-button-response","trial_index":92,"time_elapsed":1708855,"internal_node_id":"0.0-4.0-1.42","subject_id":"61322d8486840a4a87d32266","study_id":"6197b3f67c2b5cd3b6d9596a","session_id":"6197b59a0ae11082c41004ba","condition":"full-information","relevant_dimensions":["wings","pattern"],"bee_group":{"antennae":"X","wings":"2","pattern":"S","legs":"X"},"bonus":1.6400000000000012},{"rt":14678.299999952316,"stimulus":"bees-with-color/bee-A2SM.svg","response":1,"trial_type":"image-button-response","trial_index":93,"time_elapsed":1723535,"internal_node_id":"0.0-4.0-0.43","subject_id":"61322d8486840a4a87d32266","study_id":"6197b3f67c2b5cd3b6d9596a","session_id":"6197b59a0ae11082c41004ba","condition":"full-information","relevant_dimensions":["wings","pattern"],"bee_group":{"antennae":"X","wings":"2","pattern":"S","legs":"X"},"action":"avoid","summary":"good-avoid","bonus":1.6400000000000012},{"rt":1435.4000000953674,"stimulus":"\n                    <p><b>Action: <em>avoid</em></b></p>\n                    <p>This is the bee that you just saw.</p>\n                    <img src=\"bees-with-color/bee-A2SM.svg\" width=\"200\">\n                    <p><span class=\"greenText\">Good choice!</span>  This bee would have stung you.<br>Your bonus pay is unchanged, and remains at $0.90.</p>\n            ","response":0,"trial_type":"html-button-response","trial_index":94,"time_elapsed":1724972,"internal_node_id":"0.0-4.0-1.43","subject_id":"61322d8486840a4a87d32266","study_id":"6197b3f67c2b5cd3b6d9596a","session_id":"6197b59a0ae11082c41004ba","condition":"full-information","relevant_dimensions":["wings","pattern"],"bee_group":{"antennae":"X","wings":"2","pattern":"S","legs":"X"},"bonus":1.6400000000000012},{"rt":16005.600000023842,"stimulus":"bees-with-color/bee-A2DF.svg","response":0,"trial_type":"image-button-response","trial_index":95,"time_elapsed":1740980,"internal_node_id":"0.0-4.0-0.44","subject_id":"61322d8486840a4a87d32266","study_id":"6197b3f67c2b5cd3b6d9596a","session_id":"6197b59a0ae11082c41004ba","condition":"full-information","relevant_dimensions":["wings","pattern"],"bee_group":{"antennae":"X","wings":"2","pattern":"S","legs":"X"},"action":"harvest","summary":"good-harvest","bonus":1.6400000000000012},{"rt":1557.7999999523163,"stimulus":"\n                    <p><b>Action: <em>harvest</em></b></p>\n                    <p>This is the bee that you just saw.</p>\n                    <img src=\"bees-with-color/bee-A2DF.svg\" width=\"200\">\n                    <p><span class=\"greenText\"><b>Successful harvest!</b></span><br>Your pay has increased by $0.02. Your bonus pay is now $0.92.</p>\n            ","response":0,"trial_type":"html-button-response","trial_index":96,"time_elapsed":1742539,"internal_node_id":"0.0-4.0-1.44","subject_id":"61322d8486840a4a87d32266","study_id":"6197b3f67c2b5cd3b6d9596a","session_id":"6197b59a0ae11082c41004ba","condition":"full-information","relevant_dimensions":["wings","pattern"],"bee_group":{"antennae":"X","wings":"2","pattern":"S","legs":"X"},"bonus":1.6400000000000012},{"rt":18365.5,"stimulus":"bees-with-color/bee-B1DF.svg","response":0,"trial_type":"image-button-response","trial_index":97,"time_elapsed":1760906,"internal_node_id":"0.0-4.0-0.45","subject_id":"61322d8486840a4a87d32266","study_id":"6197b3f67c2b5cd3b6d9596a","session_id":"6197b59a0ae11082c41004ba","condition":"full-information","relevant_dimensions":["wings","pattern"],"bee_group":{"antennae":"X","wings":"2","pattern":"S","legs":"X"},"action":"harvest","summary":"good-harvest","bonus":1.6400000000000012},{"rt":1385.1000000238419,"stimulus":"\n                    <p><b>Action: <em>harvest</em></b></p>\n                    <p>This is the bee that you just saw.</p>\n                    <img src=\"bees-with-color/bee-B1DF.svg\" width=\"200\">\n                    <p><span class=\"greenText\"><b>Successful harvest!</b></span><br>Your pay has increased by $0.02. Your bonus pay is now $0.94.</p>\n            ","response":0,"trial_type":"html-button-response","trial_index":98,"time_elapsed":1762292,"internal_node_id":"0.0-4.0-1.45","subject_id":"61322d8486840a4a87d32266","study_id":"6197b3f67c2b5cd3b6d9596a","session_id":"6197b59a0ae11082c41004ba","condition":"full-information","relevant_dimensions":["wings","pattern"],"bee_group":{"antennae":"X","wings":"2","pattern":"S","legs":"X"},"bonus":1.6400000000000012},{"rt":25994.399999976158,"stimulus":"bees-with-color/bee-B2DF.svg","response":0,"trial_type":"image-button-response","trial_index":99,"time_elapsed":1788289,"internal_node_id":"0.0-4.0-0.46","subject_id":"61322d8486840a4a87d32266","study_id":"6197b3f67c2b5cd3b6d9596a","session_id":"6197b59a0ae11082c41004ba","condition":"full-information","relevant_dimensions":["wings","pattern"],"bee_group":{"antennae":"X","wings":"2","pattern":"S","legs":"X"},"action":"harvest","summary":"good-harvest","bonus":1.6400000000000012},{"rt":2284.5,"stimulus":"\n                    <p><b>Action: <em>harvest</em></b></p>\n                    <p>This is the bee that you just saw.</p>\n                    <img src=\"bees-with-color/bee-B2DF.svg\" width=\"200\">\n                    <p><span class=\"greenText\"><b>Successful harvest!</b></span><br>Your pay has increased by $0.02. Your bonus pay is now $0.96.</p>\n            ","response":0,"trial_type":"html-button-response","trial_index":100,"time_elapsed":1790575,"internal_node_id":"0.0-4.0-1.46","subject_id":"61322d8486840a4a87d32266","study_id":"6197b3f67c2b5cd3b6d9596a","session_id":"6197b59a0ae11082c41004ba","condition":"full-information","relevant_dimensions":["wings","pattern"],"bee_group":{"antennae":"X","wings":"2","pattern":"S","legs":"X"},"bonus":1.6400000000000012},{"rt":15253.200000047684,"stimulus":"bees-with-color/bee-B1SF.svg","response":1,"trial_type":"image-button-response","trial_index":101,"time_elapsed":1805830,"internal_node_id":"0.0-4.0-0.47","subject_id":"61322d8486840a4a87d32266","study_id":"6197b3f67c2b5cd3b6d9596a","session_id":"6197b59a0ae11082c41004ba","condition":"full-information","relevant_dimensions":["wings","pattern"],"bee_group":{"antennae":"X","wings":"2","pattern":"S","legs":"X"},"action":"avoid","summary":"bad-avoid","bonus":1.6400000000000012},{"rt":12651.5,"stimulus":"\n                    <p><b>Action: <em>avoid</em></b></p>\n                    <p>This is the bee that you just saw.</p>\n                    <img src=\"bees-with-color/bee-B1SF.svg\" width=\"200\">\n                    <p><span class=\"redText\">Bad choice,</span> the bee was friendly.<br>Your bonus pay is unchanged, and remains at $0.96.</p>\n            ","response":0,"trial_type":"html-button-response","trial_index":102,"time_elapsed":1818483,"internal_node_id":"0.0-4.0-1.47","subject_id":"61322d8486840a4a87d32266","study_id":"6197b3f67c2b5cd3b6d9596a","session_id":"6197b59a0ae11082c41004ba","condition":"full-information","relevant_dimensions":["wings","pattern"],"bee_group":{"antennae":"X","wings":"2","pattern":"S","legs":"X"},"bonus":1.6400000000000012},{"rt":16470.399999976158,"stimulus":"bees-with-color/bee-A2DF.svg","response":0,"trial_type":"image-button-response","trial_index":103,"time_elapsed":1834955,"internal_node_id":"0.0-4.0-0.48","subject_id":"61322d8486840a4a87d32266","study_id":"6197b3f67c2b5cd3b6d9596a","session_id":"6197b59a0ae11082c41004ba","condition":"full-information","relevant_dimensions":["wings","pattern"],"bee_group":{"antennae":"X","wings":"2","pattern":"S","legs":"X"},"action":"harvest","summary":"good-harvest","bonus":1.6400000000000012},{"rt":1363.6000000238419,"stimulus":"\n                    <p><b>Action: <em>harvest</em></b></p>\n                    <p>This is the bee that you just saw.</p>\n                    <img src=\"bees-with-color/bee-A2DF.svg\" width=\"200\">\n                    <p><span class=\"greenText\"><b>Successful harvest!</b></span><br>Your pay has increased by $0.02. Your bonus pay is now $0.98.</p>\n            ","response":0,"trial_type":"html-button-response","trial_index":104,"time_elapsed":1836320,"internal_node_id":"0.0-4.0-1.48","subject_id":"61322d8486840a4a87d32266","study_id":"6197b3f67c2b5cd3b6d9596a","session_id":"6197b59a0ae11082c41004ba","condition":"full-information","relevant_dimensions":["wings","pattern"],"bee_group":{"antennae":"X","wings":"2","pattern":"S","legs":"X"},"bonus":1.6400000000000012},{"rt":24986.200000047684,"stimulus":"bees-with-color/bee-B2DF.svg","response":0,"trial_type":"image-button-response","trial_index":105,"time_elapsed":1861308,"internal_node_id":"0.0-4.0-0.49","subject_id":"61322d8486840a4a87d32266","study_id":"6197b3f67c2b5cd3b6d9596a","session_id":"6197b59a0ae11082c41004ba","condition":"full-information","relevant_dimensions":["wings","pattern"],"bee_group":{"antennae":"X","wings":"2","pattern":"S","legs":"X"},"action":"harvest","summary":"good-harvest","bonus":1.6400000000000012},{"rt":4073.100000023842,"stimulus":"\n                    <p><b>Action: <em>harvest</em></b></p>\n                    <p>This is the bee that you just saw.</p>\n                    <img src=\"bees-with-color/bee-B2DF.svg\" width=\"200\">\n                    <p><span class=\"greenText\"><b>Successful harvest!</b></span><br>Your pay has increased by $0.02. Your bonus pay is now $1.00.</p>\n            ","response":0,"trial_type":"html-button-response","trial_index":106,"time_elapsed":1865383,"internal_node_id":"0.0-4.0-1.49","subject_id":"61322d8486840a4a87d32266","study_id":"6197b3f67c2b5cd3b6d9596a","session_id":"6197b59a0ae11082c41004ba","condition":"full-information","relevant_dimensions":["wings","pattern"],"bee_group":{"antennae":"X","wings":"2","pattern":"S","legs":"X"},"bonus":1.6400000000000012},{"rt":23648.400000095367,"stimulus":"bees-with-color/bee-B2SM.svg","response":1,"trial_type":"image-button-response","trial_index":107,"time_elapsed":1889033,"internal_node_id":"0.0-4.0-0.50","subject_id":"61322d8486840a4a87d32266","study_id":"6197b3f67c2b5cd3b6d9596a","session_id":"6197b59a0ae11082c41004ba","condition":"full-information","relevant_dimensions":["wings","pattern"],"bee_group":{"antennae":"X","wings":"2","pattern":"S","legs":"X"},"action":"avoid","summary":"good-avoid","bonus":1.6400000000000012},{"rt":1405.3999999761581,"stimulus":"\n                    <p><b>Action: <em>avoid</em></b></p>\n                    <p>This is the bee that you just saw.</p>\n                    <img src=\"bees-with-color/bee-B2SM.svg\" width=\"200\">\n                    <p><span class=\"greenText\">Good choice!</span>  This bee would have stung you.<br>Your bonus pay is unchanged, and remains at $1.00.</p>\n            ","response":0,"trial_type":"html-button-response","trial_index":108,"time_elapsed":1890439,"internal_node_id":"0.0-4.0-1.50","subject_id":"61322d8486840a4a87d32266","study_id":"6197b3f67c2b5cd3b6d9596a","session_id":"6197b59a0ae11082c41004ba","condition":"full-information","relevant_dimensions":["wings","pattern"],"bee_group":{"antennae":"X","wings":"2","pattern":"S","legs":"X"},"bonus":1.6400000000000012},{"rt":40448.5,"stimulus":"bees-with-color/bee-B1SM.svg","response":1,"trial_type":"image-button-response","trial_index":109,"time_elapsed":1930890,"internal_node_id":"0.0-4.0-0.51","subject_id":"61322d8486840a4a87d32266","study_id":"6197b3f67c2b5cd3b6d9596a","session_id":"6197b59a0ae11082c41004ba","condition":"full-information","relevant_dimensions":["wings","pattern"],"bee_group":{"antennae":"X","wings":"2","pattern":"S","legs":"X"},"action":"avoid","summary":"bad-avoid","bonus":1.6400000000000012},{"rt":11714.5,"stimulus":"\n                    <p><b>Action: <em>avoid</em></b></p>\n                    <p>This is the bee that you just saw.</p>\n                    <img src=\"bees-with-color/bee-B1SM.svg\" width=\"200\">\n                    <p><span class=\"redText\">Bad choice,</span> the bee was friendly.<br>Your bonus pay is unchanged, and remains at $1.00.</p>\n            ","response":0,"trial_type":"html-button-response","trial_index":110,"time_elapsed":1942606,"internal_node_id":"0.0-4.0-1.51","subject_id":"61322d8486840a4a87d32266","study_id":"6197b3f67c2b5cd3b6d9596a","session_id":"6197b59a0ae11082c41004ba","condition":"full-information","relevant_dimensions":["wings","pattern"],"bee_group":{"antennae":"X","wings":"2","pattern":"S","legs":"X"},"bonus":1.6400000000000012},{"rt":27746.399999976158,"stimulus":"bees-with-color/bee-B1DM.svg","response":0,"trial_type":"image-button-response","trial_index":111,"time_elapsed":1970354,"internal_node_id":"0.0-4.0-0.52","subject_id":"61322d8486840a4a87d32266","study_id":"6197b3f67c2b5cd3b6d9596a","session_id":"6197b59a0ae11082c41004ba","condition":"full-information","relevant_dimensions":["wings","pattern"],"bee_group":{"antennae":"X","wings":"2","pattern":"S","legs":"X"},"action":"harvest","summary":"good-harvest","bonus":1.6400000000000012},{"rt":3952.5,"stimulus":"\n                    <p><b>Action: <em>harvest</em></b></p>\n                    <p>This is the bee that you just saw.</p>\n                    <img src=\"bees-with-color/bee-B1DM.svg\" width=\"200\">\n                    <p><span class=\"greenText\"><b>Successful harvest!</b></span><br>Your pay has increased by $0.02. Your bonus pay is now $1.02.</p>\n            ","response":0,"trial_type":"html-button-response","trial_index":112,"time_elapsed":1974308,"internal_node_id":"0.0-4.0-1.52","subject_id":"61322d8486840a4a87d32266","study_id":"6197b3f67c2b5cd3b6d9596a","session_id":"6197b59a0ae11082c41004ba","condition":"full-information","relevant_dimensions":["wings","pattern"],"bee_group":{"antennae":"X","wings":"2","pattern":"S","legs":"X"},"bonus":1.6400000000000012},{"rt":11688.399999976158,"stimulus":"bees-with-color/bee-B1SF.svg","response":0,"trial_type":"image-button-response","trial_index":113,"time_elapsed":1985998,"internal_node_id":"0.0-4.0-0.53","subject_id":"61322d8486840a4a87d32266","study_id":"6197b3f67c2b5cd3b6d9596a","session_id":"6197b59a0ae11082c41004ba","condition":"full-information","relevant_dimensions":["wings","pattern"],"bee_group":{"antennae":"X","wings":"2","pattern":"S","legs":"X"},"action":"harvest","summary":"good-harvest","bonus":1.6400000000000012},{"rt":1928.7999999523163,"stimulus":"\n                    <p><b>Action: <em>harvest</em></b></p>\n                    <p>This is the bee that you just saw.</p>\n                    <img src=\"bees-with-color/bee-B1SF.svg\" width=\"200\">\n                    <p><span class=\"greenText\"><b>Successful harvest!</b></span><br>Your pay has increased by $0.02. Your bonus pay is now $1.04.</p>\n            ","response":0,"trial_type":"html-button-response","trial_index":114,"time_elapsed":1987928,"internal_node_id":"0.0-4.0-1.53","subject_id":"61322d8486840a4a87d32266","study_id":"6197b3f67c2b5cd3b6d9596a","session_id":"6197b59a0ae11082c41004ba","condition":"full-information","relevant_dimensions":["wings","pattern"],"bee_group":{"antennae":"X","wings":"2","pattern":"S","legs":"X"},"bonus":1.6400000000000012},{"rt":25600.399999976158,"stimulus":"bees-with-color/bee-B1DF.svg","response":0,"trial_type":"image-button-response","trial_index":115,"time_elapsed":2013530,"internal_node_id":"0.0-4.0-0.54","subject_id":"61322d8486840a4a87d32266","study_id":"6197b3f67c2b5cd3b6d9596a","session_id":"6197b59a0ae11082c41004ba","condition":"full-information","relevant_dimensions":["wings","pattern"],"bee_group":{"antennae":"X","wings":"2","pattern":"S","legs":"X"},"action":"harvest","summary":"good-harvest","bonus":1.6400000000000012},{"rt":2109.5,"stimulus":"\n                    <p><b>Action: <em>harvest</em></b></p>\n                    <p>This is the bee that you just saw.</p>\n                    <img src=\"bees-with-color/bee-B1DF.svg\" width=\"200\">\n                    <p><span class=\"greenText\"><b>Successful harvest!</b></span><br>Your pay has increased by $0.02. Your bonus pay is now $1.06.</p>\n            ","response":0,"trial_type":"html-button-response","trial_index":116,"time_elapsed":2015641,"internal_node_id":"0.0-4.0-1.54","subject_id":"61322d8486840a4a87d32266","study_id":"6197b3f67c2b5cd3b6d9596a","session_id":"6197b59a0ae11082c41004ba","condition":"full-information","relevant_dimensions":["wings","pattern"],"bee_group":{"antennae":"X","wings":"2","pattern":"S","legs":"X"},"bonus":1.6400000000000012},{"rt":14223.299999952316,"stimulus":"bees-with-color/bee-B2SF.svg","response":1,"trial_type":"image-button-response","trial_index":117,"time_elapsed":2029866,"internal_node_id":"0.0-4.0-0.55","subject_id":"61322d8486840a4a87d32266","study_id":"6197b3f67c2b5cd3b6d9596a","session_id":"6197b59a0ae11082c41004ba","condition":"full-information","relevant_dimensions":["wings","pattern"],"bee_group":{"antennae":"X","wings":"2","pattern":"S","legs":"X"},"action":"avoid","summary":"good-avoid","bonus":1.6400000000000012},{"rt":2292.2999999523163,"stimulus":"\n                    <p><b>Action: <em>avoid</em></b></p>\n                    <p>This is the bee that you just saw.</p>\n                    <img src=\"bees-with-color/bee-B2SF.svg\" width=\"200\">\n                    <p><span class=\"greenText\">Good choice!</span>  This bee would have stung you.<br>Your bonus pay is unchanged, and remains at $1.06.</p>\n            ","response":0,"trial_type":"html-button-response","trial_index":118,"time_elapsed":2032159,"internal_node_id":"0.0-4.0-1.55","subject_id":"61322d8486840a4a87d32266","study_id":"6197b3f67c2b5cd3b6d9596a","session_id":"6197b59a0ae11082c41004ba","condition":"full-information","relevant_dimensions":["wings","pattern"],"bee_group":{"antennae":"X","wings":"2","pattern":"S","legs":"X"},"bonus":1.6400000000000012},{"rt":11207.699999928474,"stimulus":"bees-with-color/bee-B2DM.svg","response":0,"trial_type":"image-button-response","trial_index":119,"time_elapsed":2043369,"internal_node_id":"0.0-4.0-0.56","subject_id":"61322d8486840a4a87d32266","study_id":"6197b3f67c2b5cd3b6d9596a","session_id":"6197b59a0ae11082c41004ba","condition":"full-information","relevant_dimensions":["wings","pattern"],"bee_group":{"antennae":"X","wings":"2","pattern":"S","legs":"X"},"action":"harvest","summary":"good-harvest","bonus":1.6400000000000012},{"rt":1739.6999999284744,"stimulus":"\n                    <p><b>Action: <em>harvest</em></b></p>\n                    <p>This is the bee that you just saw.</p>\n                    <img src=\"bees-with-color/bee-B2DM.svg\" width=\"200\">\n                    <p><span class=\"greenText\"><b>Successful harvest!</b></span><br>Your pay has increased by $0.02. Your bonus pay is now $1.08.</p>\n            ","response":0,"trial_type":"html-button-response","trial_index":120,"time_elapsed":2045110,"internal_node_id":"0.0-4.0-1.56","subject_id":"61322d8486840a4a87d32266","study_id":"6197b3f67c2b5cd3b6d9596a","session_id":"6197b59a0ae11082c41004ba","condition":"full-information","relevant_dimensions":["wings","pattern"],"bee_group":{"antennae":"X","wings":"2","pattern":"S","legs":"X"},"bonus":1.6400000000000012},{"rt":16102,"stimulus":"bees-with-color/bee-A1SM.svg","response":0,"trial_type":"image-button-response","trial_index":121,"time_elapsed":2061213,"internal_node_id":"0.0-4.0-0.57","subject_id":"61322d8486840a4a87d32266","study_id":"6197b3f67c2b5cd3b6d9596a","session_id":"6197b59a0ae11082c41004ba","condition":"full-information","relevant_dimensions":["wings","pattern"],"bee_group":{"antennae":"X","wings":"2","pattern":"S","legs":"X"},"action":"harvest","summary":"good-harvest","bonus":1.6400000000000012},{"rt":1913.6999999284744,"stimulus":"\n                    <p><b>Action: <em>harvest</em></b></p>\n                    <p>This is the bee that you just saw.</p>\n                    <img src=\"bees-with-color/bee-A1SM.svg\" width=\"200\">\n                    <p><span class=\"greenText\"><b>Successful harvest!</b></span><br>Your pay has increased by $0.02. Your bonus pay is now $1.10.</p>\n            ","response":0,"trial_type":"html-button-response","trial_index":122,"time_elapsed":2063129,"internal_node_id":"0.0-4.0-1.57","subject_id":"61322d8486840a4a87d32266","study_id":"6197b3f67c2b5cd3b6d9596a","session_id":"6197b59a0ae11082c41004ba","condition":"full-information","relevant_dimensions":["wings","pattern"],"bee_group":{"antennae":"X","wings":"2","pattern":"S","legs":"X"},"bonus":1.6400000000000012},{"rt":21776.399999976158,"stimulus":"bees-with-color/bee-A1DF.svg","response":0,"trial_type":"image-button-response","trial_index":123,"time_elapsed":2084907,"internal_node_id":"0.0-4.0-0.58","subject_id":"61322d8486840a4a87d32266","study_id":"6197b3f67c2b5cd3b6d9596a","session_id":"6197b59a0ae11082c41004ba","condition":"full-information","relevant_dimensions":["wings","pattern"],"bee_group":{"antennae":"X","wings":"2","pattern":"S","legs":"X"},"action":"harvest","summary":"good-harvest","bonus":1.6400000000000012},{"rt":1344.6999999284744,"stimulus":"\n                    <p><b>Action: <em>harvest</em></b></p>\n                    <p>This is the bee that you just saw.</p>\n                    <img src=\"bees-with-color/bee-A1DF.svg\" width=\"200\">\n                    <p><span class=\"greenText\"><b>Successful harvest!</b></span><br>Your pay has increased by $0.02. Your bonus pay is now $1.12.</p>\n            ","response":0,"trial_type":"html-button-response","trial_index":124,"time_elapsed":2086253,"internal_node_id":"0.0-4.0-1.58","subject_id":"61322d8486840a4a87d32266","study_id":"6197b3f67c2b5cd3b6d9596a","session_id":"6197b59a0ae11082c41004ba","condition":"full-information","relevant_dimensions":["wings","pattern"],"bee_group":{"antennae":"X","wings":"2","pattern":"S","legs":"X"},"bonus":1.6400000000000012},{"rt":12062,"stimulus":"bees-with-color/bee-A1SF.svg","response":0,"trial_type":"image-button-response","trial_index":125,"time_elapsed":2098317,"internal_node_id":"0.0-4.0-0.59","subject_id":"61322d8486840a4a87d32266","study_id":"6197b3f67c2b5cd3b6d9596a","session_id":"6197b59a0ae11082c41004ba","condition":"full-information","relevant_dimensions":["wings","pattern"],"bee_group":{"antennae":"X","wings":"2","pattern":"S","legs":"X"},"action":"harvest","summary":"good-harvest","bonus":1.6400000000000012},{"rt":1275.6999999284744,"stimulus":"\n                    <p><b>Action: <em>harvest</em></b></p>\n                    <p>This is the bee that you just saw.</p>\n                    <img src=\"bees-with-color/bee-A1SF.svg\" width=\"200\">\n                    <p><span class=\"greenText\"><b>Successful harvest!</b></span><br>Your pay has increased by $0.02. Your bonus pay is now $1.14.</p>\n            ","response":0,"trial_type":"html-button-response","trial_index":126,"time_elapsed":2099594,"internal_node_id":"0.0-4.0-1.59","subject_id":"61322d8486840a4a87d32266","study_id":"6197b3f67c2b5cd3b6d9596a","session_id":"6197b59a0ae11082c41004ba","condition":"full-information","relevant_dimensions":["wings","pattern"],"bee_group":{"antennae":"X","wings":"2","pattern":"S","legs":"X"},"bonus":1.6400000000000012},{"rt":14991.100000023842,"stimulus":"bees-with-color/bee-A2SF.svg","response":1,"trial_type":"image-button-response","trial_index":127,"time_elapsed":2114587,"internal_node_id":"0.0-4.0-0.60","subject_id":"61322d8486840a4a87d32266","study_id":"6197b3f67c2b5cd3b6d9596a","session_id":"6197b59a0ae11082c41004ba","condition":"full-information","relevant_dimensions":["wings","pattern"],"bee_group":{"antennae":"X","wings":"2","pattern":"S","legs":"X"},"action":"avoid","summary":"good-avoid","bonus":1.6400000000000012},{"rt":1972.8999999761581,"stimulus":"\n                    <p><b>Action: <em>avoid</em></b></p>\n                    <p>This is the bee that you just saw.</p>\n                    <img src=\"bees-with-color/bee-A2SF.svg\" width=\"200\">\n                    <p><span class=\"greenText\">Good choice!</span>  This bee would have stung you.<br>Your bonus pay is unchanged, and remains at $1.14.</p>\n            ","response":0,"trial_type":"html-button-response","trial_index":128,"time_elapsed":2116561,"internal_node_id":"0.0-4.0-1.60","subject_id":"61322d8486840a4a87d32266","study_id":"6197b3f67c2b5cd3b6d9596a","session_id":"6197b59a0ae11082c41004ba","condition":"full-information","relevant_dimensions":["wings","pattern"],"bee_group":{"antennae":"X","wings":"2","pattern":"S","legs":"X"},"bonus":1.6400000000000012},{"rt":22163.200000047684,"stimulus":"bees-with-color/bee-A1DM.svg","response":0,"trial_type":"image-button-response","trial_index":129,"time_elapsed":2138726,"internal_node_id":"0.0-4.0-0.61","subject_id":"61322d8486840a4a87d32266","study_id":"6197b3f67c2b5cd3b6d9596a","session_id":"6197b59a0ae11082c41004ba","condition":"full-information","relevant_dimensions":["wings","pattern"],"bee_group":{"antennae":"X","wings":"2","pattern":"S","legs":"X"},"action":"harvest","summary":"good-harvest","bonus":1.6400000000000012},{"rt":2206.4000000953674,"stimulus":"\n                    <p><b>Action: <em>harvest</em></b></p>\n                    <p>This is the bee that you just saw.</p>\n                    <img src=\"bees-with-color/bee-A1DM.svg\" width=\"200\">\n                    <p><span class=\"greenText\"><b>Successful harvest!</b></span><br>Your pay has increased by $0.02. Your bonus pay is now $1.16.</p>\n            ","response":0,"trial_type":"html-button-response","trial_index":130,"time_elapsed":2140934,"internal_node_id":"0.0-4.0-1.61","subject_id":"61322d8486840a4a87d32266","study_id":"6197b3f67c2b5cd3b6d9596a","session_id":"6197b59a0ae11082c41004ba","condition":"full-information","relevant_dimensions":["wings","pattern"],"bee_group":{"antennae":"X","wings":"2","pattern":"S","legs":"X"},"bonus":1.6400000000000012},{"rt":18349.199999928474,"stimulus":"bees-with-color/bee-A2DM.svg","response":0,"trial_type":"image-button-response","trial_index":131,"time_elapsed":2159285,"internal_node_id":"0.0-4.0-0.62","subject_id":"61322d8486840a4a87d32266","study_id":"6197b3f67c2b5cd3b6d9596a","session_id":"6197b59a0ae11082c41004ba","condition":"full-information","relevant_dimensions":["wings","pattern"],"bee_group":{"antennae":"X","wings":"2","pattern":"S","legs":"X"},"action":"harvest","summary":"good-harvest","bonus":1.6400000000000012},{"rt":1789.7999999523163,"stimulus":"\n                    <p><b>Action: <em>harvest</em></b></p>\n                    <p>This is the bee that you just saw.</p>\n                    <img src=\"bees-with-color/bee-A2DM.svg\" width=\"200\">\n                    <p><span class=\"greenText\"><b>Successful harvest!</b></span><br>Your pay has increased by $0.02. Your bonus pay is now $1.18.</p>\n            ","response":0,"trial_type":"html-button-response","trial_index":132,"time_elapsed":2161076,"internal_node_id":"0.0-4.0-1.62","subject_id":"61322d8486840a4a87d32266","study_id":"6197b3f67c2b5cd3b6d9596a","session_id":"6197b59a0ae11082c41004ba","condition":"full-information","relevant_dimensions":["wings","pattern"],"bee_group":{"antennae":"X","wings":"2","pattern":"S","legs":"X"},"bonus":1.6400000000000012},{"rt":12876,"stimulus":"bees-with-color/bee-A2SM.svg","response":1,"trial_type":"image-button-response","trial_index":133,"time_elapsed":2173954,"internal_node_id":"0.0-4.0-0.63","subject_id":"61322d8486840a4a87d32266","study_id":"6197b3f67c2b5cd3b6d9596a","session_id":"6197b59a0ae11082c41004ba","condition":"full-information","relevant_dimensions":["wings","pattern"],"bee_group":{"antennae":"X","wings":"2","pattern":"S","legs":"X"},"action":"avoid","summary":"good-avoid","bonus":1.6400000000000012},{"rt":1266.8999999761581,"stimulus":"\n                    <p><b>Action: <em>avoid</em></b></p>\n                    <p>This is the bee that you just saw.</p>\n                    <img src=\"bees-with-color/bee-A2SM.svg\" width=\"200\">\n                    <p><span class=\"greenText\">Good choice!</span>  This bee would have stung you.<br>Your bonus pay is unchanged, and remains at $1.18.</p>\n            ","response":0,"trial_type":"html-button-response","trial_index":134,"time_elapsed":2175222,"internal_node_id":"0.0-4.0-1.63","subject_id":"61322d8486840a4a87d32266","study_id":"6197b3f67c2b5cd3b6d9596a","session_id":"6197b59a0ae11082c41004ba","condition":"full-information","relevant_dimensions":["wings","pattern"],"bee_group":{"antennae":"X","wings":"2","pattern":"S","legs":"X"},"bonus":1.6400000000000012},{"rt":6134.899999976158,"stimulus":"You have completed the first part of this experiment.<br><br>You will now begin a shorter second part, in which you will receive no feedback.<br>The same rules regarding bonus pay apply.<br><br>Press any key to begin.","response":"","trial_type":"html-keyboard-response","trial_index":135,"time_elapsed":2181359,"internal_node_id":"0.0-5.0","subject_id":"61322d8486840a4a87d32266","study_id":"6197b3f67c2b5cd3b6d9596a","session_id":"6197b59a0ae11082c41004ba","condition":"full-information","relevant_dimensions":["wings","pattern"],"bee_group":{"antennae":"X","wings":"2","pattern":"S","legs":"X"},"bonus":1.6400000000000012},{"rt":62405.200000047684,"stimulus":"bees-with-color/bee-B2DF.svg","response":0,"trial_type":"image-button-response","trial_index":136,"time_elapsed":2243778,"internal_node_id":"0.0-6.0-0.0","subject_id":"61322d8486840a4a87d32266","study_id":"6197b3f67c2b5cd3b6d9596a","session_id":"6197b59a0ae11082c41004ba","condition":"full-information","relevant_dimensions":["wings","pattern"],"bee_group":{"antennae":"X","wings":"2","pattern":"S","legs":"X"},"bonus":1.6400000000000012},{"rt":38031.60000002384,"stimulus":"bees-with-color/bee-A2SF.svg","response":1,"trial_type":"image-button-response","trial_index":137,"time_elapsed":2281812,"internal_node_id":"0.0-6.0-0.1","subject_id":"61322d8486840a4a87d32266","study_id":"6197b3f67c2b5cd3b6d9596a","session_id":"6197b59a0ae11082c41004ba","condition":"full-information","relevant_dimensions":["wings","pattern"],"bee_group":{"antennae":"X","wings":"2","pattern":"S","legs":"X"},"bonus":1.6400000000000012},{"rt":18801.700000047684,"stimulus":"bees-with-color/bee-B1DF.svg","response":0,"trial_type":"image-button-response","trial_index":138,"time_elapsed":2300617,"internal_node_id":"0.0-6.0-0.2","subject_id":"61322d8486840a4a87d32266","study_id":"6197b3f67c2b5cd3b6d9596a","session_id":"6197b59a0ae11082c41004ba","condition":"full-information","relevant_dimensions":["wings","pattern"],"bee_group":{"antennae":"X","wings":"2","pattern":"S","legs":"X"},"bonus":1.6400000000000012},{"rt":10562.599999904633,"stimulus":"bees-with-color/bee-B2SF.svg","response":1,"trial_type":"image-button-response","trial_index":139,"time_elapsed":2311181,"internal_node_id":"0.0-6.0-0.3","subject_id":"61322d8486840a4a87d32266","study_id":"6197b3f67c2b5cd3b6d9596a","session_id":"6197b59a0ae11082c41004ba","condition":"full-information","relevant_dimensions":["wings","pattern"],"bee_group":{"antennae":"X","wings":"2","pattern":"S","legs":"X"},"bonus":1.6400000000000012},{"rt":15081.299999952316,"stimulus":"bees-with-color/bee-B1DM.svg","response":0,"trial_type":"image-button-response","trial_index":140,"time_elapsed":2326265,"internal_node_id":"0.0-6.0-0.4","subject_id":"61322d8486840a4a87d32266","study_id":"6197b3f67c2b5cd3b6d9596a","session_id":"6197b59a0ae11082c41004ba","condition":"full-information","relevant_dimensions":["wings","pattern"],"bee_group":{"antennae":"X","wings":"2","pattern":"S","legs":"X"},"bonus":1.6400000000000012},{"rt":17527.599999904633,"stimulus":"bees-with-color/bee-A1DF.svg","response":0,"trial_type":"image-button-response","trial_index":141,"time_elapsed":2343796,"internal_node_id":"0.0-6.0-0.5","subject_id":"61322d8486840a4a87d32266","study_id":"6197b3f67c2b5cd3b6d9596a","session_id":"6197b59a0ae11082c41004ba","condition":"full-information","relevant_dimensions":["wings","pattern"],"bee_group":{"antennae":"X","wings":"2","pattern":"S","legs":"X"},"bonus":1.6400000000000012},{"rt":14925.5,"stimulus":"bees-with-color/bee-A1SM.svg","response":0,"trial_type":"image-button-response","trial_index":142,"time_elapsed":2358724,"internal_node_id":"0.0-6.0-0.6","subject_id":"61322d8486840a4a87d32266","study_id":"6197b3f67c2b5cd3b6d9596a","session_id":"6197b59a0ae11082c41004ba","condition":"full-information","relevant_dimensions":["wings","pattern"],"bee_group":{"antennae":"X","wings":"2","pattern":"S","legs":"X"},"bonus":1.6400000000000012},{"rt":14148.699999928474,"stimulus":"bees-with-color/bee-A1SF.svg","response":0,"trial_type":"image-button-response","trial_index":143,"time_elapsed":2372875,"internal_node_id":"0.0-6.0-0.7","subject_id":"61322d8486840a4a87d32266","study_id":"6197b3f67c2b5cd3b6d9596a","session_id":"6197b59a0ae11082c41004ba","condition":"full-information","relevant_dimensions":["wings","pattern"],"bee_group":{"antennae":"X","wings":"2","pattern":"S","legs":"X"},"bonus":1.6400000000000012},{"rt":9781.200000047684,"stimulus":"bees-with-color/bee-A2SM.svg","response":1,"trial_type":"image-button-response","trial_index":144,"time_elapsed":2382659,"internal_node_id":"0.0-6.0-0.8","subject_id":"61322d8486840a4a87d32266","study_id":"6197b3f67c2b5cd3b6d9596a","session_id":"6197b59a0ae11082c41004ba","condition":"full-information","relevant_dimensions":["wings","pattern"],"bee_group":{"antennae":"X","wings":"2","pattern":"S","legs":"X"},"bonus":1.6400000000000012},{"rt":15394.899999976158,"stimulus":"bees-with-color/bee-A1DM.svg","response":0,"trial_type":"image-button-response","trial_index":145,"time_elapsed":2398056,"internal_node_id":"0.0-6.0-0.9","subject_id":"61322d8486840a4a87d32266","study_id":"6197b3f67c2b5cd3b6d9596a","session_id":"6197b59a0ae11082c41004ba","condition":"full-information","relevant_dimensions":["wings","pattern"],"bee_group":{"antennae":"X","wings":"2","pattern":"S","legs":"X"},"bonus":1.6400000000000012},{"rt":16349.200000047684,"stimulus":"bees-with-color/bee-B1SM.svg","response":0,"trial_type":"image-button-response","trial_index":146,"time_elapsed":2414408,"internal_node_id":"0.0-6.0-0.10","subject_id":"61322d8486840a4a87d32266","study_id":"6197b3f67c2b5cd3b6d9596a","session_id":"6197b59a0ae11082c41004ba","condition":"full-information","relevant_dimensions":["wings","pattern"],"bee_group":{"antennae":"X","wings":"2","pattern":"S","legs":"X"},"bonus":1.6400000000000012},{"rt":16071.299999952316,"stimulus":"bees-with-color/bee-A2DF.svg","response":0,"trial_type":"image-button-response","trial_index":147,"time_elapsed":2430482,"internal_node_id":"0.0-6.0-0.11","subject_id":"61322d8486840a4a87d32266","study_id":"6197b3f67c2b5cd3b6d9596a","session_id":"6197b59a0ae11082c41004ba","condition":"full-information","relevant_dimensions":["wings","pattern"],"bee_group":{"antennae":"X","wings":"2","pattern":"S","legs":"X"},"bonus":1.6400000000000012},{"rt":7910.300000071526,"stimulus":"bees-with-color/bee-B2DM.svg","response":0,"trial_type":"image-button-response","trial_index":148,"time_elapsed":2438394,"internal_node_id":"0.0-6.0-0.12","subject_id":"61322d8486840a4a87d32266","study_id":"6197b3f67c2b5cd3b6d9596a","session_id":"6197b59a0ae11082c41004ba","condition":"full-information","relevant_dimensions":["wings","pattern"],"bee_group":{"antennae":"X","wings":"2","pattern":"S","legs":"X"},"bonus":1.6400000000000012},{"rt":15692.100000023842,"stimulus":"bees-with-color/bee-B1SF.svg","response":0,"trial_type":"image-button-response","trial_index":149,"time_elapsed":2454089,"internal_node_id":"0.0-6.0-0.13","subject_id":"61322d8486840a4a87d32266","study_id":"6197b3f67c2b5cd3b6d9596a","session_id":"6197b59a0ae11082c41004ba","condition":"full-information","relevant_dimensions":["wings","pattern"],"bee_group":{"antennae":"X","wings":"2","pattern":"S","legs":"X"},"bonus":1.6400000000000012},{"rt":19638.100000023842,"stimulus":"bees-with-color/bee-B2SM.svg","response":1,"trial_type":"image-button-response","trial_index":150,"time_elapsed":2473730,"internal_node_id":"0.0-6.0-0.14","subject_id":"61322d8486840a4a87d32266","study_id":"6197b3f67c2b5cd3b6d9596a","session_id":"6197b59a0ae11082c41004ba","condition":"full-information","relevant_dimensions":["wings","pattern"],"bee_group":{"antennae":"X","wings":"2","pattern":"S","legs":"X"},"bonus":1.6400000000000012},{"rt":18097.700000047684,"stimulus":"bees-with-color/bee-A2DM.svg","response":0,"trial_type":"image-button-response","trial_index":151,"time_elapsed":2491830,"internal_node_id":"0.0-6.0-0.15","subject_id":"61322d8486840a4a87d32266","study_id":"6197b3f67c2b5cd3b6d9596a","session_id":"6197b59a0ae11082c41004ba","condition":"full-information","relevant_dimensions":["wings","pattern"],"bee_group":{"antennae":"X","wings":"2","pattern":"S","legs":"X"},"bonus":1.6400000000000012},{"rt":21470,"stimulus":"bees-with-color/bee-A1DF.svg","response":0,"trial_type":"image-button-response","trial_index":152,"time_elapsed":2513302,"internal_node_id":"0.0-6.0-0.16","subject_id":"61322d8486840a4a87d32266","study_id":"6197b3f67c2b5cd3b6d9596a","session_id":"6197b59a0ae11082c41004ba","condition":"full-information","relevant_dimensions":["wings","pattern"],"bee_group":{"antennae":"X","wings":"2","pattern":"S","legs":"X"},"bonus":1.6400000000000012},{"rt":13545.299999952316,"stimulus":"bees-with-color/bee-B2SF.svg","response":1,"trial_type":"image-button-response","trial_index":153,"time_elapsed":2526849,"internal_node_id":"0.0-6.0-0.17","subject_id":"61322d8486840a4a87d32266","study_id":"6197b3f67c2b5cd3b6d9596a","session_id":"6197b59a0ae11082c41004ba","condition":"full-information","relevant_dimensions":["wings","pattern"],"bee_group":{"antennae":"X","wings":"2","pattern":"S","legs":"X"},"bonus":1.6400000000000012},{"rt":42695.39999997616,"stimulus":"bees-with-color/bee-B1SF.svg","response":1,"trial_type":"image-button-response","trial_index":154,"time_elapsed":2569548,"internal_node_id":"0.0-6.0-0.18","subject_id":"61322d8486840a4a87d32266","study_id":"6197b3f67c2b5cd3b6d9596a","session_id":"6197b59a0ae11082c41004ba","condition":"full-information","relevant_dimensions":["wings","pattern"],"bee_group":{"antennae":"X","wings":"2","pattern":"S","legs":"X"},"bonus":1.6400000000000012},{"rt":12993.599999904633,"stimulus":"bees-with-color/bee-B1DM.svg","response":0,"trial_type":"image-button-response","trial_index":155,"time_elapsed":2582544,"internal_node_id":"0.0-6.0-0.19","subject_id":"61322d8486840a4a87d32266","study_id":"6197b3f67c2b5cd3b6d9596a","session_id":"6197b59a0ae11082c41004ba","condition":"full-information","relevant_dimensions":["wings","pattern"],"bee_group":{"antennae":"X","wings":"2","pattern":"S","legs":"X"},"bonus":1.6400000000000012},{"rt":13494.399999976158,"stimulus":"bees-with-color/bee-A2DM.svg","response":0,"trial_type":"image-button-response","trial_index":156,"time_elapsed":2596041,"internal_node_id":"0.0-6.0-0.20","subject_id":"61322d8486840a4a87d32266","study_id":"6197b3f67c2b5cd3b6d9596a","session_id":"6197b59a0ae11082c41004ba","condition":"full-information","relevant_dimensions":["wings","pattern"],"bee_group":{"antennae":"X","wings":"2","pattern":"S","legs":"X"},"bonus":1.6400000000000012},{"rt":26777.799999952316,"stimulus":"bees-with-color/bee-B1SM.svg","response":0,"trial_type":"image-button-res