[{"success":true,"trial_type":"fullscreen","trial_index":0,"time_elapsed":6577,"internal_node_id":"0.0-0.0","subject_id":"615aceb06ae03ef88ac6fd1d","study_id":"60edd13110225f80f9f3709b","session_id":"6196baa9652fe09b9fb1b305","condition":"full-information","relevant_dimensions":["pattern","legs"],"bee_group":{"antennae":"X","wings":"X","pattern":"S","legs":"F"},"bonus":1.3800000000000008},{"success":true,"timeout":false,"failed_images":[],"failed_audio":[],"failed_video":[],"trial_type":"preload","trial_index":1,"time_elapsed":11689,"internal_node_id":"0.0-1.0","subject_id":"615aceb06ae03ef88ac6fd1d","study_id":"60edd13110225f80f9f3709b","session_id":"6196baa9652fe09b9fb1b305","condition":"full-information","relevant_dimensions":["pattern","legs"],"bee_group":{"antennae":"X","wings":"X","pattern":"S","legs":"F"},"bonus":1.3800000000000008},{"rt":3830.9999999999964,"stimulus":"Welcome! Press any key to begin.","response":" ","trial_type":"html-keyboard-response","trial_index":2,"time_elapsed":15522,"internal_node_id":"0.0-2.0","subject_id":"615aceb06ae03ef88ac6fd1d","study_id":"60edd13110225f80f9f3709b","session_id":"6196baa9652fe09b9fb1b305","condition":"full-information","relevant_dimensions":["pattern","legs"],"bee_group":{"antennae":"X","wings":"X","pattern":"S","legs":"F"},"bonus":1.3800000000000008},{"view_history":[{"page_index":0,"viewing_time":7168},{"page_index":1,"viewing_time":22918},{"page_index":2,"viewing_time":21518},{"page_index":3,"viewing_time":23686},{"page_index":4,"viewing_time":8500},{"page_index":5,"viewing_time":15268.000000000015},{"page_index":6,"viewing_time":20200.999999999985},{"page_index":7,"viewing_time":14301.00000000003},{"page_index":8,"viewing_time":5116.999999999971},{"page_index":9,"viewing_time":12318},{"page_index":10,"viewing_time":5267.000000000029},{"page_index":11,"viewing_time":19067.99999999997},{"page_index":12,"viewing_time":21520},{"page_index":13,"viewing_time":2031.000000000029},{"page_index":14,"viewing_time":4334}],"rt":203215.00000000003,"trial_type":"instructions","trial_index":3,"time_elapsed":218733,"internal_node_id":"0.0-3.0-0.0","subject_id":"615aceb06ae03ef88ac6fd1d","study_id":"60edd13110225f80f9f3709b","session_id":"6196baa9652fe09b9fb1b305","condition":"full-information","relevant_dimensions":["pattern","legs"],"bee_group":{"antennae":"X","wings":"X","pattern":"S","legs":"F"},"bonus":1.3800000000000008},{"rt":24569.99999999997,"response":{"Q0":["Two or six legs","Stripes or spots on body","Single or double wings","Antennae or no antennae"]},"question_order":[0],"trial_type":"survey-multi-select","trial_index":4,"time_elapsed":243308,"internal_node_id":"0.0-3.0-1.0","subject_id":"615aceb06ae03ef88ac6fd1d","study_id":"60edd13110225f80f9f3709b","session_id":"6196baa9652fe09b9fb1b305","condition":"full-information","relevant_dimensions":["pattern","legs"],"bee_group":{"antennae":"X","wings":"X","pattern":"S","legs":"F"},"correct":true,"bonus":1.3800000000000008},{"rt":55313,"response":{"Q1":"Yes.","Q2":"Based on the four features of the bee.","Q3":"You do not learn if it was friendly or dangerous, and do not alter your bonus."},"question_order":[0,1,2],"trial_type":"survey-multi-choice","trial_index":5,"time_elapsed":298626,"internal_node_id":"0.0-3.0-2.0","subject_id":"615aceb06ae03ef88ac6fd1d","study_id":"60edd13110225f80f9f3709b","session_id":"6196baa9652fe09b9fb1b305","condition":"full-information","relevant_dimensions":["pattern","legs"],"bee_group":{"antennae":"X","wings":"X","pattern":"S","legs":"F"},"correct":false,"bonus":1.3800000000000008},{"rt":4590,"stimulus":"<p>You did not answer all comprehension questions correctly.<br>Press <b>continue</b> to review the instructions again.</p>","response":0,"trial_type":"html-button-response","trial_index":6,"time_elapsed":303220,"internal_node_id":"0.0-3.0-3.0","subject_id":"615aceb06ae03ef88ac6fd1d","study_id":"60edd13110225f80f9f3709b","session_id":"6196baa9652fe09b9fb1b305","condition":"full-information","relevant_dimensions":["pattern","legs"],"bee_group":{"antennae":"X","wings":"X","pattern":"S","legs":"F"},"bonus":1.3800000000000008},{"view_history":[{"page_index":0,"viewing_time":3948},{"page_index":1,"viewing_time":27752},{"page_index":2,"viewing_time":19235},{"page_index":3,"viewing_time":17201},{"page_index":4,"viewing_time":11001},{"page_index":5,"viewing_time":25152},{"page_index":6,"viewing_time":10167},{"page_index":7,"viewing_time":5250},{"page_index":8,"viewing_time":2867},{"page_index":9,"viewing_time":3167},{"page_index":10,"viewing_time":2050},{"page_index":11,"viewing_time":10834},{"page_index":12,"viewing_time":3234},{"page_index":13,"viewing_time":1483},{"page_index":14,"viewing_time":784}],"rt":144125,"trial_type":"instructions","trial_index":7,"time_elapsed":447342,"internal_node_id":"0.0-3.0-4.0-0.0","subject_id":"615aceb06ae03ef88ac6fd1d","study_id":"60edd13110225f80f9f3709b","session_id":"6196baa9652fe09b9fb1b305","condition":"full-information","relevant_dimensions":["pattern","legs"],"bee_group":{"antennae":"X","wings":"X","pattern":"S","legs":"F"},"bonus":1.3800000000000008},{"rt":8050.000000000058,"response":{"Q0":["Two or six legs","Stripes or spots on body","Single or double wings","Antennae or no antennae"]},"question_order":[0],"trial_type":"survey-multi-select","trial_index":8,"time_elapsed":455397,"internal_node_id":"0.0-3.0-4.0-1.0","subject_id":"615aceb06ae03ef88ac6fd1d","study_id":"60edd13110225f80f9f3709b","session_id":"6196baa9652fe09b9fb1b305","condition":"full-information","relevant_dimensions":["pattern","legs"],"bee_group":{"antennae":"X","wings":"X","pattern":"S","legs":"F"},"correct":true,"bonus":1.3800000000000008},{"rt":30546,"response":{"Q1":"No.","Q2":"Based on the four features of the bee.","Q3":"You learn if it was friendly or dangerous, but do not alter your bonus."},"question_order":[0,1,2],"trial_type":"survey-multi-choice","trial_index":9,"time_elapsed":485948,"internal_node_id":"0.0-3.0-4.0-2.0","subject_id":"615aceb06ae03ef88ac6fd1d","study_id":"60edd13110225f80f9f3709b","session_id":"6196baa9652fe09b9fb1b305","condition":"full-information","relevant_dimensions":["pattern","legs"],"bee_group":{"antennae":"X","wings":"X","pattern":"S","legs":"F"},"correct":true,"bonus":1.3800000000000008},{"rt":3865,"stimulus":"<p>Congrats, you got everything right<br>When you're ready, click the button below to continue to the experiment.</p>","response":0,"trial_type":"html-button-response","trial_index":10,"time_elapsed":489818,"internal_node_id":"0.0-3.0-4.0-3.0","subject_id":"615aceb06ae03ef88ac6fd1d","study_id":"60edd13110225f80f9f3709b","session_id":"6196baa9652fe09b9fb1b305","condition":"full-information","relevant_dimensions":["pattern","legs"],"bee_group":{"antennae":"X","wings":"X","pattern":"S","legs":"F"},"bonus":1.3800000000000008},{"rt":5541,"stimulus":"bees-with-color/bee-A1SF.svg","response":0,"trial_type":"image-button-response","trial_index":11,"time_elapsed":495361,"internal_node_id":"0.0-4.0-0.0","subject_id":"615aceb06ae03ef88ac6fd1d","study_id":"60edd13110225f80f9f3709b","session_id":"6196baa9652fe09b9fb1b305","condition":"full-information","relevant_dimensions":["pattern","legs"],"bee_group":{"antennae":"X","wings":"X","pattern":"S","legs":"F"},"action":"harvest","summary":"bad-harvest","bonus":1.3800000000000008},{"rt":16797.00000000006,"stimulus":"\n                    <p><b>Action: <em>harvest</em></b></p>\n                    <p>This is the bee that you just saw.</p>\n                    <img src=\"bees-with-color/bee-A1SF.svg\" width=\"200\">\n                    <p><span class=\"redText\">Bad choice, the bee was angry.</span><br><b>You have been stung!</b><br>Your pay has been decreased by $0.10. Your bonus pay is now $0.44.</p>\n            ","response":0,"trial_type":"html-button-response","trial_index":12,"time_elapsed":512162,"internal_node_id":"0.0-4.0-1.0","subject_id":"615aceb06ae03ef88ac6fd1d","study_id":"60edd13110225f80f9f3709b","session_id":"6196baa9652fe09b9fb1b305","condition":"full-information","relevant_dimensions":["pattern","legs"],"bee_group":{"antennae":"X","wings":"X","pattern":"S","legs":"F"},"bonus":1.3800000000000008},{"rt":6564.000000000058,"stimulus":"bees-with-color/bee-A1DF.svg","response":0,"trial_type":"image-button-response","trial_index":13,"time_elapsed":518729,"internal_node_id":"0.0-4.0-0.1","subject_id":"615aceb06ae03ef88ac6fd1d","study_id":"60edd13110225f80f9f3709b","session_id":"6196baa9652fe09b9fb1b305","condition":"full-information","relevant_dimensions":["pattern","legs"],"bee_group":{"antennae":"X","wings":"X","pattern":"S","legs":"F"},"action":"harvest","summary":"good-harvest","bonus":1.3800000000000008},{"rt":7432,"stimulus":"\n                    <p><b>Action: <em>harvest</em></b></p>\n                    <p>This is the bee that you just saw.</p>\n                    <img src=\"bees-with-color/bee-A1DF.svg\" width=\"200\">\n                    <p><span class=\"greenText\"><b>Successful harvest!</b></span><br>Your pay has increased by $0.02. Your bonus pay is now $0.46.</p>\n            ","response":0,"trial_type":"html-button-response","trial_index":14,"time_elapsed":526162,"internal_node_id":"0.0-4.0-1.1","subject_id":"615aceb06ae03ef88ac6fd1d","study_id":"60edd13110225f80f9f3709b","session_id":"6196baa9652fe09b9fb1b305","condition":"full-information","relevant_dimensions":["pattern","legs"],"bee_group":{"antennae":"X","wings":"X","pattern":"S","legs":"F"},"bonus":1.3800000000000008},{"rt":4448,"stimulus":"bees-with-color/bee-A2SF.svg","response":1,"trial_type":"image-button-response","trial_index":15,"time_elapsed":530612,"internal_node_id":"0.0-4.0-0.2","subject_id":"615aceb06ae03ef88ac6fd1d","study_id":"60edd13110225f80f9f3709b","session_id":"6196baa9652fe09b9fb1b305","condition":"full-information","relevant_dimensions":["pattern","legs"],"bee_group":{"antennae":"X","wings":"X","pattern":"S","legs":"F"},"action":"avoid","summary":"good-avoid","bonus":1.3800000000000008},{"rt":15732,"stimulus":"\n                    <p><b>Action: <em>avoid</em></b></p>\n                    <p>This is the bee that you just saw.</p>\n                    <img src=\"bees-with-color/bee-A2SF.svg\" width=\"200\">\n                    <p><span class=\"greenText\">Good choice!</span>  This bee would have stung you.<br>Your bonus pay is unchanged, and remains at $0.46.</p>\n            ","response":0,"trial_type":"html-button-response","trial_index":16,"time_elapsed":546346,"internal_node_id":"0.0-4.0-1.2","subject_id":"615aceb06ae03ef88ac6fd1d","study_id":"60edd13110225f80f9f3709b","session_id":"6196baa9652fe09b9fb1b305","condition":"full-information","relevant_dimensions":["pattern","legs"],"bee_group":{"antennae":"X","wings":"X","pattern":"S","legs":"F"},"bonus":1.3800000000000008},{"rt":4563,"stimulus":"bees-with-color/bee-B2SM.svg","response":0,"trial_type":"image-button-response","trial_index":17,"time_elapsed":550913,"internal_node_id":"0.0-4.0-0.3","subject_id":"615aceb06ae03ef88ac6fd1d","study_id":"60edd13110225f80f9f3709b","session_id":"6196baa9652fe09b9fb1b305","condition":"full-information","relevant_dimensions":["pattern","legs"],"bee_group":{"antennae":"X","wings":"X","pattern":"S","legs":"F"},"action":"harvest","summary":"good-harvest","bonus":1.3800000000000008},{"rt":10682,"stimulus":"\n                    <p><b>Action: <em>harvest</em></b></p>\n                    <p>This is the bee that you just saw.</p>\n                    <img src=\"bees-with-color/bee-B2SM.svg\" width=\"200\">\n                    <p><span class=\"greenText\"><b>Successful harvest!</b></span><br>Your pay has increased by $0.02. Your bonus pay is now $0.48.</p>\n            ","response":0,"trial_type":"html-button-response","trial_index":18,"time_elapsed":561597,"internal_node_id":"0.0-4.0-1.3","subject_id":"615aceb06ae03ef88ac6fd1d","study_id":"60edd13110225f80f9f3709b","session_id":"6196baa9652fe09b9fb1b305","condition":"full-information","relevant_dimensions":["pattern","legs"],"bee_group":{"antennae":"X","wings":"X","pattern":"S","legs":"F"},"bonus":1.3800000000000008},{"rt":3666,"stimulus":"bees-with-color/bee-B2DF.svg","response":1,"trial_type":"image-button-response","trial_index":19,"time_elapsed":565264,"internal_node_id":"0.0-4.0-0.4","subject_id":"615aceb06ae03ef88ac6fd1d","study_id":"60edd13110225f80f9f3709b","session_id":"6196baa9652fe09b9fb1b305","condition":"full-information","relevant_dimensions":["pattern","legs"],"bee_group":{"antennae":"X","wings":"X","pattern":"S","legs":"F"},"action":"avoid","summary":"bad-avoid","bonus":1.3800000000000008},{"rt":5766,"stimulus":"\n                    <p><b>Action: <em>avoid</em></b></p>\n                    <p>This is the bee that you just saw.</p>\n                    <img src=\"bees-with-color/bee-B2DF.svg\" width=\"200\">\n                    <p><span class=\"redText\">Bad choice,</span> the bee was friendly.<br>Your bonus pay is unchanged, and remains at $0.48.</p>\n            ","response":0,"trial_type":"html-button-response","trial_index":20,"time_elapsed":571031,"internal_node_id":"0.0-4.0-1.4","subject_id":"615aceb06ae03ef88ac6fd1d","study_id":"60edd13110225f80f9f3709b","session_id":"6196baa9652fe09b9fb1b305","condition":"full-information","relevant_dimensions":["pattern","legs"],"bee_group":{"antennae":"X","wings":"X","pattern":"S","legs":"F"},"bonus":1.3800000000000008},{"rt":3666,"stimulus":"bees-with-color/bee-B1DM.svg","response":1,"trial_type":"image-button-response","trial_index":21,"time_elapsed":574698,"internal_node_id":"0.0-4.0-0.5","subject_id":"615aceb06ae03ef88ac6fd1d","study_id":"60edd13110225f80f9f3709b","session_id":"6196baa9652fe09b9fb1b305","condition":"full-information","relevant_dimensions":["pattern","legs"],"bee_group":{"antennae":"X","wings":"X","pattern":"S","legs":"F"},"action":"avoid","summary":"bad-avoid","bonus":1.3800000000000008},{"rt":3815,"stimulus":"\n                    <p><b>Action: <em>avoid</em></b></p>\n                    <p>This is the bee that you just saw.</p>\n                    <img src=\"bees-with-color/bee-B1DM.svg\" width=\"200\">\n                    <p><span class=\"redText\">Bad choice,</span> the bee was friendly.<br>Your bonus pay is unchanged, and remains at $0.48.</p>\n            ","response":0,"trial_type":"html-button-response","trial_index":22,"time_elapsed":578514,"internal_node_id":"0.0-4.0-1.5","subject_id":"615aceb06ae03ef88ac6fd1d","study_id":"60edd13110225f80f9f3709b","session_id":"6196baa9652fe09b9fb1b305","condition":"full-information","relevant_dimensions":["pattern","legs"],"bee_group":{"antennae":"X","wings":"X","pattern":"S","legs":"F"},"bonus":1.3800000000000008},{"rt":6165,"stimulus":"bees-with-color/bee-A2DM.svg","response":1,"trial_type":"image-button-response","trial_index":23,"time_elapsed":584681,"internal_node_id":"0.0-4.0-0.6","subject_id":"615aceb06ae03ef88ac6fd1d","study_id":"60edd13110225f80f9f3709b","session_id":"6196baa9652fe09b9fb1b305","condition":"full-information","relevant_dimensions":["pattern","legs"],"bee_group":{"antennae":"X","wings":"X","pattern":"S","legs":"F"},"action":"avoid","summary":"bad-avoid","bonus":1.3800000000000008},{"rt":2499,"stimulus":"\n                    <p><b>Action: <em>avoid</em></b></p>\n                    <p>This is the bee that you just saw.</p>\n                    <img src=\"bees-with-color/bee-A2DM.svg\" width=\"200\">\n                    <p><span class=\"redText\">Bad choice,</span> the bee was friendly.<br>Your bonus pay is unchanged, and remains at $0.48.</p>\n            ","response":0,"trial_type":"html-button-response","trial_index":24,"time_elapsed":587181,"internal_node_id":"0.0-4.0-1.6","subject_id":"615aceb06ae03ef88ac6fd1d","study_id":"60edd13110225f80f9f3709b","session_id":"6196baa9652fe09b9fb1b305","condition":"full-information","relevant_dimensions":["pattern","legs"],"bee_group":{"antennae":"X","wings":"X","pattern":"S","legs":"F"},"bonus":1.3800000000000008},{"rt":3266,"stimulus":"bees-with-color/bee-A2SM.svg","response":1,"trial_type":"image-button-response","trial_index":25,"time_elapsed":590448,"internal_node_id":"0.0-4.0-0.7","subject_id":"615aceb06ae03ef88ac6fd1d","study_id":"60edd13110225f80f9f3709b","session_id":"6196baa9652fe09b9fb1b305","condition":"full-information","relevant_dimensions":["pattern","legs"],"bee_group":{"antennae":"X","wings":"X","pattern":"S","legs":"F"},"action":"avoid","summary":"bad-avoid","bonus":1.3800000000000008},{"rt":3449.0000000001164,"stimulus":"\n                    <p><b>Action: <em>avoid</em></b></p>\n                    <p>This is the bee that you just saw.</p>\n                    <img src=\"bees-with-color/bee-A2SM.svg\" width=\"200\">\n                    <p><span class=\"redText\">Bad choice,</span> the bee was friendly.<br>Your bonus pay is unchanged, and remains at $0.48.</p>\n            ","response":0,"trial_type":"html-button-response","trial_index":26,"time_elapsed":593898,"internal_node_id":"0.0-4.0-1.7","subject_id":"615aceb06ae03ef88ac6fd1d","study_id":"60edd13110225f80f9f3709b","session_id":"6196baa9652fe09b9fb1b305","condition":"full-information","relevant_dimensions":["pattern","legs"],"bee_group":{"antennae":"X","wings":"X","pattern":"S","legs":"F"},"bonus":1.3800000000000008},{"rt":2249.0000000001164,"stimulus":"bees-with-color/bee-B2DM.svg","response":0,"trial_type":"image-button-response","trial_index":27,"time_elapsed":596148,"internal_node_id":"0.0-4.0-0.8","subject_id":"615aceb06ae03ef88ac6fd1d","study_id":"60edd13110225f80f9f3709b","session_id":"6196baa9652fe09b9fb1b305","condition":"full-information","relevant_dimensions":["pattern","legs"],"bee_group":{"antennae":"X","wings":"X","pattern":"S","legs":"F"},"action":"harvest","summary":"good-harvest","bonus":1.3800000000000008},{"rt":5698,"stimulus":"\n                    <p><b>Action: <em>harvest</em></b></p>\n                    <p>This is the bee that you just saw.</p>\n                    <img src=\"bees-with-color/bee-B2DM.svg\" width=\"200\">\n                    <p><span class=\"greenText\"><b>Successful harvest!</b></span><br>Your pay has increased by $0.02. Your bonus pay is now $0.50.</p>\n            ","response":0,"trial_type":"html-button-response","trial_index":28,"time_elapsed":601849,"internal_node_id":"0.0-4.0-1.8","subject_id":"615aceb06ae03ef88ac6fd1d","study_id":"60edd13110225f80f9f3709b","session_id":"6196baa9652fe09b9fb1b305","condition":"full-information","relevant_dimensions":["pattern","legs"],"bee_group":{"antennae":"X","wings":"X","pattern":"S","legs":"F"},"bonus":1.3800000000000008},{"rt":2247.9999999998836,"stimulus":"bees-with-color/bee-A2DF.svg","response":0,"trial_type":"image-button-response","trial_index":29,"time_elapsed":604098,"internal_node_id":"0.0-4.0-0.9","subject_id":"615aceb06ae03ef88ac6fd1d","study_id":"60edd13110225f80f9f3709b","session_id":"6196baa9652fe09b9fb1b305","condition":"full-information","relevant_dimensions":["pattern","legs"],"bee_group":{"antennae":"X","wings":"X","pattern":"S","legs":"F"},"action":"harvest","summary":"good-harvest","bonus":1.3800000000000008},{"rt":2364.9999999998836,"stimulus":"\n                    <p><b>Action: <em>harvest</em></b></p>\n                    <p>This is the bee that you just saw.</p>\n                    <img src=\"bees-with-color/bee-A2DF.svg\" width=\"200\">\n                    <p><span class=\"greenText\"><b>Successful harvest!</b></span><br>Your pay has increased by $0.02. Your bonus pay is now $0.52.</p>\n            ","response":0,"trial_type":"html-button-response","trial_index":30,"time_elapsed":606465,"internal_node_id":"0.0-4.0-1.9","subject_id":"615aceb06ae03ef88ac6fd1d","study_id":"60edd13110225f80f9f3709b","session_id":"6196baa9652fe09b9fb1b305","condition":"full-information","relevant_dimensions":["pattern","legs"],"bee_group":{"antennae":"X","wings":"X","pattern":"S","legs":"F"},"bonus":1.3800000000000008},{"rt":1765,"stimulus":"bees-with-color/bee-B1SF.svg","response":1,"trial_type":"image-button-response","trial_index":31,"time_elapsed":608232,"internal_node_id":"0.0-4.0-0.10","subject_id":"615aceb06ae03ef88ac6fd1d","study_id":"60edd13110225f80f9f3709b","session_id":"6196baa9652fe09b9fb1b305","condition":"full-information","relevant_dimensions":["pattern","legs"],"bee_group":{"antennae":"X","wings":"X","pattern":"S","legs":"F"},"action":"avoid","summary":"good-avoid","bonus":1.3800000000000008},{"rt":5132,"stimulus":"\n                    <p><b>Action: <em>avoid</em></b></p>\n                    <p>This is the bee that you just saw.</p>\n                    <img src=\"bees-with-color/bee-B1SF.svg\" width=\"200\">\n                    <p><span class=\"greenText\">Good choice!</span>  This bee would have stung you.<br>Your bonus pay is unchanged, and remains at $0.52.</p>\n            ","response":0,"trial_type":"html-button-response","trial_index":32,"time_elapsed":613366,"internal_node_id":"0.0-4.0-1.10","subject_id":"615aceb06ae03ef88ac6fd1d","study_id":"60edd13110225f80f9f3709b","session_id":"6196baa9652fe09b9fb1b305","condition":"full-information","relevant_dimensions":["pattern","legs"],"bee_group":{"antennae":"X","wings":"X","pattern":"S","legs":"F"},"bonus":1.3800000000000008},{"rt":1665,"stimulus":"bees-with-color/bee-A1DM.svg","response":0,"trial_type":"image-button-response","trial_index":33,"time_elapsed":615032,"internal_node_id":"0.0-4.0-0.11","subject_id":"615aceb06ae03ef88ac6fd1d","study_id":"60edd13110225f80f9f3709b","session_id":"6196baa9652fe09b9fb1b305","condition":"full-information","relevant_dimensions":["pattern","legs"],"bee_group":{"antennae":"X","wings":"X","pattern":"S","legs":"F"},"action":"harvest","summary":"good-harvest","bonus":1.3800000000000008},{"rt":3532.0000000001164,"stimulus":"\n                    <p><b>Action: <em>harvest</em></b></p>\n                    <p>This is the bee that you just saw.</p>\n                    <img src=\"bees-with-color/bee-A1DM.svg\" width=\"200\">\n                    <p><span class=\"greenText\"><b>Successful harvest!</b></span><br>Your pay has increased by $0.02. Your bonus pay is now $0.54.</p>\n            ","response":0,"trial_type":"html-button-response","trial_index":34,"time_elapsed":618566,"internal_node_id":"0.0-4.0-1.11","subject_id":"615aceb06ae03ef88ac6fd1d","study_id":"60edd13110225f80f9f3709b","session_id":"6196baa9652fe09b9fb1b305","condition":"full-information","relevant_dimensions":["pattern","legs"],"bee_group":{"antennae":"X","wings":"X","pattern":"S","legs":"F"},"bonus":1.3800000000000008},{"rt":2798,"stimulus":"bees-with-color/bee-B1DF.svg","response":0,"trial_type":"image-button-response","trial_index":35,"time_elapsed":621366,"internal_node_id":"0.0-4.0-0.12","subject_id":"615aceb06ae03ef88ac6fd1d","study_id":"60edd13110225f80f9f3709b","session_id":"6196baa9652fe09b9fb1b305","condition":"full-information","relevant_dimensions":["pattern","legs"],"bee_group":{"antennae":"X","wings":"X","pattern":"S","legs":"F"},"action":"harvest","summary":"good-harvest","bonus":1.3800000000000008},{"rt":3415,"stimulus":"\n                    <p><b>Action: <em>harvest</em></b></p>\n                    <p>This is the bee that you just saw.</p>\n                    <img src=\"bees-with-color/bee-B1DF.svg\" width=\"200\">\n                    <p><span class=\"greenText\"><b>Successful harvest!</b></span><br>Your pay has increased by $0.02. Your bonus pay is now $0.56.</p>\n            ","response":0,"trial_type":"html-button-response","trial_index":36,"time_elapsed":624783,"internal_node_id":"0.0-4.0-1.12","subject_id":"615aceb06ae03ef88ac6fd1d","study_id":"60edd13110225f80f9f3709b","session_id":"6196baa9652fe09b9fb1b305","condition":"full-information","relevant_dimensions":["pattern","legs"],"bee_group":{"antennae":"X","wings":"X","pattern":"S","legs":"F"},"bonus":1.3800000000000008},{"rt":3148,"stimulus":"bees-with-color/bee-A1SM.svg","response":1,"trial_type":"image-button-response","trial_index":37,"time_elapsed":627933,"internal_node_id":"0.0-4.0-0.13","subject_id":"615aceb06ae03ef88ac6fd1d","study_id":"60edd13110225f80f9f3709b","session_id":"6196baa9652fe09b9fb1b305","condition":"full-information","relevant_dimensions":["pattern","legs"],"bee_group":{"antennae":"X","wings":"X","pattern":"S","legs":"F"},"action":"avoid","summary":"bad-avoid","bonus":1.3800000000000008},{"rt":2649,"stimulus":"\n                    <p><b>Action: <em>avoid</em></b></p>\n                    <p>This is the bee that you just saw.</p>\n                    <img src=\"bees-with-color/bee-A1SM.svg\" width=\"200\">\n                    <p><span class=\"redText\">Bad choice,</span> the bee was friendly.<br>Your bonus pay is unchanged, and remains at $0.56.</p>\n            ","response":0,"trial_type":"html-button-response","trial_index":38,"time_elapsed":630583,"internal_node_id":"0.0-4.0-1.13","subject_id":"615aceb06ae03ef88ac6fd1d","study_id":"60edd13110225f80f9f3709b","session_id":"6196baa9652fe09b9fb1b305","condition":"full-information","relevant_dimensions":["pattern","legs"],"bee_group":{"antennae":"X","wings":"X","pattern":"S","legs":"F"},"bonus":1.3800000000000008},{"rt":1982,"stimulus":"bees-with-color/bee-B2SF.svg","response":1,"trial_type":"image-button-response","trial_index":39,"time_elapsed":632566,"internal_node_id":"0.0-4.0-0.14","subject_id":"615aceb06ae03ef88ac6fd1d","study_id":"60edd13110225f80f9f3709b","session_id":"6196baa9652fe09b9fb1b305","condition":"full-information","relevant_dimensions":["pattern","legs"],"bee_group":{"antennae":"X","wings":"X","pattern":"S","legs":"F"},"action":"avoid","summary":"good-avoid","bonus":1.3800000000000008},{"rt":3782,"stimulus":"\n                    <p><b>Action: <em>avoid</em></b></p>\n                    <p>This is the bee that you just saw.</p>\n                    <img src=\"bees-with-color/bee-B2SF.svg\" width=\"200\">\n                    <p><span class=\"greenText\">Good choice!</span>  This bee would have stung you.<br>Your bonus pay is unchanged, and remains at $0.56.</p>\n            ","response":0,"trial_type":"html-button-response","trial_index":40,"time_elapsed":636350,"internal_node_id":"0.0-4.0-1.14","subject_id":"615aceb06ae03ef88ac6fd1d","study_id":"60edd13110225f80f9f3709b","session_id":"6196baa9652fe09b9fb1b305","condition":"full-information","relevant_dimensions":["pattern","legs"],"bee_group":{"antennae":"X","wings":"X","pattern":"S","legs":"F"},"bonus":1.3800000000000008},{"rt":2166.0000000001164,"stimulus":"bees-with-color/bee-B1SM.svg","response":1,"trial_type":"image-button-response","trial_index":41,"time_elapsed":638517,"internal_node_id":"0.0-4.0-0.15","subject_id":"615aceb06ae03ef88ac6fd1d","study_id":"60edd13110225f80f9f3709b","session_id":"6196baa9652fe09b9fb1b305","condition":"full-information","relevant_dimensions":["pattern","legs"],"bee_group":{"antennae":"X","wings":"X","pattern":"S","legs":"F"},"action":"avoid","summary":"bad-avoid","bonus":1.3800000000000008},{"rt":2382,"stimulus":"\n                    <p><b>Action: <em>avoid</em></b></p>\n                    <p>This is the bee that you just saw.</p>\n                    <img src=\"bees-with-color/bee-B1SM.svg\" width=\"200\">\n                    <p><span class=\"redText\">Bad choice,</span> the bee was friendly.<br>Your bonus pay is unchanged, and remains at $0.56.</p>\n            ","response":0,"trial_type":"html-button-response","trial_index":42,"time_elapsed":640900,"internal_node_id":"0.0-4.0-1.15","subject_id":"615aceb06ae03ef88ac6fd1d","study_id":"60edd13110225f80f9f3709b","session_id":"6196baa9652fe09b9fb1b305","condition":"full-information","relevant_dimensions":["pattern","legs"],"bee_group":{"antennae":"X","wings":"X","pattern":"S","legs":"F"},"bonus":1.3800000000000008},{"rt":1748,"stimulus":"bees-with-color/bee-A1SF.svg","response":1,"trial_type":"image-button-response","trial_index":43,"time_elapsed":642650,"internal_node_id":"0.0-4.0-0.16","subject_id":"615aceb06ae03ef88ac6fd1d","study_id":"60edd13110225f80f9f3709b","session_id":"6196baa9652fe09b9fb1b305","condition":"full-information","relevant_dimensions":["pattern","legs"],"bee_group":{"antennae":"X","wings":"X","pattern":"S","legs":"F"},"action":"avoid","summary":"good-avoid","bonus":1.3800000000000008},{"rt":2832,"stimulus":"\n                    <p><b>Action: <em>avoid</em></b></p>\n                    <p>This is the bee that you just saw.</p>\n                    <img src=\"bees-with-color/bee-A1SF.svg\" width=\"200\">\n                    <p><span class=\"greenText\">Good choice!</span>  This bee would have stung you.<br>Your bonus pay is unchanged, and remains at $0.56.</p>\n            ","response":0,"trial_type":"html-button-response","trial_index":44,"time_elapsed":645484,"internal_node_id":"0.0-4.0-1.16","subject_id":"615aceb06ae03ef88ac6fd1d","study_id":"60edd13110225f80f9f3709b","session_id":"6196baa9652fe09b9fb1b305","condition":"full-information","relevant_dimensions":["pattern","legs"],"bee_group":{"antennae":"X","wings":"X","pattern":"S","legs":"F"},"bonus":1.3800000000000008},{"rt":1649,"stimulus":"bees-with-color/bee-B2SF.svg","response":1,"trial_type":"image-button-response","trial_index":45,"time_elapsed":647134,"internal_node_id":"0.0-4.0-0.17","subject_id":"615aceb06ae03ef88ac6fd1d","study_id":"60edd13110225f80f9f3709b","session_id":"6196baa9652fe09b9fb1b305","condition":"full-information","relevant_dimensions":["pattern","legs"],"bee_group":{"antennae":"X","wings":"X","pattern":"S","legs":"F"},"action":"avoid","summary":"good-avoid","bonus":1.3800000000000008},{"rt":2299,"stimulus":"\n                    <p><b>Action: <em>avoid</em></b></p>\n                    <p>This is the bee that you just saw.</p>\n                    <img src=\"bees-with-color/bee-B2SF.svg\" width=\"200\">\n                    <p><span class=\"greenText\">Good choice!</span>  This bee would have stung you.<br>Your bonus pay is unchanged, and remains at $0.56.</p>\n            ","response":0,"trial_type":"html-button-response","trial_index":46,"time_elapsed":649434,"internal_node_id":"0.0-4.0-1.17","subject_id":"615aceb06ae03ef88ac6fd1d","study_id":"60edd13110225f80f9f3709b","session_id":"6196baa9652fe09b9fb1b305","condition":"full-information","relevant_dimensions":["pattern","legs"],"bee_group":{"antennae":"X","wings":"X","pattern":"S","legs":"F"},"bonus":1.3800000000000008},{"rt":4631,"stimulus":"bees-with-color/bee-B2SM.svg","response":0,"trial_type":"image-button-response","trial_index":47,"time_elapsed":654067,"internal_node_id":"0.0-4.0-0.18","subject_id":"615aceb06ae03ef88ac6fd1d","study_id":"60edd13110225f80f9f3709b","session_id":"6196baa9652fe09b9fb1b305","condition":"full-information","relevant_dimensions":["pattern","legs"],"bee_group":{"antennae":"X","wings":"X","pattern":"S","legs":"F"},"action":"harvest","summary":"good-harvest","bonus":1.3800000000000008},{"rt":2731,"stimulus":"\n                    <p><b>Action: <em>harvest</em></b></p>\n                    <p>This is the bee that you just saw.</p>\n                    <img src=\"bees-with-color/bee-B2SM.svg\" width=\"200\">\n                    <p><span class=\"greenText\"><b>Successful harvest!</b></span><br>Your pay has increased by $0.02. Your bonus pay is now $0.58.</p>\n            ","response":0,"trial_type":"html-button-response","trial_index":48,"time_elapsed":656801,"internal_node_id":"0.0-4.0-1.18","subject_id":"615aceb06ae03ef88ac6fd1d","study_id":"60edd13110225f80f9f3709b","session_id":"6196baa9652fe09b9fb1b305","condition":"full-information","relevant_dimensions":["pattern","legs"],"bee_group":{"antennae":"X","wings":"X","pattern":"S","legs":"F"},"bonus":1.3800000000000008},{"rt":2399,"stimulus":"bees-with-color/bee-A2DF.svg","response":0,"trial_type":"image-button-response","trial_index":49,"time_elapsed":659201,"internal_node_id":"0.0-4.0-0.19","subject_id":"615aceb06ae03ef88ac6fd1d","study_id":"60edd13110225f80f9f3709b","session_id":"6196baa9652fe09b9fb1b305","condition":"full-information","relevant_dimensions":["pattern","legs"],"bee_group":{"antennae":"X","wings":"X","pattern":"S","legs":"F"},"action":"harvest","summary":"good-harvest","bonus":1.3800000000000008},{"rt":2748,"stimulus":"\n                    <p><b>Action: <em>harvest</em></b></p>\n                    <p>This is the bee that you just saw.</p>\n                    <img src=\"bees-with-color/bee-A2DF.svg\" width=\"200\">\n                    <p><span class=\"greenText\"><b>Successful harvest!</b></span><br>Your pay has increased by $0.02. Your bonus pay is now $0.60.</p>\n            ","response":0,"trial_type":"html-button-response","trial_index":50,"time_elapsed":661951,"internal_node_id":"0.0-4.0-1.19","subject_id":"615aceb06ae03ef88ac6fd1d","study_id":"60edd13110225f80f9f3709b","session_id":"6196baa9652fe09b9fb1b305","condition":"full-information","relevant_dimensions":["pattern","legs"],"bee_group":{"antennae":"X","wings":"X","pattern":"S","legs":"F"},"bonus":1.3800000000000008},{"rt":2365,"stimulus":"bees-with-color/bee-A2DM.svg","response":0,"trial_type":"image-button-response","trial_index":51,"time_elapsed":664318,"internal_node_id":"0.0-4.0-0.20","subject_id":"615aceb06ae03ef88ac6fd1d","study_id":"60edd13110225f80f9f3709b","session_id":"6196baa9652fe09b9fb1b305","condition":"full-information","relevant_dimensions":["pattern","legs"],"bee_group":{"antennae":"X","wings":"X","pattern":"S","legs":"F"},"action":"harvest","summary":"good-harvest","bonus":1.3800000000000008},{"rt":2131.9999999998836,"stimulus":"\n                    <p><b>Action: <em>harvest</em></b></p>\n                    <p>This is the bee that you just saw.</p>\n                    <img src=\"bees-with-color/bee-A2DM.svg\" width=\"200\">\n                    <p><span class=\"greenText\"><b>Successful harvest!</b></span><br>Your pay has increased by $0.02. Your bonus pay is now $0.62.</p>\n            ","response":0,"trial_type":"html-button-response","trial_index":52,"time_elapsed":666451,"internal_node_id":"0.0-4.0-1.20","subject_id":"615aceb06ae03ef88ac6fd1d","study_id":"60edd13110225f80f9f3709b","session_id":"6196baa9652fe09b9fb1b305","condition":"full-information","relevant_dimensions":["pattern","legs"],"bee_group":{"antennae":"X","wings":"X","pattern":"S","legs":"F"},"bonus":1.3800000000000008},{"rt":1598,"stimulus":"bees-with-color/bee-B1SM.svg","response":1,"trial_type":"image-button-response","trial_index":53,"time_elapsed":668051,"internal_node_id":"0.0-4.0-0.21","subject_id":"615aceb06ae03ef88ac6fd1d","study_id":"60edd13110225f80f9f3709b","session_id":"6196baa9652fe09b9fb1b305","condition":"full-information","relevant_dimensions":["pattern","legs"],"bee_group":{"antennae":"X","wings":"X","pattern":"S","legs":"F"},"action":"avoid","summary":"bad-avoid","bonus":1.3800000000000008},{"rt":1915.0000000001164,"stimulus":"\n                    <p><b>Action: <em>avoid</em></b></p>\n                    <p>This is the bee that you just saw.</p>\n                    <img src=\"bees-with-color/bee-B1SM.svg\" width=\"200\">\n                    <p><span class=\"redText\">Bad choice,</span> the bee was friendly.<br>Your bonus pay is unchanged, and remains at $0.62.</p>\n            ","response":0,"trial_type":"html-button-response","trial_index":54,"time_elapsed":669968,"internal_node_id":"0.0-4.0-1.21","subject_id":"615aceb06ae03ef88ac6fd1d","study_id":"60edd13110225f80f9f3709b","session_id":"6196baa9652fe09b9fb1b305","condition":"full-information","relevant_dimensions":["pattern","legs"],"bee_group":{"antennae":"X","wings":"X","pattern":"S","legs":"F"},"bonus":1.3800000000000008},{"rt":1666,"stimulus":"bees-with-color/bee-B1DM.svg","response":0,"trial_type":"image-button-response","trial_index":55,"time_elapsed":671635,"internal_node_id":"0.0-4.0-0.22","subject_id":"615aceb06ae03ef88ac6fd1d","study_id":"60edd13110225f80f9f3709b","session_id":"6196baa9652fe09b9fb1b305","condition":"full-information","relevant_dimensions":["pattern","legs"],"bee_group":{"antennae":"X","wings":"X","pattern":"S","legs":"F"},"action":"harvest","summary":"good-harvest","bonus":1.3800000000000008},{"rt":1998,"stimulus":"\n                    <p><b>Action: <em>harvest</em></b></p>\n                    <p>This is the bee that you just saw.</p>\n                    <img src=\"bees-with-color/bee-B1DM.svg\" width=\"200\">\n                    <p><span class=\"greenText\"><b>Successful harvest!</b></span><br>Your pay has increased by $0.02. Your bonus pay is now $0.64.</p>\n            ","response":0,"trial_type":"html-button-response","trial_index":56,"time_elapsed":673635,"internal_node_id":"0.0-4.0-1.22","subject_id":"615aceb06ae03ef88ac6fd1d","study_id":"60edd13110225f80f9f3709b","session_id":"6196baa9652fe09b9fb1b305","condition":"full-information","relevant_dimensions":["pattern","legs"],"bee_group":{"antennae":"X","wings":"X","pattern":"S","legs":"F"},"bonus":1.3800000000000008},{"rt":2499,"stimulus":"bees-with-color/bee-A1DF.svg","response":0,"trial_type":"image-button-response","trial_index":57,"time_elapsed":676135,"internal_node_id":"0.0-4.0-0.23","subject_id":"615aceb06ae03ef88ac6fd1d","study_id":"60edd13110225f80f9f3709b","session_id":"6196baa9652fe09b9fb1b305","condition":"full-information","relevant_dimensions":["pattern","legs"],"bee_group":{"antennae":"X","wings":"X","pattern":"S","legs":"F"},"action":"harvest","summary":"good-harvest","bonus":1.3800000000000008},{"rt":2116,"stimulus":"\n                    <p><b>Action: <em>harvest</em></b></p>\n                    <p>This is the bee that you just saw.</p>\n                    <img src=\"bees-with-color/bee-A1DF.svg\" width=\"200\">\n                    <p><span class=\"greenText\"><b>Successful harvest!</b></span><br>Your pay has increased by $0.02. Your bonus pay is now $0.66.</p>\n            ","response":0,"trial_type":"html-button-response","trial_index":58,"time_elapsed":678252,"internal_node_id":"0.0-4.0-1.23","subject_id":"615aceb06ae03ef88ac6fd1d","study_id":"60edd13110225f80f9f3709b","session_id":"6196baa9652fe09b9fb1b305","condition":"full-information","relevant_dimensions":["pattern","legs"],"bee_group":{"antennae":"X","wings":"X","pattern":"S","legs":"F"},"bonus":1.3800000000000008},{"rt":2265,"stimulus":"bees-with-color/bee-A1DM.svg","response":0,"trial_type":"image-button-response","trial_index":59,"time_elapsed":680518,"internal_node_id":"0.0-4.0-0.24","subject_id":"615aceb06ae03ef88ac6fd1d","study_id":"60edd13110225f80f9f3709b","session_id":"6196baa9652fe09b9fb1b305","condition":"full-information","relevant_dimensions":["pattern","legs"],"bee_group":{"antennae":"X","wings":"X","pattern":"S","legs":"F"},"action":"harvest","summary":"good-harvest","bonus":1.3800000000000008},{"rt":2263.9999999998836,"stimulus":"\n                    <p><b>Action: <em>harvest</em></b></p>\n                    <p>This is the bee that you just saw.</p>\n                    <img src=\"bees-with-color/bee-A1DM.svg\" width=\"200\">\n                    <p><span class=\"greenText\"><b>Successful harvest!</b></span><br>Your pay has increased by $0.02. Your bonus pay is now $0.68.</p>\n            ","response":0,"trial_type":"html-button-response","trial_index":60,"time_elapsed":682785,"internal_node_id":"0.0-4.0-1.24","subject_id":"615aceb06ae03ef88ac6fd1d","study_id":"60edd13110225f80f9f3709b","session_id":"6196baa9652fe09b9fb1b305","condition":"full-information","relevant_dimensions":["pattern","legs"],"bee_group":{"antennae":"X","wings":"X","pattern":"S","legs":"F"},"bonus":1.3800000000000008},{"rt":3765,"stimulus":"bees-with-color/bee-B1DF.svg","response":1,"trial_type":"image-button-response","trial_index":61,"time_elapsed":686552,"internal_node_id":"0.0-4.0-0.25","subject_id":"615aceb06ae03ef88ac6fd1d","study_id":"60edd13110225f80f9f3709b","session_id":"6196baa9652fe09b9fb1b305","condition":"full-information","relevant_dimensions":["pattern","legs"],"bee_group":{"antennae":"X","wings":"X","pattern":"S","legs":"F"},"action":"avoid","summary":"bad-avoid","bonus":1.3800000000000008},{"rt":1715,"stimulus":"\n                    <p><b>Action: <em>avoid</em></b></p>\n                    <p>This is the bee that you just saw.</p>\n                    <img src=\"bees-with-color/bee-B1DF.svg\" width=\"200\">\n                    <p><span class=\"redText\">Bad choice,</span> the bee was friendly.<br>Your bonus pay is unchanged, and remains at $0.68.</p>\n            ","response":0,"trial_type":"html-button-response","trial_index":62,"time_elapsed":688269,"internal_node_id":"0.0-4.0-1.25","subject_id":"615aceb06ae03ef88ac6fd1d","study_id":"60edd13110225f80f9f3709b","session_id":"6196baa9652fe09b9fb1b305","condition":"full-information","relevant_dimensions":["pattern","legs"],"bee_group":{"antennae":"X","wings":"X","pattern":"S","legs":"F"},"bonus":1.3800000000000008},{"rt":2714.9999999998836,"stimulus":"bees-with-color/bee-B2DM.svg","response":0,"trial_type":"image-button-response","trial_index":63,"time_elapsed":690986,"internal_node_id":"0.0-4.0-0.26","subject_id":"615aceb06ae03ef88ac6fd1d","study_id":"60edd13110225f80f9f3709b","session_id":"6196baa9652fe09b9fb1b305","condition":"full-information","relevant_dimensions":["pattern","legs"],"bee_group":{"antennae":"X","wings":"X","pattern":"S","legs":"F"},"action":"harvest","summary":"good-harvest","bonus":1.3800000000000008},{"rt":1582,"stimulus":"\n                    <p><b>Action: <em>harvest</em></b></p>\n                    <p>This is the bee that you just saw.</p>\n                    <img src=\"bees-with-color/bee-B2DM.svg\" width=\"200\">\n                    <p><span class=\"greenText\"><b>Successful harvest!</b></span><br>Your pay has increased by $0.02. Your bonus pay is now $0.70.</p>\n            ","response":0,"trial_type":"html-button-response","trial_index":64,"time_elapsed":692569,"internal_node_id":"0.0-4.0-1.26","subject_id":"615aceb06ae03ef88ac6fd1d","study_id":"60edd13110225f80f9f3709b","session_id":"6196baa9652fe09b9fb1b305","condition":"full-information","relevant_dimensions":["pattern","legs"],"bee_group":{"antennae":"X","wings":"X","pattern":"S","legs":"F"},"bonus":1.3800000000000008},{"rt":1415,"stimulus":"bees-with-color/bee-B2DF.svg","response":0,"trial_type":"image-button-response","trial_index":65,"time_elapsed":693986,"internal_node_id":"0.0-4.0-0.27","subject_id":"615aceb06ae03ef88ac6fd1d","study_id":"60edd13110225f80f9f3709b","session_id":"6196baa9652fe09b9fb1b305","condition":"full-information","relevant_dimensions":["pattern","legs"],"bee_group":{"antennae":"X","wings":"X","pattern":"S","legs":"F"},"action":"harvest","summary":"good-harvest","bonus":1.3800000000000008},{"rt":2298,"stimulus":"\n                    <p><b>Action: <em>harvest</em></b></p>\n                    <p>This is the bee that you just saw.</p>\n                    <img src=\"bees-with-color/bee-B2DF.svg\" width=\"200\">\n                    <p><span class=\"greenText\"><b>Successful harvest!</b></span><br>Your pay has increased by $0.02. Your bonus pay is now $0.72.</p>\n            ","response":0,"trial_type":"html-button-response","trial_index":66,"time_elapsed":696286,"internal_node_id":"0.0-4.0-1.27","subject_id":"615aceb06ae03ef88ac6fd1d","study_id":"60edd13110225f80f9f3709b","session_id":"6196baa9652fe09b9fb1b305","condition":"full-information","relevant_dimensions":["pattern","legs"],"bee_group":{"antennae":"X","wings":"X","pattern":"S","legs":"F"},"bonus":1.3800000000000008},{"rt":1431,"stimulus":"bees-with-color/bee-A2SM.svg","response":1,"trial_type":"image-button-response","trial_index":67,"time_elapsed":697719,"internal_node_id":"0.0-4.0-0.28","subject_id":"615aceb06ae03ef88ac6fd1d","study_id":"60edd13110225f80f9f3709b","session_id":"6196baa9652fe09b9fb1b305","condition":"full-information","relevant_dimensions":["pattern","legs"],"bee_group":{"antennae":"X","wings":"X","pattern":"S","legs":"F"},"action":"avoid","summary":"bad-avoid","bonus":1.3800000000000008},{"rt":3049,"stimulus":"\n                    <p><b>Action: <em>avoid</em></b></p>\n                    <p>This is the bee that you just saw.</p>\n                    <img src=\"bees-with-color/bee-A2SM.svg\" width=\"200\">\n                    <p><span class=\"redText\">Bad choice,</span> the bee was friendly.<br>Your bonus pay is unchanged, and remains at $0.72.</p>\n            ","response":0,"trial_type":"html-button-response","trial_index":68,"time_elapsed":700769,"internal_node_id":"0.0-4.0-1.28","subject_id":"615aceb06ae03ef88ac6fd1d","study_id":"60edd13110225f80f9f3709b","session_id":"6196baa9652fe09b9fb1b305","condition":"full-information","relevant_dimensions":["pattern","legs"],"bee_group":{"antennae":"X","wings":"X","pattern":"S","legs":"F"},"bonus":1.3800000000000008},{"rt":1399,"stimulus":"bees-with-color/bee-B1SF.svg","response":1,"trial_type":"image-button-response","trial_index":69,"time_elapsed":702169,"internal_node_id":"0.0-4.0-0.29","subject_id":"615aceb06ae03ef88ac6fd1d","study_id":"60edd13110225f80f9f3709b","session_id":"6196baa9652fe09b9fb1b305","condition":"full-information","relevant_dimensions":["pattern","legs"],"bee_group":{"antennae":"X","wings":"X","pattern":"S","legs":"F"},"action":"avoid","summary":"good-avoid","bonus":1.3800000000000008},{"rt":2182,"stimulus":"\n                    <p><b>Action: <em>avoid</em></b></p>\n                    <p>This is the bee that you just saw.</p>\n                    <img src=\"bees-with-color/bee-B1SF.svg\" width=\"200\">\n                    <p><span class=\"greenText\">Good choice!</span>  This bee would have stung you.<br>Your bonus pay is unchanged, and remains at $0.72.</p>\n            ","response":0,"trial_type":"html-button-response","trial_index":70,"time_elapsed":704353,"internal_node_id":"0.0-4.0-1.29","subject_id":"615aceb06ae03ef88ac6fd1d","study_id":"60edd13110225f80f9f3709b","session_id":"6196baa9652fe09b9fb1b305","condition":"full-information","relevant_dimensions":["pattern","legs"],"bee_group":{"antennae":"X","wings":"X","pattern":"S","legs":"F"},"bonus":1.3800000000000008},{"rt":3515,"stimulus":"bees-with-color/bee-A1SM.svg","response":1,"trial_type":"image-button-response","trial_index":71,"time_elapsed":707869,"internal_node_id":"0.0-4.0-0.30","subject_id":"615aceb06ae03ef88ac6fd1d","study_id":"60edd13110225f80f9f3709b","session_id":"6196baa9652fe09b9fb1b305","condition":"full-information","relevant_dimensions":["pattern","legs"],"bee_group":{"antennae":"X","wings":"X","pattern":"S","legs":"F"},"action":"avoid","summary":"bad-avoid","bonus":1.3800000000000008},{"rt":1464.9999999998836,"stimulus":"\n                    <p><b>Action: <em>avoid</em></b></p>\n                    <p>This is the bee that you just saw.</p>\n                    <img src=\"bees-with-color/bee-A1SM.svg\" width=\"200\">\n                    <p><span class=\"redText\">Bad choice,</span> the bee was friendly.<br>Your bonus pay is unchanged, and remains at $0.72.</p>\n            ","response":0,"trial_type":"html-button-response","trial_index":72,"time_elapsed":709336,"internal_node_id":"0.0-4.0-1.30","subject_id":"615aceb06ae03ef88ac6fd1d","study_id":"60edd13110225f80f9f3709b","session_id":"6196baa9652fe09b9fb1b305","condition":"full-information","relevant_dimensions":["pattern","legs"],"bee_group":{"antennae":"X","wings":"X","pattern":"S","legs":"F"},"bonus":1.3800000000000008},{"rt":1531.9999999998836,"stimulus":"bees-with-color/bee-A2SF.svg","response":1,"trial_type":"image-button-response","trial_index":73,"time_elapsed":710870,"internal_node_id":"0.0-4.0-0.31","subject_id":"615aceb06ae03ef88ac6fd1d","study_id":"60edd13110225f80f9f3709b","session_id":"6196baa9652fe09b9fb1b305","condition":"full-information","relevant_dimensions":["pattern","legs"],"bee_group":{"antennae":"X","wings":"X","pattern":"S","legs":"F"},"action":"avoid","summary":"good-avoid","bonus":1.3800000000000008},{"rt":2313.9999999998836,"stimulus":"\n                    <p><b>Action: <em>avoid</em></b></p>\n                    <p>This is the bee that you just saw.</p>\n                    <img src=\"bees-with-color/bee-A2SF.svg\" width=\"200\">\n                    <p><span class=\"greenText\">Good choice!</span>  This bee would have stung you.<br>Your bonus pay is unchanged, and remains at $0.72.</p>\n            ","response":0,"trial_type":"html-button-response","trial_index":74,"time_elapsed":713186,"internal_node_id":"0.0-4.0-1.31","subject_id":"615aceb06ae03ef88ac6fd1d","study_id":"60edd13110225f80f9f3709b","session_id":"6196baa9652fe09b9fb1b305","condition":"full-information","relevant_dimensions":["pattern","legs"],"bee_group":{"antennae":"X","wings":"X","pattern":"S","legs":"F"},"bonus":1.3800000000000008},{"rt":2384,"stimulus":"bees-with-color/bee-B2DF.svg","response":0,"trial_type":"image-button-response","trial_index":75,"time_elapsed":715570,"internal_node_id":"0.0-4.0-0.32","subject_id":"615aceb06ae03ef88ac6fd1d","study_id":"60edd13110225f80f9f3709b","session_id":"6196baa9652fe09b9fb1b305","condition":"full-information","relevant_dimensions":["pattern","legs"],"bee_group":{"antennae":"X","wings":"X","pattern":"S","legs":"F"},"action":"harvest","summary":"good-harvest","bonus":1.3800000000000008},{"rt":1716,"stimulus":"\n                    <p><b>Action: <em>harvest</em></b></p>\n                    <p>This is the bee that you just saw.</p>\n                    <img src=\"bees-with-color/bee-B2DF.svg\" width=\"200\">\n                    <p><span class=\"greenText\"><b>Successful harvest!</b></span><br>Your pay has increased by $0.02. Your bonus pay is now $0.74.</p>\n            ","response":0,"trial_type":"html-button-response","trial_index":76,"time_elapsed":717287,"internal_node_id":"0.0-4.0-1.32","subject_id":"615aceb06ae03ef88ac6fd1d","study_id":"60edd13110225f80f9f3709b","session_id":"6196baa9652fe09b9fb1b305","condition":"full-information","relevant_dimensions":["pattern","legs"],"bee_group":{"antennae":"X","wings":"X","pattern":"S","legs":"F"},"bonus":1.3800000000000008},{"rt":1765,"stimulus":"bees-with-color/bee-B1DM.svg","response":0,"trial_type":"image-button-response","trial_index":77,"time_elapsed":719053,"internal_node_id":"0.0-4.0-0.33","subject_id":"615aceb06ae03ef88ac6fd1d","study_id":"60edd13110225f80f9f3709b","session_id":"6196baa9652fe09b9fb1b305","condition":"full-information","relevant_dimensions":["pattern","legs"],"bee_group":{"antennae":"X","wings":"X","pattern":"S","legs":"F"},"action":"harvest","summary":"good-harvest","bonus":1.3800000000000008},{"rt":2149,"stimulus":"\n                    <p><b>Action: <em>harvest</em></b></p>\n                    <p>This is the bee that you just saw.</p>\n                    <img src=\"bees-with-color/bee-B1DM.svg\" width=\"200\">\n                    <p><span class=\"greenText\"><b>Successful harvest!</b></span><br>Your pay has increased by $0.02. Your bonus pay is now $0.76.</p>\n            ","response":0,"trial_type":"html-button-response","trial_index":78,"time_elapsed":721204,"internal_node_id":"0.0-4.0-1.33","subject_id":"615aceb06ae03ef88ac6fd1d","study_id":"60edd13110225f80f9f3709b","session_id":"6196baa9652fe09b9fb1b305","condition":"full-information","relevant_dimensions":["pattern","legs"],"bee_group":{"antennae":"X","wings":"X","pattern":"S","legs":"F"},"bonus":1.3800000000000008},{"rt":2682,"stimulus":"bees-with-color/bee-A1SM.svg","response":0,"trial_type":"image-button-response","trial_index":79,"time_elapsed":723887,"internal_node_id":"0.0-4.0-0.34","subject_id":"615aceb06ae03ef88ac6fd1d","study_id":"60edd13110225f80f9f3709b","session_id":"6196baa9652fe09b9fb1b305","condition":"full-information","relevant_dimensions":["pattern","legs"],"bee_group":{"antennae":"X","wings":"X","pattern":"S","legs":"F"},"action":"harvest","summary":"good-harvest","bonus":1.3800000000000008},{"rt":3548,"stimulus":"\n                    <p><b>Action: <em>harvest</em></b></p>\n                    <p>This is the bee that you just saw.</p>\n                    <img src=\"bees-with-color/bee-A1SM.svg\" width=\"200\">\n                    <p><span class=\"greenText\"><b>Successful harvest!</b></span><br>Your pay has increased by $0.02. Your bonus pay is now $0.78.</p>\n            ","response":0,"trial_type":"html-button-response","trial_index":80,"time_elapsed":727437,"internal_node_id":"0.0-4.0-1.34","subject_id":"615aceb06ae03ef88ac6fd1d","study_id":"60edd13110225f80f9f3709b","session_id":"6196baa9652fe09b9fb1b305","condition":"full-information","relevant_dimensions":["pattern","legs"],"bee_group":{"antennae":"X","wings":"X","pattern":"S","legs":"F"},"bonus":1.3800000000000008},{"rt":1732,"stimulus":"bees-with-color/bee-B1DF.svg","response":0,"trial_type":"image-button-response","trial_index":81,"time_elapsed":729170,"internal_node_id":"0.0-4.0-0.35","subject_id":"615aceb06ae03ef88ac6fd1d","study_id":"60edd13110225f80f9f3709b","session_id":"6196baa9652fe09b9fb1b305","condition":"full-information","relevant_dimensions":["pattern","legs"],"bee_group":{"antennae":"X","wings":"X","pattern":"S","legs":"F"},"action":"harvest","summary":"good-harvest","bonus":1.3800000000000008},{"rt":1816,"stimulus":"\n                    <p><b>Action: <em>harvest</em></b></p>\n                    <p>This is the bee that you just saw.</p>\n                    <img src=\"bees-with-color/bee-B1DF.svg\" width=\"200\">\n                    <p><span class=\"greenText\"><b>Successful harvest!</b></span><br>Your pay has increased by $0.02. Your bonus pay is now $0.80.</p>\n            ","response":0,"trial_type":"html-button-response","trial_index":82,"time_elapsed":730987,"internal_node_id":"0.0-4.0-1.35","subject_id":"615aceb06ae03ef88ac6fd1d","study_id":"60edd13110225f80f9f3709b","session_id":"6196baa9652fe09b9fb1b305","condition":"full-information","relevant_dimensions":["pattern","legs"],"bee_group":{"antennae":"X","wings":"X","pattern":"S","legs":"F"},"bonus":1.3800000000000008},{"rt":2082,"stimulus":"bees-with-color/bee-B2SF.svg","response":1,"trial_type":"image-button-response","trial_index":83,"time_elapsed":733071,"internal_node_id":"0.0-4.0-0.36","subject_id":"615aceb06ae03ef88ac6fd1d","study_id":"60edd13110225f80f9f3709b","session_id":"6196baa9652fe09b9fb1b305","condition":"full-information","relevant_dimensions":["pattern","legs"],"bee_group":{"antennae":"X","wings":"X","pattern":"S","legs":"F"},"action":"avoid","summary":"good-avoid","bonus":1.3800000000000008},{"rt":2164.9999999998836,"stimulus":"\n                    <p><b>Action: <em>avoid</em></b></p>\n                    <p>This is the bee that you just saw.</p>\n                    <img src=\"bees-with-color/bee-B2SF.svg\" width=\"200\">\n                    <p><span class=\"greenText\">Good choice!</span>  This bee would have stung you.<br>Your bonus pay is unchanged, and remains at $0.80.</p>\n            ","response":0,"trial_type":"html-button-response","trial_index":84,"time_elapsed":735237,"internal_node_id":"0.0-4.0-1.36","subject_id":"615aceb06ae03ef88ac6fd1d","study_id":"60edd13110225f80f9f3709b","session_id":"6196baa9652fe09b9fb1b305","condition":"full-information","relevant_dimensions":["pattern","legs"],"bee_group":{"antennae":"X","wings":"X","pattern":"S","legs":"F"},"bonus":1.3800000000000008},{"rt":1382.0000000001164,"stimulus":"bees-with-color/bee-A2DM.svg","response":0,"trial_type":"image-button-response","trial_index":85,"time_elapsed":736621,"internal_node_id":"0.0-4.0-0.37","subject_id":"615aceb06ae03ef88ac6fd1d","study_id":"60edd13110225f80f9f3709b","session_id":"6196baa9652fe09b9fb1b305","condition":"full-information","relevant_dimensions":["pattern","legs"],"bee_group":{"antennae":"X","wings":"X","pattern":"S","legs":"F"},"action":"harvest","summary":"good-harvest","bonus":1.3800000000000008},{"rt":2082,"stimulus":"\n                    <p><b>Action: <em>harvest</em></b></p>\n                    <p>This is the bee that you just saw.</p>\n                    <img src=\"bees-with-color/bee-A2DM.svg\" width=\"200\">\n                    <p><span class=\"greenText\"><b>Successful harvest!</b></span><br>Your pay has increased by $0.02. Your bonus pay is now $0.82.</p>\n            ","response":0,"trial_type":"html-button-response","trial_index":86,"time_elapsed":738704,"internal_node_id":"0.0-4.0-1.37","subject_id":"615aceb06ae03ef88ac6fd1d","study_id":"60edd13110225f80f9f3709b","session_id":"6196baa9652fe09b9fb1b305","condition":"full-information","relevant_dimensions":["pattern","legs"],"bee_group":{"antennae":"X","wings":"X","pattern":"S","legs":"F"},"bonus":1.3800000000000008},{"rt":3666,"stimulus":"bees-with-color/bee-A2DF.svg","response":0,"trial_type":"image-button-response","trial_index":87,"time_elapsed":742371,"internal_node_id":"0.0-4.0-0.38","subject_id":"615aceb06ae03ef88ac6fd1d","study_id":"60edd13110225f80f9f3709b","session_id":"6196baa9652fe09b9fb1b305","condition":"full-information","relevant_dimensions":["pattern","legs"],"bee_group":{"antennae":"X","wings":"X","pattern":"S","legs":"F"},"action":"harvest","summary":"good-harvest","bonus":1.3800000000000008},{"rt":1799,"stimulus":"\n                    <p><b>Action: <em>harvest</em></b></p>\n                    <p>This is the bee that you just saw.</p>\n                    <img src=\"bees-with-color/bee-A2DF.svg\" width=\"200\">\n                    <p><span class=\"greenText\"><b>Successful harvest!</b></span><br>Your pay has increased by $0.02. Your bonus pay is now $0.84.</p>\n            ","response":0,"trial_type":"html-button-response","trial_index":88,"time_elapsed":744171,"internal_node_id":"0.0-4.0-1.38","subject_id":"615aceb06ae03ef88ac6fd1d","study_id":"60edd13110225f80f9f3709b","session_id":"6196baa9652fe09b9fb1b305","condition":"full-information","relevant_dimensions":["pattern","legs"],"bee_group":{"antennae":"X","wings":"X","pattern":"S","legs":"F"},"bonus":1.3800000000000008},{"rt":1499,"stimulus":"bees-with-color/bee-B1SF.svg","response":1,"trial_type":"image-button-response","trial_index":89,"time_elapsed":745671,"internal_node_id":"0.0-4.0-0.39","subject_id":"615aceb06ae03ef88ac6fd1d","study_id":"60edd13110225f80f9f3709b","session_id":"6196baa9652fe09b9fb1b305","condition":"full-information","relevant_dimensions":["pattern","legs"],"bee_group":{"antennae":"X","wings":"X","pattern":"S","legs":"F"},"action":"avoid","summary":"good-avoid","bonus":1.3800000000000008},{"rt":2216,"stimulus":"\n                    <p><b>Action: <em>avoid</em></b></p>\n                    <p>This is the bee that you just saw.</p>\n                    <img src=\"bees-with-color/bee-B1SF.svg\" width=\"200\">\n                    <p><span class=\"greenText\">Good choice!</span>  This bee would have stung you.<br>Your bonus pay is unchanged, and remains at $0.84.</p>\n            ","response":0,"trial_type":"html-button-response","trial_index":90,"time_elapsed":747888,"internal_node_id":"0.0-4.0-1.39","subject_id":"615aceb06ae03ef88ac6fd1d","study_id":"60edd13110225f80f9f3709b","session_id":"6196baa9652fe09b9fb1b305","condition":"full-information","relevant_dimensions":["pattern","legs"],"bee_group":{"antennae":"X","wings":"X","pattern":"S","legs":"F"},"bonus":1.3800000000000008},{"rt":1998.9999999998836,"stimulus":"bees-with-color/bee-B1SM.svg","response":1,"trial_type":"image-button-response","trial_index":91,"time_elapsed":749888,"internal_node_id":"0.0-4.0-0.40","subject_id":"615aceb06ae03ef88ac6fd1d","study_id":"60edd13110225f80f9f3709b","session_id":"6196baa9652fe09b9fb1b305","condition":"full-information","relevant_dimensions":["pattern","legs"],"bee_group":{"antennae":"X","wings":"X","pattern":"S","legs":"F"},"action":"avoid","summary":"bad-avoid","bonus":1.3800000000000008},{"rt":2365.9999999998836,"stimulus":"\n                    <p><b>Action: <em>avoid</em></b></p>\n                    <p>This is the bee that you just saw.</p>\n                    <img src=\"bees-with-color/bee-B1SM.svg\" width=\"200\">\n                    <p><span class=\"redText\">Bad choice,</span> the bee was friendly.<br>Your bonus pay is unchanged, and remains at $0.84.</p>\n            ","response":0,"trial_type":"html-button-response","trial_index":92,"time_elapsed":752255,"internal_node_id":"0.0-4.0-1.40","subject_id":"615aceb06ae03ef88ac6fd1d","study_id":"60edd13110225f80f9f3709b","session_id":"6196baa9652fe09b9fb1b305","condition":"full-information","relevant_dimensions":["pattern","legs"],"bee_group":{"antennae":"X","wings":"X","pattern":"S","legs":"F"},"bonus":1.3800000000000008},{"rt":1648,"stimulus":"bees-with-color/bee-A1SF.svg","response":1,"trial_type":"image-button-response","trial_index":93,"time_elapsed":753905,"internal_node_id":"0.0-4.0-0.41","subject_id":"615aceb06ae03ef88ac6fd1d","study_id":"60edd13110225f80f9f3709b","session_id":"6196baa9652fe09b9fb1b305","condition":"full-information","relevant_dimensions":["pattern","legs"],"bee_group":{"antennae":"X","wings":"X","pattern":"S","legs":"F"},"action":"avoid","summary":"good-avoid","bonus":1.3800000000000008},{"rt":2582,"stimulus":"\n                    <p><b>Action: <em>avoid</em></b></p>\n                    <p>This is the bee that you just saw.</p>\n                    <img src=\"bees-with-color/bee-A1SF.svg\" width=\"200\">\n                    <p><span class=\"greenText\">Good choice!</span>  This bee would have stung you.<br>Your bonus pay is unchanged, and remains at $0.84.</p>\n            ","response":0,"trial_type":"html-button-response","trial_index":94,"time_elapsed":756489,"internal_node_id":"0.0-4.0-1.41","subject_id":"615aceb06ae03ef88ac6fd1d","study_id":"60edd13110225f80f9f3709b","session_id":"6196baa9652fe09b9fb1b305","condition":"full-information","relevant_dimensions":["pattern","legs"],"bee_group":{"antennae":"X","wings":"X","pattern":"S","legs":"F"},"bonus":1.3800000000000008},{"rt":2464.9999999998836,"stimulus":"bees-with-color/bee-A2SF.svg","response":1,"trial_type":"image-button-response","trial_index":95,"time_elapsed":758955,"internal_node_id":"0.0-4.0-0.42","subject_id":"615aceb06ae03ef88ac6fd1d","study_id":"60edd13110225f80f9f3709b","session_id":"6196baa9652fe09b9fb1b305","condition":"full-information","relevant_dimensions":["pattern","legs"],"bee_group":{"antennae":"X","wings":"X","pattern":"S","legs":"F"},"action":"avoid","summary":"good-avoid","bonus":1.3800000000000008},{"rt":1715,"stimulus":"\n                    <p><b>Action: <em>avoid</em></b></p>\n                    <p>This is the bee that you just saw.</p>\n                    <img src=\"bees-with-color/bee-A2SF.svg\" width=\"200\">\n                    <p><span class=\"greenText\">Good choice!</span>  This bee would have stung you.<br>Your bonus pay is unchanged, and remains at $0.84.</p>\n            ","response":0,"trial_type":"html-button-response","trial_index":96,"time_elapsed":760672,"internal_node_id":"0.0-4.0-1.42","subject_id":"615aceb06ae03ef88ac6fd1d","study_id":"60edd13110225f80f9f3709b","session_id":"6196baa9652fe09b9fb1b305","condition":"full-information","relevant_dimensions":["pattern","legs"],"bee_group":{"antennae":"X","wings":"X","pattern":"S","legs":"F"},"bonus":1.3800000000000008},{"rt":1365.9999999998836,"stimulus":"bees-with-color/bee-A1DM.svg","response":0,"trial_type":"image-button-response","trial_index":97,"time_elapsed":762039,"internal_node_id":"0.0-4.0-0.43","subject_id":"615aceb06ae03ef88ac6fd1d","study_id":"60edd13110225f80f9f3709b","session_id":"6196baa9652fe09b9fb1b305","condition":"full-information","relevant_dimensions":["pattern","legs"],"bee_group":{"antennae":"X","wings":"X","pattern":"S","legs":"F"},"action":"harvest","summary":"good-harvest","bonus":1.3800000000000008},{"rt":1981,"stimulus":"\n                    <p><b>Action: <em>harvest</em></b></p>\n                    <p>This is the bee that you just saw.</p>\n                    <img src=\"bees-with-color/bee-A1DM.svg\" width=\"200\">\n                    <p><span class=\"greenText\"><b>Successful harvest!</b></span><br>Your pay has increased by $0.02. Your bonus pay is now $0.86.</p>\n            ","response":0,"trial_type":"html-button-response","trial_index":98,"time_elapsed":764022,"internal_node_id":"0.0-4.0-1.43","subject_id":"615aceb06ae03ef88ac6fd1d","study_id":"60edd13110225f80f9f3709b","session_id":"6196baa9652fe09b9fb1b305","condition":"full-information","relevant_dimensions":["pattern","legs"],"bee_group":{"antennae":"X","wings":"X","pattern":"S","legs":"F"},"bonus":1.3800000000000008},{"rt":1848,"stimulus":"bees-with-color/bee-B2DM.svg","response":0,"trial_type":"image-button-response","trial_index":99,"time_elapsed":765872,"internal_node_id":"0.0-4.0-0.44","subject_id":"615aceb06ae03ef88ac6fd1d","study_id":"60edd13110225f80f9f3709b","session_id":"6196baa9652fe09b9fb1b305","condition":"full-information","relevant_dimensions":["pattern","legs"],"bee_group":{"antennae":"X","wings":"X","pattern":"S","legs":"F"},"action":"harvest","summary":"good-harvest","bonus":1.3800000000000008},{"rt":1747,"stimulus":"\n                    <p><b>Action: <em>harvest</em></b></p>\n                    <p>This is the bee that you just saw.</p>\n                    <img src=\"bees-with-color/bee-B2DM.svg\" width=\"200\">\n                    <p><span class=\"greenText\"><b>Successful harvest!</b></span><br>Your pay has increased by $0.02. Your bonus pay is now $0.88.</p>\n            ","response":0,"trial_type":"html-button-response","trial_index":100,"time_elapsed":767622,"internal_node_id":"0.0-4.0-1.44","subject_id":"615aceb06ae03ef88ac6fd1d","study_id":"60edd13110225f80f9f3709b","session_id":"6196baa9652fe09b9fb1b305","condition":"full-information","relevant_dimensions":["pattern","legs"],"bee_group":{"antennae":"X","wings":"X","pattern":"S","legs":"F"},"bonus":1.3800000000000008},{"rt":2265.0000000001164,"stimulus":"bees-with-color/bee-A1DF.svg","response":0,"trial_type":"image-button-response","trial_index":101,"time_elapsed":769889,"internal_node_id":"0.0-4.0-0.45","subject_id":"615aceb06ae03ef88ac6fd1d","study_id":"60edd13110225f80f9f3709b","session_id":"6196baa9652fe09b9fb1b305","condition":"full-information","relevant_dimensions":["pattern","legs"],"bee_group":{"antennae":"X","wings":"X","pattern":"S","legs":"F"},"action":"harvest","summary":"good-harvest","bonus":1.3800000000000008},{"rt":1799,"stimulus":"\n                    <p><b>Action: <em>harvest</em></b></p>\n                    <p>This is the bee that you just saw.</p>\n                    <img src=\"bees-with-color/bee-A1DF.svg\" width=\"200\">\n                    <p><span class=\"greenText\"><b>Successful harvest!</b></span><br>Your pay has increased by $0.02. Your bonus pay is now $0.90.</p>\n            ","response":0,"trial_type":"html-button-response","trial_index":102,"time_elapsed":771689,"internal_node_id":"0.0-4.0-1.45","subject_id":"615aceb06ae03ef88ac6fd1d","study_id":"60edd13110225f80f9f3709b","session_id":"6196baa9652fe09b9fb1b305","condition":"full-information","relevant_dimensions":["pattern","legs"],"bee_group":{"antennae":"X","wings":"X","pattern":"S","legs":"F"},"bonus":1.3800000000000008},{"rt":2532,"stimulus":"bees-with-color/bee-A2SM.svg","response":0,"trial_type":"image-button-response","trial_index":103,"time_elapsed":774222,"internal_node_id":"0.0-4.0-0.46","subject_id":"615aceb06ae03ef88ac6fd1d","study_id":"60edd13110225f80f9f3709b","session_id":"6196baa9652fe09b9fb1b305","condition":"full-information","relevant_dimensions":["pattern","legs"],"bee_group":{"antennae":"X","wings":"X","pattern":"S","legs":"F"},"action":"harvest","summary":"good-harvest","bonus":1.3800000000000008},{"rt":2381,"stimulus":"\n                    <p><b>Action: <em>harvest</em></b></p>\n                    <p>This is the bee that you just saw.</p>\n                    <img src=\"bees-with-color/bee-A2SM.svg\" width=\"200\">\n                    <p><span class=\"greenText\"><b>Successful harvest!</b></span><br>Your pay has increased by $0.02. Your bonus pay is now $0.92.</p>\n            ","response":0,"trial_type":"html-button-response","trial_index":104,"time_elapsed":776606,"internal_node_id":"0.0-4.0-1.46","subject_id":"615aceb06ae03ef88ac6fd1d","study_id":"60edd13110225f80f9f3709b","session_id":"6196baa9652fe09b9fb1b305","condition":"full-information","relevant_dimensions":["pattern","legs"],"bee_group":{"antennae":"X","wings":"X","pattern":"S","legs":"F"},"bonus":1.3800000000000008},{"rt":1597,"stimulus":"bees-with-color/bee-B2SM.svg","response":1,"trial_type":"image-button-response","trial_index":105,"time_elapsed":778206,"internal_node_id":"0.0-4.0-0.47","subject_id":"615aceb06ae03ef88ac6fd1d","study_id":"60edd13110225f80f9f3709b","session_id":"6196baa9652fe09b9fb1b305","condition":"full-information","relevant_dimensions":["pattern","legs"],"bee_group":{"antennae":"X","wings":"X","pattern":"S","legs":"F"},"action":"avoid","summary":"bad-avoid","bonus":1.3800000000000008},{"rt":1699,"stimulus":"\n                    <p><b>Action: <em>avoid</em></b></p>\n                    <p>This is the bee that you just saw.</p>\n                    <img src=\"bees-with-color/bee-B2SM.svg\" width=\"200\">\n                    <p><span class=\"redText\">Bad choice,</span> the bee was friendly.<br>Your bonus pay is unchanged, and remains at $0.92.</p>\n            ","response":0,"trial_type":"html-button-response","trial_index":106,"time_elapsed":779906,"internal_node_id":"0.0-4.0-1.47","subject_id":"615aceb06ae03ef88ac6fd1d","study_id":"60edd13110225f80f9f3709b","session_id":"6196baa9652fe09b9fb1b305","condition":"full-information","relevant_dimensions":["pattern","legs"],"bee_group":{"antennae":"X","wings":"X","pattern":"S","legs":"F"},"bonus":1.3800000000000008},{"rt":2981.9999999998836,"stimulus":"bees-with-color/bee-A1SM.svg","response":1,"trial_type":"image-button-response","trial_index":107,"time_elapsed":782889,"internal_node_id":"0.0-4.0-0.48","subject_id":"615aceb06ae03ef88ac6fd1d","study_id":"60edd13110225f80f9f3709b","session_id":"6196baa9652fe09b9fb1b305","condition":"full-information","relevant_dimensions":["pattern","legs"],"bee_group":{"antennae":"X","wings":"X","pattern":"S","legs":"F"},"action":"avoid","summary":"bad-avoid","bonus":1.3800000000000008},{"rt":1599,"stimulus":"\n                    <p><b>Action: <em>avoid</em></b></p>\n                    <p>This is the bee that you just saw.</p>\n                    <img src=\"bees-with-color/bee-A1SM.svg\" width=\"200\">\n                    <p><span class=\"redText\">Bad choice,</span> the bee was friendly.<br>Your bonus pay is unchanged, and remains at $0.92.</p>\n            ","response":0,"trial_type":"html-button-response","trial_index":108,"time_elapsed":784490,"internal_node_id":"0.0-4.0-1.48","subject_id":"615aceb06ae03ef88ac6fd1d","study_id":"60edd13110225f80f9f3709b","session_id":"6196baa9652fe09b9fb1b305","condition":"full-information","relevant_dimensions":["pattern","legs"],"bee_group":{"antennae":"X","wings":"X","pattern":"S","legs":"F"},"bonus":1.3800000000000008},{"rt":1448,"stimulus":"bees-with-color/bee-B1SF.svg","response":1,"trial_type":"image-button-response","trial_index":109,"time_elapsed":785939,"internal_node_id":"0.0-4.0-0.49","subject_id":"615aceb06ae03ef88ac6fd1d","study_id":"60edd13110225f80f9f3709b","session_id":"6196baa9652fe09b9fb1b305","condition":"full-information","relevant_dimensions":["pattern","legs"],"bee_group":{"antennae":"X","wings":"X","pattern":"S","legs":"F"},"action":"avoid","summary":"good-avoid","bonus":1.3800000000000008},{"rt":1381.9999999998836,"stimulus":"\n                    <p><b>Action: <em>avoid</em></b></p>\n                    <p>This is the bee that you just saw.</p>\n                    <img src=\"bees-with-color/bee-B1SF.svg\" width=\"200\">\n                    <p><span class=\"greenText\">Good choice!</span>  This bee would have stung you.<br>Your bonus pay is unchanged, and remains at $0.92.</p>\n            ","response":0,"trial_type":"html-button-response","trial_index":110,"time_elapsed":787323,"internal_node_id":"0.0-4.0-1.49","subject_id":"615aceb06ae03ef88ac6fd1d","study_id":"60edd13110225f80f9f3709b","session_id":"6196baa9652fe09b9fb1b305","condition":"full-information","relevant_dimensions":["pattern","legs"],"bee_group":{"antennae":"X","wings":"X","pattern":"S","legs":"F"},"bonus":1.3800000000000008},{"rt":1665,"stimulus":"bees-with-color/bee-A1DM.svg","response":0,"trial_type":"image-button-response","trial_index":111,"time_elapsed":788990,"internal_node_id":"0.0-4.0-0.50","subject_id":"615aceb06ae03ef88ac6fd1d","study_id":"60edd13110225f80f9f3709b","session_id":"6196baa9652fe09b9fb1b305","condition":"full-information","relevant_dimensions":["pattern","legs"],"bee_group":{"antennae":"X","wings":"X","pattern":"S","legs":"F"},"action":"harvest","summary":"good-harvest","bonus":1.3800000000000008},{"rt":1499,"stimulus":"\n                    <p><b>Action: <em>harvest</em></b></p>\n                    <p>This is the bee that you just saw.</p>\n                    <img src=\"bees-with-color/bee-A1DM.svg\" width=\"200\">\n                    <p><span class=\"greenText\"><b>Successful harvest!</b></span><br>Your pay has increased by $0.02. Your bonus pay is now $0.94.</p>\n            ","response":0,"trial_type":"html-button-response","trial_index":112,"time_elapsed":790490,"internal_node_id":"0.0-4.0-1.50","subject_id":"615aceb06ae03ef88ac6fd1d","study_id":"60edd13110225f80f9f3709b","session_id":"6196baa9652fe09b9fb1b305","condition":"full-information","relevant_dimensions":["pattern","legs"],"bee_group":{"antennae":"X","wings":"X","pattern":"S","legs":"F"},"bonus":1.3800000000000008},{"rt":1832,"stimulus":"bees-with-color/bee-B1DF.svg","response":0,"trial_type":"image-button-response","trial_index":113,"time_elapsed":792323,"internal_node_id":"0.0-4.0-0.51","subject_id":"615aceb06ae03ef88ac6fd1d","study_id":"60edd13110225f80f9f3709b","session_id":"6196baa9652fe09b9fb1b305","condition":"full-information","relevant_dimensions":["pattern","legs"],"bee_group":{"antennae":"X","wings":"X","pattern":"S","legs":"F"},"action":"harvest","summary":"good-harvest","bonus":1.3800000000000008},{"rt":1748,"stimulus":"\n                    <p><b>Action: <em>harvest</em></b></p>\n                    <p>This is the bee that you just saw.</p>\n                    <img src=\"bees-with-color/bee-B1DF.svg\" width=\"200\">\n                    <p><span class=\"greenText\"><b>Successful harvest!</b></span><br>Your pay has increased by $0.02. Your bonus pay is now $0.96.</p>\n            ","response":0,"trial_type":"html-button-response","trial_index":114,"time_elapsed":794073,"internal_node_id":"0.0-4.0-1.51","subject_id":"615aceb06ae03ef88ac6fd1d","study_id":"60edd13110225f80f9f3709b","session_id":"6196baa9652fe09b9fb1b305","condition":"full-information","relevant_dimensions":["pattern","legs"],"bee_group":{"antennae":"X","wings":"X","pattern":"S","legs":"F"},"bonus":1.3800000000000008},{"rt":1315,"stimulus":"bees-with-color/bee-A2DM.svg","response":0,"trial_type":"image-button-response","trial_index":115,"time_elapsed":795390,"internal_node_id":"0.0-4.0-0.52","subject_id":"615aceb06ae03ef88ac6fd1d","study_id":"60edd13110225f80f9f3709b","session_id":"6196baa9652fe09b9fb1b305","condition":"full-information","relevant_dimensions":["pattern","legs"],"bee_group":{"antennae":"X","wings":"X","pattern":"S","legs":"F"},"action":"harvest","summary":"good-harvest","bonus":1.3800000000000008},{"rt":1615,"stimulus":"\n                    <p><b>Action: <em>harvest</em></b></p>\n                    <p>This is the bee that you just saw.</p>\n                    <img src=\"bees-with-color/bee-A2DM.svg\" width=\"200\">\n                    <p><span class=\"greenText\"><b>Successful harvest!</b></span><br>Your pay has increased by $0.02. Your bonus pay is now $0.98.</p>\n            ","response":0,"trial_type":"html-button-response","trial_index":116,"time_elapsed":797007,"internal_node_id":"0.0-4.0-1.52","subject_id":"615aceb06ae03ef88ac6fd1d","study_id":"60edd13110225f80f9f3709b","session_id":"6196baa9652fe09b9fb1b305","condition":"full-information","relevant_dimensions":["pattern","legs"],"bee_group":{"antennae":"X","wings":"X","pattern":"S","legs":"F"},"bonus":1.3800000000000008},{"rt":1149,"stimulus":"bees-with-color/bee-A1DF.svg","response":0,"trial_type":"image-button-response","trial_index":117,"time_elapsed":798157,"internal_node_id":"0.0-4.0-0.53","subject_id":"615aceb06ae03ef88ac6fd1d","study_id":"60edd13110225f80f9f3709b","session_id":"6196baa9652fe09b9fb1b305","condition":"full-information","relevant_dimensions":["pattern","legs"],"bee_group":{"antennae":"X","wings":"X","pattern":"S","legs":"F"},"action":"harvest","summary":"good-harvest","bonus":1.3800000000000008},{"rt":1948,"stimulus":"\n                    <p><b>Action: <em>harvest</em></b></p>\n                    <p>This is the bee that you just saw.</p>\n                    <img src=\"bees-with-color/bee-A1DF.svg\" width=\"200\">\n                    <p><span class=\"greenText\"><b>Successful harvest!</b></span><br>Your pay has increased by $0.02. Your bonus pay is now $1.00.</p>\n            ","response":0,"trial_type":"html-button-response","trial_index":118,"time_elapsed":800107,"internal_node_id":"0.0-4.0-1.53","subject_id":"615aceb06ae03ef88ac6fd1d","study_id":"60edd13110225f80f9f3709b","session_id":"6196baa9652fe09b9fb1b305","condition":"full-information","relevant_dimensions":["pattern","legs"],"bee_group":{"antennae":"X","wings":"X","pattern":"S","legs":"F"},"bonus":1.3800000000000008},{"rt":2048,"stimulus":"bees-with-color/bee-A2SF.svg","response":1,"trial_type":"image-button-response","trial_index":119,"time_elapsed":802157,"internal_node_id":"0.0-4.0-0.54","subject_id":"615aceb06ae03ef88ac6fd1d","study_id":"60edd13110225f80f9f3709b","session_id":"6196baa9652fe09b9fb1b305","condition":"full-information","relevant_dimensions":["pattern","legs"],"bee_group":{"antennae":"X","wings":"X","pattern":"S","legs":"F"},"action":"avoid","summary":"good-avoid","bonus":1.3800000000000008},{"rt":2048,"stimulus":"\n                    <p><b>Action: <em>avoid</em></b></p>\n                    <p>This is the bee that you just saw.</p>\n                    <img src=\"bees-with-color/bee-A2SF.svg\" width=\"200\">\n                    <p><span class=\"greenText\">Good choice!</span>  This bee would have stung you.<br>Your bonus pay is unchanged, and remains at $1.00.</p>\n            ","response":0,"trial_type":"html-button-response","trial_index":120,"time_elapsed":804367,"internal_node_id":"0.0-4.0-1.54","subject_id":"615aceb06ae03ef88ac6fd1d","study_id":"60edd13110225f80f9f3709b","session_id":"6196baa9652fe09b9fb1b305","condition":"full-information","relevant_dimensions":["pattern","legs"],"bee_group":{"antennae":"X","wings":"X","pattern":"S","legs":"F"},"bonus":1.3800000000000008},{"rt":1548,"stimulus":"bees-with-color/bee-B2DF.svg","response":0,"trial_type":"image-button-response","trial_index":121,"time_elapsed":805917,"internal_node_id":"0.0-4.0-0.55","subject_id":"615aceb06ae03ef88ac6fd1d","study_id":"60edd13110225f80f9f3709b","session_id":"6196baa9652fe09b9fb1b305","condition":"full-information","relevant_dimensions":["pattern","legs"],"bee_group":{"antennae":"X","wings":"X","pattern":"S","legs":"F"},"action":"harvest","summary":"good-harvest","bonus":1.3800000000000008},{"rt":1832,"stimulus":"\n                    <p><b>Action: <em>harvest</em></b></p>\n                    <p>This is the bee that you just saw.</p>\n                    <img src=\"bees-with-color/bee-B2DF.svg\" width=\"200\">\n                    <p><span class=\"greenText\"><b>Successful harvest!</b></span><br>Your pay has increased by $0.02. Your bonus pay is now $1.02.</p>\n            ","response":0,"trial_type":"html-button-response","trial_index":122,"time_elapsed":807750,"internal_node_id":"0.0-4.0-1.55","subject_id":"615aceb06ae03ef88ac6fd1d","study_id":"60edd13110225f80f9f3709b","session_id":"6196baa9652fe09b9fb1b305","condition":"full-information","relevant_dimensions":["pattern","legs"],"bee_group":{"antennae":"X","wings":"X","pattern":"S","legs":"F"},"bonus":1.3800000000000008},{"rt":3249,"stimulus":"bees-with-color/bee-B2SF.svg","response":1,"trial_type":"image-button-response","trial_index":123,"time_elapsed":811000,"internal_node_id":"0.0-4.0-0.56","subject_id":"615aceb06ae03ef88ac6fd1d","study_id":"60edd13110225f80f9f3709b","session_id":"6196baa9652fe09b9fb1b305","condition":"full-information","relevant_dimensions":["pattern","legs"],"bee_group":{"antennae":"X","wings":"X","pattern":"S","legs":"F"},"action":"avoid","summary":"good-avoid","bonus":1.3800000000000008},{"rt":2199,"stimulus":"\n                    <p><b>Action: <em>avoid</em></b></p>\n                    <p>This is the bee that you just saw.</p>\n                    <img src=\"bees-with-color/bee-B2SF.svg\" width=\"200\">\n                    <p><span class=\"greenText\">Good choice!</span>  This bee would have stung you.<br>Your bonus pay is unchanged, and remains at $1.02.</p>\n            ","response":0,"trial_type":"html-button-response","trial_index":124,"time_elapsed":813200,"internal_node_id":"0.0-4.0-1.56","subject_id":"615aceb06ae03ef88ac6fd1d","study_id":"60edd13110225f80f9f3709b","session_id":"6196baa9652fe09b9fb1b305","condition":"full-information","relevant_dimensions":["pattern","legs"],"bee_group":{"antennae":"X","wings":"X","pattern":"S","legs":"F"},"bonus":1.3800000000000008},{"rt":2448.9999999998836,"stimulus":"bees-with-color/bee-B1SM.svg","response":1,"trial_type":"image-button-response","trial_index":125,"time_elapsed":815651,"internal_node_id":"0.0-4.0-0.57","subject_id":"615aceb06ae03ef88ac6fd1d","study_id":"60edd13110225f80f9f3709b","session_id":"6196baa9652fe09b9fb1b305","condition":"full-information","relevant_dimensions":["pattern","legs"],"bee_group":{"antennae":"X","wings":"X","pattern":"S","legs":"F"},"action":"avoid","summary":"bad-avoid","bonus":1.3800000000000008},{"rt":2382,"stimulus":"\n                    <p><b>Action: <em>avoid</em></b></p>\n                    <p>This is the bee that you just saw.</p>\n                    <img src=\"bees-with-color/bee-B1SM.svg\" width=\"200\">\n                    <p><span class=\"redText\">Bad choice,</span> the bee was friendly.<br>Your bonus pay is unchanged, and remains at $1.02.</p>\n            ","response":0,"trial_type":"html-button-response","trial_index":126,"time_elapsed":818034,"internal_node_id":"0.0-4.0-1.57","subject_id":"615aceb06ae03ef88ac6fd1d","study_id":"60edd13110225f80f9f3709b","session_id":"6196baa9652fe09b9fb1b305","condition":"full-information","relevant_dimensions":["pattern","legs"],"bee_group":{"antennae":"X","wings":"X","pattern":"S","legs":"F"},"bonus":1.3800000000000008},{"rt":1498,"stimulus":"bees-with-color/bee-B2DM.svg","response":0,"trial_type":"image-button-response","trial_index":127,"time_elapsed":819534,"internal_node_id":"0.0-4.0-0.58","subject_id":"615aceb06ae03ef88ac6fd1d","study_id":"60edd13110225f80f9f3709b","session_id":"6196baa9652fe09b9fb1b305","condition":"full-information","relevant_dimensions":["pattern","legs"],"bee_group":{"antennae":"X","wings":"X","pattern":"S","legs":"F"},"action":"harvest","summary":"good-harvest","bonus":1.3800000000000008},{"rt":2665.0000000001164,"stimulus":"\n                    <p><b>Action: <em>harvest</em></b></p>\n                    <p>This is the bee that you just saw.</p>\n                    <img src=\"bees-with-color/bee-B2DM.svg\" width=\"200\">\n                    <p><span class=\"greenText\"><b>Successful harvest!</b></span><br>Your pay has increased by $0.02. Your bonus pay is now $1.04.</p>\n            ","response":0,"trial_type":"html-button-response","trial_index":128,"time_elapsed":822201,"internal_node_id":"0.0-4.0-1.58","subject_id":"615aceb06ae03ef88ac6fd1d","study_id":"60edd13110225f80f9f3709b","session_id":"6196baa9652fe09b9fb1b305","condition":"full-information","relevant_dimensions":["pattern","legs"],"bee_group":{"antennae":"X","wings":"X","pattern":"S","legs":"F"},"bonus":1.3800000000000008},{"rt":1666,"stimulus":"bees-with-color/bee-A1SF.svg","response":1,"trial_type":"image-button-response","trial_index":129,"time_elapsed":823868,"internal_node_id":"0.0-4.0-0.59","subject_id":"615aceb06ae03ef88ac6fd1d","study_id":"60edd13110225f80f9f3709b","session_id":"6196baa9652fe09b9fb1b305","condition":"full-information","relevant_dimensions":["pattern","legs"],"bee_group":{"antennae":"X","wings":"X","pattern":"S","legs":"F"},"action":"avoid","summary":"good-avoid","bonus":1.3800000000000008},{"rt":1498.9999999998836,"stimulus":"\n                    <p><b>Action: <em>avoid</em></b></p>\n                    <p>This is the bee that you just saw.</p>\n                    <img src=\"bees-with-color/bee-A1SF.svg\" width=\"200\">\n                    <p><span class=\"greenText\">Good choice!</span>  This bee would have stung you.<br>Your bonus pay is unchanged, and remains at $1.04.</p>\n            ","response":0,"trial_type":"html-button-response","trial_index":130,"time_elapsed":825368,"internal_node_id":"0.0-4.0-1.59","subject_id":"615aceb06ae03ef88ac6fd1d","study_id":"60edd13110225f80f9f3709b","session_id":"6196baa9652fe09b9fb1b305","condition":"full-information","relevant_dimensions":["pattern","legs"],"bee_group":{"antennae":"X","wings":"X","pattern":"S","legs":"F"},"bonus":1.3800000000000008},{"rt":1931.9999999998836,"stimulus":"bees-with-color/bee-B1DM.svg","response":0,"trial_type":"image-button-response","trial_index":131,"time_elapsed":827302,"internal_node_id":"0.0-4.0-0.60","subject_id":"615aceb06ae03ef88ac6fd1d","study_id":"60edd13110225f80f9f3709b","session_id":"6196baa9652fe09b9fb1b305","condition":"full-information","relevant_dimensions":["pattern","legs"],"bee_group":{"antennae":"X","wings":"X","pattern":"S","legs":"F"},"action":"harvest","summary":"good-harvest","bonus":1.3800000000000008},{"rt":1665,"stimulus":"\n                    <p><b>Action: <em>harvest</em></b></p>\n                    <p>This is the bee that you just saw.</p>\n                    <img src=\"bees-with-color/bee-B1DM.svg\" width=\"200\">\n                    <p><span class=\"greenText\"><b>Successful harvest!</b></span><br>Your pay has increased by $0.02. Your bonus pay is now $1.06.</p>\n            ","response":0,"trial_type":"html-button-response","trial_index":132,"time_elapsed":828968,"internal_node_id":"0.0-4.0-1.60","subject_id":"615aceb06ae03ef88ac6fd1d","study_id":"60edd13110225f80f9f3709b","session_id":"6196baa9652fe09b9fb1b305","condition":"full-information","relevant_dimensions":["pattern","legs"],"bee_group":{"antennae":"X","wings":"X","pattern":"S","legs":"F"},"bonus":1.3800000000000008},{"rt":2914.9999999998836,"stimulus":"bees-with-color/bee-B2SM.svg","response":1,"trial_type":"image-button-response","trial_index":133,"time_elapsed":831885,"internal_node_id":"0.0-4.0-0.61","subject_id":"615aceb06ae03ef88ac6fd1d","study_id":"60edd13110225f80f9f3709b","session_id":"6196baa9652fe09b9fb1b305","condition":"full-information","relevant_dimensions":["pattern","legs"],"bee_group":{"antennae":"X","wings":"X","pattern":"S","legs":"F"},"action":"avoid","summary":"bad-avoid","bonus":1.3800000000000008},{"rt":1648,"stimulus":"\n                    <p><b>Action: <em>avoid</em></b></p>\n                    <p>This is the bee that you just saw.</p>\n                    <img src=\"bees-with-color/bee-B2SM.svg\" width=\"200\">\n                    <p><span class=\"redText\">Bad choice,</span> the bee was friendly.<br>Your bonus pay is unchanged, and remains at $1.06.</p>\n            ","response":0,"trial_type":"html-button-response","trial_index":134,"time_elapsed":833535,"internal_node_id":"0.0-4.0-1.61","subject_id":"615aceb06ae03ef88ac6fd1d","study_id":"60edd13110225f80f9f3709b","session_id":"6196baa9652fe09b9fb1b305","condition":"full-information","relevant_dimensions":["pattern","legs"],"bee_group":{"antennae":"X","wings":"X","pattern":"S","legs":"F"},"bonus":1.3800000000000008},{"rt":2465,"stimulus":"bees-with-color/bee-A2SM.svg","response":0,"trial_type":"image-button-response","trial_index":135,"time_elapsed":836002,"internal_node_id":"0.0-4.0-0.62","subject_id":"615aceb06ae03ef88ac6fd1d","study_id":"60edd13110225f80f9f3709b","session_id":"6196baa9652fe09b9fb1b305","condition":"full-information","relevant_dimensions":["pattern","legs"],"bee_group":{"antennae":"X","wings":"X","pattern":"S","legs":"F"},"action":"harvest","summary":"good-harvest","bonus":1.3800000000000008},{"rt":4682,"stimulus":"\n                    <p><b>Action: <em>harvest</em></b></p>\n                    <p>This is the bee that you just saw.</p>\n                    <img src=\"bees-with-color/bee-A2SM.svg\" width=\"200\">\n                    <p><span class=\"greenText\"><b>Successful harvest!</b></span><br>Your pay has increased by $0.02. Your bonus pay is now $1.08.</p>\n            ","response":0,"trial_type":"html-button-response","trial_index":136,"time_elapsed":840685,"internal_node_id":"0.0-4.0-1.62","subject_id":"615aceb06ae03ef88ac6fd1d","study_id":"60edd13110225f80f9f3709b","session_id":"6196baa9652fe09b9fb1b305","condition":"full-information","relevant_dimensions":["pattern","legs"],"bee_group":{"antennae":"X","wings":"X","pattern":"S","legs":"F"},"bonus":1.3800000000000008},{"rt":1615.0000000001164,"stimulus":"bees-with-color/bee-A2DF.svg","response":0,"trial_type":"image-button-response","trial_index":137,"time_elapsed":842302,"internal_node_id":"0.0-4.0-0.63","subject_id":"615aceb06ae03ef88ac6fd1d","study_id":"60edd13110225f80f9f3709b","session_id":"6196baa9652fe09b9fb1b305","condition":"full-information","relevant_dimensions":["pattern","legs"],"bee_group":{"antennae":"X","wings":"X","pattern":"S","legs":"F"},"action":"harvest","summary":"good-harvest","bonus":1.3800000000000008},{"rt":1498.0000000001164,"stimulus":"\n                    <p><b>Action: <em>harvest</em></b></p>\n                    <p>This is the bee that you just saw.</p>\n                    <img src=\"bees-with-color/bee-A2DF.svg\" width=\"200\">\n                    <p><span class=\"greenText\"><b>Successful harvest!</b></span><br>Your pay has increased by $0.02. Your bonus pay is now $1.10.</p>\n            ","response":0,"trial_type":"html-button-response","trial_index":138,"time_elapsed":843802,"internal_node_id":"0.0-4.0-1.63","subject_id":"615aceb06ae03ef88ac6fd1d","study_id":"60edd13110225f80f9f3709b","session_id":"6196baa9652fe09b9fb1b305","condition":"full-information","relevant_dimensions":["pattern","legs"],"bee_group":{"antennae":"X","wings":"X","pattern":"S","legs":"F"},"bonus":1.3800000000000008},{"rt":16240,"stimulus":"You have completed the first part of this experiment.<br><br>You will now begin a shorter second part, in which you will receive no feedback.<br>The same rules regarding bonus pay apply.<br><br>Press any key to begin.","response":" ","trial_type":"html-keyboard-response","trial_index":139,"time_elapsed":860044,"internal_node_id":"0.0-5.0","subject_id":"615aceb06ae03ef88ac6fd1d","study_id":"60edd13110225f80f9f3709b","session_id":"6196baa9652fe09b9fb1b305","condition":"full-information","relevant_dimensions":["pattern","legs"],"bee_group":{"antennae":"X","wings":"X","pattern":"S","legs":"F"},"bonus":1.3800000000000008},{"rt":3815,"stimulus":"bees-with-color/bee-B2SM.svg","response":0,"trial_type":"image-button-response","trial_index":140,"time_elapsed":863870,"internal_node_id":"0.0-6.0-0.0","subject_id":"615aceb06ae03ef88ac6fd1d","study_id":"60edd13110225f80f9f3709b","session_id":"6196baa9652fe09b9fb1b305","condition":"full-information","relevant_dimensions":["pattern","legs"],"bee_group":{"antennae":"X","wings":"X","pattern":"S","legs":"F"},"bonus":1.3800000000000008},{"rt":2244,"stimulus":"bees-with-color/bee-A1SM.svg","response":1,"trial_type":"image-button-response","trial_index":141,"time_elapsed":866120,"internal_node_id":"0.0-6.0-0.1","subject_id":"615aceb06ae03ef88ac6fd1d","study_id":"60edd13110225f80f9f3709b","session_id":"6196baa9652fe09b9fb1b305","condition":"full-information","relevant_dimensions":["pattern","legs"],"bee_group":{"antennae":"X","wings":"X","pattern":"S","legs":"F"},"bonus":1.3800000000000008},{"rt":4596,"stimulus":"bees-with-color/bee-A2SF.svg","response":1,"trial_type":"image-button-response","trial_index":142,"time_elapsed":870720,"internal_node_id":"0.0-6.0-0.2","subject_id":"615aceb06ae03ef88ac6fd1d","study_id":"60edd13110225f80f9f3709b","session_id":"6196baa9652fe09b9fb1b305","condition":"full-information","relevant_dimensions":["pattern","legs"],"bee_group":{"antennae":"X","wings":"X","pattern":"S","legs":"F"},"bonus":1.3800000000000008},{"rt":1096,"stimulus":"bees-with-color/bee-B1DF.svg","response":0,"trial_type":"image-button-response","trial_index":143,"time_elapsed":871820,"internal_node_id":"0.0-6.0-0.3","subject_id":"615aceb06ae03ef88ac6fd1d","study_id":"60edd13110225f80f9f3709b","session_id":"6196baa9652fe09b9fb1b305","condition":"full-information","relevant_dimensions":["pattern","legs"],"bee_group":{"antennae":"X","wings":"X","pattern":"S","legs":"F"},"bonus":1.3800000000000008},{"rt":794.9999999998836,"stimulus":"bees-with-color/bee-A1DF.svg","response":0,"trial_type":"image-button-response","trial_index":144,"time_elapsed":872620,"internal_node_id":"0.0-6.0-0.4","subject_id":"615aceb06ae03ef88ac6fd1d","study_id":"60edd13110225f80f9f3709b","session_id":"6196baa9652fe09b9fb1b305","condition":"full-information","relevant_dimensions":["pattern","legs"],"bee_group":{"antennae":"X","wings":"X","pattern":"S","legs":"F"},"bonus":1.3800000000000008},{"rt":1345,"stimulus":"bees-with-color/bee-A2DF.svg","response":0,"trial_type":"image-button-response","trial_index":145,"time_elapsed":873970,"internal_node_id":"0.0-6.0-0.5","subject_id":"615aceb06ae03ef88ac6fd1d","study_id":"60edd13110225f80f9f3709b","session_id":"6196baa9652fe09b9fb1b305","condition":"full-information","relevant_dimensions":["pattern","legs"],"bee_group":{"antennae":"X","wings":"X","pattern":"S","legs":"F"},"bonus":1.3800000000000008},{"rt":3161,"stimulus":"bees-with-color/bee-A2SM.svg","response":0,"trial_type":"image-button-response","trial_index":146,"time_elapsed":877137,"internal_node_id":"0.0-6.0-0.6","subject_id":"615aceb06ae03ef88ac6fd1d","study_id":"60edd13110225f80f9f3709b","session_id":"6196baa9652fe09b9fb1b305","condition":"full-information","relevant_dimensions":["pattern","legs"],"bee_group":{"antennae":"X","wings":"X","pattern":"S","legs":"F"},"bonus":1.3800000000000008},{"rt":1363,"stimulus":"bees-with-color/bee-A1SF.svg","response":1,"trial_type":"image-button-response","trial_index":147,"time_elapsed":878504,"internal_node_id":"0.0-6.0-0.7","subject_id":"615aceb06ae03ef88ac6fd1d","study_id":"60edd13110225f80f9f3709b","session_id":"6196baa9652fe09b9fb1b305","condition":"full-information","relevant_dimensions":["pattern","legs"],"bee_group":{"antennae":"X","wings":"X","pattern":"S","legs":"F"},"bonus":1.3800000000000008},{"rt":1246,"stimulus":"bees-with-color/bee-B1SF.svg","response":1,"trial_type":"image-button-response","trial_index":148,"time_elapsed":879754,"internal_node_id":"0.0-6.0-0.8","subject_id":"615aceb06ae03ef88ac6fd1d","study_id":"60edd13110225f80f9f3709b","session_id":"6196baa9652fe09b9fb1b305","condition":"full-information","relevant_dimensions":["pattern","legs"],"bee_group":{"antennae":"X","wings":"X","pattern":"S","legs":"F"},"bonus":1.3800000000000008},{"rt":1011,"stimulus":"bees-with-color/bee-B1SM.svg","response":1,"trial_type":"image-button-response","trial_index":149,"time_elapsed":880771,"internal_node_id":"0.0-6.0-0.9","subject_id":"615aceb06ae03ef88ac6fd1d","study_id":"60edd13110225f80f9f3709b","session_id":"6196baa9652fe09b9fb1b305","condition":"full-information","relevant_dimensions":["pattern","legs"],"bee_group":{"antennae":"X","wings":"X","pattern":"S","legs":"F"},"bonus":1.3800000000000008},{"rt":1929,"stimulus":"bees-with-color/bee-A1DM.svg","response":1,"trial_type":"image-button-response","trial_index":150,"time_elapsed":882704,"internal_node_id":"0.0-6.0-0.10","subject_id":"615aceb06ae03ef88ac6fd1d","study_id":"60edd13110225f80f9f3709b","session_id":"6196baa9652fe09b9fb1b305","condition":"full-information","relevant_dimensions":["pattern","legs"],"bee_group":{"antennae":"X","wings":"X","pattern":"S","legs":"F"},"bonus":1.3800000000000008},{"rt":2095,"stimulus":"bees-with-color/bee-B2DF.svg","response":1,"trial_type":"image-button-response","trial_index":151,"time_elapsed":884804,"internal_node_id":"0.0-6.0-0.11","subject_id":"615aceb06ae03ef88ac6fd1d","study_id":"60edd13110225f80f9f3709b","session_id":"6196baa9652fe09b9fb1b305","condition":"full-information","relevant_dimensions":["pattern","legs"],"bee_group":{"antennae":"X","wings":"X","pattern":"S","legs":"F"},"bonus":1.3800000000000008},{"rt":3195,"stimulus":"bees-with-color/bee-B2DM.svg","response":0,"trial_type":"image-button-response","trial_index":152,"time_elapsed":888004,"internal_node_id":"0.0-6.0-0.12","subject_id":"615aceb06ae03ef88ac6fd1d","study_id":"60edd13110225f80f9f3709b","session_id":"6196baa9652fe09b9fb1b305","condition":"full-information","relevant_dimensions":["pattern","legs"],"bee_group":{"antennae":"X","wings":"X","pattern":"S","legs":"F"},"bonus":1.3800000000000008},{"rt":1479.0000000001164,"stimulus":"bees-with-color/bee-B2SF.svg","response":1,"trial_type":"image-button-response","trial_index":153,"time_elapsed":889488,"internal_node_id":"0.0-6.0-0.13","subject_id":"615aceb06ae03ef88ac6fd1d","study_id":"60edd13110225f80f9f3709b","session_id":"6196baa9652fe09b9fb1b305","condition":"full-information","relevant_dimensions":["pattern","legs"],"bee_group":{"antennae":"X","wings":"X","pattern":"S","legs":"F"},"bonus":1.3800000000000008},{"rt":2527.9999999998836,"stimulus":"bees-with-color/bee-B1DM.svg","response":1,"trial_type":"image-button-response","trial_index":154,"time_elapsed":892021,"internal_node_id":"0.0-6.0-0.14","subject_id":"615aceb06ae03ef88ac6fd1d","study_id":"60edd13110225f80f9f3709b","session_id":"6196baa9652fe09b9fb1b305","condition":"full-information","relevant_dimensions":["pattern","legs"],"bee_group":{"antennae":"X","wings":"X","pattern":"S","legs":"F"},"bonus":1.3800000000000008},{"rt":7644.999999999884,"stimulus":"bees-with-color/bee-A2DM.svg","response":0,"trial_type":"image-button-response","trial_index":155,"time_elapsed":899671,"internal_node_id":"0.0-6.0-0.15","subject_id":"615aceb06ae03ef88ac6fd1d","study_id":"60edd13110225f80f9f3709b","session_id":"6196baa9652fe09b9fb1b305","condition":"full-information","relevant_dimensions":["pattern","legs"],"bee_group":{"antennae":"X","wings":"X","pattern":"S","legs":"F"},"bonus":1.3800000000000008},{"rt":1178.9999999998836,"stimulus":"bees-with-color/bee-A1SF.svg","response":1,"trial_type":"image-button-response","trial_index":156,"time_elapsed":900855,"internal_node_id":"0.0-6.0-0.16","subject_id":"615aceb06ae03ef88ac6fd1d","study_id":"60edd13110225f80f9f3709b","session_id":"6196baa9652fe09b9fb1b305","condition":"full-information","relevant_dimensions":["pattern","legs"],"bee_group":{"antennae":"X","wings":"X","pattern":"S","legs":"F"},"bonus":1.3800000000000008},{"rt":2762,"stimulus":"bees-with-color/bee-A1DM.svg","response":0,"trial_type":"image-button-response","trial_index":157,"time_elapsed":903622,"internal_node_id":"0.0-6.0-0.17","subject_id":"615aceb06ae03ef88ac6fd1d","study_id":"60edd13110225f80f9f3709b","session_id":"6196baa9652fe09b9fb1b305","condition":"full-information","relevant_dimensions":["pattern","legs"],"bee_group":{"antennae":"X","wings":"X","pattern":"S","legs":"F"},"bonus":1.3800000000000008},{"rt":2845,"stimulus":"bees-with-color/bee-A2DM.svg","response":0,"trial_type":"image-button-response","trial_index":158,"time_elapsed":906472,"internal_node_id":"0.0-6.0-0.18","subject_id":"615aceb06ae03ef88ac6fd1d","study_id":"60edd13110225f80f9f3709b","session_id":"6196baa9652fe09b9fb1b305","condition":"full-information","relevant_dimensions":["pattern","legs"],"bee_group":{"antennae":"X","wings":"X","pattern":"S","legs":"F"},"bonus":1.3800000000000008},{"rt":