[{"success":true,"trial_type":"fullscreen","trial_index":0,"time_elapsed":14037,"internal_node_id":"0.0-0.0","subject_id":"5ca9f8926025570001c872f3","study_id":"6197b3f67c2b5cd3b6d9596a","session_id":"619be31c4196240decfa4ee7","condition":"full-information","relevant_dimensions":["pattern","legs"],"bee_group":{"antennae":"X","wings":"X","pattern":"S","legs":"F"},"bonus":1.3800000000000008},{"success":true,"timeout":false,"failed_images":[],"failed_audio":[],"failed_video":[],"trial_type":"preload","trial_index":1,"time_elapsed":15442,"internal_node_id":"0.0-1.0","subject_id":"5ca9f8926025570001c872f3","study_id":"6197b3f67c2b5cd3b6d9596a","session_id":"619be31c4196240decfa4ee7","condition":"full-information","relevant_dimensions":["pattern","legs"],"bee_group":{"antennae":"X","wings":"X","pattern":"S","legs":"F"},"bonus":1.3800000000000008},{"rt":2130,"stimulus":"Welcome! Press any key to begin.","response":" ","trial_type":"html-keyboard-response","trial_index":2,"time_elapsed":17572,"internal_node_id":"0.0-2.0","subject_id":"5ca9f8926025570001c872f3","study_id":"6197b3f67c2b5cd3b6d9596a","session_id":"619be31c4196240decfa4ee7","condition":"full-information","relevant_dimensions":["pattern","legs"],"bee_group":{"antennae":"X","wings":"X","pattern":"S","legs":"F"},"bonus":1.3800000000000008},{"view_history":[{"page_index":0,"viewing_time":13523},{"page_index":1,"viewing_time":9436},{"page_index":2,"viewing_time":12541},{"page_index":3,"viewing_time":21082},{"page_index":4,"viewing_time":6173},{"page_index":5,"viewing_time":5660},{"page_index":6,"viewing_time":5388},{"page_index":7,"viewing_time":8768},{"page_index":8,"viewing_time":4472},{"page_index":9,"viewing_time":5260},{"page_index":10,"viewing_time":3141},{"page_index":11,"viewing_time":8583},{"page_index":12,"viewing_time":12036},{"page_index":13,"viewing_time":2232},{"page_index":14,"viewing_time":1940}],"rt":120235,"trial_type":"instructions","trial_index":3,"time_elapsed":137808,"internal_node_id":"0.0-3.0-0.0","subject_id":"5ca9f8926025570001c872f3","study_id":"6197b3f67c2b5cd3b6d9596a","session_id":"619be31c4196240decfa4ee7","condition":"full-information","relevant_dimensions":["pattern","legs"],"bee_group":{"antennae":"X","wings":"X","pattern":"S","legs":"F"},"bonus":1.3800000000000008},{"rt":20290,"response":{"Q0":["Two or six legs","Stripes or spots on body","Single or double wings","Antennae or no antennae"]},"question_order":[0],"trial_type":"survey-multi-select","trial_index":4,"time_elapsed":158100,"internal_node_id":"0.0-3.0-1.0","subject_id":"5ca9f8926025570001c872f3","study_id":"6197b3f67c2b5cd3b6d9596a","session_id":"619be31c4196240decfa4ee7","condition":"full-information","relevant_dimensions":["pattern","legs"],"bee_group":{"antennae":"X","wings":"X","pattern":"S","legs":"F"},"correct":true,"bonus":1.3800000000000008},{"rt":31160,"response":{"Q1":"No.","Q2":"Based on the four features of the bee.","Q3":"You learn if it was friendly or dangerous, but do not alter your bonus."},"question_order":[0,1,2],"trial_type":"survey-multi-choice","trial_index":5,"time_elapsed":189261,"internal_node_id":"0.0-3.0-2.0","subject_id":"5ca9f8926025570001c872f3","study_id":"6197b3f67c2b5cd3b6d9596a","session_id":"619be31c4196240decfa4ee7","condition":"full-information","relevant_dimensions":["pattern","legs"],"bee_group":{"antennae":"X","wings":"X","pattern":"S","legs":"F"},"correct":true,"bonus":1.3800000000000008},{"rt":3338,"stimulus":"<p>Congrats, you got everything right<br>When you're ready, click the button below to continue to the experiment.</p>","response":0,"trial_type":"html-button-response","trial_index":6,"time_elapsed":192601,"internal_node_id":"0.0-3.0-3.0","subject_id":"5ca9f8926025570001c872f3","study_id":"6197b3f67c2b5cd3b6d9596a","session_id":"619be31c4196240decfa4ee7","condition":"full-information","relevant_dimensions":["pattern","legs"],"bee_group":{"antennae":"X","wings":"X","pattern":"S","legs":"F"},"bonus":1.3800000000000008},{"rt":12459,"stimulus":"bees-with-color/bee-A2SM.svg","response":1,"trial_type":"image-button-response","trial_index":7,"time_elapsed":205061,"internal_node_id":"0.0-4.0-0.0","subject_id":"5ca9f8926025570001c872f3","study_id":"6197b3f67c2b5cd3b6d9596a","session_id":"619be31c4196240decfa4ee7","condition":"full-information","relevant_dimensions":["pattern","legs"],"bee_group":{"antennae":"X","wings":"X","pattern":"S","legs":"F"},"action":"avoid","summary":"bad-avoid","bonus":1.3800000000000008},{"rt":11393,"stimulus":"\n                    <p><b>Action: <em>avoid</em></b></p>\n                    <p>This is the bee that you just saw.</p>\n                    <img src=\"bees-with-color/bee-A2SM.svg\" width=\"200\">\n                    <p><span class=\"redText\">Bad choice,</span> the bee was friendly.<br>Your bonus pay is unchanged, and remains at $0.54.</p>\n            ","response":0,"trial_type":"html-button-response","trial_index":8,"time_elapsed":216464,"internal_node_id":"0.0-4.0-1.0","subject_id":"5ca9f8926025570001c872f3","study_id":"6197b3f67c2b5cd3b6d9596a","session_id":"619be31c4196240decfa4ee7","condition":"full-information","relevant_dimensions":["pattern","legs"],"bee_group":{"antennae":"X","wings":"X","pattern":"S","legs":"F"},"bonus":1.3800000000000008},{"rt":13682,"stimulus":"bees-with-color/bee-A1SF.svg","response":1,"trial_type":"image-button-response","trial_index":9,"time_elapsed":230148,"internal_node_id":"0.0-4.0-0.1","subject_id":"5ca9f8926025570001c872f3","study_id":"6197b3f67c2b5cd3b6d9596a","session_id":"619be31c4196240decfa4ee7","condition":"full-information","relevant_dimensions":["pattern","legs"],"bee_group":{"antennae":"X","wings":"X","pattern":"S","legs":"F"},"action":"avoid","summary":"good-avoid","bonus":1.3800000000000008},{"rt":13674,"stimulus":"\n                    <p><b>Action: <em>avoid</em></b></p>\n                    <p>This is the bee that you just saw.</p>\n                    <img src=\"bees-with-color/bee-A1SF.svg\" width=\"200\">\n                    <p><span class=\"greenText\">Good choice!</span>  This bee would have stung you.<br>Your bonus pay is unchanged, and remains at $0.54.</p>\n            ","response":0,"trial_type":"html-button-response","trial_index":10,"time_elapsed":243824,"internal_node_id":"0.0-4.0-1.1","subject_id":"5ca9f8926025570001c872f3","study_id":"6197b3f67c2b5cd3b6d9596a","session_id":"619be31c4196240decfa4ee7","condition":"full-information","relevant_dimensions":["pattern","legs"],"bee_group":{"antennae":"X","wings":"X","pattern":"S","legs":"F"},"bonus":1.3800000000000008},{"rt":10436,"stimulus":"bees-with-color/bee-B2DF.svg","response":1,"trial_type":"image-button-response","trial_index":11,"time_elapsed":254261,"internal_node_id":"0.0-4.0-0.2","subject_id":"5ca9f8926025570001c872f3","study_id":"6197b3f67c2b5cd3b6d9596a","session_id":"619be31c4196240decfa4ee7","condition":"full-information","relevant_dimensions":["pattern","legs"],"bee_group":{"antennae":"X","wings":"X","pattern":"S","legs":"F"},"action":"avoid","summary":"bad-avoid","bonus":1.3800000000000008},{"rt":10975,"stimulus":"\n                    <p><b>Action: <em>avoid</em></b></p>\n                    <p>This is the bee that you just saw.</p>\n                    <img src=\"bees-with-color/bee-B2DF.svg\" width=\"200\">\n                    <p><span class=\"redText\">Bad choice,</span> the bee was friendly.<br>Your bonus pay is unchanged, and remains at $0.54.</p>\n            ","response":0,"trial_type":"html-button-response","trial_index":12,"time_elapsed":265237,"internal_node_id":"0.0-4.0-1.2","subject_id":"5ca9f8926025570001c872f3","study_id":"6197b3f67c2b5cd3b6d9596a","session_id":"619be31c4196240decfa4ee7","condition":"full-information","relevant_dimensions":["pattern","legs"],"bee_group":{"antennae":"X","wings":"X","pattern":"S","legs":"F"},"bonus":1.3800000000000008},{"rt":6016,"stimulus":"bees-with-color/bee-A2DM.svg","response":1,"trial_type":"image-button-response","trial_index":13,"time_elapsed":271252,"internal_node_id":"0.0-4.0-0.3","subject_id":"5ca9f8926025570001c872f3","study_id":"6197b3f67c2b5cd3b6d9596a","session_id":"619be31c4196240decfa4ee7","condition":"full-information","relevant_dimensions":["pattern","legs"],"bee_group":{"antennae":"X","wings":"X","pattern":"S","legs":"F"},"action":"avoid","summary":"bad-avoid","bonus":1.3800000000000008},{"rt":5066,"stimulus":"\n                    <p><b>Action: <em>avoid</em></b></p>\n                    <p>This is the bee that you just saw.</p>\n                    <img src=\"bees-with-color/bee-A2DM.svg\" width=\"200\">\n                    <p><span class=\"redText\">Bad choice,</span> the bee was friendly.<br>Your bonus pay is unchanged, and remains at $0.54.</p>\n            ","response":0,"trial_type":"html-button-response","trial_index":14,"time_elapsed":276320,"internal_node_id":"0.0-4.0-1.3","subject_id":"5ca9f8926025570001c872f3","study_id":"6197b3f67c2b5cd3b6d9596a","session_id":"619be31c4196240decfa4ee7","condition":"full-information","relevant_dimensions":["pattern","legs"],"bee_group":{"antennae":"X","wings":"X","pattern":"S","legs":"F"},"bonus":1.3800000000000008},{"rt":6572,"stimulus":"bees-with-color/bee-B1DM.svg","response":1,"trial_type":"image-button-response","trial_index":15,"time_elapsed":282892,"internal_node_id":"0.0-4.0-0.4","subject_id":"5ca9f8926025570001c872f3","study_id":"6197b3f67c2b5cd3b6d9596a","session_id":"619be31c4196240decfa4ee7","condition":"full-information","relevant_dimensions":["pattern","legs"],"bee_group":{"antennae":"X","wings":"X","pattern":"S","legs":"F"},"action":"avoid","summary":"bad-avoid","bonus":1.3800000000000008},{"rt":6615,"stimulus":"\n                    <p><b>Action: <em>avoid</em></b></p>\n                    <p>This is the bee that you just saw.</p>\n                    <img src=\"bees-with-color/bee-B1DM.svg\" width=\"200\">\n                    <p><span class=\"redText\">Bad choice,</span> the bee was friendly.<br>Your bonus pay is unchanged, and remains at $0.54.</p>\n            ","response":0,"trial_type":"html-button-response","trial_index":16,"time_elapsed":289509,"internal_node_id":"0.0-4.0-1.4","subject_id":"5ca9f8926025570001c872f3","study_id":"6197b3f67c2b5cd3b6d9596a","session_id":"619be31c4196240decfa4ee7","condition":"full-information","relevant_dimensions":["pattern","legs"],"bee_group":{"antennae":"X","wings":"X","pattern":"S","legs":"F"},"bonus":1.3800000000000008},{"rt":3686,"stimulus":"bees-with-color/bee-B2DM.svg","response":0,"trial_type":"image-button-response","trial_index":17,"time_elapsed":293196,"internal_node_id":"0.0-4.0-0.5","subject_id":"5ca9f8926025570001c872f3","study_id":"6197b3f67c2b5cd3b6d9596a","session_id":"619be31c4196240decfa4ee7","condition":"full-information","relevant_dimensions":["pattern","legs"],"bee_group":{"antennae":"X","wings":"X","pattern":"S","legs":"F"},"action":"harvest","summary":"good-harvest","bonus":1.3800000000000008},{"rt":2940,"stimulus":"\n                    <p><b>Action: <em>harvest</em></b></p>\n                    <p>This is the bee that you just saw.</p>\n                    <img src=\"bees-with-color/bee-B2DM.svg\" width=\"200\">\n                    <p><span class=\"greenText\"><b>Successful harvest!</b></span><br>Your pay has increased by $0.02. Your bonus pay is now $0.56.</p>\n            ","response":0,"trial_type":"html-button-response","trial_index":18,"time_elapsed":296136,"internal_node_id":"0.0-4.0-1.5","subject_id":"5ca9f8926025570001c872f3","study_id":"6197b3f67c2b5cd3b6d9596a","session_id":"619be31c4196240decfa4ee7","condition":"full-information","relevant_dimensions":["pattern","legs"],"bee_group":{"antennae":"X","wings":"X","pattern":"S","legs":"F"},"bonus":1.3800000000000008},{"rt":4387,"stimulus":"bees-with-color/bee-B2SM.svg","response":0,"trial_type":"image-button-response","trial_index":19,"time_elapsed":300524,"internal_node_id":"0.0-4.0-0.6","subject_id":"5ca9f8926025570001c872f3","study_id":"6197b3f67c2b5cd3b6d9596a","session_id":"619be31c4196240decfa4ee7","condition":"full-information","relevant_dimensions":["pattern","legs"],"bee_group":{"antennae":"X","wings":"X","pattern":"S","legs":"F"},"action":"harvest","summary":"good-harvest","bonus":1.3800000000000008},{"rt":1739,"stimulus":"\n                    <p><b>Action: <em>harvest</em></b></p>\n                    <p>This is the bee that you just saw.</p>\n                    <img src=\"bees-with-color/bee-B2SM.svg\" width=\"200\">\n                    <p><span class=\"greenText\"><b>Successful harvest!</b></span><br>Your pay has increased by $0.02. Your bonus pay is now $0.58.</p>\n            ","response":0,"trial_type":"html-button-response","trial_index":20,"time_elapsed":302264,"internal_node_id":"0.0-4.0-1.6","subject_id":"5ca9f8926025570001c872f3","study_id":"6197b3f67c2b5cd3b6d9596a","session_id":"619be31c4196240decfa4ee7","condition":"full-information","relevant_dimensions":["pattern","legs"],"bee_group":{"antennae":"X","wings":"X","pattern":"S","legs":"F"},"bonus":1.3800000000000008},{"rt":3939,"stimulus":"bees-with-color/bee-A2SF.svg","response":1,"trial_type":"image-button-response","trial_index":21,"time_elapsed":306204,"internal_node_id":"0.0-4.0-0.7","subject_id":"5ca9f8926025570001c872f3","study_id":"6197b3f67c2b5cd3b6d9596a","session_id":"619be31c4196240decfa4ee7","condition":"full-information","relevant_dimensions":["pattern","legs"],"bee_group":{"antennae":"X","wings":"X","pattern":"S","legs":"F"},"action":"avoid","summary":"good-avoid","bonus":1.3800000000000008},{"rt":2220,"stimulus":"\n                    <p><b>Action: <em>avoid</em></b></p>\n                    <p>This is the bee that you just saw.</p>\n                    <img src=\"bees-with-color/bee-A2SF.svg\" width=\"200\">\n                    <p><span class=\"greenText\">Good choice!</span>  This bee would have stung you.<br>Your bonus pay is unchanged, and remains at $0.58.</p>\n            ","response":0,"trial_type":"html-button-response","trial_index":22,"time_elapsed":308424,"internal_node_id":"0.0-4.0-1.7","subject_id":"5ca9f8926025570001c872f3","study_id":"6197b3f67c2b5cd3b6d9596a","session_id":"619be31c4196240decfa4ee7","condition":"full-information","relevant_dimensions":["pattern","legs"],"bee_group":{"antennae":"X","wings":"X","pattern":"S","legs":"F"},"bonus":1.3800000000000008},{"rt":1819,"stimulus":"bees-with-color/bee-B2SF.svg","response":1,"trial_type":"image-button-response","trial_index":23,"time_elapsed":310244,"internal_node_id":"0.0-4.0-0.8","subject_id":"5ca9f8926025570001c872f3","study_id":"6197b3f67c2b5cd3b6d9596a","session_id":"619be31c4196240decfa4ee7","condition":"full-information","relevant_dimensions":["pattern","legs"],"bee_group":{"antennae":"X","wings":"X","pattern":"S","legs":"F"},"action":"avoid","summary":"good-avoid","bonus":1.3800000000000008},{"rt":1567,"stimulus":"\n                    <p><b>Action: <em>avoid</em></b></p>\n                    <p>This is the bee that you just saw.</p>\n                    <img src=\"bees-with-color/bee-B2SF.svg\" width=\"200\">\n                    <p><span class=\"greenText\">Good choice!</span>  This bee would have stung you.<br>Your bonus pay is unchanged, and remains at $0.58.</p>\n            ","response":0,"trial_type":"html-button-response","trial_index":24,"time_elapsed":311813,"internal_node_id":"0.0-4.0-1.8","subject_id":"5ca9f8926025570001c872f3","study_id":"6197b3f67c2b5cd3b6d9596a","session_id":"619be31c4196240decfa4ee7","condition":"full-information","relevant_dimensions":["pattern","legs"],"bee_group":{"antennae":"X","wings":"X","pattern":"S","legs":"F"},"bonus":1.3800000000000008},{"rt":3827,"stimulus":"bees-with-color/bee-B1SF.svg","response":1,"trial_type":"image-button-response","trial_index":25,"time_elapsed":315640,"internal_node_id":"0.0-4.0-0.9","subject_id":"5ca9f8926025570001c872f3","study_id":"6197b3f67c2b5cd3b6d9596a","session_id":"619be31c4196240decfa4ee7","condition":"full-information","relevant_dimensions":["pattern","legs"],"bee_group":{"antennae":"X","wings":"X","pattern":"S","legs":"F"},"action":"avoid","summary":"good-avoid","bonus":1.3800000000000008},{"rt":1315,"stimulus":"\n                    <p><b>Action: <em>avoid</em></b></p>\n                    <p>This is the bee that you just saw.</p>\n                    <img src=\"bees-with-color/bee-B1SF.svg\" width=\"200\">\n                    <p><span class=\"greenText\">Good choice!</span>  This bee would have stung you.<br>Your bonus pay is unchanged, and remains at $0.58.</p>\n            ","response":0,"trial_type":"html-button-response","trial_index":26,"time_elapsed":316956,"internal_node_id":"0.0-4.0-1.9","subject_id":"5ca9f8926025570001c872f3","study_id":"6197b3f67c2b5cd3b6d9596a","session_id":"619be31c4196240decfa4ee7","condition":"full-information","relevant_dimensions":["pattern","legs"],"bee_group":{"antennae":"X","wings":"X","pattern":"S","legs":"F"},"bonus":1.3800000000000008},{"rt":4011,"stimulus":"bees-with-color/bee-A1DM.svg","response":0,"trial_type":"image-button-response","trial_index":27,"time_elapsed":320967,"internal_node_id":"0.0-4.0-0.10","subject_id":"5ca9f8926025570001c872f3","study_id":"6197b3f67c2b5cd3b6d9596a","session_id":"619be31c4196240decfa4ee7","condition":"full-information","relevant_dimensions":["pattern","legs"],"bee_group":{"antennae":"X","wings":"X","pattern":"S","legs":"F"},"action":"harvest","summary":"good-harvest","bonus":1.3800000000000008},{"rt":1460,"stimulus":"\n                    <p><b>Action: <em>harvest</em></b></p>\n                    <p>This is the bee that you just saw.</p>\n                    <img src=\"bees-with-color/bee-A1DM.svg\" width=\"200\">\n                    <p><span class=\"greenText\"><b>Successful harvest!</b></span><br>Your pay has increased by $0.02. Your bonus pay is now $0.60.</p>\n            ","response":0,"trial_type":"html-button-response","trial_index":28,"time_elapsed":322428,"internal_node_id":"0.0-4.0-1.10","subject_id":"5ca9f8926025570001c872f3","study_id":"6197b3f67c2b5cd3b6d9596a","session_id":"619be31c4196240decfa4ee7","condition":"full-information","relevant_dimensions":["pattern","legs"],"bee_group":{"antennae":"X","wings":"X","pattern":"S","legs":"F"},"bonus":1.3800000000000008},{"rt":2296,"stimulus":"bees-with-color/bee-A2DF.svg","response":1,"trial_type":"image-button-response","trial_index":29,"time_elapsed":324724,"internal_node_id":"0.0-4.0-0.11","subject_id":"5ca9f8926025570001c872f3","study_id":"6197b3f67c2b5cd3b6d9596a","session_id":"619be31c4196240decfa4ee7","condition":"full-information","relevant_dimensions":["pattern","legs"],"bee_group":{"antennae":"X","wings":"X","pattern":"S","legs":"F"},"action":"avoid","summary":"bad-avoid","bonus":1.3800000000000008},{"rt":7815,"stimulus":"\n                    <p><b>Action: <em>avoid</em></b></p>\n                    <p>This is the bee that you just saw.</p>\n                    <img src=\"bees-with-color/bee-A2DF.svg\" width=\"200\">\n                    <p><span class=\"redText\">Bad choice,</span> the bee was friendly.<br>Your bonus pay is unchanged, and remains at $0.60.</p>\n            ","response":0,"trial_type":"html-button-response","trial_index":30,"time_elapsed":332540,"internal_node_id":"0.0-4.0-1.11","subject_id":"5ca9f8926025570001c872f3","study_id":"6197b3f67c2b5cd3b6d9596a","session_id":"619be31c4196240decfa4ee7","condition":"full-information","relevant_dimensions":["pattern","legs"],"bee_group":{"antennae":"X","wings":"X","pattern":"S","legs":"F"},"bonus":1.3800000000000008},{"rt":2571,"stimulus":"bees-with-color/bee-A1DF.svg","response":1,"trial_type":"image-button-response","trial_index":31,"time_elapsed":335113,"internal_node_id":"0.0-4.0-0.12","subject_id":"5ca9f8926025570001c872f3","study_id":"6197b3f67c2b5cd3b6d9596a","session_id":"619be31c4196240decfa4ee7","condition":"full-information","relevant_dimensions":["pattern","legs"],"bee_group":{"antennae":"X","wings":"X","pattern":"S","legs":"F"},"action":"avoid","summary":"bad-avoid","bonus":1.3800000000000008},{"rt":3179,"stimulus":"\n                    <p><b>Action: <em>avoid</em></b></p>\n                    <p>This is the bee that you just saw.</p>\n                    <img src=\"bees-with-color/bee-A1DF.svg\" width=\"200\">\n                    <p><span class=\"redText\">Bad choice,</span> the bee was friendly.<br>Your bonus pay is unchanged, and remains at $0.60.</p>\n            ","response":0,"trial_type":"html-button-response","trial_index":32,"time_elapsed":338292,"internal_node_id":"0.0-4.0-1.12","subject_id":"5ca9f8926025570001c872f3","study_id":"6197b3f67c2b5cd3b6d9596a","session_id":"619be31c4196240decfa4ee7","condition":"full-information","relevant_dimensions":["pattern","legs"],"bee_group":{"antennae":"X","wings":"X","pattern":"S","legs":"F"},"bonus":1.3800000000000008},{"rt":1755,"stimulus":"bees-with-color/bee-B1DF.svg","response":0,"trial_type":"image-button-response","trial_index":33,"time_elapsed":340048,"internal_node_id":"0.0-4.0-0.13","subject_id":"5ca9f8926025570001c872f3","study_id":"6197b3f67c2b5cd3b6d9596a","session_id":"619be31c4196240decfa4ee7","condition":"full-information","relevant_dimensions":["pattern","legs"],"bee_group":{"antennae":"X","wings":"X","pattern":"S","legs":"F"},"action":"harvest","summary":"good-harvest","bonus":1.3800000000000008},{"rt":1519,"stimulus":"\n                    <p><b>Action: <em>harvest</em></b></p>\n                    <p>This is the bee that you just saw.</p>\n                    <img src=\"bees-with-color/bee-B1DF.svg\" width=\"200\">\n                    <p><span class=\"greenText\"><b>Successful harvest!</b></span><br>Your pay has increased by $0.02. Your bonus pay is now $0.62.</p>\n            ","response":0,"trial_type":"html-button-response","trial_index":34,"time_elapsed":341569,"internal_node_id":"0.0-4.0-1.13","subject_id":"5ca9f8926025570001c872f3","study_id":"6197b3f67c2b5cd3b6d9596a","session_id":"619be31c4196240decfa4ee7","condition":"full-information","relevant_dimensions":["pattern","legs"],"bee_group":{"antennae":"X","wings":"X","pattern":"S","legs":"F"},"bonus":1.3800000000000008},{"rt":2100,"stimulus":"bees-with-color/bee-A1SM.svg","response":0,"trial_type":"image-button-response","trial_index":35,"time_elapsed":343668,"internal_node_id":"0.0-4.0-0.14","subject_id":"5ca9f8926025570001c872f3","study_id":"6197b3f67c2b5cd3b6d9596a","session_id":"619be31c4196240decfa4ee7","condition":"full-information","relevant_dimensions":["pattern","legs"],"bee_group":{"antennae":"X","wings":"X","pattern":"S","legs":"F"},"action":"harvest","summary":"good-harvest","bonus":1.3800000000000008},{"rt":1214,"stimulus":"\n                    <p><b>Action: <em>harvest</em></b></p>\n                    <p>This is the bee that you just saw.</p>\n                    <img src=\"bees-with-color/bee-A1SM.svg\" width=\"200\">\n                    <p><span class=\"greenText\"><b>Successful harvest!</b></span><br>Your pay has increased by $0.02. Your bonus pay is now $0.64.</p>\n            ","response":0,"trial_type":"html-button-response","trial_index":36,"time_elapsed":344884,"internal_node_id":"0.0-4.0-1.14","subject_id":"5ca9f8926025570001c872f3","study_id":"6197b3f67c2b5cd3b6d9596a","session_id":"619be31c4196240decfa4ee7","condition":"full-information","relevant_dimensions":["pattern","legs"],"bee_group":{"antennae":"X","wings":"X","pattern":"S","legs":"F"},"bonus":1.3800000000000008},{"rt":5476,"stimulus":"bees-with-color/bee-B1SM.svg","response":0,"trial_type":"image-button-response","trial_index":37,"time_elapsed":350360,"internal_node_id":"0.0-4.0-0.15","subject_id":"5ca9f8926025570001c872f3","study_id":"6197b3f67c2b5cd3b6d9596a","session_id":"619be31c4196240decfa4ee7","condition":"full-information","relevant_dimensions":["pattern","legs"],"bee_group":{"antennae":"X","wings":"X","pattern":"S","legs":"F"},"action":"harvest","summary":"good-harvest","bonus":1.3800000000000008},{"rt":2492,"stimulus":"\n                    <p><b>Action: <em>harvest</em></b></p>\n                    <p>This is the bee that you just saw.</p>\n                    <img src=\"bees-with-color/bee-B1SM.svg\" width=\"200\">\n                    <p><span class=\"greenText\"><b>Successful harvest!</b></span><br>Your pay has increased by $0.02. Your bonus pay is now $0.66.</p>\n            ","response":0,"trial_type":"html-button-response","trial_index":38,"time_elapsed":352853,"internal_node_id":"0.0-4.0-1.15","subject_id":"5ca9f8926025570001c872f3","study_id":"6197b3f67c2b5cd3b6d9596a","session_id":"619be31c4196240decfa4ee7","condition":"full-information","relevant_dimensions":["pattern","legs"],"bee_group":{"antennae":"X","wings":"X","pattern":"S","legs":"F"},"bonus":1.3800000000000008},{"rt":2015,"stimulus":"bees-with-color/bee-A1SF.svg","response":1,"trial_type":"image-button-response","trial_index":39,"time_elapsed":354868,"internal_node_id":"0.0-4.0-0.16","subject_id":"5ca9f8926025570001c872f3","study_id":"6197b3f67c2b5cd3b6d9596a","session_id":"619be31c4196240decfa4ee7","condition":"full-information","relevant_dimensions":["pattern","legs"],"bee_group":{"antennae":"X","wings":"X","pattern":"S","legs":"F"},"action":"avoid","summary":"good-avoid","bonus":1.3800000000000008},{"rt":3132,"stimulus":"\n                    <p><b>Action: <em>avoid</em></b></p>\n                    <p>This is the bee that you just saw.</p>\n                    <img src=\"bees-with-color/bee-A1SF.svg\" width=\"200\">\n                    <p><span class=\"greenText\">Good choice!</span>  This bee would have stung you.<br>Your bonus pay is unchanged, and remains at $0.66.</p>\n            ","response":0,"trial_type":"html-button-response","trial_index":40,"time_elapsed":358001,"internal_node_id":"0.0-4.0-1.16","subject_id":"5ca9f8926025570001c872f3","study_id":"6197b3f67c2b5cd3b6d9596a","session_id":"619be31c4196240decfa4ee7","condition":"full-information","relevant_dimensions":["pattern","legs"],"bee_group":{"antennae":"X","wings":"X","pattern":"S","legs":"F"},"bonus":1.3800000000000008},{"rt":1611,"stimulus":"bees-with-color/bee-B2SM.svg","response":0,"trial_type":"image-button-response","trial_index":41,"time_elapsed":359613,"internal_node_id":"0.0-4.0-0.17","subject_id":"5ca9f8926025570001c872f3","study_id":"6197b3f67c2b5cd3b6d9596a","session_id":"619be31c4196240decfa4ee7","condition":"full-information","relevant_dimensions":["pattern","legs"],"bee_group":{"antennae":"X","wings":"X","pattern":"S","legs":"F"},"action":"harvest","summary":"good-harvest","bonus":1.3800000000000008},{"rt":1183,"stimulus":"\n                    <p><b>Action: <em>harvest</em></b></p>\n                    <p>This is the bee that you just saw.</p>\n                    <img src=\"bees-with-color/bee-B2SM.svg\" width=\"200\">\n                    <p><span class=\"greenText\"><b>Successful harvest!</b></span><br>Your pay has increased by $0.02. Your bonus pay is now $0.68.</p>\n            ","response":0,"trial_type":"html-button-response","trial_index":42,"time_elapsed":360796,"internal_node_id":"0.0-4.0-1.17","subject_id":"5ca9f8926025570001c872f3","study_id":"6197b3f67c2b5cd3b6d9596a","session_id":"619be31c4196240decfa4ee7","condition":"full-information","relevant_dimensions":["pattern","legs"],"bee_group":{"antennae":"X","wings":"X","pattern":"S","legs":"F"},"bonus":1.3800000000000008},{"rt":1732,"stimulus":"bees-with-color/bee-B2DF.svg","response":0,"trial_type":"image-button-response","trial_index":43,"time_elapsed":362529,"internal_node_id":"0.0-4.0-0.18","subject_id":"5ca9f8926025570001c872f3","study_id":"6197b3f67c2b5cd3b6d9596a","session_id":"619be31c4196240decfa4ee7","condition":"full-information","relevant_dimensions":["pattern","legs"],"bee_group":{"antennae":"X","wings":"X","pattern":"S","legs":"F"},"action":"harvest","summary":"good-harvest","bonus":1.3800000000000008},{"rt":1246,"stimulus":"\n                    <p><b>Action: <em>harvest</em></b></p>\n                    <p>This is the bee that you just saw.</p>\n                    <img src=\"bees-with-color/bee-B2DF.svg\" width=\"200\">\n                    <p><span class=\"greenText\"><b>Successful harvest!</b></span><br>Your pay has increased by $0.02. Your bonus pay is now $0.70.</p>\n            ","response":0,"trial_type":"html-button-response","trial_index":44,"time_elapsed":363777,"internal_node_id":"0.0-4.0-1.18","subject_id":"5ca9f8926025570001c872f3","study_id":"6197b3f67c2b5cd3b6d9596a","session_id":"619be31c4196240decfa4ee7","condition":"full-information","relevant_dimensions":["pattern","legs"],"bee_group":{"antennae":"X","wings":"X","pattern":"S","legs":"F"},"bonus":1.3800000000000008},{"rt":1883,"stimulus":"bees-with-color/bee-A2SF.svg","response":1,"trial_type":"image-button-response","trial_index":45,"time_elapsed":365660,"internal_node_id":"0.0-4.0-0.19","subject_id":"5ca9f8926025570001c872f3","study_id":"6197b3f67c2b5cd3b6d9596a","session_id":"619be31c4196240decfa4ee7","condition":"full-information","relevant_dimensions":["pattern","legs"],"bee_group":{"antennae":"X","wings":"X","pattern":"S","legs":"F"},"action":"avoid","summary":"good-avoid","bonus":1.3800000000000008},{"rt":1167,"stimulus":"\n                    <p><b>Action: <em>avoid</em></b></p>\n                    <p>This is the bee that you just saw.</p>\n                    <img src=\"bees-with-color/bee-A2SF.svg\" width=\"200\">\n                    <p><span class=\"greenText\">Good choice!</span>  This bee would have stung you.<br>Your bonus pay is unchanged, and remains at $0.70.</p>\n            ","response":0,"trial_type":"html-button-response","trial_index":46,"time_elapsed":366829,"internal_node_id":"0.0-4.0-1.19","subject_id":"5ca9f8926025570001c872f3","study_id":"6197b3f67c2b5cd3b6d9596a","session_id":"619be31c4196240decfa4ee7","condition":"full-information","relevant_dimensions":["pattern","legs"],"bee_group":{"antennae":"X","wings":"X","pattern":"S","legs":"F"},"bonus":1.3800000000000008},{"rt":1443,"stimulus":"bees-with-color/bee-A1DM.svg","response":0,"trial_type":"image-button-response","trial_index":47,"time_elapsed":368272,"internal_node_id":"0.0-4.0-0.20","subject_id":"5ca9f8926025570001c872f3","study_id":"6197b3f67c2b5cd3b6d9596a","session_id":"619be31c4196240decfa4ee7","condition":"full-information","relevant_dimensions":["pattern","legs"],"bee_group":{"antennae":"X","wings":"X","pattern":"S","legs":"F"},"action":"harvest","summary":"good-harvest","bonus":1.3800000000000008},{"rt":1024,"stimulus":"\n                    <p><b>Action: <em>harvest</em></b></p>\n                    <p>This is the bee that you just saw.</p>\n                    <img src=\"bees-with-color/bee-A1DM.svg\" width=\"200\">\n                    <p><span class=\"greenText\"><b>Successful harvest!</b></span><br>Your pay has increased by $0.02. Your bonus pay is now $0.72.</p>\n            ","response":0,"trial_type":"html-button-response","trial_index":48,"time_elapsed":369296,"internal_node_id":"0.0-4.0-1.20","subject_id":"5ca9f8926025570001c872f3","study_id":"6197b3f67c2b5cd3b6d9596a","session_id":"619be31c4196240decfa4ee7","condition":"full-information","relevant_dimensions":["pattern","legs"],"bee_group":{"antennae":"X","wings":"X","pattern":"S","legs":"F"},"bonus":1.3800000000000008},{"rt":1476,"stimulus":"bees-with-color/bee-B2DM.svg","response":0,"trial_type":"image-button-response","trial_index":49,"time_elapsed":370773,"internal_node_id":"0.0-4.0-0.21","subject_id":"5ca9f8926025570001c872f3","study_id":"6197b3f67c2b5cd3b6d9596a","session_id":"619be31c4196240decfa4ee7","condition":"full-information","relevant_dimensions":["pattern","legs"],"bee_group":{"antennae":"X","wings":"X","pattern":"S","legs":"F"},"action":"harvest","summary":"good-harvest","bonus":1.3800000000000008},{"rt":895,"stimulus":"\n                    <p><b>Action: <em>harvest</em></b></p>\n                    <p>This is the bee that you just saw.</p>\n                    <img src=\"bees-with-color/bee-B2DM.svg\" width=\"200\">\n                    <p><span class=\"greenText\"><b>Successful harvest!</b></span><br>Your pay has increased by $0.02. Your bonus pay is now $0.74.</p>\n            ","response":0,"trial_type":"html-button-response","trial_index":50,"time_elapsed":371668,"internal_node_id":"0.0-4.0-1.21","subject_id":"5ca9f8926025570001c872f3","study_id":"6197b3f67c2b5cd3b6d9596a","session_id":"619be31c4196240decfa4ee7","condition":"full-information","relevant_dimensions":["pattern","legs"],"bee_group":{"antennae":"X","wings":"X","pattern":"S","legs":"F"},"bonus":1.3800000000000008},{"rt":1470,"stimulus":"bees-with-color/bee-B1DF.svg","response":0,"trial_type":"image-button-response","trial_index":51,"time_elapsed":373140,"internal_node_id":"0.0-4.0-0.22","subject_id":"5ca9f8926025570001c872f3","study_id":"6197b3f67c2b5cd3b6d9596a","session_id":"619be31c4196240decfa4ee7","condition":"full-information","relevant_dimensions":["pattern","legs"],"bee_group":{"antennae":"X","wings":"X","pattern":"S","legs":"F"},"action":"harvest","summary":"good-harvest","bonus":1.3800000000000008},{"rt":964,"stimulus":"\n                    <p><b>Action: <em>harvest</em></b></p>\n                    <p>This is the bee that you just saw.</p>\n                    <img src=\"bees-with-color/bee-B1DF.svg\" width=\"200\">\n                    <p><span class=\"greenText\"><b>Successful harvest!</b></span><br>Your pay has increased by $0.02. Your bonus pay is now $0.76.</p>\n            ","response":0,"trial_type":"html-button-response","trial_index":52,"time_elapsed":374105,"internal_node_id":"0.0-4.0-1.22","subject_id":"5ca9f8926025570001c872f3","study_id":"6197b3f67c2b5cd3b6d9596a","session_id":"619be31c4196240decfa4ee7","condition":"full-information","relevant_dimensions":["pattern","legs"],"bee_group":{"antennae":"X","wings":"X","pattern":"S","legs":"F"},"bonus":1.3800000000000008},{"rt":1471,"stimulus":"bees-with-color/bee-B1DM.svg","response":0,"trial_type":"image-button-response","trial_index":53,"time_elapsed":375576,"internal_node_id":"0.0-4.0-0.23","subject_id":"5ca9f8926025570001c872f3","study_id":"6197b3f67c2b5cd3b6d9596a","session_id":"619be31c4196240decfa4ee7","condition":"full-information","relevant_dimensions":["pattern","legs"],"bee_group":{"antennae":"X","wings":"X","pattern":"S","legs":"F"},"action":"harvest","summary":"good-harvest","bonus":1.3800000000000008},{"rt":837,"stimulus":"\n                    <p><b>Action: <em>harvest</em></b></p>\n                    <p>This is the bee that you just saw.</p>\n                    <img src=\"bees-with-color/bee-B1DM.svg\" width=\"200\">\n                    <p><span class=\"greenText\"><b>Successful harvest!</b></span><br>Your pay has increased by $0.02. Your bonus pay is now $0.78.</p>\n            ","response":0,"trial_type":"html-button-response","trial_index":54,"time_elapsed":376412,"internal_node_id":"0.0-4.0-1.23","subject_id":"5ca9f8926025570001c872f3","study_id":"6197b3f67c2b5cd3b6d9596a","session_id":"619be31c4196240decfa4ee7","condition":"full-information","relevant_dimensions":["pattern","legs"],"bee_group":{"antennae":"X","wings":"X","pattern":"S","legs":"F"},"bonus":1.3800000000000008},{"rt":1327,"stimulus":"bees-with-color/bee-A2DM.svg","response":0,"trial_type":"image-button-response","trial_index":55,"time_elapsed":377741,"internal_node_id":"0.0-4.0-0.24","subject_id":"5ca9f8926025570001c872f3","study_id":"6197b3f67c2b5cd3b6d9596a","session_id":"619be31c4196240decfa4ee7","condition":"full-information","relevant_dimensions":["pattern","legs"],"bee_group":{"antennae":"X","wings":"X","pattern":"S","legs":"F"},"action":"harvest","summary":"good-harvest","bonus":1.3800000000000008},{"rt":767,"stimulus":"\n                    <p><b>Action: <em>harvest</em></b></p>\n                    <p>This is the bee that you just saw.</p>\n                    <img src=\"bees-with-color/bee-A2DM.svg\" width=\"200\">\n                    <p><span class=\"greenText\"><b>Successful harvest!</b></span><br>Your pay has increased by $0.02. Your bonus pay is now $0.80.</p>\n            ","response":0,"trial_type":"html-button-response","trial_index":56,"time_elapsed":378508,"internal_node_id":"0.0-4.0-1.24","subject_id":"5ca9f8926025570001c872f3","study_id":"6197b3f67c2b5cd3b6d9596a","session_id":"619be31c4196240decfa4ee7","condition":"full-information","relevant_dimensions":["pattern","legs"],"bee_group":{"antennae":"X","wings":"X","pattern":"S","legs":"F"},"bonus":1.3800000000000008},{"rt":1332,"stimulus":"bees-with-color/bee-A1DF.svg","response":0,"trial_type":"image-button-response","trial_index":57,"time_elapsed":379840,"internal_node_id":"0.0-4.0-0.25","subject_id":"5ca9f8926025570001c872f3","study_id":"6197b3f67c2b5cd3b6d9596a","session_id":"619be31c4196240decfa4ee7","condition":"full-information","relevant_dimensions":["pattern","legs"],"bee_group":{"antennae":"X","wings":"X","pattern":"S","legs":"F"},"action":"harvest","summary":"good-harvest","bonus":1.3800000000000008},{"rt":912,"stimulus":"\n                    <p><b>Action: <em>harvest</em></b></p>\n                    <p>This is the bee that you just saw.</p>\n                    <img src=\"bees-with-color/bee-A1DF.svg\" width=\"200\">\n                    <p><span class=\"greenText\"><b>Successful harvest!</b></span><br>Your pay has increased by $0.02. Your bonus pay is now $0.82.</p>\n            ","response":0,"trial_type":"html-button-response","trial_index":58,"time_elapsed":380752,"internal_node_id":"0.0-4.0-1.25","subject_id":"5ca9f8926025570001c872f3","study_id":"6197b3f67c2b5cd3b6d9596a","session_id":"619be31c4196240decfa4ee7","condition":"full-information","relevant_dimensions":["pattern","legs"],"bee_group":{"antennae":"X","wings":"X","pattern":"S","legs":"F"},"bonus":1.3800000000000008},{"rt":1359,"stimulus":"bees-with-color/bee-B2SF.svg","response":1,"trial_type":"image-button-response","trial_index":59,"time_elapsed":382113,"internal_node_id":"0.0-4.0-0.26","subject_id":"5ca9f8926025570001c872f3","study_id":"6197b3f67c2b5cd3b6d9596a","session_id":"619be31c4196240decfa4ee7","condition":"full-information","relevant_dimensions":["pattern","legs"],"bee_group":{"antennae":"X","wings":"X","pattern":"S","legs":"F"},"action":"avoid","summary":"good-avoid","bonus":1.3800000000000008},{"rt":1243,"stimulus":"\n                    <p><b>Action: <em>avoid</em></b></p>\n                    <p>This is the bee that you just saw.</p>\n                    <img src=\"bees-with-color/bee-B2SF.svg\" width=\"200\">\n                    <p><span class=\"greenText\">Good choice!</span>  This bee would have stung you.<br>Your bonus pay is unchanged, and remains at $0.82.</p>\n            ","response":0,"trial_type":"html-button-response","trial_index":60,"time_elapsed":383357,"internal_node_id":"0.0-4.0-1.26","subject_id":"5ca9f8926025570001c872f3","study_id":"6197b3f67c2b5cd3b6d9596a","session_id":"619be31c4196240decfa4ee7","condition":"full-information","relevant_dimensions":["pattern","legs"],"bee_group":{"antennae":"X","wings":"X","pattern":"S","legs":"F"},"bonus":1.3800000000000008},{"rt":1120,"stimulus":"bees-with-color/bee-A2SM.svg","response":0,"trial_type":"image-button-response","trial_index":61,"time_elapsed":384477,"internal_node_id":"0.0-4.0-0.27","subject_id":"5ca9f8926025570001c872f3","study_id":"6197b3f67c2b5cd3b6d9596a","session_id":"619be31c4196240decfa4ee7","condition":"full-information","relevant_dimensions":["pattern","legs"],"bee_group":{"antennae":"X","wings":"X","pattern":"S","legs":"F"},"action":"harvest","summary":"good-harvest","bonus":1.3800000000000008},{"rt":947,"stimulus":"\n                    <p><b>Action: <em>harvest</em></b></p>\n                    <p>This is the bee that you just saw.</p>\n                    <img src=\"bees-with-color/bee-A2SM.svg\" width=\"200\">\n                    <p><span class=\"greenText\"><b>Successful harvest!</b></span><br>Your pay has increased by $0.02. Your bonus pay is now $0.84.</p>\n            ","response":0,"trial_type":"html-button-response","trial_index":62,"time_elapsed":385425,"internal_node_id":"0.0-4.0-1.27","subject_id":"5ca9f8926025570001c872f3","study_id":"6197b3f67c2b5cd3b6d9596a","session_id":"619be31c4196240decfa4ee7","condition":"full-information","relevant_dimensions":["pattern","legs"],"bee_group":{"antennae":"X","wings":"X","pattern":"S","legs":"F"},"bonus":1.3800000000000008},{"rt":1248,"stimulus":"bees-with-color/bee-A2DF.svg","response":0,"trial_type":"image-button-response","trial_index":63,"time_elapsed":386672,"internal_node_id":"0.0-4.0-0.28","subject_id":"5ca9f8926025570001c872f3","study_id":"6197b3f67c2b5cd3b6d9596a","session_id":"619be31c4196240decfa4ee7","condition":"full-information","relevant_dimensions":["pattern","legs"],"bee_group":{"antennae":"X","wings":"X","pattern":"S","legs":"F"},"action":"harvest","summary":"good-harvest","bonus":1.3800000000000008},{"rt":798,"stimulus":"\n                    <p><b>Action: <em>harvest</em></b></p>\n                    <p>This is the bee that you just saw.</p>\n                    <img src=\"bees-with-color/bee-A2DF.svg\" width=\"200\">\n                    <p><span class=\"greenText\"><b>Successful harvest!</b></span><br>Your pay has increased by $0.02. Your bonus pay is now $0.86.</p>\n            ","response":0,"trial_type":"html-button-response","trial_index":64,"time_elapsed":387473,"internal_node_id":"0.0-4.0-1.28","subject_id":"5ca9f8926025570001c872f3","study_id":"6197b3f67c2b5cd3b6d9596a","session_id":"619be31c4196240decfa4ee7","condition":"full-information","relevant_dimensions":["pattern","legs"],"bee_group":{"antennae":"X","wings":"X","pattern":"S","legs":"F"},"bonus":1.3800000000000008},{"rt":1380,"stimulus":"bees-with-color/bee-B1SM.svg","response":0,"trial_type":"image-button-response","trial_index":65,"time_elapsed":388853,"internal_node_id":"0.0-4.0-0.29","subject_id":"5ca9f8926025570001c872f3","study_id":"6197b3f67c2b5cd3b6d9596a","session_id":"619be31c4196240decfa4ee7","condition":"full-information","relevant_dimensions":["pattern","legs"],"bee_group":{"antennae":"X","wings":"X","pattern":"S","legs":"F"},"action":"harvest","summary":"good-harvest","bonus":1.3800000000000008},{"rt":862,"stimulus":"\n                    <p><b>Action: <em>harvest</em></b></p>\n                    <p>This is the bee that you just saw.</p>\n                    <img src=\"bees-with-color/bee-B1SM.svg\" width=\"200\">\n                    <p><span class=\"greenText\"><b>Successful harvest!</b></span><br>Your pay has increased by $0.02. Your bonus pay is now $0.88.</p>\n            ","response":0,"trial_type":"html-button-response","trial_index":66,"time_elapsed":389716,"internal_node_id":"0.0-4.0-1.29","subject_id":"5ca9f8926025570001c872f3","study_id":"6197b3f67c2b5cd3b6d9596a","session_id":"619be31c4196240decfa4ee7","condition":"full-information","relevant_dimensions":["pattern","legs"],"bee_group":{"antennae":"X","wings":"X","pattern":"S","legs":"F"},"bonus":1.3800000000000008},{"rt":1488,"stimulus":"bees-with-color/bee-B1SF.svg","response":1,"trial_type":"image-button-response","trial_index":67,"time_elapsed":391205,"internal_node_id":"0.0-4.0-0.30","subject_id":"5ca9f8926025570001c872f3","study_id":"6197b3f67c2b5cd3b6d9596a","session_id":"619be31c4196240decfa4ee7","condition":"full-information","relevant_dimensions":["pattern","legs"],"bee_group":{"antennae":"X","wings":"X","pattern":"S","legs":"F"},"action":"avoid","summary":"good-avoid","bonus":1.3800000000000008},{"rt":1019,"stimulus":"\n                    <p><b>Action: <em>avoid</em></b></p>\n                    <p>This is the bee that you just saw.</p>\n                    <img src=\"bees-with-color/bee-B1SF.svg\" width=\"200\">\n                    <p><span class=\"greenText\">Good choice!</span>  This bee would have stung you.<br>Your bonus pay is unchanged, and remains at $0.88.</p>\n            ","response":0,"trial_type":"html-button-response","trial_index":68,"time_elapsed":392224,"internal_node_id":"0.0-4.0-1.30","subject_id":"5ca9f8926025570001c872f3","study_id":"6197b3f67c2b5cd3b6d9596a","session_id":"619be31c4196240decfa4ee7","condition":"full-information","relevant_dimensions":["pattern","legs"],"bee_group":{"antennae":"X","wings":"X","pattern":"S","legs":"F"},"bonus":1.3800000000000008},{"rt":975,"stimulus":"bees-with-color/bee-A1SM.svg","response":0,"trial_type":"image-button-response","trial_index":69,"time_elapsed":393200,"internal_node_id":"0.0-4.0-0.31","subject_id":"5ca9f8926025570001c872f3","study_id":"6197b3f67c2b5cd3b6d9596a","session_id":"619be31c4196240decfa4ee7","condition":"full-information","relevant_dimensions":["pattern","legs"],"bee_group":{"antennae":"X","wings":"X","pattern":"S","legs":"F"},"action":"harvest","summary":"good-harvest","bonus":1.3800000000000008},{"rt":815,"stimulus":"\n                    <p><b>Action: <em>harvest</em></b></p>\n                    <p>This is the bee that you just saw.</p>\n                    <img src=\"bees-with-color/bee-A1SM.svg\" width=\"200\">\n                    <p><span class=\"greenText\"><b>Successful harvest!</b></span><br>Your pay has increased by $0.02. Your bonus pay is now $0.90.</p>\n            ","response":0,"trial_type":"html-button-response","trial_index":70,"time_elapsed":394016,"internal_node_id":"0.0-4.0-1.31","subject_id":"5ca9f8926025570001c872f3","study_id":"6197b3f67c2b5cd3b6d9596a","session_id":"619be31c4196240decfa4ee7","condition":"full-information","relevant_dimensions":["pattern","legs"],"bee_group":{"antennae":"X","wings":"X","pattern":"S","legs":"F"},"bonus":1.3800000000000008},{"rt":1043,"stimulus":"bees-with-color/bee-A1SF.svg","response":1,"trial_type":"image-button-response","trial_index":71,"time_elapsed":395061,"internal_node_id":"0.0-4.0-0.32","subject_id":"5ca9f8926025570001c872f3","study_id":"6197b3f67c2b5cd3b6d9596a","session_id":"619be31c4196240decfa4ee7","condition":"full-information","relevant_dimensions":["pattern","legs"],"bee_group":{"antennae":"X","wings":"X","pattern":"S","legs":"F"},"action":"avoid","summary":"good-avoid","bonus":1.3800000000000008},{"rt":800,"stimulus":"\n                    <p><b>Action: <em>avoid</em></b></p>\n                    <p>This is the bee that you just saw.</p>\n                    <img src=\"bees-with-color/bee-A1SF.svg\" width=\"200\">\n                    <p><span class=\"greenText\">Good choice!</span>  This bee would have stung you.<br>Your bonus pay is unchanged, and remains at $0.90.</p>\n            ","response":0,"trial_type":"html-button-response","trial_index":72,"time_elapsed":395861,"internal_node_id":"0.0-4.0-1.32","subject_id":"5ca9f8926025570001c872f3","study_id":"6197b3f67c2b5cd3b6d9596a","session_id":"619be31c4196240decfa4ee7","condition":"full-information","relevant_dimensions":["pattern","legs"],"bee_group":{"antennae":"X","wings":"X","pattern":"S","legs":"F"},"bonus":1.3800000000000008},{"rt":1312,"stimulus":"bees-with-color/bee-B2DF.svg","response":0,"trial_type":"image-button-response","trial_index":73,"time_elapsed":397172,"internal_node_id":"0.0-4.0-0.33","subject_id":"5ca9f8926025570001c872f3","study_id":"6197b3f67c2b5cd3b6d9596a","session_id":"619be31c4196240decfa4ee7","condition":"full-information","relevant_dimensions":["pattern","legs"],"bee_group":{"antennae":"X","wings":"X","pattern":"S","legs":"F"},"action":"harvest","summary":"good-harvest","bonus":1.3800000000000008},{"rt":834,"stimulus":"\n                    <p><b>Action: <em>harvest</em></b></p>\n                    <p>This is the bee that you just saw.</p>\n                    <img src=\"bees-with-color/bee-B2DF.svg\" width=\"200\">\n                    <p><span class=\"greenText\"><b>Successful harvest!</b></span><br>Your pay has increased by $0.02. Your bonus pay is now $0.92.</p>\n            ","response":0,"trial_type":"html-button-response","trial_index":74,"time_elapsed":398009,"internal_node_id":"0.0-4.0-1.33","subject_id":"5ca9f8926025570001c872f3","study_id":"6197b3f67c2b5cd3b6d9596a","session_id":"619be31c4196240decfa4ee7","condition":"full-information","relevant_dimensions":["pattern","legs"],"bee_group":{"antennae":"X","wings":"X","pattern":"S","legs":"F"},"bonus":1.3800000000000008},{"rt":1455,"stimulus":"bees-with-color/bee-A2SM.svg","response":0,"trial_type":"image-button-response","trial_index":75,"time_elapsed":399464,"internal_node_id":"0.0-4.0-0.34","subject_id":"5ca9f8926025570001c872f3","study_id":"6197b3f67c2b5cd3b6d9596a","session_id":"619be31c4196240decfa4ee7","condition":"full-information","relevant_dimensions":["pattern","legs"],"bee_group":{"antennae":"X","wings":"X","pattern":"S","legs":"F"},"action":"harvest","summary":"good-harvest","bonus":1.3800000000000008},{"rt":687,"stimulus":"\n                    <p><b>Action: <em>harvest</em></b></p>\n                    <p>This is the bee that you just saw.</p>\n                    <img src=\"bees-with-color/bee-A2SM.svg\" width=\"200\">\n                    <p><span class=\"greenText\"><b>Successful harvest!</b></span><br>Your pay has increased by $0.02. Your bonus pay is now $0.94.</p>\n            ","response":0,"trial_type":"html-button-response","trial_index":76,"time_elapsed":400152,"internal_node_id":"0.0-4.0-1.34","subject_id":"5ca9f8926025570001c872f3","study_id":"6197b3f67c2b5cd3b6d9596a","session_id":"619be31c4196240decfa4ee7","condition":"full-information","relevant_dimensions":["pattern","legs"],"bee_group":{"antennae":"X","wings":"X","pattern":"S","legs":"F"},"bonus":1.3800000000000008},{"rt":1410,"stimulus":"bees-with-color/bee-B2SM.svg","response":0,"trial_type":"image-button-response","trial_index":77,"time_elapsed":401564,"internal_node_id":"0.0-4.0-0.35","subject_id":"5ca9f8926025570001c872f3","study_id":"6197b3f67c2b5cd3b6d9596a","session_id":"619be31c4196240decfa4ee7","condition":"full-information","relevant_dimensions":["pattern","legs"],"bee_group":{"antennae":"X","wings":"X","pattern":"S","legs":"F"},"action":"harvest","summary":"good-harvest","bonus":1.3800000000000008},{"rt":1048,"stimulus":"\n                    <p><b>Action: <em>harvest</em></b></p>\n                    <p>This is the bee that you just saw.</p>\n                    <img src=\"bees-with-color/bee-B2SM.svg\" width=\"200\">\n                    <p><span class=\"greenText\"><b>Successful harvest!</b></span><br>Your pay has increased by $0.02. Your bonus pay is now $0.96.</p>\n            ","response":0,"trial_type":"html-button-response","trial_index":78,"time_elapsed":402612,"internal_node_id":"0.0-4.0-1.35","subject_id":"5ca9f8926025570001c872f3","study_id":"6197b3f67c2b5cd3b6d9596a","session_id":"619be31c4196240decfa4ee7","condition":"full-information","relevant_dimensions":["pattern","legs"],"bee_group":{"antennae":"X","wings":"X","pattern":"S","legs":"F"},"bonus":1.3800000000000008},{"rt":1140,"stimulus":"bees-with-color/bee-B1DF.svg","response":0,"trial_type":"image-button-response","trial_index":79,"time_elapsed":403753,"internal_node_id":"0.0-4.0-0.36","subject_id":"5ca9f8926025570001c872f3","study_id":"6197b3f67c2b5cd3b6d9596a","session_id":"619be31c4196240decfa4ee7","condition":"full-information","relevant_dimensions":["pattern","legs"],"bee_group":{"antennae":"X","wings":"X","pattern":"S","legs":"F"},"action":"harvest","summary":"good-harvest","bonus":1.3800000000000008},{"rt":911,"stimulus":"\n                    <p><b>Action: <em>harvest</em></b></p>\n                    <p>This is the bee that you just saw.</p>\n                    <img src=\"bees-with-color/bee-B1DF.svg\" width=\"200\">\n                    <p><span class=\"greenText\"><b>Successful harvest!</b></span><br>Your pay has increased by $0.02. Your bonus pay is now $0.98.</p>\n            ","response":0,"trial_type":"html-button-response","trial_index":80,"time_elapsed":404664,"internal_node_id":"0.0-4.0-1.36","subject_id":"5ca9f8926025570001c872f3","study_id":"6197b3f67c2b5cd3b6d9596a","session_id":"619be31c4196240decfa4ee7","condition":"full-information","relevant_dimensions":["pattern","legs"],"bee_group":{"antennae":"X","wings":"X","pattern":"S","legs":"F"},"bonus":1.3800000000000008},{"rt":1055,"stimulus":"bees-with-color/bee-A1DF.svg","response":0,"trial_type":"image-button-response","trial_index":81,"time_elapsed":405721,"internal_node_id":"0.0-4.0-0.37","subject_id":"5ca9f8926025570001c872f3","study_id":"6197b3f67c2b5cd3b6d9596a","session_id":"619be31c4196240decfa4ee7","condition":"full-information","relevant_dimensions":["pattern","legs"],"bee_group":{"antennae":"X","wings":"X","pattern":"S","legs":"F"},"action":"harvest","summary":"good-harvest","bonus":1.3800000000000008},{"rt":815,"stimulus":"\n                    <p><b>Action: <em>harvest</em></b></p>\n                    <p>This is the bee that you just saw.</p>\n                    <img src=\"bees-with-color/bee-A1DF.svg\" width=\"200\">\n                    <p><span class=\"greenText\"><b>Successful harvest!</b></span><br>Your pay has increased by $0.02. Your bonus pay is now $1.00.</p>\n            ","response":0,"trial_type":"html-button-response","trial_index":82,"time_elapsed":406536,"internal_node_id":"0.0-4.0-1.37","subject_id":"5ca9f8926025570001c872f3","study_id":"6197b3f67c2b5cd3b6d9596a","session_id":"619be31c4196240decfa4ee7","condition":"full-information","relevant_dimensions":["pattern","legs"],"bee_group":{"antennae":"X","wings":"X","pattern":"S","legs":"F"},"bonus":1.3800000000000008},{"rt":1221,"stimulus":"bees-with-color/bee-B2SF.svg","response":1,"trial_type":"image-button-response","trial_index":83,"time_elapsed":407756,"internal_node_id":"0.0-4.0-0.38","subject_id":"5ca9f8926025570001c872f3","study_id":"6197b3f67c2b5cd3b6d9596a","session_id":"619be31c4196240decfa4ee7","condition":"full-information","relevant_dimensions":["pattern","legs"],"bee_group":{"antennae":"X","wings":"X","pattern":"S","legs":"F"},"action":"avoid","summary":"good-avoid","bonus":1.3800000000000008},{"rt":863,"stimulus":"\n                    <p><b>Action: <em>avoid</em></b></p>\n                    <p>This is the bee that you just saw.</p>\n                    <img src=\"bees-with-color/bee-B2SF.svg\" width=\"200\">\n                    <p><span class=\"greenText\">Good choice!</span>  This bee would have stung you.<br>Your bonus pay is unchanged, and remains at $1.00.</p>\n            ","response":0,"trial_type":"html-button-response","trial_index":84,"time_elapsed":408620,"internal_node_id":"0.0-4.0-1.38","subject_id":"5ca9f8926025570001c872f3","study_id":"6197b3f67c2b5cd3b6d9596a","session_id":"619be31c4196240decfa4ee7","condition":"full-information","relevant_dimensions":["pattern","legs"],"bee_group":{"antennae":"X","wings":"X","pattern":"S","legs":"F"},"bonus":1.3800000000000008},{"rt":1171,"stimulus":"bees-with-color/bee-A1SM.svg","response":0,"trial_type":"image-button-response","trial_index":85,"time_elapsed":409792,"internal_node_id":"0.0-4.0-0.39","subject_id":"5ca9f8926025570001c872f3","study_id":"6197b3f67c2b5cd3b6d9596a","session_id":"619be31c4196240decfa4ee7","condition":"full-information","relevant_dimensions":["pattern","legs"],"bee_group":{"antennae":"X","wings":"X","pattern":"S","legs":"F"},"action":"harvest","summary":"good-harvest","bonus":1.3800000000000008},{"rt":815,"stimulus":"\n                    <p><b>Action: <em>harvest</em></b></p>\n                    <p>This is the bee that you just saw.</p>\n                    <img src=\"bees-with-color/bee-A1SM.svg\" width=\"200\">\n                    <p><span class=\"greenText\"><b>Successful harvest!</b></span><br>Your pay has increased by $0.02. Your bonus pay is now $1.02.</p>\n            ","response":0,"trial_type":"html-button-response","trial_index":86,"time_elapsed":410608,"internal_node_id":"0.0-4.0-1.39","subject_id":"5ca9f8926025570001c872f3","study_id":"6197b3f67c2b5cd3b6d9596a","session_id":"619be31c4196240decfa4ee7","condition":"full-information","relevant_dimensions":["pattern","legs"],"bee_group":{"antennae":"X","wings":"X","pattern":"S","legs":"F"},"bonus":1.3800000000000008},{"rt":1025,"stimulus":"bees-with-color/bee-A2DM.svg","response":0,"trial_type":"image-button-response","trial_index":87,"time_elapsed":411632,"internal_node_id":"0.0-4.0-0.40","subject_id":"5ca9f8926025570001c872f3","study_id":"6197b3f67c2b5cd3b6d9596a","session_id":"619be31c4196240decfa4ee7","condition":"full-information","relevant_dimensions":["pattern","legs"],"bee_group":{"antennae":"X","wings":"X","pattern":"S","legs":"F"},"action":"harvest","summary":"good-harvest","bonus":1.3800000000000008},{"rt":816,"stimulus":"\n                    <p><b>Action: <em>harvest</em></b></p>\n                    <p>This is the bee that you just saw.</p>\n                    <img src=\"bees-with-color/bee-A2DM.svg\" width=\"200\">\n                    <p><span class=\"greenText\"><b>Successful harvest!</b></span><br>Your pay has increased by $0.02. Your bonus pay is now $1.04.</p>\n            ","response":0,"trial_type":"html-button-response","trial_index":88,"time_elapsed":412448,"internal_node_id":"0.0-4.0-1.40","subject_id":"5ca9f8926025570001c872f3","study_id":"6197b3f67c2b5cd3b6d9596a","session_id":"619be31c4196240decfa4ee7","condition":"full-information","relevant_dimensions":["pattern","legs"],"bee_group":{"antennae":"X","wings":"X","pattern":"S","legs":"F"},"bonus":1.3800000000000008},{"rt":1092,"stimulus":"bees-with-color/bee-B1DM.svg","response":0,"trial_type":"image-button-response","trial_index":89,"time_elapsed":413540,"internal_node_id":"0.0-4.0-0.41","subject_id":"5ca9f8926025570001c872f3","study_id":"6197b3f67c2b5cd3b6d9596a","session_id":"619be31c4196240decfa4ee7","condition":"full-information","relevant_dimensions":["pattern","legs"],"bee_group":{"antennae":"X","wings":"X","pattern":"S","legs":"F"},"action":"harvest","summary":"good-harvest","bonus":1.3800000000000008},{"rt":800,"stimulus":"\n                    <p><b>Action: <em>harvest</em></b></p>\n                    <p>This is the bee that you just saw.</p>\n                    <img src=\"bees-with-color/bee-B1DM.svg\" width=\"200\">\n                    <p><span class=\"greenText\"><b>Successful harvest!</b></span><br>Your pay has increased by $0.02. Your bonus pay is now $1.06.</p>\n            ","response":0,"trial_type":"html-button-response","trial_index":90,"time_elapsed":414340,"internal_node_id":"0.0-4.0-1.41","subject_id":"5ca9f8926025570001c872f3","study_id":"6197b3f67c2b5cd3b6d9596a","session_id":"619be31c4196240decfa4ee7","condition":"full-information","relevant_dimensions":["pattern","legs"],"bee_group":{"antennae":"X","wings":"X","pattern":"S","legs":"F"},"bonus":1.3800000000000008},{"rt":1247,"stimulus":"bees-with-color/bee-A1DM.svg","response":0,"trial_type":"image-button-response","trial_index":91,"time_elapsed":415589,"internal_node_id":"0.0-4.0-0.42","subject_id":"5ca9f8926025570001c872f3","study_id":"6197b3f67c2b5cd3b6d9596a","session_id":"619be31c4196240decfa4ee7","condition":"full-information","relevant_dimensions":["pattern","legs"],"bee_group":{"antennae":"X","wings":"X","pattern":"S","legs":"F"},"action":"harvest","summary":"good-harvest","bonus":1.3800000000000008},{"rt":852,"stimulus":"\n                    <p><b>Action: <em>harvest</em></b></p>\n                    <p>This is the bee that you just saw.</p>\n                    <img src=\"bees-with-color/bee-A1DM.svg\" width=\"200\">\n                    <p><span class=\"greenText\"><b>Successful harvest!</b></span><br>Your pay has increased by $0.02. Your bonus pay is now $1.08.</p>\n            ","response":0,"trial_type":"html-button-response","trial_index":92,"time_elapsed":416440,"internal_node_id":"0.0-4.0-1.42","subject_id":"5ca9f8926025570001c872f3","study_id":"6197b3f67c2b5cd3b6d9596a","session_id":"619be31c4196240decfa4ee7","condition":"full-information","relevant_dimensions":["pattern","legs"],"bee_group":{"antennae":"X","wings":"X","pattern":"S","legs":"F"},"bonus":1.3800000000000008},{"rt":1200,"stimulus":"bees-with-color/bee-B2DM.svg","response":0,"trial_type":"image-button-response","trial_index":93,"time_elapsed":417640,"internal_node_id":"0.0-4.0-0.43","subject_id":"5ca9f8926025570001c872f3","study_id":"6197b3f67c2b5cd3b6d9596a","session_id":"619be31c4196240decfa4ee7","condition":"full-information","relevant_dimensions":["pattern","legs"],"bee_group":{"antennae":"X","wings":"X","pattern":"S","legs":"F"},"action":"harvest","summary":"good-harvest","bonus":1.3800000000000008},{"rt":864,"stimulus":"\n                    <p><b>Action: <em>harvest</em></b></p>\n                    <p>This is the bee that you just saw.</p>\n                    <img src=\"bees-with-color/bee-B2DM.svg\" width=\"200\">\n                    <p><span class=\"greenText\"><b>Successful harvest!</b></span><br>Your pay has increased by $0.02. Your bonus pay is now $1.10.</p>\n            ","response":0,"trial_type":"html-button-response","trial_index":94,"time_elapsed":418505,"internal_node_id":"0.0-4.0-1.43","subject_id":"5ca9f8926025570001c872f3","study_id":"6197b3f67c2b5cd3b6d9596a","session_id":"619be31c4196240decfa4ee7","condition":"full-information","relevant_dimensions":["pattern","legs"],"bee_group":{"antennae":"X","wings":"X","pattern":"S","legs":"F"},"bonus":1.3800000000000008},{"rt":1266,"stimulus":"bees-with-color/bee-B1SM.svg","response":0,"trial_type":"image-button-response","trial_index":95,"time_elapsed":419772,"internal_node_id":"0.0-4.0-0.44","subject_id":"5ca9f8926025570001c872f3","study_id":"6197b3f67c2b5cd3b6d9596a","session_id":"619be31c4196240decfa4ee7","condition":"full-information","relevant_dimensions":["pattern","legs"],"bee_group":{"antennae":"X","wings":"X","pattern":"S","legs":"F"},"action":"harvest","summary":"good-harvest","bonus":1.3800000000000008},{"rt":816,"stimulus":"\n                    <p><b>Action: <em>harvest</em></b></p>\n                    <p>This is the bee that you just saw.</p>\n                    <img src=\"bees-with-color/bee-B1SM.svg\" width=\"200\">\n                    <p><span class=\"greenText\"><b>Successful harvest!</b></span><br>Your pay has increased by $0.02. Your bonus pay is now $1.12.</p>\n            ","response":0,"trial_type":"html-button-response","trial_index":96,"time_elapsed":420589,"internal_node_id":"0.0-4.0-1.44","subject_id":"5ca9f8926025570001c872f3","study_id":"6197b3f67c2b5cd3b6d9596a","session_id":"619be31c4196240decfa4ee7","condition":"full-information","relevant_dimensions":["pattern","legs"],"bee_group":{"antennae":"X","wings":"X","pattern":"S","legs":"F"},"bonus":1.3800000000000008},{"rt":1102,"stimulus":"bees-with-color/bee-A2DF.svg","response":0,"trial_type":"image-button-response","trial_index":97,"time_elapsed":421693,"internal_node_id":"0.0-4.0-0.45","subject_id":"5ca9f8926025570001c872f3","study_id":"6197b3f67c2b5cd3b6d9596a","session_id":"619be31c4196240decfa4ee7","condition":"full-information","relevant_dimensions":["pattern","legs"],"bee_group":{"antennae":"X","wings":"X","pattern":"S","legs":"F"},"action":"harvest","summary":"good-harvest","bonus":1.3800000000000008},{"rt":851,"stimulus":"\n                    <p><b>Action: <em>harvest</em></b></p>\n                    <p>This is the bee that you just saw.</p>\n                    <img src=\"bees-with-color/bee-A2DF.svg\" width=\"200\">\n                    <p><span class=\"greenText\"><b>Successful harvest!</b></span><br>Your pay has increased by $0.02. Your bonus pay is now $1.14.</p>\n            ","response":0,"trial_type":"html-button-response","trial_index":98,"time_elapsed":422544,"internal_node_id":"0.0-4.0-1.45","subject_id":"5ca9f8926025570001c872f3","study_id":"6197b3f67c2b5cd3b6d9596a","session_id":"619be31c4196240decfa4ee7","condition":"full-information","relevant_dimensions":["pattern","legs"],"bee_group":{"antennae":"X","wings":"X","pattern":"S","legs":"F"},"bonus":1.3800000000000008},{"rt":1103,"stimulus":"bees-with-color/bee-A2SF.svg","response":1,"trial_type":"image-button-response","trial_index":99,"time_elapsed":423648,"internal_node_id":"0.0-4.0-0.46","subject_id":"5ca9f8926025570001c872f3","study_id":"6197b3f67c2b5cd3b6d9596a","session_id":"619be31c4196240decfa4ee7","condition":"full-information","relevant_dimensions":["pattern","legs"],"bee_group":{"antennae":"X","wings":"X","pattern":"S","legs":"F"},"action":"avoid","summary":"good-avoid","bonus":1.3800000000000008},{"rt":959,"stimulus":"\n                    <p><b>Action: <em>avoid</em></b></p>\n                    <p>This is the bee that you just saw.</p>\n                    <img src=\"bees-with-color/bee-A2SF.svg\" width=\"200\">\n                    <p><span class=\"greenText\">Good choice!</span>  This bee would have stung you.<br>Your bonus pay is unchanged, and remains at $1.14.</p>\n            ","response":0,"trial_type":"html-button-response","trial_index":100,"time_elapsed":424608,"internal_node_id":"0.0-4.0-1.46","subject_id":"5ca9f8926025570001c872f3","study_id":"6197b3f67c2b5cd3b6d9596a","session_id":"619be31c4196240decfa4ee7","condition":"full-information","relevant_dimensions":["pattern","legs"],"bee_group":{"antennae":"X","wings":"X","pattern":"S","legs":"F"},"bonus":1.3800000000000008},{"rt":1202,"stimulus":"bees-with-color/bee-B1SF.svg","response":1,"trial_type":"image-button-response","trial_index":101,"time_elapsed":425812,"internal_node_id":"0.0-4.0-0.47","subject_id":"5ca9f8926025570001c872f3","study_id":"6197b3f67c2b5cd3b6d9596a","session_id":"619be31c4196240decfa4ee7","condition":"full-information","relevant_dimensions":["pattern","legs"],"bee_group":{"antennae":"X","wings":"X","pattern":"S","legs":"F"},"action":"avoid","summary":"good-avoid","bonus":1.3800000000000008},{"rt":784,"stimulus":"\n                    <p><b>Action: <em>avoid</em></b></p>\n                    <p>This is the bee that you just saw.</p>\n                    <img src=\"bees-with-color/bee-B1SF.svg\" width=\"200\">\n                    <p><span class=\"greenText\">Good choice!</span>  This bee would have stung you.<br>Your bonus pay is unchanged, and remains at $1.14.</p>\n            ","response":0,"trial_type":"html-button-response","trial_index":102,"time_elapsed":426597,"internal_node_id":"0.0-4.0-1.47","subject_id":"5ca9f8926025570001c872f3","study_id":"6197b3f67c2b5cd3b6d9596a","session_id":"619be31c4196240decfa4ee7","condition":"full-information","relevant_dimensions":["pattern","legs"],"bee_group":{"antennae":"X","wings":"X","pattern":"S","legs":"F"},"bonus":1.3800000000000008},{"rt":942,"stimulus":"bees-with-color/bee-A2DF.svg","response":0,"trial_type":"image-button-response","trial_index":103,"time_elapsed":427540,"internal_node_id":"0.0-4.0-0.48","subject_id":"5ca9f8926025570001c872f3","study_id":"6197b3f67c2b5cd3b6d9596a","session_id":"619be31c4196240decfa4ee7","condition":"full-information","relevant_dimensions":["pattern","legs"],"bee_group":{"antennae":"X","wings":"X","pattern":"S","legs":"F"},"action":"harvest","summary":"good-harvest","bonus":1.3800000000000008},{"rt":1228,"stimulus":"\n                    <p><b>Action: <em>harvest</em></b></p>\n                    <p>This is the bee that you just saw.</p>\n                    <img src=\"bees-with-color/bee-A2DF.svg\" width=\"200\">\n                    <p><span class=\"greenText\"><b>Successful harvest!</b></span><br>Your pay has increased by $0.02. Your bonus pay is now $1.16.</p>\n            ","response":0,"trial_type":"html-button-response","trial_index":104,"time_elapsed":428768,"internal_node_id":"0.0-4.0-1.48","subject_id":"5ca9f8926025570001c872f3","study_id":"6197b3f67c2b5cd3b6d9596a","session_id":"619be31c4196240decfa4ee7","condition":"full-information","relevant_dimensions":["pattern","legs"],"bee_group":{"antennae":"X","wings":"X","pattern":"S","legs":"F"},"bonus":1.3800000000000008},{"rt":1055,"stimulus":"bees-with-color/bee-B2SF.svg","response":1,"trial_type":"image-button-response","trial_index":105,"time_elapsed":429824,"internal_node_id":"0.0-4.0-0.49","subject_id":"5ca9f8926025570001c872f3","study_id":"6197b3f67c2b5cd3b6d9596a","session_id":"619be31c4196240decfa4ee7","condition":"full-information","relevant_dimensions":["pattern","legs"],"bee_group":{"antennae":"X","wings":"X","pattern":"S","legs":"F"},"action":"avoid","summary":"good-avoid","bonus":1.3800000000000008},{"rt":927,"stimulus":"\n                    <p><b>Action: <em>avoid</em></b></p>\n                    <p>This is the bee that you just saw.</p>\n                    <img src=\"bees-with-color/bee-B2SF.svg\" width=\"200\">\n                    <p><span class=\"greenText\">Good choice!</span>  This bee would have stung you.<br>Your bonus pay is unchanged, and remains at $1.16.</p>\n            ","response":0,"trial_type":"html-button-response","trial_index":106,"time_elapsed":430753,"internal_node_id":"0.0-4.0-1.49","subject_id":"5ca9f8926025570001c872f3","study_id":"6197b3f67c2b5cd3b6d9596a","session_id":"619be31c4196240decfa4ee7","condition":"full-information","relevant_dimensions":["pattern","legs"],"bee_group":{"antennae":"X","wings":"X","pattern":"S","legs":"F"},"bonus":1.3800000000000008},{"rt":1108,"stimulus":"bees-with-color/bee-B1SM.svg","response":0,"trial_type":"image-button-response","trial_index":107,"time_elapsed":431860,"internal_node_id":"0.0-4.0-0.50","subject_id":"5ca9f8926025570001c872f3","study_id":"6197b3f67c2b5cd3b6d9596a","session_id":"619be31c4196240decfa4ee7","condition":"full-information","relevant_dimensions":["pattern","legs"],"bee_group":{"antennae":"X","wings":"X","pattern":"S","legs":"F"},"action":"harvest","summary":"good-harvest","bonus":1.3800000000000008},{"rt":911,"stimulus":"\n                    <p><b>Action: <em>harvest</em></b></p>\n                    <p>This is the bee that you just saw.</p>\n                    <img src=\"bees-with-color/bee-B1SM.svg\" width=\"200\">\n                    <p><span class=\"greenText\"><b>Successful harvest!</b></span><br>Your pay has increased by $0.02. Your bonus pay is now $1.18.</p>\n            ","response":0,"trial_type":"html-button-response","trial_index":108,"time_elapsed":432773,"internal_node_id":"0.0-4.0-1.50","subject_id":"5ca9f8926025570001c872f3","study_id":"6197b3f67c2b5cd3b6d9596a","session_id":"619be31c4196240decfa4ee7","condition":"full-information","relevant_dimensions":["pattern","legs"],"bee_group":{"antennae":"X","wings":"X","pattern":"S","legs":"F"},"bonus":1.3800000000000008},{"rt":1039,"stimulus":"bees-with-color/bee-A1DF.svg","response":0,"trial_type":"image-button-response","trial_index":109,"time_elapsed":433812,"internal_node_id":"0.0-4.0-0.51","subject_id":"5ca9f8926025570001c872f3","study_id":"6197b3f67c2b5cd3b6d9596a","session_id":"619be31c4196240decfa4ee7","condition":"full-information","relevant_dimensions":["pattern","legs"],"bee_group":{"antennae":"X","wings":"X","pattern":"S","legs":"F"},"action":"harvest","summary":"good-harvest","bonus":1.3800000000000008},{"rt":804,"stimulus":"\n                    <p><b>Action: <em>harvest</em></b></p>\n                    <p>This is the bee that you just saw.</p>\n                    <img src=\"bees-with-color/bee-A1DF.svg\" width=\"200\">\n                    <p><span class=\"greenText\"><b>Successful harvest!</b></span><br>Your pay has increased by $0.02. Your bonus pay is now $1.20.</p>\n            ","response":0,"trial_type":"html-button-response","trial_index":110,"time_elapsed":434617,"internal_node_id":"0.0-4.0-1.51","subject_id":"5ca9f8926025570001c872f3","study_id":"6197b3f67c2b5cd3b6d9596a","session_id":"619be31c4196240decfa4ee7","condition":"full-information","relevant_dimensions":["pattern","legs"],"bee_group":{"antennae":"X","wings":"X","pattern":"S","legs":"F"},"bonus":1.3800000000000008},{"rt":1072,"stimulus":"bees-with-color/bee-A1SM.svg","response":0,"trial_type":"image-button-response","trial_index":111,"time_elapsed":435688,"internal_node_id":"0.0-4.0-0.52","subject_id":"5ca9f8926025570001c872f3","study_id":"6197b3f67c2b5cd3b6d9596a","session_id":"619be31c4196240decfa4ee7","condition":"full-information","relevant_dimensions":["pattern","legs"],"bee_group":{"antennae":"X","wings":"X","pattern":"S","legs":"F"},"action":"harvest","summary":"good-harvest","bonus":1.3800000000000008},{"rt":703,"stimulus":"\n                    <p><b>Action: <em>harvest</em></b></p>\n                    <p>This is the bee that you just saw.</p>\n                    <img src=\"bees-with-color/bee-A1SM.svg\" width=\"200\">\n                    <p><span class=\"greenText\"><b>Successful harvest!</b></span><br>Your pay has increased by $0.02. Your bonus pay is now $1.22.</p>\n            ","response":0,"trial_type":"html-button-response","trial_index":112,"time_elapsed":436393,"internal_node_id":"0.0-4.0-1.52","subject_id":"5ca9f8926025570001c872f3","study_id":"6197b3f67c2b5cd3b6d9596a","session_id":"619be31c4196240decfa4ee7","condition":"full-information","relevant_dimensions":["pattern","legs"],"bee_group":{"antennae":"X","wings":"X","pattern":"S","legs":"F"},"bonus":1.3800000000000008},{"rt":899,"stimulus":"bees-with-color/bee-A2SM.svg","response":0,"trial_type":"image-button-response","trial_index":113,"time_elapsed":437293,"internal_node_id":"0.0-4.0-0.53","subject_id":"5ca9f8926025570001c872f3","study_id":"6197b3f67c2b5cd3b6d9596a","session_id":"619be31c4196240decfa4ee7","condition":"full-information","relevant_dimensions":["pattern","legs"],"bee_group":{"antennae":"X","wings":"X","pattern":"S","legs":"F"},"action":"harvest","summary":"good-harvest","bonus":1.3800000000000008},{"rt":704,"stimulus":"\n                    <p><b>Action: <em>harvest</em></b></p>\n                    <p>This is the bee that you just saw.</p>\n                    <img src=\"bees-with-color/bee-A2SM.svg\" width=\"200\">\n                    <p><span class=\"greenText\"><b>Successful harvest!</b></span><br>Your pay has increased by $0.02. Your bonus pay is now $1.24.</p>\n            ","response":0,"trial_type":"html-button-response","trial_index":114,"time_elapsed":437997,"internal_node_id":"0.0-4.0-1.53","subject_id":"5ca9f8926025570001c872f3","study_id":"6197b3f67c2b5cd3b6d9596a","session_id":"619be31c4196240decfa4ee7","condition":"full-information","relevant_dimensions":["pattern","legs"],"bee_group":{"antennae":"X","wings":"X","pattern":"S","legs":"F"},"bonus":1.3800000000000008},{"rt":959,"stimulus":"bees-with-color/bee-B2DM.svg","response":0,"trial_type":"image-button-response","trial_index":115,"time_elapsed":438956,"internal_node_id":"0.0-4.0-0.54","subject_id":"5ca9f8926025570001c872f3","study_id":"6197b3f67c2b5cd3b6d9596a","session_id":"619be31c4196240decfa4ee7","condition":"full-information","relevant_dimensions":["pattern","legs"],"bee_group":{"antennae":"X","wings":"X","pattern":"S","legs":"F"},"action":"harvest","summary":"good-harvest","bonus":1.3800000000000008},{"rt":815,"stimulus":"\n                    <p><b>Action: <em>harvest</em></b></p>\n                    <p>This is the bee that you just saw.</p>\n                    <img src=\"bees-with-color/bee-B2DM.svg\" width=\"200\">\n                    <p><span class=\"greenText\"><b>Successful harvest!</b></span><br>Your pay has increased by $0.02. Your bonus pay is now $1.26.</p>\n            ","response":0,"trial_type":"html-button-response","trial_index":116,"time_elapsed":439773,"internal_node_id":"0.0-4.0-1.54","subject_id":"5ca9f8926025570001c872f3","study_id":"6197b3f67c2b5cd3b6d9596a","session_id":"619be31c4196240decfa4ee7","condition":"full-information","relevant_dimensions":["pattern","legs"],"bee_group":{"antennae":"X","wings":"X","pattern":"S","legs":"F"},"bonus":1.3800000000000008},{"rt":1331,"stimulus":"bees-with-color/bee-B1SF.svg","response":1,"trial_type":"image-button-response","trial_index":117,"time_elapsed":441105,"internal_node_id":"0.0-4.0-0.55","subject_id":"5ca9f8926025570001c872f3","study_id":"6197b3f67c2b5cd3b6d9596a","session_id":"619be31c4196240decfa4ee7","condition":"full-information","relevant_dimensions":["pattern","legs"],"bee_group":{"antennae":"X","wings":"X","pattern":"S","legs":"F"},"action":"avoid","summary":"good-avoid","bonus":1.3800000000000008},{"rt":928,"stimulus":"\n                    <p><b>Action: <em>avoid</em></b></p>\n                    <p>This is the bee that you just saw.</p>\n                    <img src=\"bees-with-color/bee-B1SF.svg\" width=\"200\">\n                    <p><span class=\"greenText\">Good choice!</span>  This bee would have stung you.<br>Your bonus pay is unchanged, and remains at $1.26.</p>\n            ","response":0,"trial_type":"html-button-response","trial_index":118,"time_elapsed":442032,"internal_node_id":"0.0-4.0-1.55","subject_id":"5ca9f8926025570001c872f3","study_id":"6197b3f67c2b5cd3b6d9596a","session_id":"619be31c4196240decfa4ee7","condition":"full-information","relevant_dimensions":["pattern","legs"],"bee_group":{"antennae":"X","wings":"X","pattern":"S","legs":"F"},"bonus":1.3800000000000008},{"rt":927,"stimulus":"bees-with-color/bee-A1DM.svg","response":0,"trial_type":"image-button-response","trial_index":119,"time_elapsed":442961,"internal_node_id":"0.0-4.0-0.56","subject_id":"5ca9f8926025570001c872f3","study_id":"6197b3f67c2b5cd3b6d9596a","session_id":"619be31c4196240decfa4ee7","condition":"full-information","relevant_dimensions":["pattern","legs"],"bee_group":{"antennae":"X","wings":"X","pattern":"S","legs":"F"},"action":"harvest","summary":"good-harvest","bonus":1.3800000000000008},{"rt":899,"stimulus":"\n                    <p><b>Action: <em>harvest</em></b></p>\n                    <p>This is the bee that you just saw.</p>\n                    <img src=\"bees-with-color/bee-A1DM.svg\" width=\"200\">\n                    <p><span class=\"greenText\"><b>Successful harvest!</b></span><br>Your pay has increased by $0.02. Your bonus pay is now $1.28.</p>\n            ","response":0,"trial_type":"html-button-response","trial_index":120,"time_elapsed":443860,"internal_node_id":"0.0-4.0-1.56","subject_id":"5ca9f8926025570001c872f3","study_id":"6197b3f67c2b5cd3b6d9596a","session_id":"619be31c4196240decfa4ee7","condition":"full-information","relevant_dimensions":["pattern","legs"],"bee_group":{"antennae":"X","wings":"X","pattern":"S","legs":"F"},"bonus":1.3800000000000008},{"rt":935,"stimulus":"bees-with-color/bee-B1DF.svg","response":0,"trial_type":"image-button-response","trial_index":121,"time_elapsed":444797,"internal_node_id":"0.0-4.0-0.57","subject_id":"5ca9f8926025570001c872f3","study_id":"6197b3f67c2b5cd3b6d9596a","session_id":"619be31c4196240decfa4ee7","condition":"full-information","relevant_dimensions":["pattern","legs"],"bee_group":{"antennae":"X","wings":"X","pattern":"S","legs":"F"},"action":"harvest","summary":"good-harvest","bonus":1.3800000000000008},{"rt":735,"stimulus":"\n                    <p><b>Action: <em>harvest</em></b></p>\n                    <p>This is the bee that you just saw.</p>\n                    <img src=\"bees-with-color/bee-B1DF.svg\" width=\"200\">\n                    <p><span class=\"greenText\"><b>Successful harvest!</b></span><br>Your pay has increased by $0.02. Your bonus pay is now $1.30.</p>\n            ","response":0,"trial_type":"html-button-response","trial_index":122,"time_elapsed":445532,"internal_node_id":"0.0-4.0-1.57","subject_id":"5ca9f8926025570001c872f3","study_id":"6197b3f67c2b5cd3b6d9596a","session_id":"619be31c4196240decfa4ee7","condition":"full-information","relevant_dimensions":["pattern","legs"],"bee_group":{"antennae":"X","wings":"X","pattern":"S","legs":"F"},"bonus":1.3800000000000008},{"rt":1348,"stimulus":"bees-with-color/bee-B2DF.svg","response":0,"trial_type":"image-button-response","trial_index":123,"time_elapsed":446881,"internal_node_id":"0.0-4.0-0.58","subject_id":"5ca9f8926025570001c872f3","study_id":"6197b3f67c2b5cd3b6d9596a","session_id":"619be31c4196240decfa4ee7","condition":"full-information","relevant_dimensions":["pattern","legs"],"bee_group":{"antennae":"X","wings":"X","pattern":"S","legs":"F"},"action":"harvest","summary":"good-harvest","bonus":1.3800000000000008},{"rt":735,"stimulus":"\n                    <p><b>Action: <em>harvest</em></b></p>\n                    <p>This is the bee that you just saw.</p>\n                    <img src=\"bees-with-color/bee-B2DF.svg\" width=\"200\">\n                    <p><span class=\"greenText\"><b>Successful harvest!</b></span><br>Your pay has increased by $0.02. Your bonus pay is now $1.32.</p>\n            ","response":0,"trial_type":"html-button-response","trial_index":124,"time_elapsed":447616,"internal_node_id":"0.0-4.0-1.58","subject_id":"5ca9f8926025570001c872f3","study_id":"6197b3f67c2b5cd3b6d9596a","session_id":"619be31c4196240decfa4ee7","condition":"full-information","relevant_dimensions":["pattern","legs"],"bee_group":{"antennae":"X","wings":"X","pattern":"S","legs":"F"},"bonus":1.3800000000000008},{"rt":1168,"stimulus":"bees-with-color/bee-A1SF.svg","response":1,"trial_type":"image-button-response","trial_index":125,"time_elapsed":448785,"internal_node_id":"0.0-4.0-0.59","subject_id":"5ca9f8926025570001c872f3","study_id":"6197b3f67c2b5cd3b6d9596a","session_id":"619be31c4196240decfa4ee7","condition":"full-information","relevant_dimensions":["pattern","legs"],"bee_group":{"antennae":"X","wings":"X","pattern":"S","legs":"F"},"action":"avoid","summary":"good-avoid","bonus":1.3800000000000008},{"rt":962,"stimulus":"\n                    <p><b>Action: <em>avoid</em></b></p>\n                    <p>This is the bee that you just saw.</p>\n                    <img src=\"bees-with-color/bee-A1SF.svg\" width=\"200\">\n                    <p><span class=\"greenText\">Good choice!</span>  This bee would have stung you.<br>Your bonus pay is unchanged, and remains at $1.32.</p>\n            ","response":0,"trial_type":"html-button-response","trial_index":126,"time_elapsed":449748,"internal_node_id":"0.0-4.0-1.59","subject_id":"5ca9f8926025570001c872f3","study_id":"6197b3f67c2b5cd3b6d9596a","session_id":"619be31c4196240decfa4ee7","condition":"full-information","relevant_dimensions":["pattern","legs"],"bee_group":{"antennae":"X","wings":"X","pattern":"S","legs":"F"},"bonus":1.3800000000000008},{"rt":847,"stimulus":"bees-with-color/bee-B1DM.svg","response":0,"trial_type":"image-button-response","trial_index":127,"time_elapsed":450597,"internal_node_id":"0.0-4.0-0.60","subject_id":"5ca9f8926025570001c872f3","study_id":"6197b3f67c2b5cd3b6d9596a","session_id":"619be31c4196240decfa4ee7","condition":"full-information","relevant_dimensions":["pattern","legs"],"bee_group":{"antennae":"X","wings":"X","pattern":"S","legs":"F"},"action":"harvest","summary":"good-harvest","bonus":1.3800000000000008},{"rt":975,"stimulus":"\n                    <p><b>Action: <em>harvest</em></b></p>\n                    <p>This is the bee that you just saw.</p>\n                    <img src=\"bees-with-color/bee-B1DM.svg\" width=\"200\">\n                    <p><span class=\"greenText\"><b>Successful harvest!</b></span><br>Your pay has increased by $0.02. Your bonus pay is now $1.34.</p>\n            ","response":0,"trial_type":"html-button-response","trial_index":128,"time_elapsed":451572,"internal_node_id":"0.0-4.0-1.60","subject_id":"5ca9f8926025570001c872f3","study_id":"6197b3f67c2b5cd3b6d9596a","session_id":"619be31c4196240decfa4ee7","condition":"full-information","relevant_dimensions":["pattern","legs"],"bee_group":{"antennae":"X","wings":"X","pattern":"S","legs":"F"},"bonus":1.3800000000000008},{"rt":835,"stimulus":"bees-with-color/bee-A2DM.svg","response":0,"trial_type":"image-button-response","trial_index":129,"time_elapsed":452408,"internal_node_id":"0.0-4.0-0.61","subject_id":"5ca9f8926025570001c872f3","study_id":"6197b3f67c2b5cd3b6d9596a","session_id":"619be31c4196240decfa4ee7","condition":"full-information","relevant_dimensions":["pattern","legs"],"bee_group":{"antennae":"X","wings":"X","pattern":"S","legs":"F"},"action":"harvest","summary":"good-harvest","bonus":1.3800000000000008},{"rt":672,"stimulus":"\n                    <p><b>Action: <em>harvest</em></b></p>\n                    <p>This is the bee that you just saw.</p>\n                    <img src=\"bees-with-color/bee-A2DM.svg\" width=\"200\">\n                    <p><span class=\"greenText\"><b>Successful harvest!</b></span><br>Your pay has increased by $0.02. Your bonus pay is now $1.36.</p>\n            ","response":0,"trial_type":"html-button-response","trial_index":130,"time_elapsed":453080,"internal_node_id":"0.0-4.0-1.61","subject_id":"5ca9f8926025570001c872f3","study_id":"6197b3f67c2b5cd3b6d9596a","session_id":"619be31c4196240decfa4ee7","condition":"full-information","relevant_dimensions":["pattern","legs"],"bee_group":{"antennae":"X","wings":"X","pattern":"S","legs":"F"},"bonus":1.3800000000000008},{"rt":1432,"stimulus":"bees-with-color/bee-B2SM.svg","response":0,"trial_type":"image-button-response","trial_index":131,"time_elapsed":454512,"internal_node_id":"0.0-4.0-0.62","subject_id":"5ca9f8926025570001c872f3","study_id":"6197b3f67c2b5cd3b6d9596a","session_id":"619be31c4196240decfa4ee7","condition":"full-information","relevant_dimensions":["pattern","legs"],"bee_group":{"antennae":"X","wings":"X","pattern":"S","legs":"F"},"action":"harvest","summary":"good-harvest","bonus":1.3800000000000008},{"rt":818,"stimulus":"\n                    <p><b>Action: <em>harvest</em></b></p>\n                    <p>This is the bee that you just saw.</p>\n                    <img src=\"bees-with-color/bee-B2SM.svg\" width=\"200\">\n                    <p><span class=\"greenText\"><b>Successful harvest!</b></span><br>Your pay has increased by $0.02. Your bonus pay is now $1.38.</p>\n            ","response":0,"trial_type":"html-button-response","trial_index":132,"time_elapsed":455332,"internal_node_id":"0.0-4.0-1.62","subject_id":"5ca9f8926025570001c872f3","study_id":"6197b3f67c2b5cd3b6d9596a","session_id":"619be31c4196240decfa4ee7","condition":"full-information","relevant_dimensions":["pattern","legs"],"bee_group":{"antennae":"X","wings":"X","pattern":"S","legs":"F"},"bonus":1.3800000000000008},{"rt":1375,"stimulus":"bees-with-color/bee-A2SF.svg","response":1,"trial_type":"image-button-response","trial_index":133,"time_elapsed":456708,"internal_node_id":"0.0-4.0-0.63","subject_id":"5ca9f8926025570001c872f3","study_id":"6197b3f67c2b5cd3b6d9596a","session_id":"619be31c4196240decfa4ee7","condition":"full-information","relevant_dimensions":["pattern","legs"],"bee_group":{"antennae":"X","wings":"X","pattern":"S","legs":"F"},"action":"avoid","summary":"good-avoid","bonus":1.3800000000000008},{"rt":975,"stimulus":"\n                    <p><b>Action: <em>avoid</em></b></p>\n                    <p>This is the bee that you just saw.</p>\n                    <img src=\"bees-with-color/bee-A2SF.svg\" width=\"200\">\n                    <p><span class=\"greenText\">Good choice!</span>  This bee would have stung you.<br>Your bonus pay is unchanged, and remains at $1.38.</p>\n            ","response":0,"trial_type":"html-button-response","trial_index":134,"time_elapsed":457684,"internal_node_id":"0.0-4.0-1.63","subject_id":"5ca9f8926025570001c872f3","study_id":"6197b3f67c2b5cd3b6d9596a","session_id":"619be31c4196240decfa4ee7","condition":"full-information","relevant_dimensions":["pattern","legs"],"bee_group":{"antennae":"X","wings":"X","pattern":"S","legs":"F"},"bonus":1.3800000000000008},{"rt":9671,"stimulus":"You have completed the first part of this experiment.<br><br>You will now begin a shorter second part, in which you will receive no feedback.<br>The same rules regarding bonus pay apply.<br><br>Press any key to begin.","response":" ","trial_type":"html-keyboard-response","trial_index":135,"time_elapsed":467357,"internal_node_id":"0.0-5.0","subject_id":"5ca9f8926025570001c872f3","study_id":"6197b3f67c2b5cd3b6d9596a","session_id":"619be31c4196240decfa4ee7","condition":"full-information","relevant_dimensions":["pattern","legs"],"bee_group":{"antennae":"X","wings":"X","pattern":"S","legs":"F"},"bonus":1.3800000000000008},{"rt":4311,"stimulus":"bees-with-color/bee-A1SF.svg","response":1,"trial_type":"image-button-response","trial_index":136,"time_elapsed":471668,"internal_node_id":"0.0-6.0-0.0","subject_id":"5ca9f8926025570001c872f3","study_id":"6197b3f67c2b5cd3b6d9596a","session_id":"619be31c4196240decfa4ee7","condition":"full-information","relevant_dimensions":["pattern","legs"],"bee_group":{"antennae":"X","wings":"X","pattern":"S","legs":"F"},"bonus":1.3800000000000008},{"rt":832,"stimulus":"bees-with-color/bee-B2DM.svg","response":1,"trial_type":"image-button-response","trial_index":137,"time_elapsed":472500,"internal_node_id":"0.0-6.0-0.1","subject_id":"5ca9f8926025570001c872f3","study_id":"6197b3f67c2b5cd3b6d9596a","session_id":"619be31c4196240decfa4ee7","condition":"full-information","relevant_dimensions":["pattern","legs"],"bee_group":{"antennae":"X","wings":"X","pattern":"S","legs":"F"},"bonus":1.3800000000000008},{"rt":1727,"stimulus":"bees-with-color/bee-B2DF.svg","response":1,"trial_type":"image-button-response","trial_index":138,"time_elapsed":474229,"internal_node_id":"0.0-6.0-0.2","subject_id":"5ca9f8926025570001c872f3","study_id":"6197b3f67c2b5cd3b6d9596a","session_id":"619be31c4196240decfa4ee7","condition":"full-information","relevant_dimensions":["pattern","legs"],"bee_group":{"antennae":"X","wings":"X","pattern":"S","legs":"F"},"bonus":1.3800000000000008},{"rt":1747,"stimulus":"bees-with-color/bee-B2SM.svg","response":1,"trial_type":"image-button-response","trial_index":139,"time_elapsed":475977,"internal_node_id":"0.0-6.0-0.3","subject_id":"5ca9f8926025570001c872f3","study_id":"6197b3f67c2b5cd3b6d9596a","session_id":"619be31c4196240decfa4ee7","condition":"full-information","relevant_dimensions":["pattern","legs"],"bee_group":{"antennae":"X","wings":"X","pattern":"S","legs":"F"},"bonus":1.3800000000000008},{"rt":1730,"stimulus":"bees-with-color/bee-A1DM.svg","response":1,"trial_type":"image-button-response","trial_index":140,"time_elapsed":477708,"internal_node_id":"0.0-6.0-0.4","subject_id":"5ca9f8926025570001c872f3","study_id":"6197b3f67c2b5cd3b6d9596a","session_id":"619be31c4196240decfa4ee7","condition":"full-information","relevant_dimensions":["pattern","legs"],"bee_group":{"antennae":"X","wings":"X","pattern":"S","legs":"F"},"bonus":1.3800000000000008},{"rt":2635,"stimulus":"bees-with-color/bee-A2DM.svg","response":1,"trial_type":"image-button-response","trial_index":141,"time_elapsed":480345,"internal_node_id":"0.0-6.0-0.5","subject_id":"5ca9f8926025570001c872f3","study_id":"6197b3f67c2b5cd3b6d9596a","session_id":"619be31c4196240decfa4ee7","condition":"full-information","relevant_dimensions":["pattern","legs"],"bee_group":{"antennae":"X","wings":"X","pattern":"S","legs":"F"},"bonus":1.3800000000000008},{"rt":1215,"stimulus":"bees-with-color/bee-A2SF.svg","response":1,"trial_type":"image-button-response","trial_index":142,"time_elapsed":481560,"internal_node_id":"0.0-6.0-0.6","subject_id":"5ca9f8926025570001c872f3","study_id":"6197b3f67c2b5cd3b6d9596a","session_id":"619be31c4196240decfa4ee7","condition":"full-information","relevant_dimensions":["pattern","legs"],"bee_group":{"antennae":"X","wings":"X","pattern":"S","legs":"F"},"bonus":1.3800000000000008},{"rt":1675,"stimulus":"bees-with-color/bee-B1DM.svg","response":1,"trial_type":"image-button-response","trial_index":143,"time_elapsed":483237,"internal_node_id":"0.0-6.0-0.7","subject_id":"5ca9f8926025570001c872f3","study_id":"6197b3f67c2b5cd3b6d9596a","session_id":"619be31c4196240decfa4ee7","condition":"full-information","relevant_dimensions":["pattern","legs"],"bee_group":{"antennae":"X","wings":"X","pattern":"S","legs":"F"},"bonus":1.3800000000000008},{"rt":959,"stimulus":"bees-with-color/bee-A2DF.svg","response":1,"trial_type":"image-button-response","trial_index":144,"time_elapsed":484196,"internal_node_id":"0.0-6.0-0.8","subject_id":"5ca9f8926025570001c872f3","study_id":"6197b3f67c2b5cd3b6d9596a","session_id":"619be31c4196240decfa4ee7","condition":"full-information","relevant_dimensions":["pattern","legs"],"bee_group":{"antennae":"X","wings":"X","pattern":"S","legs":"F"},"bonus":1.3800000000000008},{"rt":783,"stimulus":"bees-with-color/bee-A1DF.svg","response":1,"trial_type":"image-button-response","trial_index":145,"time_elapsed":484981,"internal_node_id":"0.0-6.0-0.9","subject_id":"5ca9f8926025570001c872f3","study_id":"6197b3f67c2b5cd3b6d9596a","session_id":"619be31c4196240decfa4ee7","condition":"full-information","relevant_dimensions":["pattern","legs"],"bee_group":{"antennae":"X","wings":"X","pattern":"S","legs":"F"},"bonus":1.3800000000000008},{"rt":804,"stimulus":"bees-with-color/bee-A1SM.svg","response":1,"trial_type":"image-button-response","trial_index":146,"time_elapsed":485785,"internal_node_id":"0.0-6.0-0.10","subject_id":"5ca9f8926025570001c872f3","study_id":"6197b3f67c2b5cd3b6d9596a","session_id":"619be31c4196240decfa4ee7","condition":"full-information","relevant_dimensions":["pattern","legs"],"bee_group":{"antennae":"X","wings":"X","pattern":"S","legs":"F"},"bonus":1.3800000000000008},{"rt":750,"stimulus":"bees-with-color/bee-A2SM.svg","response":1,"trial_type":"image-button-response","trial_index":147,"time_elapsed":486536,"internal_node_id":"0.0-6.0-0.11","subject_id":"5ca9f8926025570001c872f3","study_id":"6197b3f67c2b5cd3b6d9596a","session_id":"619be31c4196240decfa4ee7","condition":"full-information","relevant_dimensions":["pattern","legs"],"bee_group":{"antennae":"X","wings":"X","pattern":"S","legs":"F"},"bonus":1.3800000000000008},{"rt":704,"stimulus":"bees-with-color/bee-B1DF.svg","response":1,"trial_type":"image-button-response","trial_index":148,"time_elapsed":487240,"internal_node_id":"0.0-6.0-0.12","subject_id":"5ca9f8926025570001c872f3","study_id":"6197b3f67c2b5cd3b6d9596a","session_id":"619be31c4196240decfa4ee7","condition":"full-information","relevant_dimensions":["pattern","legs"],"bee_group":{"antennae":"X","wings":"X","pattern":"S","legs":"F"},"bonus":1.3800000000000008},{"rt":687,"stimulus":"bees-with-color/bee-B1SF.svg","response":1,"trial_type":"image-button-response","trial_index":149,"time_elapsed":487929,"internal_node_id":"0.0-6.0-0.13","subject_id":"5ca9f8926025570001c872f3","study_id":"6197b3f67c2b5cd3b6d9596a","session_id":"619be31c4196240decfa4ee7","condition":"full-information","relevant_dimensions":["pattern","legs"],"bee_group":{"antennae":"X","wings":"X","pattern":"S","legs":"F"},"bonus":1.3800000000000008},{"rt":600,"stimulus":"bees-with-color/bee-B1SM.svg","response":1,"trial_type":"image-button-response","trial_index":150,"time_elapsed":488529,"internal_node_id":"0.0-6.0-0.14","subject_id":"5ca9f8926025570001c872f3","study_id":"6197b3f67c2b5cd3b6d9596a","session_id":"619be31c4196240decfa4ee7","condition":"full-information","relevant_dimensions":["pattern","legs"],"bee_group":{"antennae":"X","wings":"X","pattern":"S","legs":"F"},"bonus":1.3800000000000008},{"rt":572,"stimulus":"bees-with-color/bee-B2SF.svg","response":1,"trial_type":"image-button-response","trial_index":151,"time_elapsed":489102,"internal_node_id":"0.0-6.0-0.15","subject_id":"5ca9f8926025570001c872f3","study_id":"6197b3f67c2b5cd3b6d9596a","session_id":"619be31c4196240decfa4ee7","condition":"full-information","relevant_dimensions":["pattern","legs"],"bee_group":{"antennae":"X","wings":"X","pattern":"S","legs":"F"},"bonus":1.3800000000000008},{"rt":646,"stimulus":"bees-with-color/bee-B1DF.svg","response":1,"trial_type":"image-button-response","trial_index":152,"time_elapsed":489748,"internal_node_id":"0.0-6.0-0.16","subject_id":"5ca9f8926025570001c872f3","study_id":"6197b3f67c2b5cd3b6d9596a","session_id":"619be31c4196240decfa4ee7","condition":"full-information","relevant_dimensions":["pattern","legs"],"bee_group":{"antennae":"X","wings":"X","pattern":"S","legs":"F"},"bonus":1.3800000000000008},{"rt":583,"stimulus":"bees-with-color/bee-A1DM.svg","response":1,"trial_type":"image-button-response","trial_index":153,"time_elapsed":490333,"internal_node_id":"0.0-6.0-0.17","subject_id":"5ca9f8926025570001c872f3","study_id":"6197b3f67c2b5cd3b6d9596a","session_id":"619be31c4196240decfa4ee7","condition":"full-information","relevant_dimensions":["pattern","legs"],"bee_group":{"antennae":"X","wings":"X","pattern":"S","legs":"F"},"bonus":1.3800000000000008},{"rt":638,"stimulus":"bees-with-color/bee-B1DM.svg","response":1,"trial_type":"image-button-response","trial_index":154,"time_elapsed":490972,"internal_node_id":"0.0-6.0-0.18","subject_id":"5ca9f8926025570001c872f3","study_id":"6197b3f67c2b5cd3b6d9596a","session_id":"619be31c4196240decfa4ee7","condition":"full-information","relevant_dimensions":["pattern","legs"],"bee_group":{"antennae":"X","wings":"X","pattern":"S","legs":"F"},"bonus":1.3800000000000008},{"rt":599,"stimulus":"bees-with-color/bee-B1SF.svg","response":1,"trial_type":"image-button-response","trial_index":155,"time_elapsed":491572,"internal_node_id":"0.0-6.0-0.19","subject_id":"5ca9f8926025570001c872f3","study_id":"6197b3f67c2b5cd3b6d9596a","session_id":"619be31c4196240decfa4ee7","condition":"full-information","relevant_dimensions":["pattern","legs"],"bee_group":{"antennae":"X","wings":"X","pattern":"S","legs":"F"},"bonus":1.3800000000000008},{"rt":524,"stimulus":"bees-with-color/bee-A1DF.svg","response":1,"trial_type":"image-button-response","trial_index":156,"time_elapsed":492097,"internal_node_id":"0.0-6.0-0.20","subject_id":"5ca9f8926025570001c872f3","study_id":"6197b3f67c2b5cd3b6d9596a","session_id":"619be31c4196240decfa4ee7","condition":"full-information","relevant_dimensions":["pattern","legs"],"bee_group":{"antennae":"X","wings":"X","pattern":"S","legs":"F"},"bonus":1.3800000000000008},{"rt":463,"stimulus":"bees-with-color/bee-A2DM.svg","response":1,"trial_type":"image-button-response","trial_index":157,"time_elapsed":492561,"internal_node_id":"0.0-6.0-0.21","subject_id":"5ca9f8926025570001c872f3","study_id":"6197b3f67c2b5cd3b6d9596a","session_id":"619be31c4196240decfa4ee7","condition":"full-information","relevant_dimensions":["pattern","legs"],"bee_group":{"antennae":"X","wings":"X","pattern":"S","legs":"F"},"bonus":1.3800000000000008},{"rt":432,"stimulus":"bees-with-color/bee-A2SF.svg","response":1,"trial_type":"image-button-response","trial_index":158,"time_elapsed":492992,"internal_node_id":"0.0-6.0-0.22","subject_id":"5ca9f8926025570001c872f3","study_id":"6197b3f67c2b5cd3b6d9596a","session_id":"619be31c4196240decfa4ee7","condition":"full-information","relevant_dimensions":["pattern","legs"],"bee_group":{"antennae":"X","wings":"X","pattern":"S","legs":"F"},"bonus":1.3800000000000008},{"rt":392,"stimulus":"bees-with-color/bee-A1SM.svg","response":1,"trial_type":"image-button-response","trial_index":159,"time_elapsed":493384,"internal_node_id":"0.0-6.0-0.23","subject_id":"5ca9f8926025570001c872f3","study_id":"6197b3f67c2b5cd3b6d9596a","session_id":"619be31c4196240decfa4ee7","condition":"full-information","relevant_dimensions":["pattern","legs"],"bee_group":{"antennae":"X","wings":"X","pattern":"S","legs":"F"},"bonus":1.3800000000000008},{"rt":367,"stimulus":"bees-with-color/bee-B2DF.svg","response":1,"trial_type":"image-button-response","trial_index":160,"time_elapsed":493752,"internal_node_id":"0.0-6.0-0.24","subject_id":"5ca9f8926025570001c872f3","study_id":"6197b3f67c2b5cd3b6d9596a","session_id":"619be31c4196240decfa4ee7","condition":"full-information","relevant_dimensions":["pattern","legs"],"bee_group":{"antennae":"X","wings":"X","pattern":"S","legs":"F"},"bonus":1.3800000000000008},{"rt":390,"stimulus":"bees-with-color/bee-B2SM.svg","response":1,"trial_type":"image-button-response","trial_index":161,"time_elapsed":494144,"internal_node_id":"0.0-6.0-0.25","subject_id":"5ca9f8926025570001c872f3","study_id":"6197b3f67c2b5cd3b6d9596a","session_id":"619be31c4196240decfa4ee7","condition":"full-information","relevant_dimensions":["pattern","legs"],"bee_group":{"antennae":"X","wings":"X","pattern":"S","legs":"F"},"bonus":1.3800000000000008},{"rt":407,"stimulus":"bees-with-color/bee-A1SF.svg","response":1,"trial_type":"image-button-response","trial_inde