[{"success":true,"trial_type":"fullscreen","trial_index":0,"time_elapsed":4394,"internal_node_id":"0.0-0.0","subject_id":"5bc5be2572df5f00014479f9","study_id":"6197b3f67c2b5cd3b6d9596a","session_id":"619bef055429129d97aa3d14","condition":"full-information","relevant_dimensions":["antennae","pattern"],"bee_group":{"antennae":"B","wings":"X","pattern":"D","legs":"X"},"bonus":0.2000000000000001},{"success":true,"timeout":false,"failed_images":[],"failed_audio":[],"failed_video":[],"trial_type":"preload","trial_index":1,"time_elapsed":6550,"internal_node_id":"0.0-1.0","subject_id":"5bc5be2572df5f00014479f9","study_id":"6197b3f67c2b5cd3b6d9596a","session_id":"619bef055429129d97aa3d14","condition":"full-information","relevant_dimensions":["antennae","pattern"],"bee_group":{"antennae":"B","wings":"X","pattern":"D","legs":"X"},"bonus":0.2000000000000001},{"rt":2236.2999999523163,"stimulus":"Welcome! Press any key to begin.","response":" ","trial_type":"html-keyboard-response","trial_index":2,"time_elapsed":8788,"internal_node_id":"0.0-2.0","subject_id":"5bc5be2572df5f00014479f9","study_id":"6197b3f67c2b5cd3b6d9596a","session_id":"619bef055429129d97aa3d14","condition":"full-information","relevant_dimensions":["antennae","pattern"],"bee_group":{"antennae":"B","wings":"X","pattern":"D","legs":"X"},"bonus":0.2000000000000001},{"view_history":[{"page_index":0,"viewing_time":4687.800000071526},{"page_index":1,"viewing_time":10151},{"page_index":2,"viewing_time":9034.699999928474},{"page_index":3,"viewing_time":12055.800000071526},{"page_index":4,"viewing_time":5836.799999952316},{"page_index":5,"viewing_time":6185.100000023842},{"page_index":6,"viewing_time":6032.600000023842},{"page_index":7,"viewing_time":5949.199999928474},{"page_index":8,"viewing_time":5254.900000095367},{"page_index":9,"viewing_time":2862.1999999284744},{"page_index":10,"viewing_time":2657.100000023842},{"page_index":11,"viewing_time":7186.5},{"page_index":12,"viewing_time":10519},{"page_index":13,"viewing_time":1675.3999999761581},{"page_index":14,"viewing_time":2352.2000000476837}],"rt":92441.30000007153,"trial_type":"instructions","trial_index":3,"time_elapsed":101230,"internal_node_id":"0.0-3.0-0.0","subject_id":"5bc5be2572df5f00014479f9","study_id":"6197b3f67c2b5cd3b6d9596a","session_id":"619bef055429129d97aa3d14","condition":"full-information","relevant_dimensions":["antennae","pattern"],"bee_group":{"antennae":"B","wings":"X","pattern":"D","legs":"X"},"bonus":0.2000000000000001},{"rt":11502.600000023842,"response":{"Q0":["Two or six legs","Stripes or spots on body","Single or double wings","Antennae or no antennae"]},"question_order":[0],"trial_type":"survey-multi-select","trial_index":4,"time_elapsed":112741,"internal_node_id":"0.0-3.0-1.0","subject_id":"5bc5be2572df5f00014479f9","study_id":"6197b3f67c2b5cd3b6d9596a","session_id":"619bef055429129d97aa3d14","condition":"full-information","relevant_dimensions":["antennae","pattern"],"bee_group":{"antennae":"B","wings":"X","pattern":"D","legs":"X"},"correct":true,"bonus":0.2000000000000001},{"rt":16811.800000071526,"response":{"Q1":"No.","Q2":"Based on the four features of the bee.","Q3":"You learn if it was friendly or dangerous, but do not alter your bonus."},"question_order":[0,1,2],"trial_type":"survey-multi-choice","trial_index":5,"time_elapsed":129556,"internal_node_id":"0.0-3.0-2.0","subject_id":"5bc5be2572df5f00014479f9","study_id":"6197b3f67c2b5cd3b6d9596a","session_id":"619bef055429129d97aa3d14","condition":"full-information","relevant_dimensions":["antennae","pattern"],"bee_group":{"antennae":"B","wings":"X","pattern":"D","legs":"X"},"correct":true,"bonus":0.2000000000000001},{"rt":2089.0999999046326,"stimulus":"<p>Congrats, you got everything right<br>When you're ready, click the button below to continue to the experiment.</p>","response":0,"trial_type":"html-button-response","trial_index":6,"time_elapsed":131649,"internal_node_id":"0.0-3.0-3.0","subject_id":"5bc5be2572df5f00014479f9","study_id":"6197b3f67c2b5cd3b6d9596a","session_id":"619bef055429129d97aa3d14","condition":"full-information","relevant_dimensions":["antennae","pattern"],"bee_group":{"antennae":"B","wings":"X","pattern":"D","legs":"X"},"bonus":0.2000000000000001},{"rt":6670.600000023842,"stimulus":"bees-with-color/bee-A1DM.svg","response":0,"trial_type":"image-button-response","trial_index":7,"time_elapsed":138324,"internal_node_id":"0.0-4.0-0.0","subject_id":"5bc5be2572df5f00014479f9","study_id":"6197b3f67c2b5cd3b6d9596a","session_id":"619bef055429129d97aa3d14","condition":"full-information","relevant_dimensions":["antennae","pattern"],"bee_group":{"antennae":"B","wings":"X","pattern":"D","legs":"X"},"action":"harvest","summary":"good-harvest","bonus":0.2000000000000001},{"rt":7344.600000023842,"stimulus":"\n                    <p><b>Action: <em>harvest</em></b></p>\n                    <p>This is the bee that you just saw.</p>\n                    <img src=\"bees-with-color/bee-A1DM.svg\" width=\"200\">\n                    <p><span class=\"greenText\"><b>Successful harvest!</b></span><br>Your pay has increased by $0.02. Your bonus pay is now $0.56.</p>\n            ","response":0,"trial_type":"html-button-response","trial_index":8,"time_elapsed":145673,"internal_node_id":"0.0-4.0-1.0","subject_id":"5bc5be2572df5f00014479f9","study_id":"6197b3f67c2b5cd3b6d9596a","session_id":"619bef055429129d97aa3d14","condition":"full-information","relevant_dimensions":["antennae","pattern"],"bee_group":{"antennae":"B","wings":"X","pattern":"D","legs":"X"},"bonus":0.2000000000000001},{"rt":2621,"stimulus":"bees-with-color/bee-B2SF.svg","response":1,"trial_type":"image-button-response","trial_index":9,"time_elapsed":148300,"internal_node_id":"0.0-4.0-0.1","subject_id":"5bc5be2572df5f00014479f9","study_id":"6197b3f67c2b5cd3b6d9596a","session_id":"619bef055429129d97aa3d14","condition":"full-information","relevant_dimensions":["antennae","pattern"],"bee_group":{"antennae":"B","wings":"X","pattern":"D","legs":"X"},"action":"avoid","summary":"bad-avoid","bonus":0.2000000000000001},{"rt":7662,"stimulus":"\n                    <p><b>Action: <em>avoid</em></b></p>\n                    <p>This is the bee that you just saw.</p>\n                    <img src=\"bees-with-color/bee-B2SF.svg\" width=\"200\">\n                    <p><span class=\"redText\">Bad choice,</span> the bee was friendly.<br>Your bonus pay is unchanged, and remains at $0.56.</p>\n            ","response":0,"trial_type":"html-button-response","trial_index":10,"time_elapsed":155965,"internal_node_id":"0.0-4.0-1.1","subject_id":"5bc5be2572df5f00014479f9","study_id":"6197b3f67c2b5cd3b6d9596a","session_id":"619bef055429129d97aa3d14","condition":"full-information","relevant_dimensions":["antennae","pattern"],"bee_group":{"antennae":"B","wings":"X","pattern":"D","legs":"X"},"bonus":0.2000000000000001},{"rt":2737,"stimulus":"bees-with-color/bee-B2DF.svg","response":0,"trial_type":"image-button-response","trial_index":11,"time_elapsed":158706,"internal_node_id":"0.0-4.0-0.2","subject_id":"5bc5be2572df5f00014479f9","study_id":"6197b3f67c2b5cd3b6d9596a","session_id":"619bef055429129d97aa3d14","condition":"full-information","relevant_dimensions":["antennae","pattern"],"bee_group":{"antennae":"B","wings":"X","pattern":"D","legs":"X"},"action":"harvest","summary":"bad-harvest","bonus":0.2000000000000001},{"rt":6382.200000047684,"stimulus":"\n                    <p><b>Action: <em>harvest</em></b></p>\n                    <p>This is the bee that you just saw.</p>\n                    <img src=\"bees-with-color/bee-B2DF.svg\" width=\"200\">\n                    <p><span class=\"redText\">Bad choice, the bee was angry.</span><br><b>You have been stung!</b><br>Your pay has been decreased by $0.10. Your bonus pay is now $0.46.</p>\n            ","response":0,"trial_type":"html-button-response","trial_index":12,"time_elapsed":165090,"internal_node_id":"0.0-4.0-1.2","subject_id":"5bc5be2572df5f00014479f9","study_id":"6197b3f67c2b5cd3b6d9596a","session_id":"619bef055429129d97aa3d14","condition":"full-information","relevant_dimensions":["antennae","pattern"],"bee_group":{"antennae":"B","wings":"X","pattern":"D","legs":"X"},"bonus":0.2000000000000001},{"rt":2143.600000023842,"stimulus":"bees-with-color/bee-B1DM.svg","response":0,"trial_type":"image-button-response","trial_index":13,"time_elapsed":167237,"internal_node_id":"0.0-4.0-0.3","subject_id":"5bc5be2572df5f00014479f9","study_id":"6197b3f67c2b5cd3b6d9596a","session_id":"619bef055429129d97aa3d14","condition":"full-information","relevant_dimensions":["antennae","pattern"],"bee_group":{"antennae":"B","wings":"X","pattern":"D","legs":"X"},"action":"harvest","summary":"bad-harvest","bonus":0.2000000000000001},{"rt":1999.1000000238419,"stimulus":"\n                    <p><b>Action: <em>harvest</em></b></p>\n                    <p>This is the bee that you just saw.</p>\n                    <img src=\"bees-with-color/bee-B1DM.svg\" width=\"200\">\n                    <p><span class=\"redText\">Bad choice, the bee was angry.</span><br><b>You have been stung!</b><br>Your pay has been decreased by $0.10. Your bonus pay is now $0.36.</p>\n            ","response":0,"trial_type":"html-button-response","trial_index":14,"time_elapsed":169239,"internal_node_id":"0.0-4.0-1.3","subject_id":"5bc5be2572df5f00014479f9","study_id":"6197b3f67c2b5cd3b6d9596a","session_id":"619bef055429129d97aa3d14","condition":"full-information","relevant_dimensions":["antennae","pattern"],"bee_group":{"antennae":"B","wings":"X","pattern":"D","legs":"X"},"bonus":0.2000000000000001},{"rt":2849.899999976158,"stimulus":"bees-with-color/bee-B2SM.svg","response":0,"trial_type":"image-button-response","trial_index":15,"time_elapsed":172093,"internal_node_id":"0.0-4.0-0.4","subject_id":"5bc5be2572df5f00014479f9","study_id":"6197b3f67c2b5cd3b6d9596a","session_id":"619bef055429129d97aa3d14","condition":"full-information","relevant_dimensions":["antennae","pattern"],"bee_group":{"antennae":"B","wings":"X","pattern":"D","legs":"X"},"action":"harvest","summary":"good-harvest","bonus":0.2000000000000001},{"rt":3952.600000023842,"stimulus":"\n                    <p><b>Action: <em>harvest</em></b></p>\n                    <p>This is the bee that you just saw.</p>\n                    <img src=\"bees-with-color/bee-B2SM.svg\" width=\"200\">\n                    <p><span class=\"greenText\"><b>Successful harvest!</b></span><br>Your pay has increased by $0.02. Your bonus pay is now $0.38.</p>\n            ","response":0,"trial_type":"html-button-response","trial_index":16,"time_elapsed":176048,"internal_node_id":"0.0-4.0-1.4","subject_id":"5bc5be2572df5f00014479f9","study_id":"6197b3f67c2b5cd3b6d9596a","session_id":"619bef055429129d97aa3d14","condition":"full-information","relevant_dimensions":["antennae","pattern"],"bee_group":{"antennae":"B","wings":"X","pattern":"D","legs":"X"},"bonus":0.2000000000000001},{"rt":2951.5,"stimulus":"bees-with-color/bee-A2SF.svg","response":1,"trial_type":"image-button-response","trial_index":17,"time_elapsed":179002,"internal_node_id":"0.0-4.0-0.5","subject_id":"5bc5be2572df5f00014479f9","study_id":"6197b3f67c2b5cd3b6d9596a","session_id":"619bef055429129d97aa3d14","condition":"full-information","relevant_dimensions":["antennae","pattern"],"bee_group":{"antennae":"B","wings":"X","pattern":"D","legs":"X"},"action":"avoid","summary":"bad-avoid","bonus":0.2000000000000001},{"rt":8931.199999928474,"stimulus":"\n                    <p><b>Action: <em>avoid</em></b></p>\n                    <p>This is the bee that you just saw.</p>\n                    <img src=\"bees-with-color/bee-A2SF.svg\" width=\"200\">\n                    <p><span class=\"redText\">Bad choice,</span> the bee was friendly.<br>Your bonus pay is unchanged, and remains at $0.38.</p>\n            ","response":0,"trial_type":"html-button-response","trial_index":18,"time_elapsed":187936,"internal_node_id":"0.0-4.0-1.5","subject_id":"5bc5be2572df5f00014479f9","study_id":"6197b3f67c2b5cd3b6d9596a","session_id":"619bef055429129d97aa3d14","condition":"full-information","relevant_dimensions":["antennae","pattern"],"bee_group":{"antennae":"B","wings":"X","pattern":"D","legs":"X"},"bonus":0.2000000000000001},{"rt":2152.600000023842,"stimulus":"bees-with-color/bee-A2SM.svg","response":0,"trial_type":"image-button-response","trial_index":19,"time_elapsed":190092,"internal_node_id":"0.0-4.0-0.6","subject_id":"5bc5be2572df5f00014479f9","study_id":"6197b3f67c2b5cd3b6d9596a","session_id":"619bef055429129d97aa3d14","condition":"full-information","relevant_dimensions":["antennae","pattern"],"bee_group":{"antennae":"B","wings":"X","pattern":"D","legs":"X"},"action":"harvest","summary":"good-harvest","bonus":0.2000000000000001},{"rt":5055.899999976158,"stimulus":"\n                    <p><b>Action: <em>harvest</em></b></p>\n                    <p>This is the bee that you just saw.</p>\n                    <img src=\"bees-with-color/bee-A2SM.svg\" width=\"200\">\n                    <p><span class=\"greenText\"><b>Successful harvest!</b></span><br>Your pay has increased by $0.02. Your bonus pay is now $0.40.</p>\n            ","response":0,"trial_type":"html-button-response","trial_index":20,"time_elapsed":195151,"internal_node_id":"0.0-4.0-1.6","subject_id":"5bc5be2572df5f00014479f9","study_id":"6197b3f67c2b5cd3b6d9596a","session_id":"619bef055429129d97aa3d14","condition":"full-information","relevant_dimensions":["antennae","pattern"],"bee_group":{"antennae":"B","wings":"X","pattern":"D","legs":"X"},"bonus":0.2000000000000001},{"rt":2829.600000023842,"stimulus":"bees-with-color/bee-B1SF.svg","response":1,"trial_type":"image-button-response","trial_index":21,"time_elapsed":197984,"internal_node_id":"0.0-4.0-0.7","subject_id":"5bc5be2572df5f00014479f9","study_id":"6197b3f67c2b5cd3b6d9596a","session_id":"619bef055429129d97aa3d14","condition":"full-information","relevant_dimensions":["antennae","pattern"],"bee_group":{"antennae":"B","wings":"X","pattern":"D","legs":"X"},"action":"avoid","summary":"bad-avoid","bonus":0.2000000000000001},{"rt":2520.7999999523163,"stimulus":"\n                    <p><b>Action: <em>avoid</em></b></p>\n                    <p>This is the bee that you just saw.</p>\n                    <img src=\"bees-with-color/bee-B1SF.svg\" width=\"200\">\n                    <p><span class=\"redText\">Bad choice,</span> the bee was friendly.<br>Your bonus pay is unchanged, and remains at $0.40.</p>\n            ","response":0,"trial_type":"html-button-response","trial_index":22,"time_elapsed":200507,"internal_node_id":"0.0-4.0-1.7","subject_id":"5bc5be2572df5f00014479f9","study_id":"6197b3f67c2b5cd3b6d9596a","session_id":"619bef055429129d97aa3d14","condition":"full-information","relevant_dimensions":["antennae","pattern"],"bee_group":{"antennae":"B","wings":"X","pattern":"D","legs":"X"},"bonus":0.2000000000000001},{"rt":2489.7000000476837,"stimulus":"bees-with-color/bee-B2DM.svg","response":0,"trial_type":"image-button-response","trial_index":23,"time_elapsed":202999,"internal_node_id":"0.0-4.0-0.8","subject_id":"5bc5be2572df5f00014479f9","study_id":"6197b3f67c2b5cd3b6d9596a","session_id":"619bef055429129d97aa3d14","condition":"full-information","relevant_dimensions":["antennae","pattern"],"bee_group":{"antennae":"B","wings":"X","pattern":"D","legs":"X"},"action":"harvest","summary":"bad-harvest","bonus":0.2000000000000001},{"rt":2043.5,"stimulus":"\n                    <p><b>Action: <em>harvest</em></b></p>\n                    <p>This is the bee that you just saw.</p>\n                    <img src=\"bees-with-color/bee-B2DM.svg\" width=\"200\">\n                    <p><span class=\"redText\">Bad choice, the bee was angry.</span><br><b>You have been stung!</b><br>Your pay has been decreased by $0.10. Your bonus pay is now $0.30.</p>\n            ","response":0,"trial_type":"html-button-response","trial_index":24,"time_elapsed":205045,"internal_node_id":"0.0-4.0-1.8","subject_id":"5bc5be2572df5f00014479f9","study_id":"6197b3f67c2b5cd3b6d9596a","session_id":"619bef055429129d97aa3d14","condition":"full-information","relevant_dimensions":["antennae","pattern"],"bee_group":{"antennae":"B","wings":"X","pattern":"D","legs":"X"},"bonus":0.2000000000000001},{"rt":1784.8999999761581,"stimulus":"bees-with-color/bee-B1SM.svg","response":0,"trial_type":"image-button-response","trial_index":25,"time_elapsed":206834,"internal_node_id":"0.0-4.0-0.9","subject_id":"5bc5be2572df5f00014479f9","study_id":"6197b3f67c2b5cd3b6d9596a","session_id":"619bef055429129d97aa3d14","condition":"full-information","relevant_dimensions":["antennae","pattern"],"bee_group":{"antennae":"B","wings":"X","pattern":"D","legs":"X"},"action":"harvest","summary":"good-harvest","bonus":0.2000000000000001},{"rt":1835.8999999761581,"stimulus":"\n                    <p><b>Action: <em>harvest</em></b></p>\n                    <p>This is the bee that you just saw.</p>\n                    <img src=\"bees-with-color/bee-B1SM.svg\" width=\"200\">\n                    <p><span class=\"greenText\"><b>Successful harvest!</b></span><br>Your pay has increased by $0.02. Your bonus pay is now $0.32.</p>\n            ","response":0,"trial_type":"html-button-response","trial_index":26,"time_elapsed":208672,"internal_node_id":"0.0-4.0-1.9","subject_id":"5bc5be2572df5f00014479f9","study_id":"6197b3f67c2b5cd3b6d9596a","session_id":"619bef055429129d97aa3d14","condition":"full-information","relevant_dimensions":["antennae","pattern"],"bee_group":{"antennae":"B","wings":"X","pattern":"D","legs":"X"},"bonus":0.2000000000000001},{"rt":1960.6999999284744,"stimulus":"bees-with-color/bee-A2DM.svg","response":0,"trial_type":"image-button-response","trial_index":27,"time_elapsed":210636,"internal_node_id":"0.0-4.0-0.10","subject_id":"5bc5be2572df5f00014479f9","study_id":"6197b3f67c2b5cd3b6d9596a","session_id":"619bef055429129d97aa3d14","condition":"full-information","relevant_dimensions":["antennae","pattern"],"bee_group":{"antennae":"B","wings":"X","pattern":"D","legs":"X"},"action":"harvest","summary":"good-harvest","bonus":0.2000000000000001},{"rt":1580.8000000715256,"stimulus":"\n                    <p><b>Action: <em>harvest</em></b></p>\n                    <p>This is the bee that you just saw.</p>\n                    <img src=\"bees-with-color/bee-A2DM.svg\" width=\"200\">\n                    <p><span class=\"greenText\"><b>Successful harvest!</b></span><br>Your pay has increased by $0.02. Your bonus pay is now $0.34.</p>\n            ","response":0,"trial_type":"html-button-response","trial_index":28,"time_elapsed":212220,"internal_node_id":"0.0-4.0-1.10","subject_id":"5bc5be2572df5f00014479f9","study_id":"6197b3f67c2b5cd3b6d9596a","session_id":"619bef055429129d97aa3d14","condition":"full-information","relevant_dimensions":["antennae","pattern"],"bee_group":{"antennae":"B","wings":"X","pattern":"D","legs":"X"},"bonus":0.2000000000000001},{"rt":1775.6999999284744,"stimulus":"bees-with-color/bee-A1SF.svg","response":0,"trial_type":"image-button-response","trial_index":29,"time_elapsed":213998,"internal_node_id":"0.0-4.0-0.11","subject_id":"5bc5be2572df5f00014479f9","study_id":"6197b3f67c2b5cd3b6d9596a","session_id":"619bef055429129d97aa3d14","condition":"full-information","relevant_dimensions":["antennae","pattern"],"bee_group":{"antennae":"B","wings":"X","pattern":"D","legs":"X"},"action":"harvest","summary":"good-harvest","bonus":0.2000000000000001},{"rt":1500.5,"stimulus":"\n                    <p><b>Action: <em>harvest</em></b></p>\n                    <p>This is the bee that you just saw.</p>\n                    <img src=\"bees-with-color/bee-A1SF.svg\" width=\"200\">\n                    <p><span class=\"greenText\"><b>Successful harvest!</b></span><br>Your pay has increased by $0.02. Your bonus pay is now $0.36.</p>\n            ","response":0,"trial_type":"html-button-response","trial_index":30,"time_elapsed":215501,"internal_node_id":"0.0-4.0-1.11","subject_id":"5bc5be2572df5f00014479f9","study_id":"6197b3f67c2b5cd3b6d9596a","session_id":"619bef055429129d97aa3d14","condition":"full-information","relevant_dimensions":["antennae","pattern"],"bee_group":{"antennae":"B","wings":"X","pattern":"D","legs":"X"},"bonus":0.2000000000000001},{"rt":2421.899999976158,"stimulus":"bees-with-color/bee-A1DF.svg","response":1,"trial_type":"image-button-response","trial_index":31,"time_elapsed":217926,"internal_node_id":"0.0-4.0-0.12","subject_id":"5bc5be2572df5f00014479f9","study_id":"6197b3f67c2b5cd3b6d9596a","session_id":"619bef055429129d97aa3d14","condition":"full-information","relevant_dimensions":["antennae","pattern"],"bee_group":{"antennae":"B","wings":"X","pattern":"D","legs":"X"},"action":"avoid","summary":"bad-avoid","bonus":0.2000000000000001},{"rt":1342.3999999761581,"stimulus":"\n                    <p><b>Action: <em>avoid</em></b></p>\n                    <p>This is the bee that you just saw.</p>\n                    <img src=\"bees-with-color/bee-A1DF.svg\" width=\"200\">\n                    <p><span class=\"redText\">Bad choice,</span> the bee was friendly.<br>Your bonus pay is unchanged, and remains at $0.36.</p>\n            ","response":0,"trial_type":"html-button-response","trial_index":32,"time_elapsed":219272,"internal_node_id":"0.0-4.0-1.12","subject_id":"5bc5be2572df5f00014479f9","study_id":"6197b3f67c2b5cd3b6d9596a","session_id":"619bef055429129d97aa3d14","condition":"full-information","relevant_dimensions":["antennae","pattern"],"bee_group":{"antennae":"B","wings":"X","pattern":"D","legs":"X"},"bonus":0.2000000000000001},{"rt":2002.3999999761581,"stimulus":"bees-with-color/bee-A2DF.svg","response":0,"trial_type":"image-button-response","trial_index":33,"time_elapsed":221280,"internal_node_id":"0.0-4.0-0.13","subject_id":"5bc5be2572df5f00014479f9","study_id":"6197b3f67c2b5cd3b6d9596a","session_id":"619bef055429129d97aa3d14","condition":"full-information","relevant_dimensions":["antennae","pattern"],"bee_group":{"antennae":"B","wings":"X","pattern":"D","legs":"X"},"action":"harvest","summary":"good-harvest","bonus":0.2000000000000001},{"rt":1446.2000000476837,"stimulus":"\n                    <p><b>Action: <em>harvest</em></b></p>\n                    <p>This is the bee that you just saw.</p>\n                    <img src=\"bees-with-color/bee-A2DF.svg\" width=\"200\">\n                    <p><span class=\"greenText\"><b>Successful harvest!</b></span><br>Your pay has increased by $0.02. Your bonus pay is now $0.38.</p>\n            ","response":0,"trial_type":"html-button-response","trial_index":34,"time_elapsed":222730,"internal_node_id":"0.0-4.0-1.13","subject_id":"5bc5be2572df5f00014479f9","study_id":"6197b3f67c2b5cd3b6d9596a","session_id":"619bef055429129d97aa3d14","condition":"full-information","relevant_dimensions":["antennae","pattern"],"bee_group":{"antennae":"B","wings":"X","pattern":"D","legs":"X"},"bonus":0.2000000000000001},{"rt":2030.5,"stimulus":"bees-with-color/bee-B1DF.svg","response":1,"trial_type":"image-button-response","trial_index":35,"time_elapsed":224763,"internal_node_id":"0.0-4.0-0.14","subject_id":"5bc5be2572df5f00014479f9","study_id":"6197b3f67c2b5cd3b6d9596a","session_id":"619bef055429129d97aa3d14","condition":"full-information","relevant_dimensions":["antennae","pattern"],"bee_group":{"antennae":"B","wings":"X","pattern":"D","legs":"X"},"action":"avoid","summary":"good-avoid","bonus":0.2000000000000001},{"rt":1827.5999999046326,"stimulus":"\n                    <p><b>Action: <em>avoid</em></b></p>\n                    <p>This is the bee that you just saw.</p>\n                    <img src=\"bees-with-color/bee-B1DF.svg\" width=\"200\">\n                    <p><span class=\"greenText\">Good choice!</span>  This bee would have stung you.<br>Your bonus pay is unchanged, and remains at $0.38.</p>\n            ","response":0,"trial_type":"html-button-response","trial_index":36,"time_elapsed":226593,"internal_node_id":"0.0-4.0-1.14","subject_id":"5bc5be2572df5f00014479f9","study_id":"6197b3f67c2b5cd3b6d9596a","session_id":"619bef055429129d97aa3d14","condition":"full-information","relevant_dimensions":["antennae","pattern"],"bee_group":{"antennae":"B","wings":"X","pattern":"D","legs":"X"},"bonus":0.2000000000000001},{"rt":1753.2999999523163,"stimulus":"bees-with-color/bee-A1SM.svg","response":0,"trial_type":"image-button-response","trial_index":37,"time_elapsed":228349,"internal_node_id":"0.0-4.0-0.15","subject_id":"5bc5be2572df5f00014479f9","study_id":"6197b3f67c2b5cd3b6d9596a","session_id":"619bef055429129d97aa3d14","condition":"full-information","relevant_dimensions":["antennae","pattern"],"bee_group":{"antennae":"B","wings":"X","pattern":"D","legs":"X"},"action":"harvest","summary":"good-harvest","bonus":0.2000000000000001},{"rt":1807.3999999761581,"stimulus":"\n                    <p><b>Action: <em>harvest</em></b></p>\n                    <p>This is the bee that you just saw.</p>\n                    <img src=\"bees-with-color/bee-A1SM.svg\" width=\"200\">\n                    <p><span class=\"greenText\"><b>Successful harvest!</b></span><br>Your pay has increased by $0.02. Your bonus pay is now $0.40.</p>\n            ","response":0,"trial_type":"html-button-response","trial_index":38,"time_elapsed":230159,"internal_node_id":"0.0-4.0-1.15","subject_id":"5bc5be2572df5f00014479f9","study_id":"6197b3f67c2b5cd3b6d9596a","session_id":"619bef055429129d97aa3d14","condition":"full-information","relevant_dimensions":["antennae","pattern"],"bee_group":{"antennae":"B","wings":"X","pattern":"D","legs":"X"},"bonus":0.2000000000000001},{"rt":2677,"stimulus":"bees-with-color/bee-A1DF.svg","response":1,"trial_type":"image-button-response","trial_index":39,"time_elapsed":232840,"internal_node_id":"0.0-4.0-0.16","subject_id":"5bc5be2572df5f00014479f9","study_id":"6197b3f67c2b5cd3b6d9596a","session_id":"619bef055429129d97aa3d14","condition":"full-information","relevant_dimensions":["antennae","pattern"],"bee_group":{"antennae":"B","wings":"X","pattern":"D","legs":"X"},"action":"avoid","summary":"bad-avoid","bonus":0.2000000000000001},{"rt":1454.8000000715256,"stimulus":"\n                    <p><b>Action: <em>avoid</em></b></p>\n                    <p>This is the bee that you just saw.</p>\n                    <img src=\"bees-with-color/bee-A1DF.svg\" width=\"200\">\n                    <p><span class=\"redText\">Bad choice,</span> the bee was friendly.<br>Your bonus pay is unchanged, and remains at $0.40.</p>\n            ","response":0,"trial_type":"html-button-response","trial_index":40,"time_elapsed":234298,"internal_node_id":"0.0-4.0-1.16","subject_id":"5bc5be2572df5f00014479f9","study_id":"6197b3f67c2b5cd3b6d9596a","session_id":"619bef055429129d97aa3d14","condition":"full-information","relevant_dimensions":["antennae","pattern"],"bee_group":{"antennae":"B","wings":"X","pattern":"D","legs":"X"},"bonus":0.2000000000000001},{"rt":1868.1999999284744,"stimulus":"bees-with-color/bee-A1SF.svg","response":0,"trial_type":"image-button-response","trial_index":41,"time_elapsed":236169,"internal_node_id":"0.0-4.0-0.17","subject_id":"5bc5be2572df5f00014479f9","study_id":"6197b3f67c2b5cd3b6d9596a","session_id":"619bef055429129d97aa3d14","condition":"full-information","relevant_dimensions":["antennae","pattern"],"bee_group":{"antennae":"B","wings":"X","pattern":"D","legs":"X"},"action":"harvest","summary":"good-harvest","bonus":0.2000000000000001},{"rt":1285.7999999523163,"stimulus":"\n                    <p><b>Action: <em>harvest</em></b></p>\n                    <p>This is the bee that you just saw.</p>\n                    <img src=\"bees-with-color/bee-A1SF.svg\" width=\"200\">\n                    <p><span class=\"greenText\"><b>Successful harvest!</b></span><br>Your pay has increased by $0.02. Your bonus pay is now $0.42.</p>\n            ","response":0,"trial_type":"html-button-response","trial_index":42,"time_elapsed":237457,"internal_node_id":"0.0-4.0-1.17","subject_id":"5bc5be2572df5f00014479f9","study_id":"6197b3f67c2b5cd3b6d9596a","session_id":"619bef055429129d97aa3d14","condition":"full-information","relevant_dimensions":["antennae","pattern"],"bee_group":{"antennae":"B","wings":"X","pattern":"D","legs":"X"},"bonus":0.2000000000000001},{"rt":1736.2999999523163,"stimulus":"bees-with-color/bee-A2DF.svg","response":1,"trial_type":"image-button-response","trial_index":43,"time_elapsed":239195,"internal_node_id":"0.0-4.0-0.18","subject_id":"5bc5be2572df5f00014479f9","study_id":"6197b3f67c2b5cd3b6d9596a","session_id":"619bef055429129d97aa3d14","condition":"full-information","relevant_dimensions":["antennae","pattern"],"bee_group":{"antennae":"B","wings":"X","pattern":"D","legs":"X"},"action":"avoid","summary":"bad-avoid","bonus":0.2000000000000001},{"rt":1428.5,"stimulus":"\n                    <p><b>Action: <em>avoid</em></b></p>\n                    <p>This is the bee that you just saw.</p>\n                    <img src=\"bees-with-color/bee-A2DF.svg\" width=\"200\">\n                    <p><span class=\"redText\">Bad choice,</span> the bee was friendly.<br>Your bonus pay is unchanged, and remains at $0.42.</p>\n            ","response":0,"trial_type":"html-button-response","trial_index":44,"time_elapsed":240627,"internal_node_id":"0.0-4.0-1.18","subject_id":"5bc5be2572df5f00014479f9","study_id":"6197b3f67c2b5cd3b6d9596a","session_id":"619bef055429129d97aa3d14","condition":"full-information","relevant_dimensions":["antennae","pattern"],"bee_group":{"antennae":"B","wings":"X","pattern":"D","legs":"X"},"bonus":0.2000000000000001},{"rt":1560.3999999761581,"stimulus":"bees-with-color/bee-A1SM.svg","response":0,"trial_type":"image-button-response","trial_index":45,"time_elapsed":242189,"internal_node_id":"0.0-4.0-0.19","subject_id":"5bc5be2572df5f00014479f9","study_id":"6197b3f67c2b5cd3b6d9596a","session_id":"619bef055429129d97aa3d14","condition":"full-information","relevant_dimensions":["antennae","pattern"],"bee_group":{"antennae":"B","wings":"X","pattern":"D","legs":"X"},"action":"harvest","summary":"good-harvest","bonus":0.2000000000000001},{"rt":1744.7000000476837,"stimulus":"\n                    <p><b>Action: <em>harvest</em></b></p>\n                    <p>This is the bee that you just saw.</p>\n                    <img src=\"bees-with-color/bee-A1SM.svg\" width=\"200\">\n                    <p><span class=\"greenText\"><b>Successful harvest!</b></span><br>Your pay has increased by $0.02. Your bonus pay is now $0.44.</p>\n            ","response":0,"trial_type":"html-button-response","trial_index":46,"time_elapsed":243937,"internal_node_id":"0.0-4.0-1.19","subject_id":"5bc5be2572df5f00014479f9","study_id":"6197b3f67c2b5cd3b6d9596a","session_id":"619bef055429129d97aa3d14","condition":"full-information","relevant_dimensions":["antennae","pattern"],"bee_group":{"antennae":"B","wings":"X","pattern":"D","legs":"X"},"bonus":0.2000000000000001},{"rt":1747.3000000715256,"stimulus":"bees-with-color/bee-B2SM.svg","response":1,"trial_type":"image-button-response","trial_index":47,"time_elapsed":245686,"internal_node_id":"0.0-4.0-0.20","subject_id":"5bc5be2572df5f00014479f9","study_id":"6197b3f67c2b5cd3b6d9596a","session_id":"619bef055429129d97aa3d14","condition":"full-information","relevant_dimensions":["antennae","pattern"],"bee_group":{"antennae":"B","wings":"X","pattern":"D","legs":"X"},"action":"avoid","summary":"bad-avoid","bonus":0.2000000000000001},{"rt":1683.9000000953674,"stimulus":"\n                    <p><b>Action: <em>avoid</em></b></p>\n                    <p>This is the bee that you just saw.</p>\n                    <img src=\"bees-with-color/bee-B2SM.svg\" width=\"200\">\n                    <p><span class=\"redText\">Bad choice,</span> the bee was friendly.<br>Your bonus pay is unchanged, and remains at $0.44.</p>\n            ","response":0,"trial_type":"html-button-response","trial_index":48,"time_elapsed":247372,"internal_node_id":"0.0-4.0-1.20","subject_id":"5bc5be2572df5f00014479f9","study_id":"6197b3f67c2b5cd3b6d9596a","session_id":"619bef055429129d97aa3d14","condition":"full-information","relevant_dimensions":["antennae","pattern"],"bee_group":{"antennae":"B","wings":"X","pattern":"D","legs":"X"},"bonus":0.2000000000000001},{"rt":2296.399999976158,"stimulus":"bees-with-color/bee-B1SM.svg","response":1,"trial_type":"image-button-response","trial_index":49,"time_elapsed":249672,"internal_node_id":"0.0-4.0-0.21","subject_id":"5bc5be2572df5f00014479f9","study_id":"6197b3f67c2b5cd3b6d9596a","session_id":"619bef055429129d97aa3d14","condition":"full-information","relevant_dimensions":["antennae","pattern"],"bee_group":{"antennae":"B","wings":"X","pattern":"D","legs":"X"},"action":"avoid","summary":"bad-avoid","bonus":0.2000000000000001},{"rt":1664.1000000238419,"stimulus":"\n                    <p><b>Action: <em>avoid</em></b></p>\n                    <p>This is the bee that you just saw.</p>\n                    <img src=\"bees-with-color/bee-B1SM.svg\" width=\"200\">\n                    <p><span class=\"redText\">Bad choice,</span> the bee was friendly.<br>Your bonus pay is unchanged, and remains at $0.44.</p>\n            ","response":0,"trial_type":"html-button-response","trial_index":50,"time_elapsed":251339,"internal_node_id":"0.0-4.0-1.21","subject_id":"5bc5be2572df5f00014479f9","study_id":"6197b3f67c2b5cd3b6d9596a","session_id":"619bef055429129d97aa3d14","condition":"full-information","relevant_dimensions":["antennae","pattern"],"bee_group":{"antennae":"B","wings":"X","pattern":"D","legs":"X"},"bonus":0.2000000000000001},{"rt":1592,"stimulus":"bees-with-color/bee-B1DF.svg","response":1,"trial_type":"image-button-response","trial_index":51,"time_elapsed":252933,"internal_node_id":"0.0-4.0-0.22","subject_id":"5bc5be2572df5f00014479f9","study_id":"6197b3f67c2b5cd3b6d9596a","session_id":"619bef055429129d97aa3d14","condition":"full-information","relevant_dimensions":["antennae","pattern"],"bee_group":{"antennae":"B","wings":"X","pattern":"D","legs":"X"},"action":"avoid","summary":"good-avoid","bonus":0.2000000000000001},{"rt":4258.800000071526,"stimulus":"\n                    <p><b>Action: <em>avoid</em></b></p>\n                    <p>This is the bee that you just saw.</p>\n                    <img src=\"bees-with-color/bee-B1DF.svg\" width=\"200\">\n                    <p><span class=\"greenText\">Good choice!</span>  This bee would have stung you.<br>Your bonus pay is unchanged, and remains at $0.44.</p>\n            ","response":0,"trial_type":"html-button-response","trial_index":52,"time_elapsed":257194,"internal_node_id":"0.0-4.0-1.22","subject_id":"5bc5be2572df5f00014479f9","study_id":"6197b3f67c2b5cd3b6d9596a","session_id":"619bef055429129d97aa3d14","condition":"full-information","relevant_dimensions":["antennae","pattern"],"bee_group":{"antennae":"B","wings":"X","pattern":"D","legs":"X"},"bonus":0.2000000000000001},{"rt":1368.1000000238419,"stimulus":"bees-with-color/bee-B2DF.svg","response":0,"trial_type":"image-button-response","trial_index":53,"time_elapsed":258565,"internal_node_id":"0.0-4.0-0.23","subject_id":"5bc5be2572df5f00014479f9","study_id":"6197b3f67c2b5cd3b6d9596a","session_id":"619bef055429129d97aa3d14","condition":"full-information","relevant_dimensions":["antennae","pattern"],"bee_group":{"antennae":"B","wings":"X","pattern":"D","legs":"X"},"action":"harvest","summary":"bad-harvest","bonus":0.2000000000000001},{"rt":2144.2000000476837,"stimulus":"\n                    <p><b>Action: <em>harvest</em></b></p>\n                    <p>This is the bee that you just saw.</p>\n                    <img src=\"bees-with-color/bee-B2DF.svg\" width=\"200\">\n                    <p><span class=\"redText\">Bad choice, the bee was angry.</span><br><b>You have been stung!</b><br>Your pay has been decreased by $0.10. Your bonus pay is now $0.34.</p>\n            ","response":0,"trial_type":"html-button-response","trial_index":54,"time_elapsed":260711,"internal_node_id":"0.0-4.0-1.23","subject_id":"5bc5be2572df5f00014479f9","study_id":"6197b3f67c2b5cd3b6d9596a","session_id":"619bef055429129d97aa3d14","condition":"full-information","relevant_dimensions":["antennae","pattern"],"bee_group":{"antennae":"B","wings":"X","pattern":"D","legs":"X"},"bonus":0.2000000000000001},{"rt":1510,"stimulus":"bees-with-color/bee-B2DM.svg","response":0,"trial_type":"image-button-response","trial_index":55,"time_elapsed":262223,"internal_node_id":"0.0-4.0-0.24","subject_id":"5bc5be2572df5f00014479f9","study_id":"6197b3f67c2b5cd3b6d9596a","session_id":"619bef055429129d97aa3d14","condition":"full-information","relevant_dimensions":["antennae","pattern"],"bee_group":{"antennae":"B","wings":"X","pattern":"D","legs":"X"},"action":"harvest","summary":"bad-harvest","bonus":0.2000000000000001},{"rt":2093.600000023842,"stimulus":"\n                    <p><b>Action: <em>harvest</em></b></p>\n                    <p>This is the bee that you just saw.</p>\n                    <img src=\"bees-with-color/bee-B2DM.svg\" width=\"200\">\n                    <p><span class=\"redText\">Bad choice, the bee was angry.</span><br><b>You have been stung!</b><br>Your pay has been decreased by $0.10. Your bonus pay is now $0.24.</p>\n            ","response":0,"trial_type":"html-button-response","trial_index":56,"time_elapsed":264320,"internal_node_id":"0.0-4.0-1.24","subject_id":"5bc5be2572df5f00014479f9","study_id":"6197b3f67c2b5cd3b6d9596a","session_id":"619bef055429129d97aa3d14","condition":"full-information","relevant_dimensions":["antennae","pattern"],"bee_group":{"antennae":"B","wings":"X","pattern":"D","legs":"X"},"bonus":0.2000000000000001},{"rt":1448.7999999523163,"stimulus":"bees-with-color/bee-B1DM.svg","response":0,"trial_type":"image-button-response","trial_index":57,"time_elapsed":265771,"internal_node_id":"0.0-4.0-0.25","subject_id":"5bc5be2572df5f00014479f9","study_id":"6197b3f67c2b5cd3b6d9596a","session_id":"619bef055429129d97aa3d14","condition":"full-information","relevant_dimensions":["antennae","pattern"],"bee_group":{"antennae":"B","wings":"X","pattern":"D","legs":"X"},"action":"harvest","summary":"bad-harvest","bonus":0.2000000000000001},{"rt":2022.3999999761581,"stimulus":"\n                    <p><b>Action: <em>harvest</em></b></p>\n                    <p>This is the bee that you just saw.</p>\n                    <img src=\"bees-with-color/bee-B1DM.svg\" width=\"200\">\n                    <p><span class=\"redText\">Bad choice, the bee was angry.</span><br><b>You have been stung!</b><br>Your pay has been decreased by $0.10. Your bonus pay is now $0.14.</p>\n            ","response":0,"trial_type":"html-button-response","trial_index":58,"time_elapsed":267796,"internal_node_id":"0.0-4.0-1.25","subject_id":"5bc5be2572df5f00014479f9","study_id":"6197b3f67c2b5cd3b6d9596a","session_id":"619bef055429129d97aa3d14","condition":"full-information","relevant_dimensions":["antennae","pattern"],"bee_group":{"antennae":"B","wings":"X","pattern":"D","legs":"X"},"bonus":0.2000000000000001},{"rt":1673.6000000238419,"stimulus":"bees-with-color/bee-B1SF.svg","response":0,"trial_type":"image-button-response","trial_index":59,"time_elapsed":269472,"internal_node_id":"0.0-4.0-0.26","subject_id":"5bc5be2572df5f00014479f9","study_id":"6197b3f67c2b5cd3b6d9596a","session_id":"619bef055429129d97aa3d14","condition":"full-information","relevant_dimensions":["antennae","pattern"],"bee_group":{"antennae":"B","wings":"X","pattern":"D","legs":"X"},"action":"harvest","summary":"good-harvest","bonus":0.2000000000000001},{"rt":1430.2999999523163,"stimulus":"\n                    <p><b>Action: <em>harvest</em></b></p>\n                    <p>This is the bee that you just saw.</p>\n                    <img src=\"bees-with-color/bee-B1SF.svg\" width=\"200\">\n                    <p><span class=\"greenText\"><b>Successful harvest!</b></span><br>Your pay has increased by $0.02. Your bonus pay is now $0.16.</p>\n            ","response":0,"trial_type":"html-button-response","trial_index":60,"time_elapsed":270905,"internal_node_id":"0.0-4.0-1.26","subject_id":"5bc5be2572df5f00014479f9","study_id":"6197b3f67c2b5cd3b6d9596a","session_id":"619bef055429129d97aa3d14","condition":"full-information","relevant_dimensions":["antennae","pattern"],"bee_group":{"antennae":"B","wings":"X","pattern":"D","legs":"X"},"bonus":0.2000000000000001},{"rt":1313,"stimulus":"bees-with-color/bee-A1DM.svg","response":0,"trial_type":"image-button-response","trial_index":61,"time_elapsed":272221,"internal_node_id":"0.0-4.0-0.27","subject_id":"5bc5be2572df5f00014479f9","study_id":"6197b3f67c2b5cd3b6d9596a","session_id":"619bef055429129d97aa3d14","condition":"full-information","relevant_dimensions":["antennae","pattern"],"bee_group":{"antennae":"B","wings":"X","pattern":"D","legs":"X"},"action":"harvest","summary":"good-harvest","bonus":0.2000000000000001},{"rt":1489,"stimulus":"\n                    <p><b>Action: <em>harvest</em></b></p>\n                    <p>This is the bee that you just saw.</p>\n                    <img src=\"bees-with-color/bee-A1DM.svg\" width=\"200\">\n                    <p><span class=\"greenText\"><b>Successful harvest!</b></span><br>Your pay has increased by $0.02. Your bonus pay is now $0.18.</p>\n            ","response":0,"trial_type":"html-button-response","trial_index":62,"time_elapsed":273713,"internal_node_id":"0.0-4.0-1.27","subject_id":"5bc5be2572df5f00014479f9","study_id":"6197b3f67c2b5cd3b6d9596a","session_id":"619bef055429129d97aa3d14","condition":"full-information","relevant_dimensions":["antennae","pattern"],"bee_group":{"antennae":"B","wings":"X","pattern":"D","legs":"X"},"bonus":0.2000000000000001},{"rt":1470.2999999523163,"stimulus":"bees-with-color/bee-A2SF.svg","response":0,"trial_type":"image-button-response","trial_index":63,"time_elapsed":275185,"internal_node_id":"0.0-4.0-0.28","subject_id":"5bc5be2572df5f00014479f9","study_id":"6197b3f67c2b5cd3b6d9596a","session_id":"619bef055429129d97aa3d14","condition":"full-information","relevant_dimensions":["antennae","pattern"],"bee_group":{"antennae":"B","wings":"X","pattern":"D","legs":"X"},"action":"harvest","summary":"good-harvest","bonus":0.2000000000000001},{"rt":1243.7999999523163,"stimulus":"\n                    <p><b>Action: <em>harvest</em></b></p>\n                    <p>This is the bee that you just saw.</p>\n                    <img src=\"bees-with-color/bee-A2SF.svg\" width=\"200\">\n                    <p><span class=\"greenText\"><b>Successful harvest!</b></span><br>Your pay has increased by $0.02. Your bonus pay is now $0.20.</p>\n            ","response":0,"trial_type":"html-button-response","trial_index":64,"time_elapsed":276432,"internal_node_id":"0.0-4.0-1.28","subject_id":"5bc5be2572df5f00014479f9","study_id":"6197b3f67c2b5cd3b6d9596a","session_id":"619bef055429129d97aa3d14","condition":"full-information","relevant_dimensions":["antennae","pattern"],"bee_group":{"antennae":"B","wings":"X","pattern":"D","legs":"X"},"bonus":0.2000000000000001},{"rt":2062.399999976158,"stimulus":"bees-with-color/bee-B2SF.svg","response":0,"trial_type":"image-button-response","trial_index":65,"time_elapsed":278497,"internal_node_id":"0.0-4.0-0.29","subject_id":"5bc5be2572df5f00014479f9","study_id":"6197b3f67c2b5cd3b6d9596a","session_id":"619bef055429129d97aa3d14","condition":"full-information","relevant_dimensions":["antennae","pattern"],"bee_group":{"antennae":"B","wings":"X","pattern":"D","legs":"X"},"action":"harvest","summary":"good-harvest","bonus":0.2000000000000001},{"rt":1245.6000000238419,"stimulus":"\n                    <p><b>Action: <em>harvest</em></b></p>\n                    <p>This is the bee that you just saw.</p>\n                    <img src=\"bees-with-color/bee-B2SF.svg\" width=\"200\">\n                    <p><span class=\"greenText\"><b>Successful harvest!</b></span><br>Your pay has increased by $0.02. Your bonus pay is now $0.22.</p>\n            ","response":0,"trial_type":"html-button-response","trial_index":66,"time_elapsed":279744,"internal_node_id":"0.0-4.0-1.29","subject_id":"5bc5be2572df5f00014479f9","study_id":"6197b3f67c2b5cd3b6d9596a","session_id":"619bef055429129d97aa3d14","condition":"full-information","relevant_dimensions":["antennae","pattern"],"bee_group":{"antennae":"B","wings":"X","pattern":"D","legs":"X"},"bonus":0.2000000000000001},{"rt":1519.8999999761581,"stimulus":"bees-with-color/bee-A2DM.svg","response":0,"trial_type":"image-button-response","trial_index":67,"time_elapsed":281266,"internal_node_id":"0.0-4.0-0.30","subject_id":"5bc5be2572df5f00014479f9","study_id":"6197b3f67c2b5cd3b6d9596a","session_id":"619bef055429129d97aa3d14","condition":"full-information","relevant_dimensions":["antennae","pattern"],"bee_group":{"antennae":"B","wings":"X","pattern":"D","legs":"X"},"action":"harvest","summary":"good-harvest","bonus":0.2000000000000001},{"rt":1233.6000000238419,"stimulus":"\n                    <p><b>Action: <em>harvest</em></b></p>\n                    <p>This is the bee that you just saw.</p>\n                    <img src=\"bees-with-color/bee-A2DM.svg\" width=\"200\">\n                    <p><span class=\"greenText\"><b>Successful harvest!</b></span><br>Your pay has increased by $0.02. Your bonus pay is now $0.24.</p>\n            ","response":0,"trial_type":"html-button-response","trial_index":68,"time_elapsed":282503,"internal_node_id":"0.0-4.0-1.30","subject_id":"5bc5be2572df5f00014479f9","study_id":"6197b3f67c2b5cd3b6d9596a","session_id":"619bef055429129d97aa3d14","condition":"full-information","relevant_dimensions":["antennae","pattern"],"bee_group":{"antennae":"B","wings":"X","pattern":"D","legs":"X"},"bonus":0.2000000000000001},{"rt":1664.7000000476837,"stimulus":"bees-with-color/bee-A2SM.svg","response":0,"trial_type":"image-button-response","trial_index":69,"time_elapsed":284170,"internal_node_id":"0.0-4.0-0.31","subject_id":"5bc5be2572df5f00014479f9","study_id":"6197b3f67c2b5cd3b6d9596a","session_id":"619bef055429129d97aa3d14","condition":"full-information","relevant_dimensions":["antennae","pattern"],"bee_group":{"antennae":"B","wings":"X","pattern":"D","legs":"X"},"action":"harvest","summary":"good-harvest","bonus":0.2000000000000001},{"rt":1490.7000000476837,"stimulus":"\n                    <p><b>Action: <em>harvest</em></b></p>\n                    <p>This is the bee that you just saw.</p>\n                    <img src=\"bees-with-color/bee-A2SM.svg\" width=\"200\">\n                    <p><span class=\"greenText\"><b>Successful harvest!</b></span><br>Your pay has increased by $0.02. Your bonus pay is now $0.26.</p>\n            ","response":0,"trial_type":"html-button-response","trial_index":70,"time_elapsed":285664,"internal_node_id":"0.0-4.0-1.31","subject_id":"5bc5be2572df5f00014479f9","study_id":"6197b3f67c2b5cd3b6d9596a","session_id":"619bef055429129d97aa3d14","condition":"full-information","relevant_dimensions":["antennae","pattern"],"bee_group":{"antennae":"B","wings":"X","pattern":"D","legs":"X"},"bonus":0.2000000000000001},{"rt":1641.1999999284744,"stimulus":"bees-with-color/bee-A1SM.svg","response":0,"trial_type":"image-button-response","trial_index":71,"time_elapsed":287307,"internal_node_id":"0.0-4.0-0.32","subject_id":"5bc5be2572df5f00014479f9","study_id":"6197b3f67c2b5cd3b6d9596a","session_id":"619bef055429129d97aa3d14","condition":"full-information","relevant_dimensions":["antennae","pattern"],"bee_group":{"antennae":"B","wings":"X","pattern":"D","legs":"X"},"action":"harvest","summary":"good-harvest","bonus":0.2000000000000001},{"rt":1541.3999999761581,"stimulus":"\n                    <p><b>Action: <em>harvest</em></b></p>\n                    <p>This is the bee that you just saw.</p>\n                    <img src=\"bees-with-color/bee-A1SM.svg\" width=\"200\">\n                    <p><span class=\"greenText\"><b>Successful harvest!</b></span><br>Your pay has increased by $0.02. Your bonus pay is now $0.28.</p>\n            ","response":0,"trial_type":"html-button-response","trial_index":72,"time_elapsed":288851,"internal_node_id":"0.0-4.0-1.32","subject_id":"5bc5be2572df5f00014479f9","study_id":"6197b3f67c2b5cd3b6d9596a","session_id":"619bef055429129d97aa3d14","condition":"full-information","relevant_dimensions":["antennae","pattern"],"bee_group":{"antennae":"B","wings":"X","pattern":"D","legs":"X"},"bonus":0.2000000000000001},{"rt":1581.8999999761581,"stimulus":"bees-with-color/bee-B1DF.svg","response":0,"trial_type":"image-button-response","trial_index":73,"time_elapsed":290436,"internal_node_id":"0.0-4.0-0.33","subject_id":"5bc5be2572df5f00014479f9","study_id":"6197b3f67c2b5cd3b6d9596a","session_id":"619bef055429129d97aa3d14","condition":"full-information","relevant_dimensions":["antennae","pattern"],"bee_group":{"antennae":"B","wings":"X","pattern":"D","legs":"X"},"action":"harvest","summary":"bad-harvest","bonus":0.2000000000000001},{"rt":1386.5,"stimulus":"\n                    <p><b>Action: <em>harvest</em></b></p>\n                    <p>This is the bee that you just saw.</p>\n                    <img src=\"bees-with-color/bee-B1DF.svg\" width=\"200\">\n                    <p><span class=\"redText\">Bad choice, the bee was angry.</span><br><b>You have been stung!</b><br>Your pay has been decreased by $0.10. Your bonus pay is now $0.18.</p>\n            ","response":0,"trial_type":"html-button-response","trial_index":74,"time_elapsed":291825,"internal_node_id":"0.0-4.0-1.33","subject_id":"5bc5be2572df5f00014479f9","study_id":"6197b3f67c2b5cd3b6d9596a","session_id":"619bef055429129d97aa3d14","condition":"full-information","relevant_dimensions":["antennae","pattern"],"bee_group":{"antennae":"B","wings":"X","pattern":"D","legs":"X"},"bonus":0.2000000000000001},{"rt":1797,"stimulus":"bees-with-color/bee-B1SM.svg","response":1,"trial_type":"image-button-response","trial_index":75,"time_elapsed":293625,"internal_node_id":"0.0-4.0-0.34","subject_id":"5bc5be2572df5f00014479f9","study_id":"6197b3f67c2b5cd3b6d9596a","session_id":"619bef055429129d97aa3d14","condition":"full-information","relevant_dimensions":["antennae","pattern"],"bee_group":{"antennae":"B","wings":"X","pattern":"D","legs":"X"},"action":"avoid","summary":"bad-avoid","bonus":0.2000000000000001},{"rt":1377.5,"stimulus":"\n                    <p><b>Action: <em>avoid</em></b></p>\n                    <p>This is the bee that you just saw.</p>\n                    <img src=\"bees-with-color/bee-B1SM.svg\" width=\"200\">\n                    <p><span class=\"redText\">Bad choice,</span> the bee was friendly.<br>Your bonus pay is unchanged, and remains at $0.18.</p>\n            ","response":0,"trial_type":"html-button-response","trial_index":76,"time_elapsed":295005,"internal_node_id":"0.0-4.0-1.34","subject_id":"5bc5be2572df5f00014479f9","study_id":"6197b3f67c2b5cd3b6d9596a","session_id":"619bef055429129d97aa3d14","condition":"full-information","relevant_dimensions":["antennae","pattern"],"bee_group":{"antennae":"B","wings":"X","pattern":"D","legs":"X"},"bonus":0.2000000000000001},{"rt":1366.8000000715256,"stimulus":"bees-with-color/bee-A1SF.svg","response":1,"trial_type":"image-button-response","trial_index":77,"time_elapsed":296375,"internal_node_id":"0.0-4.0-0.35","subject_id":"5bc5be2572df5f00014479f9","study_id":"6197b3f67c2b5cd3b6d9596a","session_id":"619bef055429129d97aa3d14","condition":"full-information","relevant_dimensions":["antennae","pattern"],"bee_group":{"antennae":"B","wings":"X","pattern":"D","legs":"X"},"action":"avoid","summary":"bad-avoid","bonus":0.2000000000000001},{"rt":1183.2000000476837,"stimulus":"\n                    <p><b>Action: <em>avoid</em></b></p>\n                    <p>This is the bee that you just saw.</p>\n                    <img src=\"bees-with-color/bee-A1SF.svg\" width=\"200\">\n                    <p><span class=\"redText\">Bad choice,</span> the bee was friendly.<br>Your bonus pay is unchanged, and remains at $0.18.</p>\n            ","response":0,"trial_type":"html-button-response","trial_index":78,"time_elapsed":297560,"internal_node_id":"0.0-4.0-1.35","subject_id":"5bc5be2572df5f00014479f9","study_id":"6197b3f67c2b5cd3b6d9596a","session_id":"619bef055429129d97aa3d14","condition":"full-information","relevant_dimensions":["antennae","pattern"],"bee_group":{"antennae":"B","wings":"X","pattern":"D","legs":"X"},"bonus":0.2000000000000001},{"rt":1663.6000000238419,"stimulus":"bees-with-color/bee-A2SM.svg","response":0,"trial_type":"image-button-response","trial_index":79,"time_elapsed":299226,"internal_node_id":"0.0-4.0-0.36","subject_id":"5bc5be2572df5f00014479f9","study_id":"6197b3f67c2b5cd3b6d9596a","session_id":"619bef055429129d97aa3d14","condition":"full-information","relevant_dimensions":["antennae","pattern"],"bee_group":{"antennae":"B","wings":"X","pattern":"D","legs":"X"},"action":"harvest","summary":"good-harvest","bonus":0.2000000000000001},{"rt":1377.2999999523163,"stimulus":"\n                    <p><b>Action: <em>harvest</em></b></p>\n                    <p>This is the bee that you just saw.</p>\n                    <img src=\"bees-with-color/bee-A2SM.svg\" width=\"200\">\n                    <p><span class=\"greenText\"><b>Successful harvest!</b></span><br>Your pay has increased by $0.02. Your bonus pay is now $0.20.</p>\n            ","response":0,"trial_type":"html-button-response","trial_index":80,"time_elapsed":300605,"internal_node_id":"0.0-4.0-1.36","subject_id":"5bc5be2572df5f00014479f9","study_id":"6197b3f67c2b5cd3b6d9596a","session_id":"619bef055429129d97aa3d14","condition":"full-information","relevant_dimensions":["antennae","pattern"],"bee_group":{"antennae":"B","wings":"X","pattern":"D","legs":"X"},"bonus":0.2000000000000001},{"rt":1685.6999999284744,"stimulus":"bees-with-color/bee-B2DF.svg","response":1,"trial_type":"image-button-response","trial_index":81,"time_elapsed":302293,"internal_node_id":"0.0-4.0-0.37","subject_id":"5bc5be2572df5f00014479f9","study_id":"6197b3f67c2b5cd3b6d9596a","session_id":"619bef055429129d97aa3d14","condition":"full-information","relevant_dimensions":["antennae","pattern"],"bee_group":{"antennae":"B","wings":"X","pattern":"D","legs":"X"},"action":"avoid","summary":"good-avoid","bonus":0.2000000000000001},{"rt":1980.2999999523163,"stimulus":"\n                    <p><b>Action: <em>avoid</em></b></p>\n                    <p>This is the bee that you just saw.</p>\n                    <img src=\"bees-with-color/bee-B2DF.svg\" width=\"200\">\n                    <p><span class=\"greenText\">Good choice!</span>  This bee would have stung you.<br>Your bonus pay is unchanged, and remains at $0.20.</p>\n            ","response":0,"trial_type":"html-button-response","trial_index":82,"time_elapsed":304276,"internal_node_id":"0.0-4.0-1.37","subject_id":"5bc5be2572df5f00014479f9","study_id":"6197b3f67c2b5cd3b6d9596a","session_id":"619bef055429129d97aa3d14","condition":"full-information","relevant_dimensions":["antennae","pattern"],"bee_group":{"antennae":"B","wings":"X","pattern":"D","legs":"X"},"bonus":0.2000000000000001},{"rt":1102.4000000953674,"stimulus":"bees-with-color/bee-A2DM.svg","response":0,"trial_type":"image-button-response","trial_index":83,"time_elapsed":305380,"internal_node_id":"0.0-4.0-0.38","subject_id":"5bc5be2572df5f00014479f9","study_id":"6197b3f67c2b5cd3b6d9596a","session_id":"619bef055429129d97aa3d14","condition":"full-information","relevant_dimensions":["antennae","pattern"],"bee_group":{"antennae":"B","wings":"X","pattern":"D","legs":"X"},"action":"harvest","summary":"good-harvest","bonus":0.2000000000000001},{"rt":1222.6000000238419,"stimulus":"\n                    <p><b>Action: <em>harvest</em></b></p>\n                    <p>This is the bee that you just saw.</p>\n                    <img src=\"bees-with-color/bee-A2DM.svg\" width=\"200\">\n                    <p><span class=\"greenText\"><b>Successful harvest!</b></span><br>Your pay has increased by $0.02. Your bonus pay is now $0.22.</p>\n            ","response":0,"trial_type":"html-button-response","trial_index":84,"time_elapsed":306605,"internal_node_id":"0.0-4.0-1.38","subject_id":"5bc5be2572df5f00014479f9","study_id":"6197b3f67c2b5cd3b6d9596a","session_id":"619bef055429129d97aa3d14","condition":"full-information","relevant_dimensions":["antennae","pattern"],"bee_group":{"antennae":"B","wings":"X","pattern":"D","legs":"X"},"bonus":0.2000000000000001},{"rt":1428.5,"stimulus":"bees-with-color/bee-B2SM.svg","response":0,"trial_type":"image-button-response","trial_index":85,"time_elapsed":308036,"internal_node_id":"0.0-4.0-0.39","subject_id":"5bc5be2572df5f00014479f9","study_id":"6197b3f67c2b5cd3b6d9596a","session_id":"619bef055429129d97aa3d14","condition":"full-information","relevant_dimensions":["antennae","pattern"],"bee_group":{"antennae":"B","wings":"X","pattern":"D","legs":"X"},"action":"harvest","summary":"good-harvest","bonus":0.2000000000000001},{"rt":1236.3000000715256,"stimulus":"\n                    <p><b>Action: <em>harvest</em></b></p>\n                    <p>This is the bee that you just saw.</p>\n                    <img src=\"bees-with-color/bee-B2SM.svg\" width=\"200\">\n                    <p><span class=\"greenText\"><b>Successful harvest!</b></span><br>Your pay has increased by $0.02. Your bonus pay is now $0.24.</p>\n            ","response":0,"trial_type":"html-button-response","trial_index":86,"time_elapsed":309275,"internal_node_id":"0.0-4.0-1.39","subject_id":"5bc5be2572df5f00014479f9","study_id":"6197b3f67c2b5cd3b6d9596a","session_id":"619bef055429129d97aa3d14","condition":"full-information","relevant_dimensions":["antennae","pattern"],"bee_group":{"antennae":"B","wings":"X","pattern":"D","legs":"X"},"bonus":0.2000000000000001},{"rt":1885.6999999284744,"stimulus":"bees-with-color/bee-B1DM.svg","response":0,"trial_type":"image-button-response","trial_index":87,"time_elapsed":311163,"internal_node_id":"0.0-4.0-0.40","subject_id":"5bc5be2572df5f00014479f9","study_id":"6197b3f67c2b5cd3b6d9596a","session_id":"619bef055429129d97aa3d14","condition":"full-information","relevant_dimensions":["antennae","pattern"],"bee_group":{"antennae":"B","wings":"X","pattern":"D","legs":"X"},"action":"harvest","summary":"bad-harvest","bonus":0.2000000000000001},{"rt":1480.7000000476837,"stimulus":"\n                    <p><b>Action: <em>harvest</em></b></p>\n                    <p>This is the bee that you just saw.</p>\n                    <img src=\"bees-with-color/bee-B1DM.svg\" width=\"200\">\n                    <p><span class=\"redText\">Bad choice, the bee was angry.</span><br><b>You have been stung!</b><br>Your pay has been decreased by $0.10. Your bonus pay is now $0.14.</p>\n            ","response":0,"trial_type":"html-button-response","trial_index":88,"time_elapsed":312647,"internal_node_id":"0.0-4.0-1.40","subject_id":"5bc5be2572df5f00014479f9","study_id":"6197b3f67c2b5cd3b6d9596a","session_id":"619bef055429129d97aa3d14","condition":"full-information","relevant_dimensions":["antennae","pattern"],"bee_group":{"antennae":"B","wings":"X","pattern":"D","legs":"X"},"bonus":0.2000000000000001},{"rt":1673,"stimulus":"bees-with-color/bee-B1SF.svg","response":1,"trial_type":"image-button-response","trial_index":89,"time_elapsed":314323,"internal_node_id":"0.0-4.0-0.41","subject_id":"5bc5be2572df5f00014479f9","study_id":"6197b3f67c2b5cd3b6d9596a","session_id":"619bef055429129d97aa3d14","condition":"full-information","relevant_dimensions":["antennae","pattern"],"bee_group":{"antennae":"B","wings":"X","pattern":"D","legs":"X"},"action":"avoid","summary":"bad-avoid","bonus":0.2000000000000001},{"rt":1201.3000000715256,"stimulus":"\n                    <p><b>Action: <em>avoid</em></b></p>\n                    <p>This is the bee that you just saw.</p>\n                    <img src=\"bees-with-color/bee-B1SF.svg\" width=\"200\">\n                    <p><span class=\"redText\">Bad choice,</span> the bee was friendly.<br>Your bonus pay is unchanged, and remains at $0.14.</p>\n            ","response":0,"trial_type":"html-button-response","trial_index":90,"time_elapsed":315527,"internal_node_id":"0.0-4.0-1.41","subject_id":"5bc5be2572df5f00014479f9","study_id":"6197b3f67c2b5cd3b6d9596a","session_id":"619bef055429129d97aa3d14","condition":"full-information","relevant_dimensions":["antennae","pattern"],"bee_group":{"antennae":"B","wings":"X","pattern":"D","legs":"X"},"bonus":0.2000000000000001},{"rt":1603.5,"stimulus":"bees-with-color/bee-B2SF.svg","response":1,"trial_type":"image-button-response","trial_index":91,"time_elapsed":317132,"internal_node_id":"0.0-4.0-0.42","subject_id":"5bc5be2572df5f00014479f9","study_id":"6197b3f67c2b5cd3b6d9596a","session_id":"619bef055429129d97aa3d14","condition":"full-information","relevant_dimensions":["antennae","pattern"],"bee_group":{"antennae":"B","wings":"X","pattern":"D","legs":"X"},"action":"avoid","summary":"bad-avoid","bonus":0.2000000000000001},{"rt":1070.6000000238419,"stimulus":"\n                    <p><b>Action: <em>avoid</em></b></p>\n                    <p>This is the bee that you just saw.</p>\n                    <img src=\"bees-with-color/bee-B2SF.svg\" width=\"200\">\n                    <p><span class=\"redText\">Bad choice,</span> the bee was friendly.<br>Your bonus pay is unchanged, and remains at $0.14.</p>\n            ","response":0,"trial_type":"html-button-response","trial_index":92,"time_elapsed":318205,"internal_node_id":"0.0-4.0-1.42","subject_id":"5bc5be2572df5f00014479f9","study_id":"6197b3f67c2b5cd3b6d9596a","session_id":"619bef055429129d97aa3d14","condition":"full-information","relevant_dimensions":["antennae","pattern"],"bee_group":{"antennae":"B","wings":"X","pattern":"D","legs":"X"},"bonus":0.2000000000000001},{"rt":1449.9000000953674,"stimulus":"bees-with-color/bee-A2DF.svg","response":0,"trial_type":"image-button-response","trial_index":93,"time_elapsed":319658,"internal_node_id":"0.0-4.0-0.43","subject_id":"5bc5be2572df5f00014479f9","study_id":"6197b3f67c2b5cd3b6d9596a","session_id":"619bef055429129d97aa3d14","condition":"full-information","relevant_dimensions":["antennae","pattern"],"bee_group":{"antennae":"B","wings":"X","pattern":"D","legs":"X"},"action":"harvest","summary":"good-harvest","bonus":0.2000000000000001},{"rt":1325.7999999523163,"stimulus":"\n                    <p><b>Action: <em>harvest</em></b></p>\n                    <p>This is the bee that you just saw.</p>\n                    <img src=\"bees-with-color/bee-A2DF.svg\" width=\"200\">\n                    <p><span class=\"greenText\"><b>Successful harvest!</b></span><br>Your pay has increased by $0.02. Your bonus pay is now $0.16.</p>\n            ","response":0,"trial_type":"html-button-response","trial_index":94,"time_elapsed":320987,"internal_node_id":"0.0-4.0-1.43","subject_id":"5bc5be2572df5f00014479f9","study_id":"6197b3f67c2b5cd3b6d9596a","session_id":"619bef055429129d97aa3d14","condition":"full-information","relevant_dimensions":["antennae","pattern"],"bee_group":{"antennae":"B","wings":"X","pattern":"D","legs":"X"},"bonus":0.2000000000000001},{"rt":1387.8000000715256,"stimulus":"bees-with-color/bee-B2DM.svg","response":0,"trial_type":"image-button-response","trial_index":95,"time_elapsed":322377,"internal_node_id":"0.0-4.0-0.44","subject_id":"5bc5be2572df5f00014479f9","study_id":"6197b3f67c2b5cd3b6d9596a","session_id":"619bef055429129d97aa3d14","condition":"full-information","relevant_dimensions":["antennae","pattern"],"bee_group":{"antennae":"B","wings":"X","pattern":"D","legs":"X"},"action":"harvest","summary":"bad-harvest","bonus":0.2000000000000001},{"rt":1386.2999999523163,"stimulus":"\n                    <p><b>Action: <em>harvest</em></b></p>\n                    <p>This is the bee that you just saw.</p>\n                    <img src=\"bees-with-color/bee-B2DM.svg\" width=\"200\">\n                    <p><span class=\"redText\">Bad choice, the bee was angry.</span><br><b>You have been stung!</b><br>Your pay has been decreased by $0.10. Your bonus pay is now $0.06.</p>\n            ","response":0,"trial_type":"html-button-response","trial_index":96,"time_elapsed":323767,"internal_node_id":"0.0-4.0-1.44","subject_id":"5bc5be2572df5f00014479f9","study_id":"6197b3f67c2b5cd3b6d9596a","session_id":"619bef055429129d97aa3d14","condition":"full-information","relevant_dimensions":["antennae","pattern"],"bee_group":{"antennae":"B","wings":"X","pattern":"D","legs":"X"},"bonus":0.2000000000000001},{"rt":1846.6000000238419,"stimulus":"bees-with-color/bee-A1DF.svg","response":0,"trial_type":"image-button-response","trial_index":97,"time_elapsed":325615,"internal_node_id":"0.0-4.0-0.45","subject_id":"5bc5be2572df5f00014479f9","study_id":"6197b3f67c2b5cd3b6d9596a","session_id":"619bef055429129d97aa3d14","condition":"full-information","relevant_dimensions":["antennae","pattern"],"bee_group":{"antennae":"B","wings":"X","pattern":"D","legs":"X"},"action":"harvest","summary":"good-harvest","bonus":0.2000000000000001},{"rt":1450.6000000238419,"stimulus":"\n                    <p><b>Action: <em>harvest</em></b></p>\n                    <p>This is the bee that you just saw.</p>\n                    <img src=\"bees-with-color/bee-A1DF.svg\" width=\"200\">\n                    <p><span class=\"greenText\"><b>Successful harvest!</b></span><br>Your pay has increased by $0.02. Your bonus pay is now $0.08.</p>\n            ","response":0,"trial_type":"html-button-response","trial_index":98,"time_elapsed":327068,"internal_node_id":"0.0-4.0-1.45","subject_id":"5bc5be2572df5f00014479f9","study_id":"6197b3f67c2b5cd3b6d9596a","session_id":"619bef055429129d97aa3d14","condition":"full-information","relevant_dimensions":["antennae","pattern"],"bee_group":{"antennae":"B","wings":"X","pattern":"D","legs":"X"},"bonus":0.2000000000000001},{"rt":1244.6999999284744,"stimulus":"bees-with-color/bee-A1DM.svg","response":0,"trial_type":"image-button-response","trial_index":99,"time_elapsed":328315,"internal_node_id":"0.0-4.0-0.46","subject_id":"5bc5be2572df5f00014479f9","study_id":"6197b3f67c2b5cd3b6d9596a","session_id":"619bef055429129d97aa3d14","condition":"full-information","relevant_dimensions":["antennae","pattern"],"bee_group":{"antennae":"B","wings":"X","pattern":"D","legs":"X"},"action":"harvest","summary":"good-harvest","bonus":0.2000000000000001},{"rt":1550.6999999284744,"stimulus":"\n                    <p><b>Action: <em>harvest</em></b></p>\n                    <p>This is the bee that you just saw.</p>\n                    <img src=\"bees-with-color/bee-A1DM.svg\" width=\"200\">\n                    <p><span class=\"greenText\"><b>Successful harvest!</b></span><br>Your pay has increased by $0.02. Your bonus pay is now $0.10.</p>\n            ","response":0,"trial_type":"html-button-response","trial_index":100,"time_elapsed":329868,"internal_node_id":"0.0-4.0-1.46","subject_id":"5bc5be2572df5f00014479f9","study_id":"6197b3f67c2b5cd3b6d9596a","session_id":"619bef055429129d97aa3d14","condition":"full-information","relevant_dimensions":["antennae","pattern"],"bee_group":{"antennae":"B","wings":"X","pattern":"D","legs":"X"},"bonus":0.2000000000000001},{"rt":1581.3999999761581,"stimulus":"bees-with-color/bee-A2SF.svg","response":0,"trial_type":"image-button-response","trial_index":101,"time_elapsed":331452,"internal_node_id":"0.0-4.0-0.47","subject_id":"5bc5be2572df5f00014479f9","study_id":"6197b3f67c2b5cd3b6d9596a","session_id":"619bef055429129d97aa3d14","condition":"full-information","relevant_dimensions":["antennae","pattern"],"bee_group":{"antennae":"B","wings":"X","pattern":"D","legs":"X"},"action":"harvest","summary":"good-harvest","bonus":0.2000000000000001},{"rt":1078.5999999046326,"stimulus":"\n                    <p><b>Action: <em>harvest</em></b></p>\n                    <p>This is the bee that you just saw.</p>\n                    <img src=\"bees-with-color/bee-A2SF.svg\" width=\"200\">\n                    <p><span class=\"greenText\"><b>Successful harvest!</b></span><br>Your pay has increased by $0.02. Your bonus pay is now $0.12.</p>\n            ","response":0,"trial_type":"html-button-response","trial_index":102,"time_elapsed":332536,"internal_node_id":"0.0-4.0-1.47","subject_id":"5bc5be2572df5f00014479f9","study_id":"6197b3f67c2b5cd3b6d9596a","session_id":"619bef055429129d97aa3d14","condition":"full-information","relevant_dimensions":["antennae","pattern"],"bee_group":{"antennae":"B","wings":"X","pattern":"D","legs":"X"},"bonus":0.2000000000000001},{"rt":1345.6000000238419,"stimulus":"bees-with-color/bee-B1SM.svg","response":1,"trial_type":"image-button-response","trial_index":103,"time_elapsed":333885,"internal_node_id":"0.0-4.0-0.48","subject_id":"5bc5be2572df5f00014479f9","study_id":"6197b3f67c2b5cd3b6d9596a","session_id":"619bef055429129d97aa3d14","condition":"full-information","relevant_dimensions":["antennae","pattern"],"bee_group":{"antennae":"B","wings":"X","pattern":"D","legs":"X"},"action":"avoid","summary":"bad-avoid","bonus":0.2000000000000001},{"rt":1632.3000000715256,"stimulus":"\n                    <p><b>Action: <em>avoid</em></b></p>\n                    <p>This is the bee that you just saw.</p>\n                    <img src=\"bees-with-color/bee-B1SM.svg\" width=\"200\">\n                    <p><span class=\"redText\">Bad choice,</span> the bee was friendly.<br>Your bonus pay is unchanged, and remains at $0.12.</p>\n            ","response":0,"trial_type":"html-button-response","trial_index":104,"time_elapsed":335520,"internal_node_id":"0.0-4.0-1.48","subject_id":"5bc5be2572df5f00014479f9","study_id":"6197b3f67c2b5cd3b6d9596a","session_id":"619bef055429129d97aa3d14","condition":"full-information","relevant_dimensions":["antennae","pattern"],"bee_group":{"antennae":"B","wings":"X","pattern":"D","legs":"X"},"bonus":0.2000000000000001},{"rt":1245.3999999761581,"stimulus":"bees-with-color/bee-A1SM.svg","response":0,"trial_type":"image-button-response","trial_index":105,"time_elapsed":336768,"internal_node_id":"0.0-4.0-0.49","subject_id":"5bc5be2572df5f00014479f9","study_id":"6197b3f67c2b5cd3b6d9596a","session_id":"619bef055429129d97aa3d14","condition":"full-information","relevant_dimensions":["antennae","pattern"],"bee_group":{"antennae":"B","wings":"X","pattern":"D","legs":"X"},"action":"harvest","summary":"good-harvest","bonus":0.2000000000000001},{"rt":1386.5,"stimulus":"\n                    <p><b>Action: <em>harvest</em></b></p>\n                    <p>This is the bee that you just saw.</p>\n                    <img src=\"bees-with-color/bee-A1SM.svg\" width=\"200\">\n                    <p><span class=\"greenText\"><b>Successful harvest!</b></span><br>Your pay has increased by $0.02. Your bonus pay is now $0.14.</p>\n            ","response":0,"trial_type":"html-button-response","trial_index":106,"time_elapsed":338156,"internal_node_id":"0.0-4.0-1.49","subject_id":"5bc5be2572df5f00014479f9","study_id":"6197b3f67c2b5cd3b6d9596a","session_id":"619bef055429129d97aa3d14","condition":"full-information","relevant_dimensions":["antennae","pattern"],"bee_group":{"antennae":"B","wings":"X","pattern":"D","legs":"X"},"bonus":0.2000000000000001},{"rt":1451,"stimulus":"bees-with-color/bee-A2SM.svg","response":0,"trial_type":"image-button-response","trial_index":107,"time_elapsed":339610,"internal_node_id":"0.0-4.0-0.50","subject_id":"5bc5be2572df5f00014479f9","study_id":"6197b3f67c2b5cd3b6d9596a","session_id":"619bef055429129d97aa3d14","condition":"full-information","relevant_dimensions":["antennae","pattern"],"bee_group":{"antennae":"B","wings":"X","pattern":"D","legs":"X"},"action":"harvest","summary":"good-harvest","bonus":0.2000000000000001},{"rt":1344.6000000238419,"stimulus":"\n                    <p><b>Action: <em>harvest</em></b></p>\n                    <p>This is the bee that you just saw.</p>\n                    <img src=\"bees-with-color/bee-A2SM.svg\" width=\"200\">\n                    <p><span class=\"greenText\"><b>Successful harvest!</b></span><br>Your pay has increased by $0.02. Your bonus pay is now $0.16.</p>\n            ","response":0,"trial_type":"html-button-response","trial_index":108,"time_elapsed":340957,"internal_node_id":"0.0-4.0-1.50","subject_id":"5bc5be2572df5f00014479f9","study_id":"6197b3f67c2b5cd3b6d9596a","session_id":"619bef055429129d97aa3d14","condition":"full-information","relevant_dimensions":["antennae","pattern"],"bee_group":{"antennae":"B","wings":"X","pattern":"D","legs":"X"},"bonus":0.2000000000000001},{"rt":2531.600000023842,"stimulus":"bees-with-color/bee-A1DF.svg","response":0,"trial_type":"image-button-response","trial_index":109,"time_elapsed":343493,"internal_node_id":"0.0-4.0-0.51","subject_id":"5bc5be2572df5f00014479f9","study_id":"6197b3f67c2b5cd3b6d9596a","session_id":"619bef055429129d97aa3d14","condition":"full-information","relevant_dimensions":["antennae","pattern"],"bee_group":{"antennae":"B","wings":"X","pattern":"D","legs":"X"},"action":"harvest","summary":"good-harvest","bonus":0.2000000000000001},{"rt":1253.8999999761581,"stimulus":"\n                    <p><b>Action: <em>harvest</em></b></p>\n                    <p>This is the bee that you just saw.</p>\n                    <img src=\"bees-with-color/bee-A1DF.svg\" width=\"200\">\n                    <p><span class=\"greenText\"><b>Successful harvest!</b></span><br>Your pay has increased by $0.02. Your bonus pay is now $0.18.</p>\n            ","response":0,"trial_type":"html-button-response","trial_index":110,"time_elapsed":344750,"internal_node_id":"0.0-4.0-1.51","subject_id":"5bc5be2572df5f00014479f9","study_id":"6197b3f67c2b5cd3b6d9596a","session_id":"619bef055429129d97aa3d14","condition":"full-information","relevant_dimensions":["antennae","pattern"],"bee_group":{"antennae":"B","wings":"X","pattern":"D","legs":"X"},"bonus":0.2000000000000001},{"rt":1541.7000000476837,"stimulus":"bees-with-color/bee-A1DM.svg","response":0,"trial_type":"image-button-response","trial_index":111,"time_elapsed":346294,"internal_node_id":"0.0-4.0-0.52","subject_id":"5bc5be2572df5f00014479f9","study_id":"6197b3f67c2b5cd3b6d9596a","session_id":"619bef055429129d97aa3d14","condition":"full-information","relevant_dimensions":["antennae","pattern"],"bee_group":{"antennae":"B","wings":"X","pattern":"D","legs":"X"},"action":"harvest","summary":"good-harvest","bonus":0.2000000000000001},{"rt":1171.7999999523163,"stimulus":"\n                    <p><b>Action: <em>harvest</em></b></p>\n                    <p>This is the bee that you just saw.</p>\n                    <img src=\"bees-with-color/bee-A1DM.svg\" width=\"200\">\n                    <p><span class=\"greenText\"><b>Successful harvest!</b></span><br>Your pay has increased by $0.02. Your bonus pay is now $0.20.</p>\n            ","response":0,"trial_type":"html-button-response","trial_index":112,"time_elapsed":347469,"internal_node_id":"0.0-4.0-1.52","subject_id":"5bc5be2572df5f00014479f9","study_id":"6197b3f67c2b5cd3b6d9596a","session_id":"619bef055429129d97aa3d14","condition":"full-information","relevant_dimensions":["antennae","pattern"],"bee_group":{"antennae":"B","wings":"X","pattern":"D","legs":"X"},"bonus":0.2000000000000001},{"rt":2094,"stimulus":"bees-with-color/bee-A1SF.svg","response":0,"trial_type":"image-button-response","trial_index":113,"time_elapsed":349565,"internal_node_id":"0.0-4.0-0.53","subject_id":"5bc5be2572df5f00014479f9","study_id":"6197b3f67c2b5cd3b6d9596a","session_id":"619bef055429129d97aa3d14","condition":"full-information","relevant_dimensions":["antennae","pattern"],"bee_group":{"antennae":"B","wings":"X","pattern":"D","legs":"X"},"action":"harvest","summary":"good-harvest","bonus":0.2000000000000001},{"rt":1181.9000000953674,"stimulus":"\n                    <p><b>Action: <em>harvest</em></b></p>\n                    <p>This is the bee that you just saw.</p>\n                    <img src=\"bees-with-color/bee-A1SF.svg\" width=\"200\">\n                    <p><span class=\"greenText\"><b>Successful harvest!</b></span><br>Your pay has increased by $0.02. Your bonus pay is now $0.22.</p>\n            ","response":0,"trial_type":"html-button-response","trial_index":114,"time_elapsed":350749,"internal_node_id":"0.0-4.0-1.53","subject_id":"5bc5be2572df5f00014479f9","study_id":"6197b3f67c2b5cd3b6d9596a","session_id":"619bef055429129d97aa3d14","condition":"full-information","relevant_dimensions":["antennae","pattern"],"bee_group":{"antennae":"B","wings":"X","pattern":"D","legs":"X"},"bonus":0.2000000000000001},{"rt":1296.4000000953674,"stimulus":"bees-with-color/bee-B2DM.svg","response":1,"trial_type":"image-button-response","trial_index":115,"time_elapsed":352048,"internal_node_id":"0.0-4.0-0.54","subject_id":"5bc5be2572df5f00014479f9","study_id":"6197b3f67c2b5cd3b6d9596a","session_id":"619bef055429129d97aa3d14","condition":"full-information","relevant_dimensions":["antennae","pattern"],"bee_group":{"antennae":"B","wings":"X","pattern":"D","legs":"X"},"action":"avoid","summary":"good-avoid","bonus":0.2000000000000001},{"rt":1632.1999999284744,"stimulus":"\n                    <p><b>Action: <em>avoid</em></b></p>\n                    <p>This is the bee that you just saw.</p>\n                    <img src=\"bees-with-color/bee-B2DM.svg\" width=\"200\">\n                    <p><span class=\"greenText\">Good choice!</span>  This bee would have stung you.<br>Your bonus pay is unchanged, and remains at $0.22.</p>\n            ","response":0,"trial_type":"html-button-response","trial_index":116,"time_elapsed":353683,"internal_node_id":"0.0-4.0-1.54","subject_id":"5bc5be2572df5f00014479f9","study_id":"6197b3f67c2b5cd3b6d9596a","session_id":"619bef055429129d97aa3d14","condition":"full-information","relevant_dimensions":["antennae","pattern"],"bee_group":{"antennae":"B","wings":"X","pattern":"D","legs":"X"},"bonus":0.2000000000000001},{"rt":1591.2999999523163,"stimulus":"bees-with-color/bee-B2DF.svg","response":1,"trial_type":"image-button-response","trial_index":117,"time_elapsed":355277,"internal_node_id":"0.0-4.0-0.55","subject_id":"5bc5be2572df5f00014479f9","study_id":"6197b3f67c2b5cd3b6d9596a","session_id":"619bef055429129d97aa3d14","condition":"full-information","relevant_dimensions":["antennae","pattern"],"bee_group":{"antennae":"B","wings":"X","pattern":"D","legs":"X"},"action":"avoid","summary":"good-avoid","bonus":0.2000000000000001},{"rt":1440.1999999284744,"stimulus":"\n                    <p><b>Action: <em>avoid</em></b></p>\n                    <p>This is the bee that you just saw.</p>\n                    <img src=\"bees-with-color/bee-B2DF.svg\" width=\"200\">\n                    <p><span class=\"greenText\">Good choice!</span>  This bee would have stung you.<br>Your bonus pay is unchanged, and remains at $0.22.</p>\n            ","response":0,"trial_type":"html-button-response","trial_index":118,"time_elapsed":356719,"internal_node_id":"0.0-4.0-1.55","subject_id":"5bc5be2572df5f00014479f9","study_id":"6197b3f67c2b5cd3b6d9596a","session_id":"619bef055429129d97aa3d14","condition":"full-information","relevant_dimensions":["antennae","pattern"],"bee_group":{"antennae":"B","wings":"X","pattern":"D","legs":"X"},"bonus":0.2000000000000001},{"rt":1846.1999999284744,"stimulus":"bees-with-color/bee-B2SM.svg","response":0,"trial_type":"image-button-response","trial_index":119,"time_elapsed":358568,"internal_node_id":"0.0-4.0-0.56","subject_id":"5bc5be2572df5f00014479f9","study_id":"6197b3f67c2b5cd3b6d9596a","session_id":"619bef055429129d97aa3d14","condition":"full-information","relevant_dimensions":["antennae","pattern"],"bee_group":{"antennae":"B","wings":"X","pattern":"D","legs":"X"},"action":"harvest","summary":"good-harvest","bonus":0.2000000000000001},{"rt":1274.5999999046326,"stimulus":"\n                    <p><b>Action: <em>harvest</em></b></p>\n                    <p>This is the bee that you just saw.</p>\n                    <img src=\"bees-with-color/bee-B2SM.svg\" width=\"200\">\n                    <p><span class=\"greenText\"><b>Successful harvest!</b></span><br>Your pay has increased by $0.02. Your bonus pay is now $0.24.</p>\n            ","response":0,"trial_type":"html-button-response","trial_index":120,"time_elapsed":359846,"internal_node_id":"0.0-4.0-1.56","subject_id":"5bc5be2572df5f00014479f9","study_id":"6197b3f67c2b5cd3b6d9596a","session_id":"619bef055429129d97aa3d14","condition":"full-information","relevant_dimensions":["antennae","pattern"],"bee_group":{"antennae":"B","wings":"X","pattern":"D","legs":"X"},"bonus":0.2000000000000001},{"rt":1438.8999999761581,"stimulus":"bees-with-color/bee-A2SF.svg","response":0,"trial_type":"image-button-response","trial_index":121,"time_elapsed":361286,"internal_node_id":"0.0-4.0-0.57","subject_id":"5bc5be2572df5f00014479f9","study_id":"6197b3f67c2b5cd3b6d9596a","session_id":"619bef055429129d97aa3d14","condition":"full-information","relevant_dimensions":["antennae","pattern"],"bee_group":{"antennae":"B","wings":"X","pattern":"D","legs":"X"},"action":"harvest","summary":"good-harvest","bonus":0.2000000000000001},{"rt":1214.2000000476837,"stimulus":"\n                    <p><b>Action: <em>harvest</em></b></p>\n                    <p>This is the bee that you just saw.</p>\n                    <img src=\"bees-with-color/bee-A2SF.svg\" width=\"200\">\n                    <p><span class=\"greenText\"><b>Successful harvest!</b></span><br>Your pay has increased by $0.02. Your bonus pay is now $0.26.</p>\n            ","response":0,"trial_type":"html-button-response","trial_index":122,"time_elapsed":362503,"internal_node_id":"0.0-4.0-1.57","subject_id":"5bc5be2572df5f00014479f9","study_id":"6197b3f67c2b5cd3b6d9596a","session_id":"619bef055429129d97aa3d14","condition":"full-information","relevant_dimensions":["antennae","pattern"],"bee_group":{"antennae":"B","wings":"X","pattern":"D","legs":"X"},"bonus":0.2000000000000001},{"rt":1632.1000000238419,"stimulus":"bees-with-color/bee-B2SF.svg","response":0,"trial_type":"image-button-response","trial_index":123,"time_elapsed":364140,"internal_node_id":"0.0-4.0-0.58","subject_id":"5bc5be2572df5f00014479f9","study_id":"6197b3f67c2b5cd3b6d9596a","session_id":"619bef055429129d97aa3d14","condition":"full-information","relevant_dimensions":["antennae","pattern"],"bee_group":{"antennae":"B","wings":"X","pattern":"D","legs":"X"},"action":"harvest","summary":"good-harvest","bonus":0.2000000000000001},{"rt":1272.7999999523163,"stimulus":"\n                    <p><b>Action: <em>harvest</em></b></p>\n                    <p>This is the bee that you just saw.</p>\n                    <img src=\"bees-with-color/bee-B2SF.svg\" width=\"200\">\n                    <p><span class=\"greenText\"><b>Successful harvest!</b></span><br>Your pay has increased by $0.02. Your bonus pay is now $0.28.</p>\n            ","response":0,"trial_type":"html-button-response","trial_index":124,"time_elapsed":365416,"internal_node_id":"0.0-4.0-1.58","subject_id":"5bc5be2572df5f00014479f9","study_id":"6197b3f67c2b5cd3b6d9596a","session_id":"619bef055429129d97aa3d14","condition":"full-information","relevant_dimensions":["antennae","pattern"],"bee_group":{"antennae":"B","wings":"X","pattern":"D","legs":"X"},"bonus":0.2000000000000001},{"rt":1583.3000000715256,"stimulus":"bees-with-color/bee-B1DF.svg","response":0,"trial_type":"image-button-response","trial_index":125,"time_elapsed":367001,"internal_node_id":"0.0-4.0-0.59","subject_id":"5bc5be2572df5f00014479f9","study_id":"6197b3f67c2b5cd3b6d9596a","session_id":"619bef055429129d97aa3d14","condition":"full-information","relevant_dimensions":["antennae","pattern"],"bee_group":{"antennae":"B","wings":"X","pattern":"D","legs":"X"},"action":"harvest","summary":"bad-harvest","bonus":0.2000000000000001},{"rt":1222.7000000476837,"stimulus":"\n                    <p><b>Action: <em>harvest</em></b></p>\n                    <p>This is the bee that you just saw.</p>\n                    <img src=\"bees-with-color/bee-B1DF.svg\" width=\"200\">\n                    <p><span class=\"redText\">Bad choice, the bee was angry.</span><br><b>You have been stung!</b><br>Your pay has been decreased by $0.10. Your bonus pay is now $0.18.</p>\n            ","response":0,"trial_type":"html-button-response","trial_index":126,"time_elapsed":368226,"internal_node_id":"0.0-4.0-1.59","subject_id":"5bc5be2572df5f00014479f9","study_id":"6197b3f67c2b5cd3b6d9596a","session_id":"619bef055429129d97aa3d14","condition":"full-information","relevant_dimensions":["antennae","pattern"],"bee_group":{"antennae":"B","wings":"X","pattern":"D","legs":"X"},"bonus":0.2000000000000001},{"rt":1623.7000000476837,"stimulus":"bees-with-color/bee-B1DM.svg","response":1,"trial_type":"image-button-response","trial_index":127,"time_elapsed":369853,"internal_node_id":"0.0-4.0-0.60","subject_id":"5bc5be2572df5f00014479f9","study_id":"6197b3f67c2b5cd3b6d9596a","session_id":"619bef055429129d97aa3d14","condition":"full-information","relevant_dimensions":["antennae","pattern"],"bee_group":{"antennae":"B","wings":"X","pattern":"D","legs":"X"},"action":"avoid","summary":"good-avoid","bonus":0.2000000000000001},{"rt":1171.8999999761581,"stimulus":"\n                    <p><b>Action: <em>avoid</em></b></p>\n                    <p>This is the bee that you just saw.</p>\n                    <img src=\"bees-with-color/bee-B1DM.svg\" width=\"200\">\n                    <p><span class=\"greenText\">Good choice!</span>  This bee would have stung you.<br>Your bonus pay is unchanged, and remains at $0.18.</p>\n            ","response":0,"trial_type":"html-button-response","trial_index":128,"time_elapsed":371028,"internal_node_id":"0.0-4.0-1.60","subject_id":"5bc5be2572df5f00014479f9","study_id":"6197b3f67c2b5cd3b6d9596a","session_id":"619bef055429129d97aa3d14","condition":"full-information","relevant_dimensions":["antennae","pattern"],"bee_group":{"antennae":"B","wings":"X","pattern":"D","legs":"X"},"bonus":0.2000000000000001},{"rt":1408.1000000238419,"stimulus":"bees-with-color/bee-B1SF.svg","response":1,"trial_type":"image-button-response","trial_index":129,"time_elapsed":372439,"internal_node_id":"0.0-4.0-0.61","subject_id":"5bc5be2572df5f00014479f9","study_id":"6197b3f67c2b5cd3b6d9596a","session_id":"619bef055429129d97aa3d14","condition":"full-information","relevant_dimensions":["antennae","pattern"],"bee_group":{"antennae":"B","wings":"X","pattern":"D","legs":"X"},"action":"avoid","summary":"bad-avoid","bonus":0.2000000000000001},{"rt":1345.6000000238419,"stimulus":"\n                    <p><b>Action: <em>avoid</em></b></p>\n                    <p>This is the bee that you just saw.</p>\n                    <img src=\"bees-with-color/bee-B1SF.svg\" width=\"200\">\n                    <p><span class=\"redText\">Bad choice,</span> the bee was friendly.<br>Your bonus pay is unchanged, and remains at $0.18.</p>\n            ","response":0,"trial_type":"html-button-response","trial_index":130,"time_elapsed":373788,"internal_node_id":"0.0-4.0-1.61","subject_id":"5bc5be2572df5f00014479f9","study_id":"6197b3f67c2b5cd3b6d9596a","session_id":"619bef055429129d97aa3d14","condition":"full-information","relevant_dimensions":["antennae","pattern"],"bee_group":{"antennae":"B","wings":"X","pattern":"D","legs":"X"},"bonus":0.2000000000000001},{"rt":1181.7000000476837,"stimulus":"bees-with-color/bee-A2DM.svg","response":0,"trial_type":"image-button-response","trial_index":131,"time_elapsed":374972,"internal_node_id":"0.0-4.0-0.62","subject_id":"5bc5be2572df5f00014479f9","study_id":"6197b3f67c2b5cd3b6d9596a","session_id":"619bef055429129d97aa3d14","condition":"full-information","relevant_dimensions":["antennae","pattern"],"bee_group":{"antennae":"B","wings":"X","pattern":"D","legs":"X"},"action":"harvest","summary":"good-harvest","bonus":0.2000000000000001},{"rt":1163.6000000238419,"stimulus":"\n                    <p><b>Action: <em>harvest</em></b></p>\n                    <p>This is the bee that you just saw.</p>\n                    <img src=\"bees-with-color/bee-A2DM.svg\" width=\"200\">\n                    <p><span class=\"greenText\"><b>Successful harvest!</b></span><br>Your pay has increased by $0.02. Your bonus pay is now $0.20.</p>\n            ","response":0,"trial_type":"html-button-response","trial_index":132,"time_elapsed":376139,"internal_node_id":"0.0-4.0-1.62","subject_id":"5bc5be2572df5f00014479f9","study_id":"6197b3f67c2b5cd3b6d9596a","session_id":"619bef055429129d97aa3d14","condition":"full-information","relevant_dimensions":["antennae","pattern"],"bee_group":{"antennae":"B","wings":"X","pattern":"D","legs":"X"},"bonus":0.2000000000000001},{"rt":1416.2999999523163,"stimulus":"bees-with-color/bee-A2DF.svg","response":0,"trial_type":"image-button-response","trial_index":133,"time_elapsed":377558,"internal_node_id":"0.0-4.0-0.63","subject_id":"5bc5be2572df5f00014479f9","study_id":"6197b3f67c2b5cd3b6d9596a","session_id":"619bef055429129d97aa3d14","condition":"full-information","relevant_dimensions":["antennae","pattern"],"bee_group":{"antennae":"B","wings":"X","pattern":"D","legs":"X"},"action":"harvest","summary":"good-harvest","bonus":0.2000000000000001},{"rt":1726.2000000476837,"stimulus":"\n                    <p><b>Action: <em>harvest</em></b></p>\n                    <p>This is the bee that you just saw.</p>\n                    <img src=\"bees-with-color/bee-A2DF.svg\" width=\"200\">\n                    <p><span class=\"greenText\"><b>Successful harvest!</b></span><br>Your pay has increased by $0.02. Your bonus pay is now $0.22.</p>\n            ","response":0,"trial_type":"html-button-response","trial_index":134,"time_elapsed":379287,"internal_node_id":"0.0-4.0-1.63","subject_id":"5bc5be2572df5f00014479f9","study_id":"6197b3f67c2b5cd3b6d9596a","session_id":"619bef055429129d97aa3d14","condition":"full-information","relevant_dimensions":["antennae","pattern"],"bee_group":{"antennae":"B","wings":"X","pattern":"D","legs":"X"},"bonus":0.2000000000000001},{"rt":6600.700000047684,"stimulus":"You have completed the first part of this experiment.<br><br>You will now begin a shorter second part, in which you will receive no feedback.<br>The same rules regarding bonus pay apply.<br><br>Press any key to begin.","response":"v","trial_type":"html-keyboard-response","trial_index":135,"time_elapsed":385891,"internal_node_id":"0.0-5.0","subject_id":"5bc5be2572df5f00014479f9","study_id":"6197b3f67c2b5cd3b6d9596a","session_id":"619bef055429129d97aa3d14","condition":"full-information","relevant_dimensions":["antennae","pattern"],"bee_group":{"antennae":"B","wings":"X","pattern":"D","legs":"X"},"bonus":0.2000000000000001},{"rt":4123.899999976158,"stimulus":"bees-with-color/bee-B2DF.svg","response":0,"trial_type":"image-button-response","trial_index":136,"time_elapsed":390038,"internal_node_id":"0.0-6.0-0.0","subject_id":"5bc5be2572df5f00014479f9","study_id":"6197b3f67c2b5cd3b6d9596a","session_id":"619bef055429129d97aa3d14","condition":"full-information","relevant_dimensions":["antennae","pattern"],"bee_group":{"antennae":"B","wings":"X","pattern":"D","legs":"X"},"bonus":0.2000000000000001},{"rt":1895.6000000238419,"stimulus":"bees-with-color/bee-A1SF.svg","response":0,"trial_type":"image-button-response","trial_index":137,"time_elapsed":391938,"internal_node_id":"0.0-6.0-0.1","subject_id":"5bc5be2572df5f00014479f9","study_id":"6197b3f67c2b5cd3b6d9596a","session_id":"619bef055429129d97aa3d14","condition":"full-information","relevant_dimensions":["antennae","pattern"],"bee_group":{"antennae":"B","wings":"X","pattern":"D","legs":"X"},"bonus":0.2000000000000001},{"rt":753.6000000238419,"stimulus":"bees-with-color/bee-A1SM.svg","response":0,"trial_type":"image-button-response","trial_index":138,"time_elapsed":392695,"internal_node_id":"0.0-6.0-0.2","subject_id":"5bc5be2572df5f00014479f9","study_id":"6197b3f67c2b5cd3b6d9596a","session_id":"619bef055429129d97aa3d14","condition":"full-information","relevant_dimensions":["antennae","pattern"],"bee_group":{"antennae":"B","wings":"X","pattern":"D","legs":"X"},"bonus":0.2000000000000001},{"rt":2305.7999999523163,"stimulus":"bees-with-color/bee-B2SM.svg","response":0,"trial_type":"image-button-response","trial_index":139,"time_elapsed":395004,"internal_node_id":"0.0-6.0-0.3","subject_id":"5bc5be2572df5f00014479f9","study_id":"6197b3f67c2b5cd3b6d9596a","session_id":"619bef055429129d97aa3d14","condition":"full-information","relevant_dimensions":["antennae","pattern"],"bee_group":{"antennae":"B","wings":"X","pattern":"D","legs":"X"},"bonus":0.2000000000000001},{"rt":2152.899999976158,"stimulus":"bees-with-color/bee-A1DM.svg","response":0,"trial_type":"image-button-response","trial_index":140,"time_elapsed":397161,"internal_node_id":"0.0-6.0-0.4","subject_id":"5bc5be2572df5f00014479f9","study_id":"6197b3f67c2b5cd3b6d9596a","session_id":"619bef055429129d97aa3d14","condition":"full-information","relevant_dimensions":["antennae","pattern"],"bee_group":{"antennae":"B","wings":"X","pattern":"D","legs":"X"},"bonus":0.2000000000000001},{"rt":1879.3000000715256,"stimulus":"bees-with-color/bee-B2SF.svg","response":1,"trial_type":"image-button-response","trial_index":141,"time_elapsed":399043,"internal_node_id":"0.0-6.0-0.5","subject_id":"5bc5be2572df5f00014479f9","study_id":"6197b3f67c2b5cd3b6d9596a","session_id":"619bef055429129d97aa3d14","condition":"full-information","relevant_dimensions":["antennae","pattern"],"bee_group":{"antennae":"B","wings":"X","pattern":"D","legs":"X"},"bonus":0.2000000000000001},{"rt":1110.6000000238419,"stimulus":"bees-with-color/bee-B1DF.svg","response":1,"trial_type":"image-button-response","trial_index":142,"time_elapsed":400156,"internal_node_id":"0.0-6.0-0.6","subject_id":"5bc5be2572df5f00014479f9","study_id":"6197b3f67c2b5cd3b6d9596a","session_id":"619bef055429129d97aa3d14","condition":"full-information","relevant_dimensions":["antennae","pattern"],"bee_group":{"antennae":"B","wings":"X","pattern":"D","legs":"X"},"bonus":0.2000000000000001},{"rt":1150.7999999523163,"stimulus":"bees-with-color/bee-B1SM.svg","response":1,"trial_type":"image-button-response","trial_index":143,"time_elapsed":401309,"internal_node_id":"0.0-6.0-0.7","subject_id":"5bc5be2572df5f00014479f9","study_id":"6197b3f67c2b5cd3b6d9596a","session_id":"619bef055429129d97aa3d14","condition":"full-information","relevant_dimensions":["antennae","pattern"],"bee_group":{"antennae":"B","wings":"X","pattern":"D","legs":"X"},"bonus":0.2000000000000001},{"rt":1336.3999999761581,"stimulus":"bees-with-color/bee-A2DM.svg","response":0,"trial_type":"image-button-response","trial_index":144,"time_elapsed":402648,"internal_node_id":"0.0-6.0-0.8","subject_id":"5bc5be2572df5f00014479f9","study_id":"6197b3f67c2b5cd3b6d9596a","session_id":"619bef055429129d97aa3d14","condition":"full-information","relevant_dimensions":["antennae","pattern"],"bee_group":{"antennae":"B","wings":"X","pattern":"D","legs":"X"},"bonus":0.2000000000000001},{"rt":1266.7999999523163,"stimulus":"bees-with-color/bee-B1SF.svg","response":0,"trial_type":"image-button-response","trial_index":145,"time_elapsed":403918,"internal_node_id":"0.0-6.0-0.9","subject_id":"5bc5be2572df5f00014479f9","study_id":"6197b3f67c2b5cd3b6d9596a","session_id":"619bef055429129d97aa3d14","condition":"full-information","relevant_dimensions":["antennae","pattern"],"bee_group":{"antennae":"B","wings":"X","pattern":"D","legs":"X"},"bonus":0.2000000000000001},{"rt":1385.7999999523163,"stimulus":"bees-with-color/bee-A1DF.svg","response":1,"trial_type":"image-button-response","trial_index":146,"time_elapsed":405306,"internal_node_id":"0.0-6.0-0.10","subject_id":"5bc5be2572df5f00014479f9","study_id":"6197b3f67c2b5cd3b6d9596a","session_id":"619bef055429129d97aa3d14","condition":"full-information","relevant_dimensions":["antennae","pattern"],"bee_group":{"antennae":"B","wings":"X","pattern":"D","legs":"X"},"bonus":0.2000000000000001},{"rt":2256.399999976158,"stimulus":"bees-with-color/bee-A2SF.svg","response":0,"trial_type":"image-button-response","trial_index":147,"time_elapsed":407565,"internal_node_id":"0.0-6.0-0.11","subject_id":"5bc5be2572df5f00014479f9","study_id":"6197b3f67c2b5cd3b6d9596a","session_id":"619bef055429129d97aa3d14","condition":"full-information","relevant_dimensions":["antennae","pattern"],"bee_group":{"antennae":"B","wings":"X","pattern":"D","legs":"X"},"bonus":0.2000000000000001},{"rt":1090.5,"stimulus":"bees-with-color/bee-A2DF.svg","response":0,"trial_type":"image-button-response","trial_index":148,"time_elapsed":408658,"internal_node_id":"0.0-6.0-0.12","subject_id":"5bc5be2572df5f00014479f9","study_id":"6197b3f67c2b5cd3b6d9596a","session_id":"619bef055429129d97aa3d14","condition":"full-information","relevant_dimensions":["antennae","pattern"],"bee_group":{"antennae":"B","wings":"X","pattern":"D","legs":"X"},"bonus":0.2000000000000001},{"rt":917.5,"stimulus":"bees-with-color/bee-A2SM.svg","response":0,"trial_type":"image-button-response","trial_index":149,"time_elapsed":409577,"internal_node_id":"0.0-6.0-0.13","subject_id":"5bc5be2572df5f00014479f9","study_id":"6197b3f67c2b5cd3b6d9596a","session_id":"619bef055429129d97aa3d14","condition":"full-information","relevant_dimensions":["antennae","pattern"],"bee_group":{"antennae":"B","wings":"X","pattern":"D","legs":"X"},"bonus":0.2000000000000001},{"rt":2665.3000000715256,"stimulus":"bees-with-color/bee-B2DM.svg","response":0,"trial_type":"image-button-response","trial_index":150,"time_elapsed":412245,"internal_node_id":"0.0-6.0-0.14","subject_id":"5bc5be2572df5f00014479f9","study_id":"6197b3f67c2b5cd3b6d9596a","session_id":"619bef055429129d97aa3d14","condition":"full-information","relevant_dimensions":["antennae","pattern"],"bee_group":{"antennae":"B","wings":"X","pattern":"D","legs":"X"},"bonus":0.2000000000000001},{"rt":1377.2000000476837,"stimulus":"bees-with-color/bee-B1DM.svg","response":1,"trial_type":"image-button-response","trial_index":151,"time_elapsed":413625,"internal_node_id":"0.0-6.0-0.15","subject_id":"5bc5be2572df5f00014479f9","study_id":"6197b3f67c2b5cd3b6d9596a","session_id":"619bef055429129d97aa3d14","condition":"full-information","relevant_dimensions":["antennae","pattern"],"bee_group":{"antennae":"B","wings":"X","pattern":"D","legs":"X"},"bonus":0.2000000000000001},{"rt":999.2000000476837,"stimulus":"bees-with-color/bee-B1SF.svg","response":1,"trial_type":"image-button-response","trial_index":152,"time_elapsed":414626,"internal_node_id":"0.0-6.0-0.16","subject_id":"5bc5be2572df5f00014479f9","study_id":"6197b3f67c2b5cd3b6d9596a","session_id":"619bef055429129d97aa3d14","condition":"full-information","relevant_dimensions":["antennae","pattern"],"bee_group":{"antennae":"B","wings":"X","pattern":"D","legs":"X"},"bonus":0.2000000000000001},{"rt":1406.0999999046326,"stimulus":"bees-with-color/bee-B2DM.svg","response":0,"trial_type":"image-button-response","trial_index":153,"time_elapsed":416035,"internal_node_id":"0.0-6.0-0.17","subject_id":"5bc5be2572df5f00014479f9","study_id":"6197b3f67c2b5cd3b6d9596a","session_id":"619bef055429129d97aa3d14","condition":"full-information","relevant_dimensions":["antennae","pattern"],"bee_group":{"antennae":"B","wings":"X","pattern":"D","legs":"X"},"bonus":0.2000000000000001},{"rt":1407.8999999761581,"stimulus":"bees-with-color/bee-B1DM.svg","response":1,"trial_type":"image-button-response","trial_index":154,"time_elapsed":417447,"internal_node_id":"0.0-6.0-0.18","subject_id":"5bc5be2572df5f00014479f9","study_id":"6197b3f67c2b5cd3b6d9596a","session_id":"619bef055429129d97aa3d14","condition":"full-information","relevant_dimensions":["antennae","pattern"],"bee_group":{"antennae":"B","wings":"X","pattern":"D","legs":"X"},"bonus":0.2000000000000001},{"rt":1693.4000000953674,"stimulus":"bees-with-color/bee-A1SF.svg","response":0,"trial_type":"image-button-response","trial_index":155,"time_elapsed":419143,"internal_node_id":"0.0-6.0-0.19","subject_id":"5bc5be2572df5f00014479f9","study_id":"6197b3f67c2b5cd3b6d9596a","session_id":"619bef055429129d97aa3d14","condition":"full-information","relevant_dimensions":["antennae","pattern"],"bee_group":{"antennae":"B","wings":"X","pattern":"D","legs"