[{"success":true,"trial_type":"fullscreen","trial_index":0,"time_elapsed":4198,"internal_node_id":"0.0-0.0","subject_id":"6122c5682f4d660d61f6532f","study_id":"6197b3f67c2b5cd3b6d9596a","session_id":"6197b9ee1b1ec4569f21f7d4","condition":"full-information","relevant_dimensions":["wings","pattern"],"bee_group":{"antennae":"X","wings":"1","pattern":"D","legs":"X"},"bonus":1.4800000000000009},{"success":true,"timeout":false,"failed_images":[],"failed_audio":[],"failed_video":[],"trial_type":"preload","trial_index":1,"time_elapsed":6216,"internal_node_id":"0.0-1.0","subject_id":"6122c5682f4d660d61f6532f","study_id":"6197b3f67c2b5cd3b6d9596a","session_id":"6197b9ee1b1ec4569f21f7d4","condition":"full-information","relevant_dimensions":["wings","pattern"],"bee_group":{"antennae":"X","wings":"1","pattern":"D","legs":"X"},"bonus":1.4800000000000009},{"rt":1602.5,"stimulus":"Welcome! Press any key to begin.","response":"s","trial_type":"html-keyboard-response","trial_index":2,"time_elapsed":7819,"internal_node_id":"0.0-2.0","subject_id":"6122c5682f4d660d61f6532f","study_id":"6197b3f67c2b5cd3b6d9596a","session_id":"6197b9ee1b1ec4569f21f7d4","condition":"full-information","relevant_dimensions":["wings","pattern"],"bee_group":{"antennae":"X","wings":"1","pattern":"D","legs":"X"},"bonus":1.4800000000000009},{"view_history":[{"page_index":0,"viewing_time":2796},{"page_index":1,"viewing_time":9808.800000011921},{"page_index":2,"viewing_time":10482},{"page_index":3,"viewing_time":15995.899999976158},{"page_index":4,"viewing_time":4519.9000000059605},{"page_index":5,"viewing_time":10317.90000000596},{"page_index":6,"viewing_time":4143.0999999940395},{"page_index":7,"viewing_time":5209.0999999940395},{"page_index":8,"viewing_time":3416.100000023842},{"page_index":9,"viewing_time":2501.7999999821186},{"page_index":10,"viewing_time":2048},{"page_index":11,"viewing_time":6125.800000011921},{"page_index":12,"viewing_time":5532.299999982119},{"page_index":13,"viewing_time":1386.1000000238419},{"page_index":14,"viewing_time":1486.7999999821186}],"rt":85769.90000000596,"trial_type":"instructions","trial_index":3,"time_elapsed":93591,"internal_node_id":"0.0-3.0-0.0","subject_id":"6122c5682f4d660d61f6532f","study_id":"6197b3f67c2b5cd3b6d9596a","session_id":"6197b9ee1b1ec4569f21f7d4","condition":"full-information","relevant_dimensions":["wings","pattern"],"bee_group":{"antennae":"X","wings":"1","pattern":"D","legs":"X"},"bonus":1.4800000000000009},{"rt":16036.90000000596,"response":{"Q0":["Two or six legs","Stripes or spots on body","Single or double wings","Antennae or no antennae"]},"question_order":[0],"trial_type":"survey-multi-select","trial_index":4,"time_elapsed":109631,"internal_node_id":"0.0-3.0-1.0","subject_id":"6122c5682f4d660d61f6532f","study_id":"6197b3f67c2b5cd3b6d9596a","session_id":"6197b9ee1b1ec4569f21f7d4","condition":"full-information","relevant_dimensions":["wings","pattern"],"bee_group":{"antennae":"X","wings":"1","pattern":"D","legs":"X"},"correct":true,"bonus":1.4800000000000009},{"rt":17982.09999999404,"response":{"Q1":"No.","Q2":"Based on the four features of the bee.","Q3":"You learn if it was friendly or dangerous, but do not alter your bonus."},"question_order":[0,1,2],"trial_type":"survey-multi-choice","trial_index":5,"time_elapsed":127618,"internal_node_id":"0.0-3.0-2.0","subject_id":"6122c5682f4d660d61f6532f","study_id":"6197b3f67c2b5cd3b6d9596a","session_id":"6197b9ee1b1ec4569f21f7d4","condition":"full-information","relevant_dimensions":["wings","pattern"],"bee_group":{"antennae":"X","wings":"1","pattern":"D","legs":"X"},"correct":true,"bonus":1.4800000000000009},{"rt":1244,"stimulus":"<p>Congrats, you got everything right<br>When you're ready, click the button below to continue to the experiment.</p>","response":0,"trial_type":"html-button-response","trial_index":6,"time_elapsed":128867,"internal_node_id":"0.0-3.0-3.0","subject_id":"6122c5682f4d660d61f6532f","study_id":"6197b3f67c2b5cd3b6d9596a","session_id":"6197b9ee1b1ec4569f21f7d4","condition":"full-information","relevant_dimensions":["wings","pattern"],"bee_group":{"antennae":"X","wings":"1","pattern":"D","legs":"X"},"bonus":1.4800000000000009},{"rt":3053.600000023842,"stimulus":"bees-with-color/bee-A2SM.svg","response":0,"trial_type":"image-button-response","trial_index":7,"time_elapsed":131923,"internal_node_id":"0.0-4.0-0.0","subject_id":"6122c5682f4d660d61f6532f","study_id":"6197b3f67c2b5cd3b6d9596a","session_id":"6197b9ee1b1ec4569f21f7d4","condition":"full-information","relevant_dimensions":["wings","pattern"],"bee_group":{"antennae":"X","wings":"1","pattern":"D","legs":"X"},"action":"harvest","summary":"good-harvest","bonus":1.4800000000000009},{"rt":7320.799999982119,"stimulus":"\n                    <p><b>Action: <em>harvest</em></b></p>\n                    <p>This is the bee that you just saw.</p>\n                    <img src=\"bees-with-color/bee-A2SM.svg\" width=\"200\">\n                    <p><span class=\"greenText\"><b>Successful harvest!</b></span><br>Your pay has increased by $0.02. Your bonus pay is now $0.56.</p>\n            ","response":0,"trial_type":"html-button-response","trial_index":8,"time_elapsed":139246,"internal_node_id":"0.0-4.0-1.0","subject_id":"6122c5682f4d660d61f6532f","study_id":"6197b3f67c2b5cd3b6d9596a","session_id":"6197b9ee1b1ec4569f21f7d4","condition":"full-information","relevant_dimensions":["wings","pattern"],"bee_group":{"antennae":"X","wings":"1","pattern":"D","legs":"X"},"bonus":1.4800000000000009},{"rt":5175.800000011921,"stimulus":"bees-with-color/bee-B1SM.svg","response":1,"trial_type":"image-button-response","trial_index":9,"time_elapsed":144424,"internal_node_id":"0.0-4.0-0.1","subject_id":"6122c5682f4d660d61f6532f","study_id":"6197b3f67c2b5cd3b6d9596a","session_id":"6197b9ee1b1ec4569f21f7d4","condition":"full-information","relevant_dimensions":["wings","pattern"],"bee_group":{"antennae":"X","wings":"1","pattern":"D","legs":"X"},"action":"avoid","summary":"bad-avoid","bonus":1.4800000000000009},{"rt":4504.200000017881,"stimulus":"\n                    <p><b>Action: <em>avoid</em></b></p>\n                    <p>This is the bee that you just saw.</p>\n                    <img src=\"bees-with-color/bee-B1SM.svg\" width=\"200\">\n                    <p><span class=\"redText\">Bad choice,</span> the bee was friendly.<br>Your bonus pay is unchanged, and remains at $0.56.</p>\n            ","response":0,"trial_type":"html-button-response","trial_index":10,"time_elapsed":148929,"internal_node_id":"0.0-4.0-1.1","subject_id":"6122c5682f4d660d61f6532f","study_id":"6197b3f67c2b5cd3b6d9596a","session_id":"6197b9ee1b1ec4569f21f7d4","condition":"full-information","relevant_dimensions":["wings","pattern"],"bee_group":{"antennae":"X","wings":"1","pattern":"D","legs":"X"},"bonus":1.4800000000000009},{"rt":2408.0999999940395,"stimulus":"bees-with-color/bee-A1SF.svg","response":1,"trial_type":"image-button-response","trial_index":11,"time_elapsed":151339,"internal_node_id":"0.0-4.0-0.2","subject_id":"6122c5682f4d660d61f6532f","study_id":"6197b3f67c2b5cd3b6d9596a","session_id":"6197b9ee1b1ec4569f21f7d4","condition":"full-information","relevant_dimensions":["wings","pattern"],"bee_group":{"antennae":"X","wings":"1","pattern":"D","legs":"X"},"action":"avoid","summary":"bad-avoid","bonus":1.4800000000000009},{"rt":1775.5999999940395,"stimulus":"\n                    <p><b>Action: <em>avoid</em></b></p>\n                    <p>This is the bee that you just saw.</p>\n                    <img src=\"bees-with-color/bee-A1SF.svg\" width=\"200\">\n                    <p><span class=\"redText\">Bad choice,</span> the bee was friendly.<br>Your bonus pay is unchanged, and remains at $0.56.</p>\n            ","response":0,"trial_type":"html-button-response","trial_index":12,"time_elapsed":153117,"internal_node_id":"0.0-4.0-1.2","subject_id":"6122c5682f4d660d61f6532f","study_id":"6197b3f67c2b5cd3b6d9596a","session_id":"6197b9ee1b1ec4569f21f7d4","condition":"full-information","relevant_dimensions":["wings","pattern"],"bee_group":{"antennae":"X","wings":"1","pattern":"D","legs":"X"},"bonus":1.4800000000000009},{"rt":1613.5,"stimulus":"bees-with-color/bee-B1DM.svg","response":1,"trial_type":"image-button-response","trial_index":13,"time_elapsed":154732,"internal_node_id":"0.0-4.0-0.3","subject_id":"6122c5682f4d660d61f6532f","study_id":"6197b3f67c2b5cd3b6d9596a","session_id":"6197b9ee1b1ec4569f21f7d4","condition":"full-information","relevant_dimensions":["wings","pattern"],"bee_group":{"antennae":"X","wings":"1","pattern":"D","legs":"X"},"action":"avoid","summary":"good-avoid","bonus":1.4800000000000009},{"rt":3702.5,"stimulus":"\n                    <p><b>Action: <em>avoid</em></b></p>\n                    <p>This is the bee that you just saw.</p>\n                    <img src=\"bees-with-color/bee-B1DM.svg\" width=\"200\">\n                    <p><span class=\"greenText\">Good choice!</span>  This bee would have stung you.<br>Your bonus pay is unchanged, and remains at $0.56.</p>\n            ","response":0,"trial_type":"html-button-response","trial_index":14,"time_elapsed":158436,"internal_node_id":"0.0-4.0-1.3","subject_id":"6122c5682f4d660d61f6532f","study_id":"6197b3f67c2b5cd3b6d9596a","session_id":"6197b9ee1b1ec4569f21f7d4","condition":"full-information","relevant_dimensions":["wings","pattern"],"bee_group":{"antennae":"X","wings":"1","pattern":"D","legs":"X"},"bonus":1.4800000000000009},{"rt":1111,"stimulus":"bees-with-color/bee-A2SF.svg","response":0,"trial_type":"image-button-response","trial_index":15,"time_elapsed":159549,"internal_node_id":"0.0-4.0-0.4","subject_id":"6122c5682f4d660d61f6532f","study_id":"6197b3f67c2b5cd3b6d9596a","session_id":"6197b9ee1b1ec4569f21f7d4","condition":"full-information","relevant_dimensions":["wings","pattern"],"bee_group":{"antennae":"X","wings":"1","pattern":"D","legs":"X"},"action":"harvest","summary":"good-harvest","bonus":1.4800000000000009},{"rt":4337.0999999940395,"stimulus":"\n                    <p><b>Action: <em>harvest</em></b></p>\n                    <p>This is the bee that you just saw.</p>\n                    <img src=\"bees-with-color/bee-A2SF.svg\" width=\"200\">\n                    <p><span class=\"greenText\"><b>Successful harvest!</b></span><br>Your pay has increased by $0.02. Your bonus pay is now $0.58.</p>\n            ","response":0,"trial_type":"html-button-response","trial_index":16,"time_elapsed":163888,"internal_node_id":"0.0-4.0-1.4","subject_id":"6122c5682f4d660d61f6532f","study_id":"6197b3f67c2b5cd3b6d9596a","session_id":"6197b9ee1b1ec4569f21f7d4","condition":"full-information","relevant_dimensions":["wings","pattern"],"bee_group":{"antennae":"X","wings":"1","pattern":"D","legs":"X"},"bonus":1.4800000000000009},{"rt":1019.8999999761581,"stimulus":"bees-with-color/bee-A1SM.svg","response":0,"trial_type":"image-button-response","trial_index":17,"time_elapsed":164909,"internal_node_id":"0.0-4.0-0.5","subject_id":"6122c5682f4d660d61f6532f","study_id":"6197b3f67c2b5cd3b6d9596a","session_id":"6197b9ee1b1ec4569f21f7d4","condition":"full-information","relevant_dimensions":["wings","pattern"],"bee_group":{"antennae":"X","wings":"1","pattern":"D","legs":"X"},"action":"harvest","summary":"good-harvest","bonus":1.4800000000000009},{"rt":1860.7000000178814,"stimulus":"\n                    <p><b>Action: <em>harvest</em></b></p>\n                    <p>This is the bee that you just saw.</p>\n                    <img src=\"bees-with-color/bee-A1SM.svg\" width=\"200\">\n                    <p><span class=\"greenText\"><b>Successful harvest!</b></span><br>Your pay has increased by $0.02. Your bonus pay is now $0.60.</p>\n            ","response":0,"trial_type":"html-button-response","trial_index":18,"time_elapsed":166772,"internal_node_id":"0.0-4.0-1.5","subject_id":"6122c5682f4d660d61f6532f","study_id":"6197b3f67c2b5cd3b6d9596a","session_id":"6197b9ee1b1ec4569f21f7d4","condition":"full-information","relevant_dimensions":["wings","pattern"],"bee_group":{"antennae":"X","wings":"1","pattern":"D","legs":"X"},"bonus":1.4800000000000009},{"rt":1082.300000011921,"stimulus":"bees-with-color/bee-A2DM.svg","response":1,"trial_type":"image-button-response","trial_index":19,"time_elapsed":167856,"internal_node_id":"0.0-4.0-0.6","subject_id":"6122c5682f4d660d61f6532f","study_id":"6197b3f67c2b5cd3b6d9596a","session_id":"6197b9ee1b1ec4569f21f7d4","condition":"full-information","relevant_dimensions":["wings","pattern"],"bee_group":{"antennae":"X","wings":"1","pattern":"D","legs":"X"},"action":"avoid","summary":"bad-avoid","bonus":1.4800000000000009},{"rt":4742.0999999940395,"stimulus":"\n                    <p><b>Action: <em>avoid</em></b></p>\n                    <p>This is the bee that you just saw.</p>\n                    <img src=\"bees-with-color/bee-A2DM.svg\" width=\"200\">\n                    <p><span class=\"redText\">Bad choice,</span> the bee was friendly.<br>Your bonus pay is unchanged, and remains at $0.60.</p>\n            ","response":0,"trial_type":"html-button-response","trial_index":20,"time_elapsed":172599,"internal_node_id":"0.0-4.0-1.6","subject_id":"6122c5682f4d660d61f6532f","study_id":"6197b3f67c2b5cd3b6d9596a","session_id":"6197b9ee1b1ec4569f21f7d4","condition":"full-information","relevant_dimensions":["wings","pattern"],"bee_group":{"antennae":"X","wings":"1","pattern":"D","legs":"X"},"bonus":1.4800000000000009},{"rt":1802.3999999761581,"stimulus":"bees-with-color/bee-A1DM.svg","response":1,"trial_type":"image-button-response","trial_index":21,"time_elapsed":174403,"internal_node_id":"0.0-4.0-0.7","subject_id":"6122c5682f4d660d61f6532f","study_id":"6197b3f67c2b5cd3b6d9596a","session_id":"6197b9ee1b1ec4569f21f7d4","condition":"full-information","relevant_dimensions":["wings","pattern"],"bee_group":{"antennae":"X","wings":"1","pattern":"D","legs":"X"},"action":"avoid","summary":"good-avoid","bonus":1.4800000000000009},{"rt":3492.800000011921,"stimulus":"\n                    <p><b>Action: <em>avoid</em></b></p>\n                    <p>This is the bee that you just saw.</p>\n                    <img src=\"bees-with-color/bee-A1DM.svg\" width=\"200\">\n                    <p><span class=\"greenText\">Good choice!</span>  This bee would have stung you.<br>Your bonus pay is unchanged, and remains at $0.60.</p>\n            ","response":0,"trial_type":"html-button-response","trial_index":22,"time_elapsed":177898,"internal_node_id":"0.0-4.0-1.7","subject_id":"6122c5682f4d660d61f6532f","study_id":"6197b3f67c2b5cd3b6d9596a","session_id":"6197b9ee1b1ec4569f21f7d4","condition":"full-information","relevant_dimensions":["wings","pattern"],"bee_group":{"antennae":"X","wings":"1","pattern":"D","legs":"X"},"bonus":1.4800000000000009},{"rt":1182.7000000178814,"stimulus":"bees-with-color/bee-B2DF.svg","response":0,"trial_type":"image-button-response","trial_index":23,"time_elapsed":179083,"internal_node_id":"0.0-4.0-0.8","subject_id":"6122c5682f4d660d61f6532f","study_id":"6197b3f67c2b5cd3b6d9596a","session_id":"6197b9ee1b1ec4569f21f7d4","condition":"full-information","relevant_dimensions":["wings","pattern"],"bee_group":{"antennae":"X","wings":"1","pattern":"D","legs":"X"},"action":"harvest","summary":"good-harvest","bonus":1.4800000000000009},{"rt":1956.300000011921,"stimulus":"\n                    <p><b>Action: <em>harvest</em></b></p>\n                    <p>This is the bee that you just saw.</p>\n                    <img src=\"bees-with-color/bee-B2DF.svg\" width=\"200\">\n                    <p><span class=\"greenText\"><b>Successful harvest!</b></span><br>Your pay has increased by $0.02. Your bonus pay is now $0.62.</p>\n            ","response":0,"trial_type":"html-button-response","trial_index":24,"time_elapsed":181040,"internal_node_id":"0.0-4.0-1.8","subject_id":"6122c5682f4d660d61f6532f","study_id":"6197b3f67c2b5cd3b6d9596a","session_id":"6197b9ee1b1ec4569f21f7d4","condition":"full-information","relevant_dimensions":["wings","pattern"],"bee_group":{"antennae":"X","wings":"1","pattern":"D","legs":"X"},"bonus":1.4800000000000009},{"rt":962.4000000059605,"stimulus":"bees-with-color/bee-B1DF.svg","response":1,"trial_type":"image-button-response","trial_index":25,"time_elapsed":182004,"internal_node_id":"0.0-4.0-0.9","subject_id":"6122c5682f4d660d61f6532f","study_id":"6197b3f67c2b5cd3b6d9596a","session_id":"6197b9ee1b1ec4569f21f7d4","condition":"full-information","relevant_dimensions":["wings","pattern"],"bee_group":{"antennae":"X","wings":"1","pattern":"D","legs":"X"},"action":"avoid","summary":"good-avoid","bonus":1.4800000000000009},{"rt":1466.300000011921,"stimulus":"\n                    <p><b>Action: <em>avoid</em></b></p>\n                    <p>This is the bee that you just saw.</p>\n                    <img src=\"bees-with-color/bee-B1DF.svg\" width=\"200\">\n                    <p><span class=\"greenText\">Good choice!</span>  This bee would have stung you.<br>Your bonus pay is unchanged, and remains at $0.62.</p>\n            ","response":0,"trial_type":"html-button-response","trial_index":26,"time_elapsed":183473,"internal_node_id":"0.0-4.0-1.9","subject_id":"6122c5682f4d660d61f6532f","study_id":"6197b3f67c2b5cd3b6d9596a","session_id":"6197b9ee1b1ec4569f21f7d4","condition":"full-information","relevant_dimensions":["wings","pattern"],"bee_group":{"antennae":"X","wings":"1","pattern":"D","legs":"X"},"bonus":1.4800000000000009},{"rt":959.5999999940395,"stimulus":"bees-with-color/bee-B2SM.svg","response":0,"trial_type":"image-button-response","trial_index":27,"time_elapsed":184433,"internal_node_id":"0.0-4.0-0.10","subject_id":"6122c5682f4d660d61f6532f","study_id":"6197b3f67c2b5cd3b6d9596a","session_id":"6197b9ee1b1ec4569f21f7d4","condition":"full-information","relevant_dimensions":["wings","pattern"],"bee_group":{"antennae":"X","wings":"1","pattern":"D","legs":"X"},"action":"harvest","summary":"good-harvest","bonus":1.4800000000000009},{"rt":1699.5,"stimulus":"\n                    <p><b>Action: <em>harvest</em></b></p>\n                    <p>This is the bee that you just saw.</p>\n                    <img src=\"bees-with-color/bee-B2SM.svg\" width=\"200\">\n                    <p><span class=\"greenText\"><b>Successful harvest!</b></span><br>Your pay has increased by $0.02. Your bonus pay is now $0.64.</p>\n            ","response":0,"trial_type":"html-button-response","trial_index":28,"time_elapsed":186134,"internal_node_id":"0.0-4.0-1.10","subject_id":"6122c5682f4d660d61f6532f","study_id":"6197b3f67c2b5cd3b6d9596a","session_id":"6197b9ee1b1ec4569f21f7d4","condition":"full-information","relevant_dimensions":["wings","pattern"],"bee_group":{"antennae":"X","wings":"1","pattern":"D","legs":"X"},"bonus":1.4800000000000009},{"rt":876.9000000059605,"stimulus":"bees-with-color/bee-B2SF.svg","response":0,"trial_type":"image-button-response","trial_index":29,"time_elapsed":187012,"internal_node_id":"0.0-4.0-0.11","subject_id":"6122c5682f4d660d61f6532f","study_id":"6197b3f67c2b5cd3b6d9596a","session_id":"6197b9ee1b1ec4569f21f7d4","condition":"full-information","relevant_dimensions":["wings","pattern"],"bee_group":{"antennae":"X","wings":"1","pattern":"D","legs":"X"},"action":"harvest","summary":"good-harvest","bonus":1.4800000000000009},{"rt":1005.9000000059605,"stimulus":"\n                    <p><b>Action: <em>harvest</em></b></p>\n                    <p>This is the bee that you just saw.</p>\n                    <img src=\"bees-with-color/bee-B2SF.svg\" width=\"200\">\n                    <p><span class=\"greenText\"><b>Successful harvest!</b></span><br>Your pay has increased by $0.02. Your bonus pay is now $0.66.</p>\n            ","response":0,"trial_type":"html-button-response","trial_index":30,"time_elapsed":188019,"internal_node_id":"0.0-4.0-1.11","subject_id":"6122c5682f4d660d61f6532f","study_id":"6197b3f67c2b5cd3b6d9596a","session_id":"6197b9ee1b1ec4569f21f7d4","condition":"full-information","relevant_dimensions":["wings","pattern"],"bee_group":{"antennae":"X","wings":"1","pattern":"D","legs":"X"},"bonus":1.4800000000000009},{"rt":2286.9000000059605,"stimulus":"bees-with-color/bee-B1SF.svg","response":1,"trial_type":"image-button-response","trial_index":31,"time_elapsed":190307,"internal_node_id":"0.0-4.0-0.12","subject_id":"6122c5682f4d660d61f6532f","study_id":"6197b3f67c2b5cd3b6d9596a","session_id":"6197b9ee1b1ec4569f21f7d4","condition":"full-information","relevant_dimensions":["wings","pattern"],"bee_group":{"antennae":"X","wings":"1","pattern":"D","legs":"X"},"action":"avoid","summary":"bad-avoid","bonus":1.4800000000000009},{"rt":792.7000000178814,"stimulus":"\n                    <p><b>Action: <em>avoid</em></b></p>\n                    <p>This is the bee that you just saw.</p>\n                    <img src=\"bees-with-color/bee-B1SF.svg\" width=\"200\">\n                    <p><span class=\"redText\">Bad choice,</span> the bee was friendly.<br>Your bonus pay is unchanged, and remains at $0.66.</p>\n            ","response":0,"trial_type":"html-button-response","trial_index":32,"time_elapsed":191101,"internal_node_id":"0.0-4.0-1.12","subject_id":"6122c5682f4d660d61f6532f","study_id":"6197b3f67c2b5cd3b6d9596a","session_id":"6197b9ee1b1ec4569f21f7d4","condition":"full-information","relevant_dimensions":["wings","pattern"],"bee_group":{"antennae":"X","wings":"1","pattern":"D","legs":"X"},"bonus":1.4800000000000009},{"rt":1145.9000000059605,"stimulus":"bees-with-color/bee-A1DF.svg","response":1,"trial_type":"image-button-response","trial_index":33,"time_elapsed":192248,"internal_node_id":"0.0-4.0-0.13","subject_id":"6122c5682f4d660d61f6532f","study_id":"6197b3f67c2b5cd3b6d9596a","session_id":"6197b9ee1b1ec4569f21f7d4","condition":"full-information","relevant_dimensions":["wings","pattern"],"bee_group":{"antennae":"X","wings":"1","pattern":"D","legs":"X"},"action":"avoid","summary":"good-avoid","bonus":1.4800000000000009},{"rt":642.8000000119209,"stimulus":"\n                    <p><b>Action: <em>avoid</em></b></p>\n                    <p>This is the bee that you just saw.</p>\n                    <img src=\"bees-with-color/bee-A1DF.svg\" width=\"200\">\n                    <p><span class=\"greenText\">Good choice!</span>  This bee would have stung you.<br>Your bonus pay is unchanged, and remains at $0.66.</p>\n            ","response":0,"trial_type":"html-button-response","trial_index":34,"time_elapsed":192892,"internal_node_id":"0.0-4.0-1.13","subject_id":"6122c5682f4d660d61f6532f","study_id":"6197b3f67c2b5cd3b6d9596a","session_id":"6197b9ee1b1ec4569f21f7d4","condition":"full-information","relevant_dimensions":["wings","pattern"],"bee_group":{"antennae":"X","wings":"1","pattern":"D","legs":"X"},"bonus":1.4800000000000009},{"rt":1602,"stimulus":"bees-with-color/bee-B2DM.svg","response":0,"trial_type":"image-button-response","trial_index":35,"time_elapsed":194495,"internal_node_id":"0.0-4.0-0.14","subject_id":"6122c5682f4d660d61f6532f","study_id":"6197b3f67c2b5cd3b6d9596a","session_id":"6197b9ee1b1ec4569f21f7d4","condition":"full-information","relevant_dimensions":["wings","pattern"],"bee_group":{"antennae":"X","wings":"1","pattern":"D","legs":"X"},"action":"harvest","summary":"good-harvest","bonus":1.4800000000000009},{"rt":861.8000000119209,"stimulus":"\n                    <p><b>Action: <em>harvest</em></b></p>\n                    <p>This is the bee that you just saw.</p>\n                    <img src=\"bees-with-color/bee-B2DM.svg\" width=\"200\">\n                    <p><span class=\"greenText\"><b>Successful harvest!</b></span><br>Your pay has increased by $0.02. Your bonus pay is now $0.68.</p>\n            ","response":0,"trial_type":"html-button-response","trial_index":36,"time_elapsed":195358,"internal_node_id":"0.0-4.0-1.14","subject_id":"6122c5682f4d660d61f6532f","study_id":"6197b3f67c2b5cd3b6d9596a","session_id":"6197b9ee1b1ec4569f21f7d4","condition":"full-information","relevant_dimensions":["wings","pattern"],"bee_group":{"antennae":"X","wings":"1","pattern":"D","legs":"X"},"bonus":1.4800000000000009},{"rt":1467.6000000238419,"stimulus":"bees-with-color/bee-A2DF.svg","response":0,"trial_type":"image-button-response","trial_index":37,"time_elapsed":196827,"internal_node_id":"0.0-4.0-0.15","subject_id":"6122c5682f4d660d61f6532f","study_id":"6197b3f67c2b5cd3b6d9596a","session_id":"6197b9ee1b1ec4569f21f7d4","condition":"full-information","relevant_dimensions":["wings","pattern"],"bee_group":{"antennae":"X","wings":"1","pattern":"D","legs":"X"},"action":"harvest","summary":"good-harvest","bonus":1.4800000000000009},{"rt":876.8000000119209,"stimulus":"\n                    <p><b>Action: <em>harvest</em></b></p>\n                    <p>This is the bee that you just saw.</p>\n                    <img src=\"bees-with-color/bee-A2DF.svg\" width=\"200\">\n                    <p><span class=\"greenText\"><b>Successful harvest!</b></span><br>Your pay has increased by $0.02. Your bonus pay is now $0.70.</p>\n            ","response":0,"trial_type":"html-button-response","trial_index":38,"time_elapsed":197705,"internal_node_id":"0.0-4.0-1.15","subject_id":"6122c5682f4d660d61f6532f","study_id":"6197b3f67c2b5cd3b6d9596a","session_id":"6197b9ee1b1ec4569f21f7d4","condition":"full-information","relevant_dimensions":["wings","pattern"],"bee_group":{"antennae":"X","wings":"1","pattern":"D","legs":"X"},"bonus":1.4800000000000009},{"rt":1462.9000000059605,"stimulus":"bees-with-color/bee-B2SF.svg","response":0,"trial_type":"image-button-response","trial_index":39,"time_elapsed":199169,"internal_node_id":"0.0-4.0-0.16","subject_id":"6122c5682f4d660d61f6532f","study_id":"6197b3f67c2b5cd3b6d9596a","session_id":"6197b9ee1b1ec4569f21f7d4","condition":"full-information","relevant_dimensions":["wings","pattern"],"bee_group":{"antennae":"X","wings":"1","pattern":"D","legs":"X"},"action":"harvest","summary":"good-harvest","bonus":1.4800000000000009},{"rt":738.6000000238419,"stimulus":"\n                    <p><b>Action: <em>harvest</em></b></p>\n                    <p>This is the bee that you just saw.</p>\n                    <img src=\"bees-with-color/bee-B2SF.svg\" width=\"200\">\n                    <p><span class=\"greenText\"><b>Successful harvest!</b></span><br>Your pay has increased by $0.02. Your bonus pay is now $0.72.</p>\n            ","response":0,"trial_type":"html-button-response","trial_index":40,"time_elapsed":199909,"internal_node_id":"0.0-4.0-1.16","subject_id":"6122c5682f4d660d61f6532f","study_id":"6197b3f67c2b5cd3b6d9596a","session_id":"6197b9ee1b1ec4569f21f7d4","condition":"full-information","relevant_dimensions":["wings","pattern"],"bee_group":{"antennae":"X","wings":"1","pattern":"D","legs":"X"},"bonus":1.4800000000000009},{"rt":1704.699999988079,"stimulus":"bees-with-color/bee-B2SM.svg","response":0,"trial_type":"image-button-response","trial_index":41,"time_elapsed":201615,"internal_node_id":"0.0-4.0-0.17","subject_id":"6122c5682f4d660d61f6532f","study_id":"6197b3f67c2b5cd3b6d9596a","session_id":"6197b9ee1b1ec4569f21f7d4","condition":"full-information","relevant_dimensions":["wings","pattern"],"bee_group":{"antennae":"X","wings":"1","pattern":"D","legs":"X"},"action":"harvest","summary":"good-harvest","bonus":1.4800000000000009},{"rt":945.9000000059605,"stimulus":"\n                    <p><b>Action: <em>harvest</em></b></p>\n                    <p>This is the bee that you just saw.</p>\n                    <img src=\"bees-with-color/bee-B2SM.svg\" width=\"200\">\n                    <p><span class=\"greenText\"><b>Successful harvest!</b></span><br>Your pay has increased by $0.02. Your bonus pay is now $0.74.</p>\n            ","response":0,"trial_type":"html-button-response","trial_index":42,"time_elapsed":202562,"internal_node_id":"0.0-4.0-1.17","subject_id":"6122c5682f4d660d61f6532f","study_id":"6197b3f67c2b5cd3b6d9596a","session_id":"6197b9ee1b1ec4569f21f7d4","condition":"full-information","relevant_dimensions":["wings","pattern"],"bee_group":{"antennae":"X","wings":"1","pattern":"D","legs":"X"},"bonus":1.4800000000000009},{"rt":1015,"stimulus":"bees-with-color/bee-B1DF.svg","response":1,"trial_type":"image-button-response","trial_index":43,"time_elapsed":203578,"internal_node_id":"0.0-4.0-0.18","subject_id":"6122c5682f4d660d61f6532f","study_id":"6197b3f67c2b5cd3b6d9596a","session_id":"6197b9ee1b1ec4569f21f7d4","condition":"full-information","relevant_dimensions":["wings","pattern"],"bee_group":{"antennae":"X","wings":"1","pattern":"D","legs":"X"},"action":"avoid","summary":"good-avoid","bonus":1.4800000000000009},{"rt":1141.5999999940395,"stimulus":"\n                    <p><b>Action: <em>avoid</em></b></p>\n                    <p>This is the bee that you just saw.</p>\n                    <img src=\"bees-with-color/bee-B1DF.svg\" width=\"200\">\n                    <p><span class=\"greenText\">Good choice!</span>  This bee would have stung you.<br>Your bonus pay is unchanged, and remains at $0.74.</p>\n            ","response":0,"trial_type":"html-button-response","trial_index":44,"time_elapsed":204721,"internal_node_id":"0.0-4.0-1.18","subject_id":"6122c5682f4d660d61f6532f","study_id":"6197b3f67c2b5cd3b6d9596a","session_id":"6197b9ee1b1ec4569f21f7d4","condition":"full-information","relevant_dimensions":["wings","pattern"],"bee_group":{"antennae":"X","wings":"1","pattern":"D","legs":"X"},"bonus":1.4800000000000009},{"rt":1079.5,"stimulus":"bees-with-color/bee-B1SF.svg","response":0,"trial_type":"image-button-response","trial_index":45,"time_elapsed":205802,"internal_node_id":"0.0-4.0-0.19","subject_id":"6122c5682f4d660d61f6532f","study_id":"6197b3f67c2b5cd3b6d9596a","session_id":"6197b9ee1b1ec4569f21f7d4","condition":"full-information","relevant_dimensions":["wings","pattern"],"bee_group":{"antennae":"X","wings":"1","pattern":"D","legs":"X"},"action":"harvest","summary":"good-harvest","bonus":1.4800000000000009},{"rt":1082.4000000059605,"stimulus":"\n                    <p><b>Action: <em>harvest</em></b></p>\n                    <p>This is the bee that you just saw.</p>\n                    <img src=\"bees-with-color/bee-B1SF.svg\" width=\"200\">\n                    <p><span class=\"greenText\"><b>Successful harvest!</b></span><br>Your pay has increased by $0.02. Your bonus pay is now $0.76.</p>\n            ","response":0,"trial_type":"html-button-response","trial_index":46,"time_elapsed":206885,"internal_node_id":"0.0-4.0-1.19","subject_id":"6122c5682f4d660d61f6532f","study_id":"6197b3f67c2b5cd3b6d9596a","session_id":"6197b9ee1b1ec4569f21f7d4","condition":"full-information","relevant_dimensions":["wings","pattern"],"bee_group":{"antennae":"X","wings":"1","pattern":"D","legs":"X"},"bonus":1.4800000000000009},{"rt":1156,"stimulus":"bees-with-color/bee-A1DF.svg","response":1,"trial_type":"image-button-response","trial_index":47,"time_elapsed":208042,"internal_node_id":"0.0-4.0-0.20","subject_id":"6122c5682f4d660d61f6532f","study_id":"6197b3f67c2b5cd3b6d9596a","session_id":"6197b9ee1b1ec4569f21f7d4","condition":"full-information","relevant_dimensions":["wings","pattern"],"bee_group":{"antennae":"X","wings":"1","pattern":"D","legs":"X"},"action":"avoid","summary":"good-avoid","bonus":1.4800000000000009},{"rt":1234.2000000178814,"stimulus":"\n                    <p><b>Action: <em>avoid</em></b></p>\n                    <p>This is the bee that you just saw.</p>\n                    <img src=\"bees-with-color/bee-A1DF.svg\" width=\"200\">\n                    <p><span class=\"greenText\">Good choice!</span>  This bee would have stung you.<br>Your bonus pay is unchanged, and remains at $0.76.</p>\n            ","response":0,"trial_type":"html-button-response","trial_index":48,"time_elapsed":209278,"internal_node_id":"0.0-4.0-1.20","subject_id":"6122c5682f4d660d61f6532f","study_id":"6197b3f67c2b5cd3b6d9596a","session_id":"6197b9ee1b1ec4569f21f7d4","condition":"full-information","relevant_dimensions":["wings","pattern"],"bee_group":{"antennae":"X","wings":"1","pattern":"D","legs":"X"},"bonus":1.4800000000000009},{"rt":2043.0999999940395,"stimulus":"bees-with-color/bee-A2DF.svg","response":0,"trial_type":"image-button-response","trial_index":49,"time_elapsed":211322,"internal_node_id":"0.0-4.0-0.21","subject_id":"6122c5682f4d660d61f6532f","study_id":"6197b3f67c2b5cd3b6d9596a","session_id":"6197b9ee1b1ec4569f21f7d4","condition":"full-information","relevant_dimensions":["wings","pattern"],"bee_group":{"antennae":"X","wings":"1","pattern":"D","legs":"X"},"action":"harvest","summary":"good-harvest","bonus":1.4800000000000009},{"rt":1248.7000000178814,"stimulus":"\n                    <p><b>Action: <em>harvest</em></b></p>\n                    <p>This is the bee that you just saw.</p>\n                    <img src=\"bees-with-color/bee-A2DF.svg\" width=\"200\">\n                    <p><span class=\"greenText\"><b>Successful harvest!</b></span><br>Your pay has increased by $0.02. Your bonus pay is now $0.78.</p>\n            ","response":0,"trial_type":"html-button-response","trial_index":50,"time_elapsed":212572,"internal_node_id":"0.0-4.0-1.21","subject_id":"6122c5682f4d660d61f6532f","study_id":"6197b3f67c2b5cd3b6d9596a","session_id":"6197b9ee1b1ec4569f21f7d4","condition":"full-information","relevant_dimensions":["wings","pattern"],"bee_group":{"antennae":"X","wings":"1","pattern":"D","legs":"X"},"bonus":1.4800000000000009},{"rt":1669.5999999940395,"stimulus":"bees-with-color/bee-B2DF.svg","response":0,"trial_type":"image-button-response","trial_index":51,"time_elapsed":214243,"internal_node_id":"0.0-4.0-0.22","subject_id":"6122c5682f4d660d61f6532f","study_id":"6197b3f67c2b5cd3b6d9596a","session_id":"6197b9ee1b1ec4569f21f7d4","condition":"full-information","relevant_dimensions":["wings","pattern"],"bee_group":{"antennae":"X","wings":"1","pattern":"D","legs":"X"},"action":"harvest","summary":"good-harvest","bonus":1.4800000000000009},{"rt":1115.0999999940395,"stimulus":"\n                    <p><b>Action: <em>harvest</em></b></p>\n                    <p>This is the bee that you just saw.</p>\n                    <img src=\"bees-with-color/bee-B2DF.svg\" width=\"200\">\n                    <p><span class=\"greenText\"><b>Successful harvest!</b></span><br>Your pay has increased by $0.02. Your bonus pay is now $0.80.</p>\n            ","response":0,"trial_type":"html-button-response","trial_index":52,"time_elapsed":215360,"internal_node_id":"0.0-4.0-1.22","subject_id":"6122c5682f4d660d61f6532f","study_id":"6197b3f67c2b5cd3b6d9596a","session_id":"6197b9ee1b1ec4569f21f7d4","condition":"full-information","relevant_dimensions":["wings","pattern"],"bee_group":{"antennae":"X","wings":"1","pattern":"D","legs":"X"},"bonus":1.4800000000000009},{"rt":1142.2000000178814,"stimulus":"bees-with-color/bee-B2DM.svg","response":0,"trial_type":"image-button-response","trial_index":53,"time_elapsed":216503,"internal_node_id":"0.0-4.0-0.23","subject_id":"6122c5682f4d660d61f6532f","study_id":"6197b3f67c2b5cd3b6d9596a","session_id":"6197b9ee1b1ec4569f21f7d4","condition":"full-information","relevant_dimensions":["wings","pattern"],"bee_group":{"antennae":"X","wings":"1","pattern":"D","legs":"X"},"action":"harvest","summary":"good-harvest","bonus":1.4800000000000009},{"rt":1114.6000000238419,"stimulus":"\n                    <p><b>Action: <em>harvest</em></b></p>\n                    <p>This is the bee that you just saw.</p>\n                    <img src=\"bees-with-color/bee-B2DM.svg\" width=\"200\">\n                    <p><span class=\"greenText\"><b>Successful harvest!</b></span><br>Your pay has increased by $0.02. Your bonus pay is now $0.82.</p>\n            ","response":0,"trial_type":"html-button-response","trial_index":54,"time_elapsed":217619,"internal_node_id":"0.0-4.0-1.23","subject_id":"6122c5682f4d660d61f6532f","study_id":"6197b3f67c2b5cd3b6d9596a","session_id":"6197b9ee1b1ec4569f21f7d4","condition":"full-information","relevant_dimensions":["wings","pattern"],"bee_group":{"antennae":"X","wings":"1","pattern":"D","legs":"X"},"bonus":1.4800000000000009},{"rt":1206.699999988079,"stimulus":"bees-with-color/bee-A2DM.svg","response":0,"trial_type":"image-button-response","trial_index":55,"time_elapsed":218827,"internal_node_id":"0.0-4.0-0.24","subject_id":"6122c5682f4d660d61f6532f","study_id":"6197b3f67c2b5cd3b6d9596a","session_id":"6197b9ee1b1ec4569f21f7d4","condition":"full-information","relevant_dimensions":["wings","pattern"],"bee_group":{"antennae":"X","wings":"1","pattern":"D","legs":"X"},"action":"harvest","summary":"good-harvest","bonus":1.4800000000000009},{"rt":1554.5999999940395,"stimulus":"\n                    <p><b>Action: <em>harvest</em></b></p>\n                    <p>This is the bee that you just saw.</p>\n                    <img src=\"bees-with-color/bee-A2DM.svg\" width=\"200\">\n                    <p><span class=\"greenText\"><b>Successful harvest!</b></span><br>Your pay has increased by $0.02. Your bonus pay is now $0.84.</p>\n            ","response":0,"trial_type":"html-button-response","trial_index":56,"time_elapsed":220384,"internal_node_id":"0.0-4.0-1.24","subject_id":"6122c5682f4d660d61f6532f","study_id":"6197b3f67c2b5cd3b6d9596a","session_id":"6197b9ee1b1ec4569f21f7d4","condition":"full-information","relevant_dimensions":["wings","pattern"],"bee_group":{"antennae":"X","wings":"1","pattern":"D","legs":"X"},"bonus":1.4800000000000009},{"rt":1183.6000000238419,"stimulus":"bees-with-color/bee-A2SM.svg","response":0,"trial_type":"image-button-response","trial_index":57,"time_elapsed":221568,"internal_node_id":"0.0-4.0-0.25","subject_id":"6122c5682f4d660d61f6532f","study_id":"6197b3f67c2b5cd3b6d9596a","session_id":"6197b9ee1b1ec4569f21f7d4","condition":"full-information","relevant_dimensions":["wings","pattern"],"bee_group":{"antennae":"X","wings":"1","pattern":"D","legs":"X"},"action":"harvest","summary":"good-harvest","bonus":1.4800000000000009},{"rt":1542.800000011921,"stimulus":"\n                    <p><b>Action: <em>harvest</em></b></p>\n                    <p>This is the bee that you just saw.</p>\n                    <img src=\"bees-with-color/bee-A2SM.svg\" width=\"200\">\n                    <p><span class=\"greenText\"><b>Successful harvest!</b></span><br>Your pay has increased by $0.02. Your bonus pay is now $0.86.</p>\n            ","response":0,"trial_type":"html-button-response","trial_index":58,"time_elapsed":223113,"internal_node_id":"0.0-4.0-1.25","subject_id":"6122c5682f4d660d61f6532f","study_id":"6197b3f67c2b5cd3b6d9596a","session_id":"6197b9ee1b1ec4569f21f7d4","condition":"full-information","relevant_dimensions":["wings","pattern"],"bee_group":{"antennae":"X","wings":"1","pattern":"D","legs":"X"},"bonus":1.4800000000000009},{"rt":1213.300000011921,"stimulus":"bees-with-color/bee-A1SF.svg","response":1,"trial_type":"image-button-response","trial_index":59,"time_elapsed":224328,"internal_node_id":"0.0-4.0-0.26","subject_id":"6122c5682f4d660d61f6532f","study_id":"6197b3f67c2b5cd3b6d9596a","session_id":"6197b9ee1b1ec4569f21f7d4","condition":"full-information","relevant_dimensions":["wings","pattern"],"bee_group":{"antennae":"X","wings":"1","pattern":"D","legs":"X"},"action":"avoid","summary":"bad-avoid","bonus":1.4800000000000009},{"rt":749.8000000119209,"stimulus":"\n                    <p><b>Action: <em>avoid</em></b></p>\n                    <p>This is the bee that you just saw.</p>\n                    <img src=\"bees-with-color/bee-A1SF.svg\" width=\"200\">\n                    <p><span class=\"redText\">Bad choice,</span> the bee was friendly.<br>Your bonus pay is unchanged, and remains at $0.86.</p>\n            ","response":0,"trial_type":"html-button-response","trial_index":60,"time_elapsed":225079,"internal_node_id":"0.0-4.0-1.26","subject_id":"6122c5682f4d660d61f6532f","study_id":"6197b3f67c2b5cd3b6d9596a","session_id":"6197b9ee1b1ec4569f21f7d4","condition":"full-information","relevant_dimensions":["wings","pattern"],"bee_group":{"antennae":"X","wings":"1","pattern":"D","legs":"X"},"bonus":1.4800000000000009},{"rt":767.4000000059605,"stimulus":"bees-with-color/bee-B1DM.svg","response":1,"trial_type":"image-button-response","trial_index":61,"time_elapsed":225847,"internal_node_id":"0.0-4.0-0.27","subject_id":"6122c5682f4d660d61f6532f","study_id":"6197b3f67c2b5cd3b6d9596a","session_id":"6197b9ee1b1ec4569f21f7d4","condition":"full-information","relevant_dimensions":["wings","pattern"],"bee_group":{"antennae":"X","wings":"1","pattern":"D","legs":"X"},"action":"avoid","summary":"good-avoid","bonus":1.4800000000000009},{"rt":801.6000000238419,"stimulus":"\n                    <p><b>Action: <em>avoid</em></b></p>\n                    <p>This is the bee that you just saw.</p>\n                    <img src=\"bees-with-color/bee-B1DM.svg\" width=\"200\">\n                    <p><span class=\"greenText\">Good choice!</span>  This bee would have stung you.<br>Your bonus pay is unchanged, and remains at $0.86.</p>\n            ","response":0,"trial_type":"html-button-response","trial_index":62,"time_elapsed":226650,"internal_node_id":"0.0-4.0-1.27","subject_id":"6122c5682f4d660d61f6532f","study_id":"6197b3f67c2b5cd3b6d9596a","session_id":"6197b9ee1b1ec4569f21f7d4","condition":"full-information","relevant_dimensions":["wings","pattern"],"bee_group":{"antennae":"X","wings":"1","pattern":"D","legs":"X"},"bonus":1.4800000000000009},{"rt":1286.0999999940395,"stimulus":"bees-with-color/bee-A1SM.svg","response":0,"trial_type":"image-button-response","trial_index":63,"time_elapsed":227938,"internal_node_id":"0.0-4.0-0.28","subject_id":"6122c5682f4d660d61f6532f","study_id":"6197b3f67c2b5cd3b6d9596a","session_id":"6197b9ee1b1ec4569f21f7d4","condition":"full-information","relevant_dimensions":["wings","pattern"],"bee_group":{"antennae":"X","wings":"1","pattern":"D","legs":"X"},"action":"harvest","summary":"good-harvest","bonus":1.4800000000000009},{"rt":911.2000000178814,"stimulus":"\n                    <p><b>Action: <em>harvest</em></b></p>\n                    <p>This is the bee that you just saw.</p>\n                    <img src=\"bees-with-color/bee-A1SM.svg\" width=\"200\">\n                    <p><span class=\"greenText\"><b>Successful harvest!</b></span><br>Your pay has increased by $0.02. Your bonus pay is now $0.88.</p>\n            ","response":0,"trial_type":"html-button-response","trial_index":64,"time_elapsed":228850,"internal_node_id":"0.0-4.0-1.28","subject_id":"6122c5682f4d660d61f6532f","study_id":"6197b3f67c2b5cd3b6d9596a","session_id":"6197b9ee1b1ec4569f21f7d4","condition":"full-information","relevant_dimensions":["wings","pattern"],"bee_group":{"antennae":"X","wings":"1","pattern":"D","legs":"X"},"bonus":1.4800000000000009},{"rt":879.5999999940395,"stimulus":"bees-with-color/bee-A1DM.svg","response":1,"trial_type":"image-button-response","trial_index":65,"time_elapsed":229731,"internal_node_id":"0.0-4.0-0.29","subject_id":"6122c5682f4d660d61f6532f","study_id":"6197b3f67c2b5cd3b6d9596a","session_id":"6197b9ee1b1ec4569f21f7d4","condition":"full-information","relevant_dimensions":["wings","pattern"],"bee_group":{"antennae":"X","wings":"1","pattern":"D","legs":"X"},"action":"avoid","summary":"good-avoid","bonus":1.4800000000000009},{"rt":1614.5999999940395,"stimulus":"\n                    <p><b>Action: <em>avoid</em></b></p>\n                    <p>This is the bee that you just saw.</p>\n                    <img src=\"bees-with-color/bee-A1DM.svg\" width=\"200\">\n                    <p><span class=\"greenText\">Good choice!</span>  This bee would have stung you.<br>Your bonus pay is unchanged, and remains at $0.88.</p>\n            ","response":0,"trial_type":"html-button-response","trial_index":66,"time_elapsed":231347,"internal_node_id":"0.0-4.0-1.29","subject_id":"6122c5682f4d660d61f6532f","study_id":"6197b3f67c2b5cd3b6d9596a","session_id":"6197b9ee1b1ec4569f21f7d4","condition":"full-information","relevant_dimensions":["wings","pattern"],"bee_group":{"antennae":"X","wings":"1","pattern":"D","legs":"X"},"bonus":1.4800000000000009},{"rt":1027.6000000238419,"stimulus":"bees-with-color/bee-A2SF.svg","response":0,"trial_type":"image-button-response","trial_index":67,"time_elapsed":232376,"internal_node_id":"0.0-4.0-0.30","subject_id":"6122c5682f4d660d61f6532f","study_id":"6197b3f67c2b5cd3b6d9596a","session_id":"6197b9ee1b1ec4569f21f7d4","condition":"full-information","relevant_dimensions":["wings","pattern"],"bee_group":{"antennae":"X","wings":"1","pattern":"D","legs":"X"},"action":"harvest","summary":"good-harvest","bonus":1.4800000000000009},{"rt":1141.5999999940395,"stimulus":"\n                    <p><b>Action: <em>harvest</em></b></p>\n                    <p>This is the bee that you just saw.</p>\n                    <img src=\"bees-with-color/bee-A2SF.svg\" width=\"200\">\n                    <p><span class=\"greenText\"><b>Successful harvest!</b></span><br>Your pay has increased by $0.02. Your bonus pay is now $0.90.</p>\n            ","response":0,"trial_type":"html-button-response","trial_index":68,"time_elapsed":233519,"internal_node_id":"0.0-4.0-1.30","subject_id":"6122c5682f4d660d61f6532f","study_id":"6197b3f67c2b5cd3b6d9596a","session_id":"6197b9ee1b1ec4569f21f7d4","condition":"full-information","relevant_dimensions":["wings","pattern"],"bee_group":{"antennae":"X","wings":"1","pattern":"D","legs":"X"},"bonus":1.4800000000000009},{"rt":1973.199999988079,"stimulus":"bees-with-color/bee-B1SM.svg","response":0,"trial_type":"image-button-response","trial_index":69,"time_elapsed":235494,"internal_node_id":"0.0-4.0-0.31","subject_id":"6122c5682f4d660d61f6532f","study_id":"6197b3f67c2b5cd3b6d9596a","session_id":"6197b9ee1b1ec4569f21f7d4","condition":"full-information","relevant_dimensions":["wings","pattern"],"bee_group":{"antennae":"X","wings":"1","pattern":"D","legs":"X"},"action":"harvest","summary":"good-harvest","bonus":1.4800000000000009},{"rt":1018.9000000059605,"stimulus":"\n                    <p><b>Action: <em>harvest</em></b></p>\n                    <p>This is the bee that you just saw.</p>\n                    <img src=\"bees-with-color/bee-B1SM.svg\" width=\"200\">\n                    <p><span class=\"greenText\"><b>Successful harvest!</b></span><br>Your pay has increased by $0.02. Your bonus pay is now $0.92.</p>\n            ","response":0,"trial_type":"html-button-response","trial_index":70,"time_elapsed":236514,"internal_node_id":"0.0-4.0-1.31","subject_id":"6122c5682f4d660d61f6532f","study_id":"6197b3f67c2b5cd3b6d9596a","session_id":"6197b9ee1b1ec4569f21f7d4","condition":"full-information","relevant_dimensions":["wings","pattern"],"bee_group":{"antennae":"X","wings":"1","pattern":"D","legs":"X"},"bonus":1.4800000000000009},{"rt":1321,"stimulus":"bees-with-color/bee-B1DM.svg","response":1,"trial_type":"image-button-response","trial_index":71,"time_elapsed":237836,"internal_node_id":"0.0-4.0-0.32","subject_id":"6122c5682f4d660d61f6532f","study_id":"6197b3f67c2b5cd3b6d9596a","session_id":"6197b9ee1b1ec4569f21f7d4","condition":"full-information","relevant_dimensions":["wings","pattern"],"bee_group":{"antennae":"X","wings":"1","pattern":"D","legs":"X"},"action":"avoid","summary":"good-avoid","bonus":1.4800000000000009},{"rt":1409.6000000238419,"stimulus":"\n                    <p><b>Action: <em>avoid</em></b></p>\n                    <p>This is the bee that you just saw.</p>\n                    <img src=\"bees-with-color/bee-B1DM.svg\" width=\"200\">\n                    <p><span class=\"greenText\">Good choice!</span>  This bee would have stung you.<br>Your bonus pay is unchanged, and remains at $0.92.</p>\n            ","response":0,"trial_type":"html-button-response","trial_index":72,"time_elapsed":239247,"internal_node_id":"0.0-4.0-1.32","subject_id":"6122c5682f4d660d61f6532f","study_id":"6197b3f67c2b5cd3b6d9596a","session_id":"6197b9ee1b1ec4569f21f7d4","condition":"full-information","relevant_dimensions":["wings","pattern"],"bee_group":{"antennae":"X","wings":"1","pattern":"D","legs":"X"},"bonus":1.4800000000000009},{"rt":839.4000000059605,"stimulus":"bees-with-color/bee-B1SF.svg","response":0,"trial_type":"image-button-response","trial_index":73,"time_elapsed":240087,"internal_node_id":"0.0-4.0-0.33","subject_id":"6122c5682f4d660d61f6532f","study_id":"6197b3f67c2b5cd3b6d9596a","session_id":"6197b9ee1b1ec4569f21f7d4","condition":"full-information","relevant_dimensions":["wings","pattern"],"bee_group":{"antennae":"X","wings":"1","pattern":"D","legs":"X"},"action":"harvest","summary":"good-harvest","bonus":1.4800000000000009},{"rt":1067,"stimulus":"\n                    <p><b>Action: <em>harvest</em></b></p>\n                    <p>This is the bee that you just saw.</p>\n                    <img src=\"bees-with-color/bee-B1SF.svg\" width=\"200\">\n                    <p><span class=\"greenText\"><b>Successful harvest!</b></span><br>Your pay has increased by $0.02. Your bonus pay is now $0.94.</p>\n            ","response":0,"trial_type":"html-button-response","trial_index":74,"time_elapsed":241155,"internal_node_id":"0.0-4.0-1.33","subject_id":"6122c5682f4d660d61f6532f","study_id":"6197b3f67c2b5cd3b6d9596a","session_id":"6197b9ee1b1ec4569f21f7d4","condition":"full-information","relevant_dimensions":["wings","pattern"],"bee_group":{"antennae":"X","wings":"1","pattern":"D","legs":"X"},"bonus":1.4800000000000009},{"rt":1684,"stimulus":"bees-with-color/bee-B2SM.svg","response":0,"trial_type":"image-button-response","trial_index":75,"time_elapsed":242841,"internal_node_id":"0.0-4.0-0.34","subject_id":"6122c5682f4d660d61f6532f","study_id":"6197b3f67c2b5cd3b6d9596a","session_id":"6197b9ee1b1ec4569f21f7d4","condition":"full-information","relevant_dimensions":["wings","pattern"],"bee_group":{"antennae":"X","wings":"1","pattern":"D","legs":"X"},"action":"harvest","summary":"good-harvest","bonus":1.4800000000000009},{"rt":828.7999999821186,"stimulus":"\n                    <p><b>Action: <em>harvest</em></b></p>\n                    <p>This is the bee that you just saw.</p>\n                    <img src=\"bees-with-color/bee-B2SM.svg\" width=\"200\">\n                    <p><span class=\"greenText\"><b>Successful harvest!</b></span><br>Your pay has increased by $0.02. Your bonus pay is now $0.96.</p>\n            ","response":0,"trial_type":"html-button-response","trial_index":76,"time_elapsed":243670,"internal_node_id":"0.0-4.0-1.34","subject_id":"6122c5682f4d660d61f6532f","study_id":"6197b3f67c2b5cd3b6d9596a","session_id":"6197b9ee1b1ec4569f21f7d4","condition":"full-information","relevant_dimensions":["wings","pattern"],"bee_group":{"antennae":"X","wings":"1","pattern":"D","legs":"X"},"bonus":1.4800000000000009},{"rt":1078.0999999940395,"stimulus":"bees-with-color/bee-B2DM.svg","response":0,"trial_type":"image-button-response","trial_index":77,"time_elapsed":244750,"internal_node_id":"0.0-4.0-0.35","subject_id":"6122c5682f4d660d61f6532f","study_id":"6197b3f67c2b5cd3b6d9596a","session_id":"6197b9ee1b1ec4569f21f7d4","condition":"full-information","relevant_dimensions":["wings","pattern"],"bee_group":{"antennae":"X","wings":"1","pattern":"D","legs":"X"},"action":"harvest","summary":"good-harvest","bonus":1.4800000000000009},{"rt":780.5,"stimulus":"\n                    <p><b>Action: <em>harvest</em></b></p>\n                    <p>This is the bee that you just saw.</p>\n                    <img src=\"bees-with-color/bee-B2DM.svg\" width=\"200\">\n                    <p><span class=\"greenText\"><b>Successful harvest!</b></span><br>Your pay has increased by $0.02. Your bonus pay is now $0.98.</p>\n            ","response":0,"trial_type":"html-button-response","trial_index":78,"time_elapsed":245531,"internal_node_id":"0.0-4.0-1.35","subject_id":"6122c5682f4d660d61f6532f","study_id":"6197b3f67c2b5cd3b6d9596a","session_id":"6197b9ee1b1ec4569f21f7d4","condition":"full-information","relevant_dimensions":["wings","pattern"],"bee_group":{"antennae":"X","wings":"1","pattern":"D","legs":"X"},"bonus":1.4800000000000009},{"rt":1067.2000000178814,"stimulus":"bees-with-color/bee-A1SF.svg","response":0,"trial_type":"image-button-response","trial_index":79,"time_elapsed":246600,"internal_node_id":"0.0-4.0-0.36","subject_id":"6122c5682f4d660d61f6532f","study_id":"6197b3f67c2b5cd3b6d9596a","session_id":"6197b9ee1b1ec4569f21f7d4","condition":"full-information","relevant_dimensions":["wings","pattern"],"bee_group":{"antennae":"X","wings":"1","pattern":"D","legs":"X"},"action":"harvest","summary":"good-harvest","bonus":1.4800000000000009},{"rt":658.7999999821186,"stimulus":"\n                    <p><b>Action: <em>harvest</em></b></p>\n                    <p>This is the bee that you just saw.</p>\n                    <img src=\"bees-with-color/bee-A1SF.svg\" width=\"200\">\n                    <p><span class=\"greenText\"><b>Successful harvest!</b></span><br>Your pay has increased by $0.02. Your bonus pay is now $1.00.</p>\n            ","response":0,"trial_type":"html-button-response","trial_index":80,"time_elapsed":247259,"internal_node_id":"0.0-4.0-1.36","subject_id":"6122c5682f4d660d61f6532f","study_id":"6197b3f67c2b5cd3b6d9596a","session_id":"6197b9ee1b1ec4569f21f7d4","condition":"full-information","relevant_dimensions":["wings","pattern"],"bee_group":{"antennae":"X","wings":"1","pattern":"D","legs":"X"},"bonus":1.4800000000000009},{"rt":1156,"stimulus":"bees-with-color/bee-A1DM.svg","response":1,"trial_type":"image-button-response","trial_index":81,"time_elapsed":248416,"internal_node_id":"0.0-4.0-0.37","subject_id":"6122c5682f4d660d61f6532f","study_id":"6197b3f67c2b5cd3b6d9596a","session_id":"6197b9ee1b1ec4569f21f7d4","condition":"full-information","relevant_dimensions":["wings","pattern"],"bee_group":{"antennae":"X","wings":"1","pattern":"D","legs":"X"},"action":"avoid","summary":"good-avoid","bonus":1.4800000000000009},{"rt":1920.7999999821186,"stimulus":"\n                    <p><b>Action: <em>avoid</em></b></p>\n                    <p>This is the bee that you just saw.</p>\n                    <img src=\"bees-with-color/bee-A1DM.svg\" width=\"200\">\n                    <p><span class=\"greenText\">Good choice!</span>  This bee would have stung you.<br>Your bonus pay is unchanged, and remains at $1.00.</p>\n            ","response":0,"trial_type":"html-button-response","trial_index":82,"time_elapsed":250338,"internal_node_id":"0.0-4.0-1.37","subject_id":"6122c5682f4d660d61f6532f","study_id":"6197b3f67c2b5cd3b6d9596a","session_id":"6197b9ee1b1ec4569f21f7d4","condition":"full-information","relevant_dimensions":["wings","pattern"],"bee_group":{"antennae":"X","wings":"1","pattern":"D","legs":"X"},"bonus":1.4800000000000009},{"rt":1304,"stimulus":"bees-with-color/bee-A1SM.svg","response":0,"trial_type":"image-button-response","trial_index":83,"time_elapsed":251644,"internal_node_id":"0.0-4.0-0.38","subject_id":"6122c5682f4d660d61f6532f","study_id":"6197b3f67c2b5cd3b6d9596a","session_id":"6197b9ee1b1ec4569f21f7d4","condition":"full-information","relevant_dimensions":["wings","pattern"],"bee_group":{"antennae":"X","wings":"1","pattern":"D","legs":"X"},"action":"harvest","summary":"good-harvest","bonus":1.4800000000000009},{"rt":853.3000000119209,"stimulus":"\n                    <p><b>Action: <em>harvest</em></b></p>\n                    <p>This is the bee that you just saw.</p>\n                    <img src=\"bees-with-color/bee-A1SM.svg\" width=\"200\">\n                    <p><span class=\"greenText\"><b>Successful harvest!</b></span><br>Your pay has increased by $0.02. Your bonus pay is now $1.02.</p>\n            ","response":0,"trial_type":"html-button-response","trial_index":84,"time_elapsed":252498,"internal_node_id":"0.0-4.0-1.38","subject_id":"6122c5682f4d660d61f6532f","study_id":"6197b3f67c2b5cd3b6d9596a","session_id":"6197b9ee1b1ec4569f21f7d4","condition":"full-information","relevant_dimensions":["wings","pattern"],"bee_group":{"antennae":"X","wings":"1","pattern":"D","legs":"X"},"bonus":1.4800000000000009},{"rt":1018.5,"stimulus":"bees-with-color/bee-A2SM.svg","response":0,"trial_type":"image-button-response","trial_index":85,"time_elapsed":253518,"internal_node_id":"0.0-4.0-0.39","subject_id":"6122c5682f4d660d61f6532f","study_id":"6197b3f67c2b5cd3b6d9596a","session_id":"6197b9ee1b1ec4569f21f7d4","condition":"full-information","relevant_dimensions":["wings","pattern"],"bee_group":{"antennae":"X","wings":"1","pattern":"D","legs":"X"},"action":"harvest","summary":"good-harvest","bonus":1.4800000000000009},{"rt":753.7000000178814,"stimulus":"\n                    <p><b>Action: <em>harvest</em></b></p>\n                    <p>This is the bee that you just saw.</p>\n                    <img src=\"bees-with-color/bee-A2SM.svg\" width=\"200\">\n                    <p><span class=\"greenText\"><b>Successful harvest!</b></span><br>Your pay has increased by $0.02. Your bonus pay is now $1.04.</p>\n            ","response":0,"trial_type":"html-button-response","trial_index":86,"time_elapsed":254273,"internal_node_id":"0.0-4.0-1.39","subject_id":"6122c5682f4d660d61f6532f","study_id":"6197b3f67c2b5cd3b6d9596a","session_id":"6197b9ee1b1ec4569f21f7d4","condition":"full-information","relevant_dimensions":["wings","pattern"],"bee_group":{"antennae":"X","wings":"1","pattern":"D","legs":"X"},"bonus":1.4800000000000009},{"rt":1035.699999988079,"stimulus":"bees-with-color/bee-B2SF.svg","response":0,"trial_type":"image-button-response","trial_index":87,"time_elapsed":255309,"internal_node_id":"0.0-4.0-0.40","subject_id":"6122c5682f4d660d61f6532f","study_id":"6197b3f67c2b5cd3b6d9596a","session_id":"6197b9ee1b1ec4569f21f7d4","condition":"full-information","relevant_dimensions":["wings","pattern"],"bee_group":{"antennae":"X","wings":"1","pattern":"D","legs":"X"},"action":"harvest","summary":"good-harvest","bonus":1.4800000000000009},{"rt":1161.5,"stimulus":"\n                    <p><b>Action: <em>harvest</em></b></p>\n                    <p>This is the bee that you just saw.</p>\n                    <img src=\"bees-with-color/bee-B2SF.svg\" width=\"200\">\n                    <p><span class=\"greenText\"><b>Successful harvest!</b></span><br>Your pay has increased by $0.02. Your bonus pay is now $1.06.</p>\n            ","response":0,"trial_type":"html-button-response","trial_index":88,"time_elapsed":256473,"internal_node_id":"0.0-4.0-1.40","subject_id":"6122c5682f4d660d61f6532f","study_id":"6197b3f67c2b5cd3b6d9596a","session_id":"6197b9ee1b1ec4569f21f7d4","condition":"full-information","relevant_dimensions":["wings","pattern"],"bee_group":{"antennae":"X","wings":"1","pattern":"D","legs":"X"},"bonus":1.4800000000000009},{"rt":1269.699999988079,"stimulus":"bees-with-color/bee-B2DF.svg","response":0,"trial_type":"image-button-response","trial_index":89,"time_elapsed":257743,"internal_node_id":"0.0-4.0-0.41","subject_id":"6122c5682f4d660d61f6532f","study_id":"6197b3f67c2b5cd3b6d9596a","session_id":"6197b9ee1b1ec4569f21f7d4","condition":"full-information","relevant_dimensions":["wings","pattern"],"bee_group":{"antennae":"X","wings":"1","pattern":"D","legs":"X"},"action":"harvest","summary":"good-harvest","bonus":1.4800000000000009},{"rt":1261,"stimulus":"\n                    <p><b>Action: <em>harvest</em></b></p>\n                    <p>This is the bee that you just saw.</p>\n                    <img src=\"bees-with-color/bee-B2DF.svg\" width=\"200\">\n                    <p><span class=\"greenText\"><b>Successful harvest!</b></span><br>Your pay has increased by $0.02. Your bonus pay is now $1.08.</p>\n            ","response":0,"trial_type":"html-button-response","trial_index":90,"time_elapsed":259006,"internal_node_id":"0.0-4.0-1.41","subject_id":"6122c5682f4d660d61f6532f","study_id":"6197b3f67c2b5cd3b6d9596a","session_id":"6197b9ee1b1ec4569f21f7d4","condition":"full-information","relevant_dimensions":["wings","pattern"],"bee_group":{"antennae":"X","wings":"1","pattern":"D","legs":"X"},"bonus":1.4800000000000009},{"rt":828.4000000059605,"stimulus":"bees-with-color/bee-B1SM.svg","response":0,"trial_type":"image-button-response","trial_index":91,"time_elapsed":259835,"internal_node_id":"0.0-4.0-0.42","subject_id":"6122c5682f4d660d61f6532f","study_id":"6197b3f67c2b5cd3b6d9596a","session_id":"6197b9ee1b1ec4569f21f7d4","condition":"full-information","relevant_dimensions":["wings","pattern"],"bee_group":{"antennae":"X","wings":"1","pattern":"D","legs":"X"},"action":"harvest","summary":"good-harvest","bonus":1.4800000000000009},{"rt":901,"stimulus":"\n                    <p><b>Action: <em>harvest</em></b></p>\n                    <p>This is the bee that you just saw.</p>\n                    <img src=\"bees-with-color/bee-B1SM.svg\" width=\"200\">\n                    <p><span class=\"greenText\"><b>Successful harvest!</b></span><br>Your pay has increased by $0.02. Your bonus pay is now $1.10.</p>\n            ","response":0,"trial_type":"html-button-response","trial_index":92,"time_elapsed":260738,"internal_node_id":"0.0-4.0-1.42","subject_id":"6122c5682f4d660d61f6532f","study_id":"6197b3f67c2b5cd3b6d9596a","session_id":"6197b9ee1b1ec4569f21f7d4","condition":"full-information","relevant_dimensions":["wings","pattern"],"bee_group":{"antennae":"X","wings":"1","pattern":"D","legs":"X"},"bonus":1.4800000000000009},{"rt":1168.699999988079,"stimulus":"bees-with-color/bee-A2DM.svg","response":0,"trial_type":"image-button-response","trial_index":93,"time_elapsed":261907,"internal_node_id":"0.0-4.0-0.43","subject_id":"6122c5682f4d660d61f6532f","study_id":"6197b3f67c2b5cd3b6d9596a","session_id":"6197b9ee1b1ec4569f21f7d4","condition":"full-information","relevant_dimensions":["wings","pattern"],"bee_group":{"antennae":"X","wings":"1","pattern":"D","legs":"X"},"action":"harvest","summary":"good-harvest","bonus":1.4800000000000009},{"rt":1392.7999999821186,"stimulus":"\n                    <p><b>Action: <em>harvest</em></b></p>\n                    <p>This is the bee that you just saw.</p>\n                    <img src=\"bees-with-color/bee-A2DM.svg\" width=\"200\">\n                    <p><span class=\"greenText\"><b>Successful harvest!</b></span><br>Your pay has increased by $0.02. Your bonus pay is now $1.12.</p>\n            ","response":0,"trial_type":"html-button-response","trial_index":94,"time_elapsed":263301,"internal_node_id":"0.0-4.0-1.43","subject_id":"6122c5682f4d660d61f6532f","study_id":"6197b3f67c2b5cd3b6d9596a","session_id":"6197b9ee1b1ec4569f21f7d4","condition":"full-information","relevant_dimensions":["wings","pattern"],"bee_group":{"antennae":"X","wings":"1","pattern":"D","legs":"X"},"bonus":1.4800000000000009},{"rt":936.5,"stimulus":"bees-with-color/bee-A2DF.svg","response":0,"trial_type":"image-button-response","trial_index":95,"time_elapsed":264239,"internal_node_id":"0.0-4.0-0.44","subject_id":"6122c5682f4d660d61f6532f","study_id":"6197b3f67c2b5cd3b6d9596a","session_id":"6197b9ee1b1ec4569f21f7d4","condition":"full-information","relevant_dimensions":["wings","pattern"],"bee_group":{"antennae":"X","wings":"1","pattern":"D","legs":"X"},"action":"harvest","summary":"good-harvest","bonus":1.4800000000000009},{"rt":1308.9000000059605,"stimulus":"\n                    <p><b>Action: <em>harvest</em></b></p>\n                    <p>This is the bee that you just saw.</p>\n                    <img src=\"bees-with-color/bee-A2DF.svg\" width=\"200\">\n                    <p><span class=\"greenText\"><b>Successful harvest!</b></span><br>Your pay has increased by $0.02. Your bonus pay is now $1.14.</p>\n            ","response":0,"trial_type":"html-button-response","trial_index":96,"time_elapsed":265550,"internal_node_id":"0.0-4.0-1.44","subject_id":"6122c5682f4d660d61f6532f","study_id":"6197b3f67c2b5cd3b6d9596a","session_id":"6197b9ee1b1ec4569f21f7d4","condition":"full-information","relevant_dimensions":["wings","pattern"],"bee_group":{"antennae":"X","wings":"1","pattern":"D","legs":"X"},"bonus":1.4800000000000009},{"rt":817.6999999880791,"stimulus":"bees-with-color/bee-B1DF.svg","response":1,"trial_type":"image-button-response","trial_index":97,"time_elapsed":266369,"internal_node_id":"0.0-4.0-0.45","subject_id":"6122c5682f4d660d61f6532f","study_id":"6197b3f67c2b5cd3b6d9596a","session_id":"6197b9ee1b1ec4569f21f7d4","condition":"full-information","relevant_dimensions":["wings","pattern"],"bee_group":{"antennae":"X","wings":"1","pattern":"D","legs":"X"},"action":"avoid","summary":"good-avoid","bonus":1.4800000000000009},{"rt":1315.5,"stimulus":"\n                    <p><b>Action: <em>avoid</em></b></p>\n                    <p>This is the bee that you just saw.</p>\n                    <img src=\"bees-with-color/bee-B1DF.svg\" width=\"200\">\n                    <p><span class=\"greenText\">Good choice!</span>  This bee would have stung you.<br>Your bonus pay is unchanged, and remains at $1.14.</p>\n            ","response":0,"trial_type":"html-button-response","trial_index":98,"time_elapsed":267685,"internal_node_id":"0.0-4.0-1.45","subject_id":"6122c5682f4d660d61f6532f","study_id":"6197b3f67c2b5cd3b6d9596a","session_id":"6197b9ee1b1ec4569f21f7d4","condition":"full-information","relevant_dimensions":["wings","pattern"],"bee_group":{"antennae":"X","wings":"1","pattern":"D","legs":"X"},"bonus":1.4800000000000009},{"rt":756.2999999821186,"stimulus":"bees-with-color/bee-A2SF.svg","response":0,"trial_type":"image-button-response","trial_index":99,"time_elapsed":268443,"internal_node_id":"0.0-4.0-0.46","subject_id":"6122c5682f4d660d61f6532f","study_id":"6197b3f67c2b5cd3b6d9596a","session_id":"6197b9ee1b1ec4569f21f7d4","condition":"full-information","relevant_dimensions":["wings","pattern"],"bee_group":{"antennae":"X","wings":"1","pattern":"D","legs":"X"},"action":"harvest","summary":"good-harvest","bonus":1.4800000000000009},{"rt":823.1999999880791,"stimulus":"\n                    <p><b>Action: <em>harvest</em></b></p>\n                    <p>This is the bee that you just saw.</p>\n                    <img src=\"bees-with-color/bee-A2SF.svg\" width=\"200\">\n                    <p><span class=\"greenText\"><b>Successful harvest!</b></span><br>Your pay has increased by $0.02. Your bonus pay is now $1.16.</p>\n            ","response":0,"trial_type":"html-button-response","trial_index":100,"time_elapsed":269268,"internal_node_id":"0.0-4.0-1.46","subject_id":"6122c5682f4d660d61f6532f","study_id":"6197b3f67c2b5cd3b6d9596a","session_id":"6197b9ee1b1ec4569f21f7d4","condition":"full-information","relevant_dimensions":["wings","pattern"],"bee_group":{"antennae":"X","wings":"1","pattern":"D","legs":"X"},"bonus":1.4800000000000009},{"rt":907.2000000178814,"stimulus":"bees-with-color/bee-A1DF.svg","response":1,"trial_type":"image-button-response","trial_index":101,"time_elapsed":270176,"internal_node_id":"0.0-4.0-0.47","subject_id":"6122c5682f4d660d61f6532f","study_id":"6197b3f67c2b5cd3b6d9596a","session_id":"6197b9ee1b1ec4569f21f7d4","condition":"full-information","relevant_dimensions":["wings","pattern"],"bee_group":{"antennae":"X","wings":"1","pattern":"D","legs":"X"},"action":"avoid","summary":"good-avoid","bonus":1.4800000000000009},{"rt":618.1000000238419,"stimulus":"\n                    <p><b>Action: <em>avoid</em></b></p>\n                    <p>This is the bee that you just saw.</p>\n                    <img src=\"bees-with-color/bee-A1DF.svg\" width=\"200\">\n                    <p><span class=\"greenText\">Good choice!</span>  This bee would have stung you.<br>Your bonus pay is unchanged, and remains at $1.16.</p>\n            ","response":0,"trial_type":"html-button-response","trial_index":102,"time_elapsed":270796,"internal_node_id":"0.0-4.0-1.47","subject_id":"6122c5682f4d660d61f6532f","study_id":"6197b3f67c2b5cd3b6d9596a","session_id":"6197b9ee1b1ec4569f21f7d4","condition":"full-information","relevant_dimensions":["wings","pattern"],"bee_group":{"antennae":"X","wings":"1","pattern":"D","legs":"X"},"bonus":1.4800000000000009},{"rt":833.6999999880791,"stimulus":"bees-with-color/bee-A1SM.svg","response":0,"trial_type":"image-button-response","trial_index":103,"time_elapsed":271631,"internal_node_id":"0.0-4.0-0.48","subject_id":"6122c5682f4d660d61f6532f","study_id":"6197b3f67c2b5cd3b6d9596a","session_id":"6197b9ee1b1ec4569f21f7d4","condition":"full-information","relevant_dimensions":["wings","pattern"],"bee_group":{"antennae":"X","wings":"1","pattern":"D","legs":"X"},"action":"harvest","summary":"good-harvest","bonus":1.4800000000000009},{"rt":1193.6000000238419,"stimulus":"\n                    <p><b>Action: <em>harvest</em></b></p>\n                    <p>This is the bee that you just saw.</p>\n                    <img src=\"bees-with-color/bee-A1SM.svg\" width=\"200\">\n                    <p><span class=\"greenText\"><b>Successful harvest!</b></span><br>Your pay has increased by $0.02. Your bonus pay is now $1.18.</p>\n            ","response":0,"trial_type":"html-button-response","trial_index":104,"time_elapsed":272826,"internal_node_id":"0.0-4.0-1.48","subject_id":"6122c5682f4d660d61f6532f","study_id":"6197b3f67c2b5cd3b6d9596a","session_id":"6197b9ee1b1ec4569f21f7d4","condition":"full-information","relevant_dimensions":["wings","pattern"],"bee_group":{"antennae":"X","wings":"1","pattern":"D","legs":"X"},"bonus":1.4800000000000009},{"rt":1084,"stimulus":"bees-with-color/bee-A2SF.svg","response":0,"trial_type":"image-button-response","trial_index":105,"time_elapsed":273914,"internal_node_id":"0.0-4.0-0.49","subject_id":"6122c5682f4d660d61f6532f","study_id":"6197b3f67c2b5cd3b6d9596a","session_id":"6197b9ee1b1ec4569f21f7d4","condition":"full-information","relevant_dimensions":["wings","pattern"],"bee_group":{"antennae":"X","wings":"1","pattern":"D","legs":"X"},"action":"harvest","summary":"good-harvest","bonus":1.4800000000000009},{"rt":1063.5,"stimulus":"\n                    <p><b>Action: <em>harvest</em></b></p>\n                    <p>This is the bee that you just saw.</p>\n                    <img src=\"bees-with-color/bee-A2SF.svg\" width=\"200\">\n                    <p><span class=\"greenText\"><b>Successful harvest!</b></span><br>Your pay has increased by $0.02. Your bonus pay is now $1.20.</p>\n            ","response":0,"trial_type":"html-button-response","trial_index":106,"time_elapsed":274979,"internal_node_id":"0.0-4.0-1.49","subject_id":"6122c5682f4d660d61f6532f","study_id":"6197b3f67c2b5cd3b6d9596a","session_id":"6197b9ee1b1ec4569f21f7d4","condition":"full-information","relevant_dimensions":["wings","pattern"],"bee_group":{"antennae":"X","wings":"1","pattern":"D","legs":"X"},"bonus":1.4800000000000009},{"rt":679.4000000059605,"stimulus":"bees-with-color/bee-B2SM.svg","response":0,"trial_type":"image-button-response","trial_index":107,"time_elapsed":275659,"internal_node_id":"0.0-4.0-0.50","subject_id":"6122c5682f4d660d61f6532f","study_id":"6197b3f67c2b5cd3b6d9596a","session_id":"6197b9ee1b1ec4569f21f7d4","condition":"full-information","relevant_dimensions":["wings","pattern"],"bee_group":{"antennae":"X","wings":"1","pattern":"D","legs":"X"},"action":"harvest","summary":"good-harvest","bonus":1.4800000000000009},{"rt":1100.199999988079,"stimulus":"\n                    <p><b>Action: <em>harvest</em></b></p>\n                    <p>This is the bee that you just saw.</p>\n                    <img src=\"bees-with-color/bee-B2SM.svg\" width=\"200\">\n                    <p><span class=\"greenText\"><b>Successful harvest!</b></span><br>Your pay has increased by $0.02. Your bonus pay is now $1.22.</p>\n            ","response":0,"trial_type":"html-button-response","trial_index":108,"time_elapsed":276760,"internal_node_id":"0.0-4.0-1.50","subject_id":"6122c5682f4d660d61f6532f","study_id":"6197b3f67c2b5cd3b6d9596a","session_id":"6197b9ee1b1ec4569f21f7d4","condition":"full-information","relevant_dimensions":["wings","pattern"],"bee_group":{"antennae":"X","wings":"1","pattern":"D","legs":"X"},"bonus":1.4800000000000009},{"rt":795.8999999761581,"stimulus":"bees-with-color/bee-A1DF.svg","response":1,"trial_type":"image-button-response","trial_index":109,"time_elapsed":277557,"internal_node_id":"0.0-4.0-0.51","subject_id":"6122c5682f4d660d61f6532f","study_id":"6197b3f67c2b5cd3b6d9596a","session_id":"6197b9ee1b1ec4569f21f7d4","condition":"full-information","relevant_dimensions":["wings","pattern"],"bee_group":{"antennae":"X","wings":"1","pattern":"D","legs":"X"},"action":"avoid","summary":"good-avoid","bonus":1.4800000000000009},{"rt":1244,"stimulus":"\n                    <p><b>Action: <em>avoid</em></b></p>\n                    <p>This is the bee that you just saw.</p>\n                    <img src=\"bees-with-color/bee-A1DF.svg\" width=\"200\">\n                    <p><span class=\"greenText\">Good choice!</span>  This bee would have stung you.<br>Your bonus pay is unchanged, and remains at $1.22.</p>\n            ","response":0,"trial_type":"html-button-response","trial_index":110,"time_elapsed":278803,"internal_node_id":"0.0-4.0-1.51","subject_id":"6122c5682f4d660d61f6532f","study_id":"6197b3f67c2b5cd3b6d9596a","session_id":"6197b9ee1b1ec4569f21f7d4","condition":"full-information","relevant_dimensions":["wings","pattern"],"bee_group":{"antennae":"X","wings":"1","pattern":"D","legs":"X"},"bonus":1.4800000000000009},{"rt":816.6999999880791,"stimulus":"bees-with-color/bee-A1SF.svg","response":0,"trial_type":"image-button-response","trial_index":111,"time_elapsed":279620,"internal_node_id":"0.0-4.0-0.52","subject_id":"6122c5682f4d660d61f6532f","study_id":"6197b3f67c2b5cd3b6d9596a","session_id":"6197b9ee1b1ec4569f21f7d4","condition":"full-information","relevant_dimensions":["wings","pattern"],"bee_group":{"antennae":"X","wings":"1","pattern":"D","legs":"X"},"action":"harvest","summary":"good-harvest","bonus":1.4800000000000009},{"rt":973.8999999761581,"stimulus":"\n                    <p><b>Action: <em>harvest</em></b></p>\n                    <p>This is the bee that you just saw.</p>\n                    <img src=\"bees-with-color/bee-A1SF.svg\" width=\"200\">\n                    <p><span class=\"greenText\"><b>Successful harvest!</b></span><br>Your pay has increased by $0.02. Your bonus pay is now $1.24.</p>\n            ","response":0,"trial_type":"html-button-response","trial_index":112,"time_elapsed":280595,"internal_node_id":"0.0-4.0-1.52","subject_id":"6122c5682f4d660d61f6532f","study_id":"6197b3f67c2b5cd3b6d9596a","session_id":"6197b9ee1b1ec4569f21f7d4","condition":"full-information","relevant_dimensions":["wings","pattern"],"bee_group":{"antennae":"X","wings":"1","pattern":"D","legs":"X"},"bonus":1.4800000000000009},{"rt":848.8999999761581,"stimulus":"bees-with-color/bee-B1DF.svg","response":1,"trial_type":"image-button-response","trial_index":113,"time_elapsed":281445,"internal_node_id":"0.0-4.0-0.53","subject_id":"6122c5682f4d660d61f6532f","study_id":"6197b3f67c2b5cd3b6d9596a","session_id":"6197b9ee1b1ec4569f21f7d4","condition":"full-information","relevant_dimensions":["wings","pattern"],"bee_group":{"antennae":"X","wings":"1","pattern":"D","legs":"X"},"action":"avoid","summary":"good-avoid","bonus":1.4800000000000009},{"rt":1368.5999999940395,"stimulus":"\n                    <p><b>Action: <em>avoid</em></b></p>\n                    <p>This is the bee that you just saw.</p>\n                    <img src=\"bees-with-color/bee-B1DF.svg\" width=\"200\">\n                    <p><span class=\"greenText\">Good choice!</span>  This bee would have stung you.<br>Your bonus pay is unchanged, and remains at $1.24.</p>\n            ","response":0,"trial_type":"html-button-response","trial_index":114,"time_elapsed":282815,"internal_node_id":"0.0-4.0-1.53","subject_id":"6122c5682f4d660d61f6532f","study_id":"6197b3f67c2b5cd3b6d9596a","session_id":"6197b9ee1b1ec4569f21f7d4","condition":"full-information","relevant_dimensions":["wings","pattern"],"bee_group":{"antennae":"X","wings":"1","pattern":"D","legs":"X"},"bonus":1.4800000000000009},{"rt":670.9000000059605,"stimulus":"bees-with-color/bee-A2SM.svg","response":0,"trial_type":"image-button-response","trial_index":115,"time_elapsed":283487,"internal_node_id":"0.0-4.0-0.54","subject_id":"6122c5682f4d660d61f6532f","study_id":"6197b3f67c2b5cd3b6d9596a","session_id":"6197b9ee1b1ec4569f21f7d4","condition":"full-information","relevant_dimensions":["wings","pattern"],"bee_group":{"antennae":"X","wings":"1","pattern":"D","legs":"X"},"action":"harvest","summary":"good-harvest","bonus":1.4800000000000009},{"rt":1018.9000000059605,"stimulus":"\n                    <p><b>Action: <em>harvest</em></b></p>\n                    <p>This is the bee that you just saw.</p>\n                    <img src=\"bees-with-color/bee-A2SM.svg\" width=\"200\">\n                    <p><span class=\"greenText\"><b>Successful harvest!</b></span><br>Your pay has increased by $0.02. Your bonus pay is now $1.26.</p>\n            ","response":0,"trial_type":"html-button-response","trial_index":116,"time_elapsed":284507,"internal_node_id":"0.0-4.0-1.54","subject_id":"6122c5682f4d660d61f6532f","study_id":"6197b3f67c2b5cd3b6d9596a","session_id":"6197b9ee1b1ec4569f21f7d4","condition":"full-information","relevant_dimensions":["wings","pattern"],"bee_group":{"antennae":"X","wings":"1","pattern":"D","legs":"X"},"bonus":1.4800000000000009},{"rt":1110.5999999940395,"stimulus":"bees-with-color/bee-A2DM.svg","response":0,"trial_type":"image-button-response","trial_index":117,"time_elapsed":285619,"internal_node_id":"0.0-4.0-0.55","subject_id":"6122c5682f4d660d61f6532f","study_id":"6197b3f67c2b5cd3b6d9596a","session_id":"6197b9ee1b1ec4569f21f7d4","condition":"full-information","relevant_dimensions":["wings","pattern"],"bee_group":{"antennae":"X","wings":"1","pattern":"D","legs":"X"},"action":"harvest","summary":"good-harvest","bonus":1.4800000000000009},{"rt":872.7999999821186,"stimulus":"\n                    <p><b>Action: <em>harvest</em></b></p>\n                    <p>This is the bee that you just saw.</p>\n                    <img src=\"bees-with-color/bee-A2DM.svg\" width=\"200\">\n                    <p><span class=\"greenText\"><b>Successful harvest!</b></span><br>Your pay has increased by $0.02. Your bonus pay is now $1.28.</p>\n            ","response":0,"trial_type":"html-button-response","trial_index":118,"time_elapsed":286494,"internal_node_id":"0.0-4.0-1.55","subject_id":"6122c5682f4d660d61f6532f","study_id":"6197b3f67c2b5cd3b6d9596a","session_id":"6197b9ee1b1ec4569f21f7d4","condition":"full-information","relevant_dimensions":["wings","pattern"],"bee_group":{"antennae":"X","wings":"1","pattern":"D","legs":"X"},"bonus":1.4800000000000009},{"rt":909.9000000059605,"stimulus":"bees-with-color/bee-B1DM.svg","response":1,"trial_type":"image-button-response","trial_index":119,"time_elapsed":287405,"internal_node_id":"0.0-4.0-0.56","subject_id":"6122c5682f4d660d61f6532f","study_id":"6197b3f67c2b5cd3b6d9596a","session_id":"6197b9ee1b1ec4569f21f7d4","condition":"full-information","relevant_dimensions":["wings","pattern"],"bee_group":{"antennae":"X","wings":"1","pattern":"D","legs":"X"},"action":"avoid","summary":"good-avoid","bonus":1.4800000000000009},{"rt":914.5999999940395,"stimulus":"\n                    <p><b>Action: <em>avoid</em></b></p>\n                    <p>This is the bee that you just saw.</p>\n                    <img src=\"bees-with-color/bee-B1DM.svg\" width=\"200\">\n                    <p><span class=\"greenText\">Good choice!</span>  This bee would have stung you.<br>Your bonus pay is unchanged, and remains at $1.28.</p>\n            ","response":0,"trial_type":"html-button-response","trial_index":120,"time_elapsed":288320,"internal_node_id":"0.0-4.0-1.56","subject_id":"6122c5682f4d660d61f6532f","study_id":"6197b3f67c2b5cd3b6d9596a","session_id":"6197b9ee1b1ec4569f21f7d4","condition":"full-information","relevant_dimensions":["wings","pattern"],"bee_group":{"antennae":"X","wings":"1","pattern":"D","legs":"X"},"bonus":1.4800000000000009},{"rt":840.1000000238419,"stimulus":"bees-with-color/bee-B2DF.svg","response":0,"trial_type":"image-button-response","trial_index":121,"time_elapsed":289162,"internal_node_id":"0.0-4.0-0.57","subject_id":"6122c5682f4d660d61f6532f","study_id":"6197b3f67c2b5cd3b6d9596a","session_id":"6197b9ee1b1ec4569f21f7d4","condition":"full-information","relevant_dimensions":["wings","pattern"],"bee_group":{"antennae":"X","wings":"1","pattern":"D","legs":"X"},"action":"harvest","summary":"good-harvest","bonus":1.4800000000000009},{"rt":862.5,"stimulus":"\n                    <p><b>Action: <em>harvest</em></b></p>\n                    <p>This is the bee that you just saw.</p>\n                    <img src=\"bees-with-color/bee-B2DF.svg\" width=\"200\">\n                    <p><span class=\"greenText\"><b>Successful harvest!</b></span><br>Your pay has increased by $0.02. Your bonus pay is now $1.30.</p>\n            ","response":0,"trial_type":"html-button-response","trial_index":122,"time_elapsed":290025,"internal_node_id":"0.0-4.0-1.57","subject_id":"6122c5682f4d660d61f6532f","study_id":"6197b3f67c2b5cd3b6d9596a","session_id":"6197b9ee1b1ec4569f21f7d4","condition":"full-information","relevant_dimensions":["wings","pattern"],"bee_group":{"antennae":"X","wings":"1","pattern":"D","legs":"X"},"bonus":1.4800000000000009},{"rt":1279.9000000059605,"stimulus":"bees-with-color/bee-A2DF.svg","response":0,"trial_type":"image-button-response","trial_index":123,"time_elapsed":291306,"internal_node_id":"0.0-4.0-0.58","subject_id":"6122c5682f4d660d61f6532f","study_id":"6197b3f67c2b5cd3b6d9596a","session_id":"6197b9ee1b1ec4569f21f7d4","condition":"full-information","relevant_dimensions":["wings","pattern"],"bee_group":{"antennae":"X","wings":"1","pattern":"D","legs":"X"},"action":"harvest","summary":"good-harvest","bonus":1.4800000000000009},{"rt":562.5,"stimulus":"\n                    <p><b>Action: <em>harvest</em></b></p>\n                    <p>This is the bee that you just saw.</p>\n                    <img src=\"bees-with-color/bee-A2DF.svg\" width=\"200\">\n                    <p><span class=\"greenText\"><b>Successful harvest!</b></span><br>Your pay has increased by $0.02. Your bonus pay is now $1.32.</p>\n            ","response":0,"trial_type":"html-button-response","trial_index":124,"time_elapsed":291870,"internal_node_id":"0.0-4.0-1.58","subject_id":"6122c5682f4d660d61f6532f","study_id":"6197b3f67c2b5cd3b6d9596a","session_id":"6197b9ee1b1ec4569f21f7d4","condition":"full-information","relevant_dimensions":["wings","pattern"],"bee_group":{"antennae":"X","wings":"1","pattern":"D","legs":"X"},"bonus":1.4800000000000009},{"rt":646.5,"stimulus":"bees-with-color/bee-B2DM.svg","response":0,"trial_type":"image-button-response","trial_index":125,"time_elapsed":292518,"internal_node_id":"0.0-4.0-0.59","subject_id":"6122c5682f4d660d61f6532f","study_id":"6197b3f67c2b5cd3b6d9596a","session_id":"6197b9ee1b1ec4569f21f7d4","condition":"full-information","relevant_dimensions":["wings","pattern"],"bee_group":{"antennae":"X","wings":"1","pattern":"D","legs":"X"},"action":"harvest","summary":"good-harvest","bonus":1.4800000000000009},{"rt":599.5999999940395,"stimulus":"\n                    <p><b>Action: <em>harvest</em></b></p>\n                    <p>This is the bee that you just saw.</p>\n                    <img src=\"bees-with-color/bee-B2DM.svg\" width=\"200\">\n                    <p><span class=\"greenText\"><b>Successful harvest!</b></span><br>Your pay has increased by $0.02. Your bonus pay is now $1.34.</p>\n            ","response":0,"trial_type":"html-button-response","trial_index":126,"time_elapsed":293118,"internal_node_id":"0.0-4.0-1.59","subject_id":"6122c5682f4d660d61f6532f","study_id":"6197b3f67c2b5cd3b6d9596a","session_id":"6197b9ee1b1ec4569f21f7d4","condition":"full-information","relevant_dimensions":["wings","pattern"],"bee_group":{"antennae":"X","wings":"1","pattern":"D","legs":"X"},"bonus":1.4800000000000009},{"rt":589.6999999880791,"stimulus":"bees-with-color/bee-A1DM.svg","response":0,"trial_type":"image-button-response","trial_index":127,"time_elapsed":293709,"internal_node_id":"0.0-4.0-0.60","subject_id":"6122c5682f4d660d61f6532f","study_id":"6197b3f67c2b5cd3b6d9596a","session_id":"6197b9ee1b1ec4569f21f7d4","condition":"full-information","relevant_dimensions":["wings","pattern"],"bee_group":{"antennae":"X","wings":"1","pattern":"D","legs":"X"},"action":"harvest","summary":"bad-harvest","bonus":1.4800000000000009},{"rt":2662.7999999821186,"stimulus":"\n                    <p><b>Action: <em>harvest</em></b></p>\n                    <p>This is the bee that you just saw.</p>\n                    <img src=\"bees-with-color/bee-A1DM.svg\" width=\"200\">\n                    <p><span class=\"redText\">Bad choice, the bee was angry.</span><br><b>You have been stung!</b><br>Your pay has been decreased by $0.10. Your bonus pay is now $1.24.</p>\n            ","response":0,"trial_type":"html-button-response","trial_index":128,"time_elapsed":296373,"internal_node_id":"0.0-4.0-1.60","subject_id":"6122c5682f4d660d61f6532f","study_id":"6197b3f67c2b5cd3b6d9596a","session_id":"6197b9ee1b1ec4569f21f7d4","condition":"full-information","relevant_dimensions":["wings","pattern"],"bee_group":{"antennae":"X","wings":"1","pattern":"D","legs":"X"},"bonus":1.4800000000000009},{"rt":900.5,"stimulus":"bees-with-color/bee-B1SM.svg","response":0,"trial_type":"image-button-response","trial_index":129,"time_elapsed":297275,"internal_node_id":"0.0-4.0-0.61","subject_id":"6122c5682f4d660d61f6532f","study_id":"6197b3f67c2b5cd3b6d9596a","session_id":"6197b9ee1b1ec4569f21f7d4","condition":"full-information","relevant_dimensions":["wings","pattern"],"bee_group":{"antennae":"X","wings":"1","pattern":"D","legs":"X"},"action":"harvest","summary":"good-harvest","bonus":1.4800000000000009},{"rt":732.7000000178814,"stimulus":"\n                    <p><b>Action: <em>harvest</em></b></p>\n                    <p>This is the bee that you just saw.</p>\n                    <img src=\"bees-with-color/bee-B1SM.svg\" width=\"200\">\n                    <p><span class=\"greenText\"><b>Successful harvest!</b></span><br>Your pay has increased by $0.02. Your bonus pay is now $1.26.</p>\n            ","response":0,"trial_type":"html-button-response","trial_index":130,"time_elapsed":298009,"internal_node_id":"0.0-4.0-1.61","subject_id":"6122c5682f4d660d61f6532f","study_id":"6197b3f67c2b5cd3b6d9596a","session_id":"6197b9ee1b1ec4569f21f7d4","condition":"full-information","relevant_dimensions":["wings","pattern"],"bee_group":{"antennae":"X","wings":"1","pattern":"D","legs":"X"},"bonus":1.4800000000000009},{"rt":821.1999999880791,"stimulus":"bees-with-color/bee-B2SF.svg","response":0,"trial_type":"image-button-response","trial_index":131,"time_elapsed":298831,"internal_node_id":"0.0-4.0-0.62","subject_id":"6122c5682f4d660d61f6532f","study_id":"6197b3f67c2b5cd3b6d9596a","session_id":"6197b9ee1b1ec4569f21f7d4","condition":"full-information","relevant_dimensions":["wings","pattern"],"bee_group":{"antennae":"X","wings":"1","pattern":"D","legs":"X"},"action":"harvest","summary":"good-harvest","bonus":1.4800000000000009},{"rt":824.5999999940395,"stimulus":"\n                    <p><b>Action: <em>harvest</em></b></p>\n                    <p>This is the bee that you just saw.</p>\n                    <img src=\"bees-with-color/bee-B2SF.svg\" width=\"200\">\n                    <p><span class=\"greenText\"><b>Successful harvest!</b></span><br>Your pay has increased by $0.02. Your bonus pay is now $1.28.</p>\n            ","response":0,"trial_type":"html-button-response","trial_index":132,"time_elapsed":299657,"internal_node_id":"0.0-4.0-1.62","subject_id":"6122c5682f4d660d61f6532f","study_id":"6197b3f67c2b5cd3b6d9596a","session_id":"6197b9ee1b1ec4569f21f7d4","condition":"full-information","relevant_dimensions":["wings","pattern"],"bee_group":{"antennae":"X","wings":"1","pattern":"D","legs":"X"},"bonus":1.4800000000000009},{"rt":3379.0999999940395,"stimulus":"bees-with-color/bee-B1SF.svg","response":0,"trial_type":"image-button-response","trial_index":133,"time_elapsed":303037,"internal_node_id":"0.0-4.0-0.63","subject_id":"6122c5682f4d660d61f6532f","study_id":"6197b3f67c2b5cd3b6d9596a","session_id":"6197b9ee1b1ec4569f21f7d4","condition":"full-information","relevant_dimensions":["wings","pattern"],"bee_group":{"antennae":"X","wings":"1","pattern":"D","legs":"X"},"action":"harvest","summary":"good-harvest","bonus":1.4800000000000009},{"rt":672.4000000059605,"stimulus":"\n                    <p><b>Action: <em>harvest</em></b></p>\n                    <p>This is the bee that you just saw.</p>\n                    <img src=\"bees-with-color/bee-B1SF.svg\" width=\"200\">\n                    <p><span class=\"greenText\"><b>Successful harvest!</b></span><br>Your pay has increased by $0.02. Your bonus pay is now $1.30.</p>\n            ","response":0,"trial_type":"html-button-response","trial_index":134,"time_elapsed":303711,"internal_node_id":"0.0-4.0-1.63","subject_id":"6122c5682f4d660d61f6532f","study_id":"6197b3f67c2b5cd3b6d9596a","session_id":"6197b9ee1b1ec4569f21f7d4","condition":"full-information","relevant_dimensions":["wings","pattern"],"bee_group":{"antennae":"X","wings":"1","pattern":"D","legs":"X"},"bonus":1.4800000000000009},{"rt":52887.80000001192,"stimulus":"You have completed the first part of this experiment.<br><br>You will now begin a shorter second part, in which you will receive no feedback.<br>The same rules regarding bonus pay apply.<br><br>Press any key to begin.","response":"s","trial_type":"html-keyboard-response","trial_index":135,"time_elapsed":356601,"internal_node_id":"0.0-5.0","subject_id":"6122c5682f4d660d61f6532f","study_id":"6197b3f67c2b5cd3b6d9596a","session_id":"6197b9ee1b1ec4569f21f7d4","condition":"full-information","relevant_dimensions":["wings","pattern"],"bee_group":{"antennae":"X","wings":"1","pattern":"D","legs":"X"},"bonus":1.4800000000000009},{"rt":2193,"stimulus":"bees-with-color/bee-B2SF.svg","response":0,"trial_type":"image-button-response","trial_index":136,"time_elapsed":358803,"internal_node_id":"0.0-6.0-0.0","subject_id":"6122c5682f4d660d61f6532f","study_id":"6197b3f67c2b5cd3b6d9596a","session_id":"6197b9ee1b1ec4569f21f7d4","condition":"full-information","relevant_dimensions":["wings","pattern"],"bee_group":{"antennae":"X","wings":"1","pattern":"D","legs":"X"},"bonus":1.4800000000000009},{"rt":3472.699999988079,"stimulus":"bees-with-color/bee-A1SM.svg","response":0,"trial_type":"image-button-response","trial_index":137,"time_elapsed":362277,"internal_node_id":"0.0-6.0-0.1","subject_id":"6122c5682f4d660d61f6532f","study_id":"6197b3f67c2b5cd3b6d9596a","session_id":"6197b9ee1b1ec4569f21f7d4","condition":"full-information","relevant_dimensions":["wings","pattern"],"bee_group":{"antennae":"X","wings":"1","pattern":"D","legs":"X"},"bonus":1.4800000000000009},{"rt":1883.9000000059605,"stimulus":"bees-with-color/bee-A2DF.svg","response":0,"trial_type":"image-button-response","trial_index":138,"time_elapsed":364163,"internal_node_id":"0.0-6.0-0.2","subject_id":"6122c5682f4d660d61f6532f","study_id":"6197b3f67c2b5cd3b6d9596a","session_id":"6197b9ee1b1ec4569f21f7d4","condition":"full-information","relevant_dimensions":["wings","pattern"],"bee_group":{"antennae":"X","wings":"1","pattern":"D","legs":"X"},"bonus":1.4800000000000009},{"rt":2622.0999999940395,"stimulus":"bees-with-color/bee-A2SF.svg","response":0,"trial_type":"image-button-response","trial_index":139,"time_elapsed":366787,"internal_node_id":"0.0-6.0-0.3","subject_id":"6122c5682f4d660d61f6532f","study_id":"6197b3f67c2b5cd3b6d9596a","session_id":"6197b9ee1b1ec4569f21f7d4","condition":"full-information","relevant_dimensions":["wings","pattern"],"bee_group":{"antennae":"X","wings":"1","pattern":"D","legs":"X"},"bonus":1.4800000000000009},{"rt":768.1999999880791,"stimulus":"bees-with-color/bee-B2DM.svg","response":1,"trial_type":"image-button-response","trial_index":140,"time_elapsed":367557,"internal_node_id":"0.0-6.0-0.4","subject_id":"6122c5682f4d660d61f6532f","study_id":"6197b3f67c2b5cd3b6d9596a","session_id":"6197b9ee1b1ec4569f21f7d4","condition":"full-information","relevant_dimensions":["wings","pattern"],"bee_group":{"antennae":"X","wings":"1","pattern":"D","legs":"X"},"bonus":1.4800000000000009},{"rt":803.3000000119209,"stimulus":"bees-with-color/bee-B1DM.svg","response":1,"trial_type":"image-button-response","trial_index":141,"time_elapsed":368363,"internal_node_id":"0.0-6.0-0.5","subject_id":"6122c5682f4d660d61f6532f","study_id":"6197b3f67c2b5cd3b6d9596a","session_id":"6197b9ee1b1ec4569f21f7d4","condition":"full-information","relevant_dimensions":["wings","pattern"],"bee_group":{"antennae":"X","wings":"1","pattern":"D","legs":"X"},"bonus":1.4800000000000009},{"rt":916,"stimulus":"bees-with-color/bee-B1SM.svg","response":0,"trial_type":"image-button-response","trial_index":142,"time_elapsed":369281,"internal_node_id":"0.0-6.0-0.6","subject_id":"6122c5682f4d660d61f6532f","study_id":"6197b3f67c2b5cd3b6d9596a","session_id":"6197b9ee1b1ec4569f21f7d4","condition":"full-information","relevant_dimensions":["wings","pattern"],"bee_group":{"antennae":"X","wings":"1","pattern":"D","legs":"X"},"bonus":1.4800000000000009},{"rt":1872.300000011921,"stimulus":"bees-with-color/bee-A1DM.svg","response":0,"trial_type":"image-button-response","trial_index":143,"time_elapsed":371156,"internal_node_id":"0.0-6.0-0.7","subject_id":"6122c5682f4d660d61f6532f","study_id":"6197b3f67c2b5cd3b6d9596a","session_id":"6197b9ee1b1ec4569f21f7d4","condition":"full-information","relevant_dimensions":["wings","pattern"],"bee_group":{"antennae":"X","wings":"1","pattern":"D","legs":"X"},"bonus":1.4800000000000009},{"rt":4283.699999988079,"stimulus":"bees-with-color/bee-A1SF.svg","response":1,"trial_type":"image-button-response","trial_index":144,"time_elapsed":375441,"internal_node_id":"0.0-6.0-0.8","subject_id":"6122c5682f4d660d61f6532f","study_id":"6197b3f67c2b5cd3b6d9596a","session_id":"6197b9ee1b1ec4569f21f7d4","condition":"full-information","relevant_dimensions":["wings","pattern"],"bee_group":{"antennae":"X","wings":"1","pattern":"D","legs":"X"},"bonus":1.4800000000000009},{"rt":1117.800000011921,"stimulus":"bees-with-color/bee-A2SM.svg","response":0,"trial_type":"image-button-response","trial_index":145,"time_elapsed":376561,"internal_node_id":"0.0-6.0-0.9","subject_id":"6122c5682f4d660d61f6532f","study_id":"6197b3f67c2b5cd3b6d9596a","session_id":"6197b9ee1b1ec4569f21f7d4","condition":"full-information","relevant_dimensions":["wings","pattern"],"bee_group":{"antennae":"X","wings":"1","pattern":"D","legs":"X"},"bonus":1.4800000000000009},{"rt":5733.5,"stimulus":"bees-with-color/bee-B1DF.svg","response":1,"trial_type":"image-button-response","trial_index":146,"time_elapsed":382296,"internal_node_id":"0.0-6.0-0.10","subject_id":"6122c5682f4d660d61f6532f","study_id":"6197b3f67c2b5cd3b6d9596a","session_id":"6197b9ee1b1ec4569f21f7d4","condition":"full-information","relevant_dimensions":["wings","pattern"],"bee_group":{"antennae":"X","wings":"1","pattern":"D","legs":"X"},"bonus":1.4800000000000009},{"rt":1060.800000011921,"stimulus":"bees-with-color/bee-A1DF.svg","response":1,"trial_type":"image-button-response","trial_index":147,"time_elapsed":383359,"internal_node_id":"0.0-6.0-0.11","subject_id":"6122c5682f4d660d61f6532f","study_id":"6197b3f67c2b5cd3b6d9596a","session_id":"6197b9ee1b1ec4569f21f7d4","condition":"full-information","relevant_dimensions":["wings","pattern"],"bee_group":{"antennae":"X","wings":"1","pattern":"D","legs":"X"},"bonus":1.4800000000000009},{"rt":2524.4000000059605,"stimulus":"bees-with-color/bee-B2DF.svg","response":1,"trial_type":"image-button-response","trial_index":148,"time_elapsed":385885,"internal_node_id":"0.0-6.0-0.12","subject_id":"6122c5682f4d660d61f6532f","study_id":"6197b3f67c2b5cd3b6d9596a","session_id":"6197b9ee1b1ec4569f21f7d4","condition":"full-information","relevant_dimensions":["wings","pattern"],"bee_group":{"antennae":"X","wings":"1","pattern":"D","legs":"X"},"bonus":1.4800000000000009},{"rt":712.5,"stimulus":"bees-with-color/bee-A2DM.svg","response":0,"trial_type":"image-button-response","trial_index":149,"time_elapsed":386599,"internal_node_id":"0.0-6.0-0.13","subject_id":"6122c5682f4d660d61f6532f","study_id":"6197b3f67c2b5cd3b6d9596a","session_id":"6197b9ee1b1ec4569f21f7d4","condition":"full-information","relevant_dimensions":["wings","pattern"],"bee_group":{"antennae":"X","wings":"1","pattern":"D","legs":"X"},"bonus":1.4800000000000009},{"rt":537.9000000059605,"stimulus":"bees-with-color/bee-B1SF.svg","response":0,"trial_type":"image-button-response","trial_index":150,"time_elapsed":387139,"internal_node_id":"0.0-6.0-0.14","subject_id":"6122c5682f4d660d61f6532f","study_id":"6197b3f67c2b5cd3b6d9596a","session_id":"6197b9ee1b1ec4569f21f7d4","condition":"full-information","relevant_dimensions":["wings","pattern"],"bee_group":{"antennae":"X","wings":"1","pattern":"D","legs":"X"},"bonus":1.4800000000000009},{"rt":699.5,"stimulus":"bees-with-color/bee-B2SM.svg","response":0,"trial_type":"image-button-response","trial_index":151,"time_elapsed":387840,"internal_node_id":"0.0-6.0-0.15","subject_id":"6122c5682f4d660d61f6532f","study_id":"6197b3f67c2b5cd3b6d9596a","session_id":"6197b9ee1b1ec4569f21f7d4","condition":"full-information","relevant_dimensions":["wings","pattern"],"bee_group":{"antennae":"X","wings":"1","pattern":"D","legs":"X"},"bonus":1.4800000000000009},{"rt":659.5999999940395,"stimulus":"bees-with-color/bee-A2SM.svg","response":0,"trial_type":"image-button-response","trial_index":152,"time_elapsed":388501,"internal_node_id":"0.0-6.0-0.16","subject_id":"6122c5682f4d660d61f6532f","study_id":"6197b3f67c2b5cd3b6d9596a","session_id":"6197b9ee1b1ec4569f21f7d4","condition":"full-information","relevant_dimensions":["wings","pattern"],"bee_group":{"antennae":"X","wings":"1","pattern":"D","legs":"X"},"bonus":1.4800000000000009},{"rt":969.5,"stimulus":"bees-with-color/bee-B2DM.svg","response":0,"trial_type":"image-button-response","trial_index":153,"time_elapsed":389472,"internal_node_id":"0.0-6.0-0.17","subject_id":"6122c5682f4d660d61f6532f","study_id":"6197b3f67c2b5cd3b6d9596a","session_id":"6197b9ee1b1ec4569f21f7d4","condition":"full-information","relevant_dimensions":["wings","pattern"],"bee_group":{"antennae":"X","wings":"1","pattern":"D","legs":"X"},"bonus":1.4800000000000009},{"rt":2025.6000000238419,"stimulus":"bees-with-color/bee-A2DF.svg","response":1,"trial_type":"image-button-response","trial_index":154,"time_elapsed":391499,"internal_node_id":"0.0-6.0-0.18","subject_id":"6122c5682f4d660d61f6532f","study_id":"6197b3f67c2b5cd3b6d9596a","session_id":"6197b9ee1b1ec4569f21f7d4","condition":"full-information","relevant_dimensions":["wings","pattern"],"bee_group":{"antennae":"X","wings":"1","pattern":"D","legs":"X"},"bonus":1.4800000000000009},{"rt":2850.5,"stimulus":"bees-with-color/bee-A1DM.svg","response":1,"trial_type":"image-button-response","trial_index":155,"time_elapsed":394351,"internal_node_id":"0.0-6.0-0.19","subject_id":"6122c5682f4d660d61f6532f","study_id":"6197b3f67c2b5cd3b6d9596a","session_id":"6197b9ee1b1ec4569f21f7d4","condition":"full-information","relevant_dimensions":["wings","pattern"],"bee_group":{"antennae":"X","wings":"1","pattern":"D","legs":"X"},"bonus":1.4800000000000009},{"rt":649.7000000178814,"stimulus":"bees-with-color/bee-B2SM.svg","response":0,"trial_type":"image-button-response","trial_index":156,"time_elapsed":395002,"internal_node_id":"0.0-6.0-0.20","subject_id":"6122c5682f4d660d61f6532f","study_id":"6197b3f67c2b5cd3b6d9596a","session_id":"6197b9ee1b1ec4569f21f7d4","condition":"full-information","relevant_dimensions":["wings","pattern"],"bee_group":{"antennae":"X","wings":"1","pattern":"D","legs":"X"},"bonus":1.4800000000000009},{"rt":549.6000000238419,"stimulus":"bees-with-color/bee-A1SF.svg","response":0,"trial_type":"image-button-response","trial_index":157,"time_elapsed":395553,"internal_node_id":"0.0-6.0-0.21","subject_id":"6122c5682f4d660d61f6532f","study_id":"6197b3f67c2b5cd3b6d9596a","session_id":"6197b9ee1b1ec4569f21f7d4","condition":"full-information","relevant_dimensions":["wings","pattern