[{"success":true,"trial_type":"fullscreen","trial_index":0,"time_elapsed":3903,"internal_node_id":"0.0-0.0","subject_id":"608c349d8e7f57e8f84d3a27","study_id":"60edd13110225f80f9f3709b","session_id":"6196d064e22c89fcfa1ab880","condition":"contingent","relevant_dimensions":["pattern","legs"],"bee_group":{"antennae":"X","wings":"X","pattern":"S","legs":"F"},"bonus":1.180000000000001},{"success":true,"timeout":false,"failed_images":[],"failed_audio":[],"failed_video":[],"trial_type":"preload","trial_index":1,"time_elapsed":6201,"internal_node_id":"0.0-1.0","subject_id":"608c349d8e7f57e8f84d3a27","study_id":"60edd13110225f80f9f3709b","session_id":"6196d064e22c89fcfa1ab880","condition":"contingent","relevant_dimensions":["pattern","legs"],"bee_group":{"antennae":"X","wings":"X","pattern":"S","legs":"F"},"bonus":1.180000000000001},{"rt":3575,"stimulus":"Welcome! Press any key to begin.","response":" ","trial_type":"html-keyboard-response","trial_index":2,"time_elapsed":9778,"internal_node_id":"0.0-2.0","subject_id":"608c349d8e7f57e8f84d3a27","study_id":"60edd13110225f80f9f3709b","session_id":"6196d064e22c89fcfa1ab880","condition":"contingent","relevant_dimensions":["pattern","legs"],"bee_group":{"antennae":"X","wings":"X","pattern":"S","legs":"F"},"bonus":1.180000000000001},{"view_history":[{"page_index":0,"viewing_time":3308.1999999284744},{"page_index":1,"viewing_time":12477.100000023842},{"page_index":2,"viewing_time":5777.100000023842},{"page_index":3,"viewing_time":16589.199999928474},{"page_index":4,"viewing_time":9530.900000095367},{"page_index":5,"viewing_time":8972.599999904633},{"page_index":6,"viewing_time":10758.800000071526},{"page_index":7,"viewing_time":6520.100000023842},{"page_index":6,"viewing_time":2229.0999999046326},{"page_index":7,"viewing_time":3951.2000000476837},{"page_index":8,"viewing_time":3314.2999999523163},{"page_index":7,"viewing_time":1346.3000000715256},{"page_index":8,"viewing_time":3188.5},{"page_index":9,"viewing_time":5899.5},{"page_index":10,"viewing_time":2458.6999999284744},{"page_index":11,"viewing_time":7104.100000023842},{"page_index":12,"viewing_time":6732.800000071526},{"page_index":13,"viewing_time":1480.7999999523163},{"page_index":14,"viewing_time":2522.399999976158}],"rt":114162.5,"trial_type":"instructions","trial_index":3,"time_elapsed":123941,"internal_node_id":"0.0-3.0-0.0","subject_id":"608c349d8e7f57e8f84d3a27","study_id":"60edd13110225f80f9f3709b","session_id":"6196d064e22c89fcfa1ab880","condition":"contingent","relevant_dimensions":["pattern","legs"],"bee_group":{"antennae":"X","wings":"X","pattern":"S","legs":"F"},"bonus":1.180000000000001},{"rt":13451.699999928474,"response":{"Q0":["Two or six legs","Stripes or spots on body","Single or double wings","Antennae or no antennae"]},"question_order":[0],"trial_type":"survey-multi-select","trial_index":4,"time_elapsed":137400,"internal_node_id":"0.0-3.0-1.0","subject_id":"608c349d8e7f57e8f84d3a27","study_id":"60edd13110225f80f9f3709b","session_id":"6196d064e22c89fcfa1ab880","condition":"contingent","relevant_dimensions":["pattern","legs"],"bee_group":{"antennae":"X","wings":"X","pattern":"S","legs":"F"},"correct":true,"bonus":1.180000000000001},{"rt":18973.399999976158,"response":{"Q1":"No.","Q2":"Based on the four features of the bee.","Q3":"You do not learn if it was friendly or dangerous, and do not alter your bonus."},"question_order":[0,1,2],"trial_type":"survey-multi-choice","trial_index":5,"time_elapsed":156386,"internal_node_id":"0.0-3.0-2.0","subject_id":"608c349d8e7f57e8f84d3a27","study_id":"60edd13110225f80f9f3709b","session_id":"6196d064e22c89fcfa1ab880","condition":"contingent","relevant_dimensions":["pattern","legs"],"bee_group":{"antennae":"X","wings":"X","pattern":"S","legs":"F"},"correct":true,"bonus":1.180000000000001},{"rt":2887.8000000715256,"stimulus":"<p>Congrats, you got everything right<br>When you're ready, click the button below to continue to the experiment.</p>","response":0,"trial_type":"html-button-response","trial_index":6,"time_elapsed":159284,"internal_node_id":"0.0-3.0-3.0","subject_id":"608c349d8e7f57e8f84d3a27","study_id":"60edd13110225f80f9f3709b","session_id":"6196d064e22c89fcfa1ab880","condition":"contingent","relevant_dimensions":["pattern","legs"],"bee_group":{"antennae":"X","wings":"X","pattern":"S","legs":"F"},"bonus":1.180000000000001},{"rt":3671.7000000476837,"stimulus":"bees-with-color/bee-B2DF.svg","response":0,"trial_type":"image-button-response","trial_index":7,"time_elapsed":162958,"internal_node_id":"0.0-4.0-0.0","subject_id":"608c349d8e7f57e8f84d3a27","study_id":"60edd13110225f80f9f3709b","session_id":"6196d064e22c89fcfa1ab880","condition":"contingent","relevant_dimensions":["pattern","legs"],"bee_group":{"antennae":"X","wings":"X","pattern":"S","legs":"F"},"action":"harvest","summary":"good-harvest","bonus":1.180000000000001},{"rt":6026,"stimulus":"\n                    <p><b>Action: <em>harvest</em></b></p>\n                    <p>This is the bee that you just saw.</p>\n                    <img src=\"bees-with-color/bee-B2DF.svg\" width=\"200\">\n                    <p><span class=\"greenText\"><b>Successful harvest!</b></span><br>Your pay has increased by $0.02. Your bonus pay is now $0.56.</p>\n            ","response":0,"trial_type":"html-button-response","trial_index":8,"time_elapsed":168988,"internal_node_id":"0.0-4.0-1.0","subject_id":"608c349d8e7f57e8f84d3a27","study_id":"60edd13110225f80f9f3709b","session_id":"6196d064e22c89fcfa1ab880","condition":"contingent","relevant_dimensions":["pattern","legs"],"bee_group":{"antennae":"X","wings":"X","pattern":"S","legs":"F"},"bonus":1.180000000000001},{"rt":2339,"stimulus":"bees-with-color/bee-A2DF.svg","response":0,"trial_type":"image-button-response","trial_index":9,"time_elapsed":171331,"internal_node_id":"0.0-4.0-0.1","subject_id":"608c349d8e7f57e8f84d3a27","study_id":"60edd13110225f80f9f3709b","session_id":"6196d064e22c89fcfa1ab880","condition":"contingent","relevant_dimensions":["pattern","legs"],"bee_group":{"antennae":"X","wings":"X","pattern":"S","legs":"F"},"action":"harvest","summary":"good-harvest","bonus":1.180000000000001},{"rt":3154.7000000476837,"stimulus":"\n                    <p><b>Action: <em>harvest</em></b></p>\n                    <p>This is the bee that you just saw.</p>\n                    <img src=\"bees-with-color/bee-A2DF.svg\" width=\"200\">\n                    <p><span class=\"greenText\"><b>Successful harvest!</b></span><br>Your pay has increased by $0.02. Your bonus pay is now $0.58.</p>\n            ","response":0,"trial_type":"html-button-response","trial_index":10,"time_elapsed":174490,"internal_node_id":"0.0-4.0-1.1","subject_id":"608c349d8e7f57e8f84d3a27","study_id":"60edd13110225f80f9f3709b","session_id":"6196d064e22c89fcfa1ab880","condition":"contingent","relevant_dimensions":["pattern","legs"],"bee_group":{"antennae":"X","wings":"X","pattern":"S","legs":"F"},"bonus":1.180000000000001},{"rt":2278,"stimulus":"bees-with-color/bee-A2DM.svg","response":1,"trial_type":"image-button-response","trial_index":11,"time_elapsed":176772,"internal_node_id":"0.0-4.0-0.2","subject_id":"608c349d8e7f57e8f84d3a27","study_id":"60edd13110225f80f9f3709b","session_id":"6196d064e22c89fcfa1ab880","condition":"contingent","relevant_dimensions":["pattern","legs"],"bee_group":{"antennae":"X","wings":"X","pattern":"S","legs":"F"},"action":"avoid","summary":"bad-avoid","bonus":1.180000000000001},{"rt":10273.5,"stimulus":"\n                    <p><b>Action: <em>avoid</em></b></p>\n                    <p>This is the bee that you just saw.</p>\n                    <img src=\"bees-with-color/bee-A2DM.svg\" width=\"200\">\n                    <p><br>Your bonus pay is unchanged, and remains at $0.58.</p>\n            ","response":0,"trial_type":"html-button-response","trial_index":12,"time_elapsed":187047,"internal_node_id":"0.0-4.0-1.2","subject_id":"608c349d8e7f57e8f84d3a27","study_id":"60edd13110225f80f9f3709b","session_id":"6196d064e22c89fcfa1ab880","condition":"contingent","relevant_dimensions":["pattern","legs"],"bee_group":{"antennae":"X","wings":"X","pattern":"S","legs":"F"},"bonus":1.180000000000001},{"rt":5778.5,"stimulus":"bees-with-color/bee-A1DF.svg","response":0,"trial_type":"image-button-response","trial_index":13,"time_elapsed":192829,"internal_node_id":"0.0-4.0-0.3","subject_id":"608c349d8e7f57e8f84d3a27","study_id":"60edd13110225f80f9f3709b","session_id":"6196d064e22c89fcfa1ab880","condition":"contingent","relevant_dimensions":["pattern","legs"],"bee_group":{"antennae":"X","wings":"X","pattern":"S","legs":"F"},"action":"harvest","summary":"good-harvest","bonus":1.180000000000001},{"rt":3624.7999999523163,"stimulus":"\n                    <p><b>Action: <em>harvest</em></b></p>\n                    <p>This is the bee that you just saw.</p>\n                    <img src=\"bees-with-color/bee-A1DF.svg\" width=\"200\">\n                    <p><span class=\"greenText\"><b>Successful harvest!</b></span><br>Your pay has increased by $0.02. Your bonus pay is now $0.60.</p>\n            ","response":0,"trial_type":"html-button-response","trial_index":14,"time_elapsed":196457,"internal_node_id":"0.0-4.0-1.3","subject_id":"608c349d8e7f57e8f84d3a27","study_id":"60edd13110225f80f9f3709b","session_id":"6196d064e22c89fcfa1ab880","condition":"contingent","relevant_dimensions":["pattern","legs"],"bee_group":{"antennae":"X","wings":"X","pattern":"S","legs":"F"},"bonus":1.180000000000001},{"rt":3022.100000023842,"stimulus":"bees-with-color/bee-B2SM.svg","response":0,"trial_type":"image-button-response","trial_index":15,"time_elapsed":199483,"internal_node_id":"0.0-4.0-0.4","subject_id":"608c349d8e7f57e8f84d3a27","study_id":"60edd13110225f80f9f3709b","session_id":"6196d064e22c89fcfa1ab880","condition":"contingent","relevant_dimensions":["pattern","legs"],"bee_group":{"antennae":"X","wings":"X","pattern":"S","legs":"F"},"action":"harvest","summary":"good-harvest","bonus":1.180000000000001},{"rt":2241.4000000953674,"stimulus":"\n                    <p><b>Action: <em>harvest</em></b></p>\n                    <p>This is the bee that you just saw.</p>\n                    <img src=\"bees-with-color/bee-B2SM.svg\" width=\"200\">\n                    <p><span class=\"greenText\"><b>Successful harvest!</b></span><br>Your pay has increased by $0.02. Your bonus pay is now $0.62.</p>\n            ","response":0,"trial_type":"html-button-response","trial_index":16,"time_elapsed":201727,"internal_node_id":"0.0-4.0-1.4","subject_id":"608c349d8e7f57e8f84d3a27","study_id":"60edd13110225f80f9f3709b","session_id":"6196d064e22c89fcfa1ab880","condition":"contingent","relevant_dimensions":["pattern","legs"],"bee_group":{"antennae":"X","wings":"X","pattern":"S","legs":"F"},"bonus":1.180000000000001},{"rt":1355.7000000476837,"stimulus":"bees-with-color/bee-A2SM.svg","response":0,"trial_type":"image-button-response","trial_index":17,"time_elapsed":203086,"internal_node_id":"0.0-4.0-0.5","subject_id":"608c349d8e7f57e8f84d3a27","study_id":"60edd13110225f80f9f3709b","session_id":"6196d064e22c89fcfa1ab880","condition":"contingent","relevant_dimensions":["pattern","legs"],"bee_group":{"antennae":"X","wings":"X","pattern":"S","legs":"F"},"action":"harvest","summary":"good-harvest","bonus":1.180000000000001},{"rt":1395.3999999761581,"stimulus":"\n                    <p><b>Action: <em>harvest</em></b></p>\n                    <p>This is the bee that you just saw.</p>\n                    <img src=\"bees-with-color/bee-A2SM.svg\" width=\"200\">\n                    <p><span class=\"greenText\"><b>Successful harvest!</b></span><br>Your pay has increased by $0.02. Your bonus pay is now $0.64.</p>\n            ","response":0,"trial_type":"html-button-response","trial_index":18,"time_elapsed":204484,"internal_node_id":"0.0-4.0-1.5","subject_id":"608c349d8e7f57e8f84d3a27","study_id":"60edd13110225f80f9f3709b","session_id":"6196d064e22c89fcfa1ab880","condition":"contingent","relevant_dimensions":["pattern","legs"],"bee_group":{"antennae":"X","wings":"X","pattern":"S","legs":"F"},"bonus":1.180000000000001},{"rt":1580.3000000715256,"stimulus":"bees-with-color/bee-B1SF.svg","response":0,"trial_type":"image-button-response","trial_index":19,"time_elapsed":206067,"internal_node_id":"0.0-4.0-0.6","subject_id":"608c349d8e7f57e8f84d3a27","study_id":"60edd13110225f80f9f3709b","session_id":"6196d064e22c89fcfa1ab880","condition":"contingent","relevant_dimensions":["pattern","legs"],"bee_group":{"antennae":"X","wings":"X","pattern":"S","legs":"F"},"action":"harvest","summary":"bad-harvest","bonus":1.180000000000001},{"rt":6192.700000047684,"stimulus":"\n                    <p><b>Action: <em>harvest</em></b></p>\n                    <p>This is the bee that you just saw.</p>\n                    <img src=\"bees-with-color/bee-B1SF.svg\" width=\"200\">\n                    <p><span class=\"redText\">Bad choice, the bee was angry.</span><br><b>You have been stung!</b><br>Your pay has been decreased by $0.10. Your bonus pay is now $0.54.</p>\n            ","response":0,"trial_type":"html-button-response","trial_index":20,"time_elapsed":212263,"internal_node_id":"0.0-4.0-1.6","subject_id":"608c349d8e7f57e8f84d3a27","study_id":"60edd13110225f80f9f3709b","session_id":"6196d064e22c89fcfa1ab880","condition":"contingent","relevant_dimensions":["pattern","legs"],"bee_group":{"antennae":"X","wings":"X","pattern":"S","legs":"F"},"bonus":1.180000000000001},{"rt":2161.2000000476837,"stimulus":"bees-with-color/bee-B2SF.svg","response":0,"trial_type":"image-button-response","trial_index":21,"time_elapsed":214427,"internal_node_id":"0.0-4.0-0.7","subject_id":"608c349d8e7f57e8f84d3a27","study_id":"60edd13110225f80f9f3709b","session_id":"6196d064e22c89fcfa1ab880","condition":"contingent","relevant_dimensions":["pattern","legs"],"bee_group":{"antennae":"X","wings":"X","pattern":"S","legs":"F"},"action":"harvest","summary":"bad-harvest","bonus":1.180000000000001},{"rt":3808.399999976158,"stimulus":"\n                    <p><b>Action: <em>harvest</em></b></p>\n                    <p>This is the bee that you just saw.</p>\n                    <img src=\"bees-with-color/bee-B2SF.svg\" width=\"200\">\n                    <p><span class=\"redText\">Bad choice, the bee was angry.</span><br><b>You have been stung!</b><br>Your pay has been decreased by $0.10. Your bonus pay is now $0.44.</p>\n            ","response":0,"trial_type":"html-button-response","trial_index":22,"time_elapsed":218237,"internal_node_id":"0.0-4.0-1.7","subject_id":"608c349d8e7f57e8f84d3a27","study_id":"60edd13110225f80f9f3709b","session_id":"6196d064e22c89fcfa1ab880","condition":"contingent","relevant_dimensions":["pattern","legs"],"bee_group":{"antennae":"X","wings":"X","pattern":"S","legs":"F"},"bonus":1.180000000000001},{"rt":3204.5,"stimulus":"bees-with-color/bee-A1SF.svg","response":1,"trial_type":"image-button-response","trial_index":23,"time_elapsed":221445,"internal_node_id":"0.0-4.0-0.8","subject_id":"608c349d8e7f57e8f84d3a27","study_id":"60edd13110225f80f9f3709b","session_id":"6196d064e22c89fcfa1ab880","condition":"contingent","relevant_dimensions":["pattern","legs"],"bee_group":{"antennae":"X","wings":"X","pattern":"S","legs":"F"},"action":"avoid","summary":"good-avoid","bonus":1.180000000000001},{"rt":1488.1000000238419,"stimulus":"\n                    <p><b>Action: <em>avoid</em></b></p>\n                    <p>This is the bee that you just saw.</p>\n                    <img src=\"bees-with-color/bee-A1SF.svg\" width=\"200\">\n                    <p><br>Your bonus pay is unchanged, and remains at $0.44.</p>\n            ","response":0,"trial_type":"html-button-response","trial_index":24,"time_elapsed":222936,"internal_node_id":"0.0-4.0-1.8","subject_id":"608c349d8e7f57e8f84d3a27","study_id":"60edd13110225f80f9f3709b","session_id":"6196d064e22c89fcfa1ab880","condition":"contingent","relevant_dimensions":["pattern","legs"],"bee_group":{"antennae":"X","wings":"X","pattern":"S","legs":"F"},"bonus":1.180000000000001},{"rt":2378.399999976158,"stimulus":"bees-with-color/bee-A1SM.svg","response":0,"trial_type":"image-button-response","trial_index":25,"time_elapsed":225317,"internal_node_id":"0.0-4.0-0.9","subject_id":"608c349d8e7f57e8f84d3a27","study_id":"60edd13110225f80f9f3709b","session_id":"6196d064e22c89fcfa1ab880","condition":"contingent","relevant_dimensions":["pattern","legs"],"bee_group":{"antennae":"X","wings":"X","pattern":"S","legs":"F"},"action":"harvest","summary":"good-harvest","bonus":1.180000000000001},{"rt":1248.2000000476837,"stimulus":"\n                    <p><b>Action: <em>harvest</em></b></p>\n                    <p>This is the bee that you just saw.</p>\n                    <img src=\"bees-with-color/bee-A1SM.svg\" width=\"200\">\n                    <p><span class=\"greenText\"><b>Successful harvest!</b></span><br>Your pay has increased by $0.02. Your bonus pay is now $0.46.</p>\n            ","response":0,"trial_type":"html-button-response","trial_index":26,"time_elapsed":226568,"internal_node_id":"0.0-4.0-1.9","subject_id":"608c349d8e7f57e8f84d3a27","study_id":"60edd13110225f80f9f3709b","session_id":"6196d064e22c89fcfa1ab880","condition":"contingent","relevant_dimensions":["pattern","legs"],"bee_group":{"antennae":"X","wings":"X","pattern":"S","legs":"F"},"bonus":1.180000000000001},{"rt":1731.7000000476837,"stimulus":"bees-with-color/bee-B1DF.svg","response":0,"trial_type":"image-button-response","trial_index":27,"time_elapsed":228303,"internal_node_id":"0.0-4.0-0.10","subject_id":"608c349d8e7f57e8f84d3a27","study_id":"60edd13110225f80f9f3709b","session_id":"6196d064e22c89fcfa1ab880","condition":"contingent","relevant_dimensions":["pattern","legs"],"bee_group":{"antennae":"X","wings":"X","pattern":"S","legs":"F"},"action":"harvest","summary":"good-harvest","bonus":1.180000000000001},{"rt":988.8000000715256,"stimulus":"\n                    <p><b>Action: <em>harvest</em></b></p>\n                    <p>This is the bee that you just saw.</p>\n                    <img src=\"bees-with-color/bee-B1DF.svg\" width=\"200\">\n                    <p><span class=\"greenText\"><b>Successful harvest!</b></span><br>Your pay has increased by $0.02. Your bonus pay is now $0.48.</p>\n            ","response":0,"trial_type":"html-button-response","trial_index":28,"time_elapsed":229294,"internal_node_id":"0.0-4.0-1.10","subject_id":"608c349d8e7f57e8f84d3a27","study_id":"60edd13110225f80f9f3709b","session_id":"6196d064e22c89fcfa1ab880","condition":"contingent","relevant_dimensions":["pattern","legs"],"bee_group":{"antennae":"X","wings":"X","pattern":"S","legs":"F"},"bonus":1.180000000000001},{"rt":1574.3999999761581,"stimulus":"bees-with-color/bee-B1SM.svg","response":0,"trial_type":"image-button-response","trial_index":29,"time_elapsed":230871,"internal_node_id":"0.0-4.0-0.11","subject_id":"608c349d8e7f57e8f84d3a27","study_id":"60edd13110225f80f9f3709b","session_id":"6196d064e22c89fcfa1ab880","condition":"contingent","relevant_dimensions":["pattern","legs"],"bee_group":{"antennae":"X","wings":"X","pattern":"S","legs":"F"},"action":"harvest","summary":"good-harvest","bonus":1.180000000000001},{"rt":929.0999999046326,"stimulus":"\n                    <p><b>Action: <em>harvest</em></b></p>\n                    <p>This is the bee that you just saw.</p>\n                    <img src=\"bees-with-color/bee-B1SM.svg\" width=\"200\">\n                    <p><span class=\"greenText\"><b>Successful harvest!</b></span><br>Your pay has increased by $0.02. Your bonus pay is now $0.50.</p>\n            ","response":0,"trial_type":"html-button-response","trial_index":30,"time_elapsed":231802,"internal_node_id":"0.0-4.0-1.11","subject_id":"608c349d8e7f57e8f84d3a27","study_id":"60edd13110225f80f9f3709b","session_id":"6196d064e22c89fcfa1ab880","condition":"contingent","relevant_dimensions":["pattern","legs"],"bee_group":{"antennae":"X","wings":"X","pattern":"S","legs":"F"},"bonus":1.180000000000001},{"rt":1454.2000000476837,"stimulus":"bees-with-color/bee-B1DM.svg","response":0,"trial_type":"image-button-response","trial_index":31,"time_elapsed":233259,"internal_node_id":"0.0-4.0-0.12","subject_id":"608c349d8e7f57e8f84d3a27","study_id":"60edd13110225f80f9f3709b","session_id":"6196d064e22c89fcfa1ab880","condition":"contingent","relevant_dimensions":["pattern","legs"],"bee_group":{"antennae":"X","wings":"X","pattern":"S","legs":"F"},"action":"harvest","summary":"good-harvest","bonus":1.180000000000001},{"rt":1300.5,"stimulus":"\n                    <p><b>Action: <em>harvest</em></b></p>\n                    <p>This is the bee that you just saw.</p>\n                    <img src=\"bees-with-color/bee-B1DM.svg\" width=\"200\">\n                    <p><span class=\"greenText\"><b>Successful harvest!</b></span><br>Your pay has increased by $0.02. Your bonus pay is now $0.52.</p>\n            ","response":0,"trial_type":"html-button-response","trial_index":32,"time_elapsed":234562,"internal_node_id":"0.0-4.0-1.12","subject_id":"608c349d8e7f57e8f84d3a27","study_id":"60edd13110225f80f9f3709b","session_id":"6196d064e22c89fcfa1ab880","condition":"contingent","relevant_dimensions":["pattern","legs"],"bee_group":{"antennae":"X","wings":"X","pattern":"S","legs":"F"},"bonus":1.180000000000001},{"rt":1176.1999999284744,"stimulus":"bees-with-color/bee-A1DM.svg","response":0,"trial_type":"image-button-response","trial_index":33,"time_elapsed":235740,"internal_node_id":"0.0-4.0-0.13","subject_id":"608c349d8e7f57e8f84d3a27","study_id":"60edd13110225f80f9f3709b","session_id":"6196d064e22c89fcfa1ab880","condition":"contingent","relevant_dimensions":["pattern","legs"],"bee_group":{"antennae":"X","wings":"X","pattern":"S","legs":"F"},"action":"harvest","summary":"good-harvest","bonus":1.180000000000001},{"rt":959,"stimulus":"\n                    <p><b>Action: <em>harvest</em></b></p>\n                    <p>This is the bee that you just saw.</p>\n                    <img src=\"bees-with-color/bee-A1DM.svg\" width=\"200\">\n                    <p><span class=\"greenText\"><b>Successful harvest!</b></span><br>Your pay has increased by $0.02. Your bonus pay is now $0.54.</p>\n            ","response":0,"trial_type":"html-button-response","trial_index":34,"time_elapsed":236701,"internal_node_id":"0.0-4.0-1.13","subject_id":"608c349d8e7f57e8f84d3a27","study_id":"60edd13110225f80f9f3709b","session_id":"6196d064e22c89fcfa1ab880","condition":"contingent","relevant_dimensions":["pattern","legs"],"bee_group":{"antennae":"X","wings":"X","pattern":"S","legs":"F"},"bonus":1.180000000000001},{"rt":1391.7999999523163,"stimulus":"bees-with-color/bee-B2DM.svg","response":0,"trial_type":"image-button-response","trial_index":35,"time_elapsed":238095,"internal_node_id":"0.0-4.0-0.14","subject_id":"608c349d8e7f57e8f84d3a27","study_id":"60edd13110225f80f9f3709b","session_id":"6196d064e22c89fcfa1ab880","condition":"contingent","relevant_dimensions":["pattern","legs"],"bee_group":{"antennae":"X","wings":"X","pattern":"S","legs":"F"},"action":"harvest","summary":"good-harvest","bonus":1.180000000000001},{"rt":953.5999999046326,"stimulus":"\n                    <p><b>Action: <em>harvest</em></b></p>\n                    <p>This is the bee that you just saw.</p>\n                    <img src=\"bees-with-color/bee-B2DM.svg\" width=\"200\">\n                    <p><span class=\"greenText\"><b>Successful harvest!</b></span><br>Your pay has increased by $0.02. Your bonus pay is now $0.56.</p>\n            ","response":0,"trial_type":"html-button-response","trial_index":36,"time_elapsed":239051,"internal_node_id":"0.0-4.0-1.14","subject_id":"608c349d8e7f57e8f84d3a27","study_id":"60edd13110225f80f9f3709b","session_id":"6196d064e22c89fcfa1ab880","condition":"contingent","relevant_dimensions":["pattern","legs"],"bee_group":{"antennae":"X","wings":"X","pattern":"S","legs":"F"},"bonus":1.180000000000001},{"rt":3343.5,"stimulus":"bees-with-color/bee-A2SF.svg","response":1,"trial_type":"image-button-response","trial_index":37,"time_elapsed":242397,"internal_node_id":"0.0-4.0-0.15","subject_id":"608c349d8e7f57e8f84d3a27","study_id":"60edd13110225f80f9f3709b","session_id":"6196d064e22c89fcfa1ab880","condition":"contingent","relevant_dimensions":["pattern","legs"],"bee_group":{"antennae":"X","wings":"X","pattern":"S","legs":"F"},"action":"avoid","summary":"good-avoid","bonus":1.180000000000001},{"rt":1265.6000000238419,"stimulus":"\n                    <p><b>Action: <em>avoid</em></b></p>\n                    <p>This is the bee that you just saw.</p>\n                    <img src=\"bees-with-color/bee-A2SF.svg\" width=\"200\">\n                    <p><br>Your bonus pay is unchanged, and remains at $0.56.</p>\n            ","response":0,"trial_type":"html-button-response","trial_index":38,"time_elapsed":243665,"internal_node_id":"0.0-4.0-1.15","subject_id":"608c349d8e7f57e8f84d3a27","study_id":"60edd13110225f80f9f3709b","session_id":"6196d064e22c89fcfa1ab880","condition":"contingent","relevant_dimensions":["pattern","legs"],"bee_group":{"antennae":"X","wings":"X","pattern":"S","legs":"F"},"bonus":1.180000000000001},{"rt":1388.7999999523163,"stimulus":"bees-with-color/bee-B2SF.svg","response":1,"trial_type":"image-button-response","trial_index":39,"time_elapsed":245057,"internal_node_id":"0.0-4.0-0.16","subject_id":"608c349d8e7f57e8f84d3a27","study_id":"60edd13110225f80f9f3709b","session_id":"6196d064e22c89fcfa1ab880","condition":"contingent","relevant_dimensions":["pattern","legs"],"bee_group":{"antennae":"X","wings":"X","pattern":"S","legs":"F"},"action":"avoid","summary":"good-avoid","bonus":1.180000000000001},{"rt":806.3999999761581,"stimulus":"\n                    <p><b>Action: <em>avoid</em></b></p>\n                    <p>This is the bee that you just saw.</p>\n                    <img src=\"bees-with-color/bee-B2SF.svg\" width=\"200\">\n                    <p><br>Your bonus pay is unchanged, and remains at $0.56.</p>\n            ","response":0,"trial_type":"html-button-response","trial_index":40,"time_elapsed":245865,"internal_node_id":"0.0-4.0-1.16","subject_id":"608c349d8e7f57e8f84d3a27","study_id":"60edd13110225f80f9f3709b","session_id":"6196d064e22c89fcfa1ab880","condition":"contingent","relevant_dimensions":["pattern","legs"],"bee_group":{"antennae":"X","wings":"X","pattern":"S","legs":"F"},"bonus":1.180000000000001},{"rt":1358.8999999761581,"stimulus":"bees-with-color/bee-B2DF.svg","response":0,"trial_type":"image-button-response","trial_index":41,"time_elapsed":247226,"internal_node_id":"0.0-4.0-0.17","subject_id":"608c349d8e7f57e8f84d3a27","study_id":"60edd13110225f80f9f3709b","session_id":"6196d064e22c89fcfa1ab880","condition":"contingent","relevant_dimensions":["pattern","legs"],"bee_group":{"antennae":"X","wings":"X","pattern":"S","legs":"F"},"action":"harvest","summary":"good-harvest","bonus":1.180000000000001},{"rt":1299.3000000715256,"stimulus":"\n                    <p><b>Action: <em>harvest</em></b></p>\n                    <p>This is the bee that you just saw.</p>\n                    <img src=\"bees-with-color/bee-B2DF.svg\" width=\"200\">\n                    <p><span class=\"greenText\"><b>Successful harvest!</b></span><br>Your pay has increased by $0.02. Your bonus pay is now $0.58.</p>\n            ","response":0,"trial_type":"html-button-response","trial_index":42,"time_elapsed":248528,"internal_node_id":"0.0-4.0-1.17","subject_id":"608c349d8e7f57e8f84d3a27","study_id":"60edd13110225f80f9f3709b","session_id":"6196d064e22c89fcfa1ab880","condition":"contingent","relevant_dimensions":["pattern","legs"],"bee_group":{"antennae":"X","wings":"X","pattern":"S","legs":"F"},"bonus":1.180000000000001},{"rt":1236.1000000238419,"stimulus":"bees-with-color/bee-B1DM.svg","response":0,"trial_type":"image-button-response","trial_index":43,"time_elapsed":249766,"internal_node_id":"0.0-4.0-0.18","subject_id":"608c349d8e7f57e8f84d3a27","study_id":"60edd13110225f80f9f3709b","session_id":"6196d064e22c89fcfa1ab880","condition":"contingent","relevant_dimensions":["pattern","legs"],"bee_group":{"antennae":"X","wings":"X","pattern":"S","legs":"F"},"action":"harvest","summary":"good-harvest","bonus":1.180000000000001},{"rt":970.6000000238419,"stimulus":"\n                    <p><b>Action: <em>harvest</em></b></p>\n                    <p>This is the bee that you just saw.</p>\n                    <img src=\"bees-with-color/bee-B1DM.svg\" width=\"200\">\n                    <p><span class=\"greenText\"><b>Successful harvest!</b></span><br>Your pay has increased by $0.02. Your bonus pay is now $0.60.</p>\n            ","response":0,"trial_type":"html-button-response","trial_index":44,"time_elapsed":250739,"internal_node_id":"0.0-4.0-1.18","subject_id":"608c349d8e7f57e8f84d3a27","study_id":"60edd13110225f80f9f3709b","session_id":"6196d064e22c89fcfa1ab880","condition":"contingent","relevant_dimensions":["pattern","legs"],"bee_group":{"antennae":"X","wings":"X","pattern":"S","legs":"F"},"bonus":1.180000000000001},{"rt":1764.2999999523163,"stimulus":"bees-with-color/bee-A2SM.svg","response":0,"trial_type":"image-button-response","trial_index":45,"time_elapsed":252506,"internal_node_id":"0.0-4.0-0.19","subject_id":"608c349d8e7f57e8f84d3a27","study_id":"60edd13110225f80f9f3709b","session_id":"6196d064e22c89fcfa1ab880","condition":"contingent","relevant_dimensions":["pattern","legs"],"bee_group":{"antennae":"X","wings":"X","pattern":"S","legs":"F"},"action":"harvest","summary":"good-harvest","bonus":1.180000000000001},{"rt":881.8000000715256,"stimulus":"\n                    <p><b>Action: <em>harvest</em></b></p>\n                    <p>This is the bee that you just saw.</p>\n                    <img src=\"bees-with-color/bee-A2SM.svg\" width=\"200\">\n                    <p><span class=\"greenText\"><b>Successful harvest!</b></span><br>Your pay has increased by $0.02. Your bonus pay is now $0.62.</p>\n            ","response":0,"trial_type":"html-button-response","trial_index":46,"time_elapsed":253390,"internal_node_id":"0.0-4.0-1.19","subject_id":"608c349d8e7f57e8f84d3a27","study_id":"60edd13110225f80f9f3709b","session_id":"6196d064e22c89fcfa1ab880","condition":"contingent","relevant_dimensions":["pattern","legs"],"bee_group":{"antennae":"X","wings":"X","pattern":"S","legs":"F"},"bonus":1.180000000000001},{"rt":1202.7000000476837,"stimulus":"bees-with-color/bee-B1DF.svg","response":0,"trial_type":"image-button-response","trial_index":47,"time_elapsed":254596,"internal_node_id":"0.0-4.0-0.20","subject_id":"608c349d8e7f57e8f84d3a27","study_id":"60edd13110225f80f9f3709b","session_id":"6196d064e22c89fcfa1ab880","condition":"contingent","relevant_dimensions":["pattern","legs"],"bee_group":{"antennae":"X","wings":"X","pattern":"S","legs":"F"},"action":"harvest","summary":"good-harvest","bonus":1.180000000000001},{"rt":877.6000000238419,"stimulus":"\n                    <p><b>Action: <em>harvest</em></b></p>\n                    <p>This is the bee that you just saw.</p>\n                    <img src=\"bees-with-color/bee-B1DF.svg\" width=\"200\">\n                    <p><span class=\"greenText\"><b>Successful harvest!</b></span><br>Your pay has increased by $0.02. Your bonus pay is now $0.64.</p>\n            ","response":0,"trial_type":"html-button-response","trial_index":48,"time_elapsed":255476,"internal_node_id":"0.0-4.0-1.20","subject_id":"608c349d8e7f57e8f84d3a27","study_id":"60edd13110225f80f9f3709b","session_id":"6196d064e22c89fcfa1ab880","condition":"contingent","relevant_dimensions":["pattern","legs"],"bee_group":{"antennae":"X","wings":"X","pattern":"S","legs":"F"},"bonus":1.180000000000001},{"rt":1499.7000000476837,"stimulus":"bees-with-color/bee-B1SF.svg","response":0,"trial_type":"image-button-response","trial_index":49,"time_elapsed":256978,"internal_node_id":"0.0-4.0-0.21","subject_id":"608c349d8e7f57e8f84d3a27","study_id":"60edd13110225f80f9f3709b","session_id":"6196d064e22c89fcfa1ab880","condition":"contingent","relevant_dimensions":["pattern","legs"],"bee_group":{"antennae":"X","wings":"X","pattern":"S","legs":"F"},"action":"harvest","summary":"bad-harvest","bonus":1.180000000000001},{"rt":1728.6000000238419,"stimulus":"\n                    <p><b>Action: <em>harvest</em></b></p>\n                    <p>This is the bee that you just saw.</p>\n                    <img src=\"bees-with-color/bee-B1SF.svg\" width=\"200\">\n                    <p><span class=\"redText\">Bad choice, the bee was angry.</span><br><b>You have been stung!</b><br>Your pay has been decreased by $0.10. Your bonus pay is now $0.54.</p>\n            ","response":0,"trial_type":"html-button-response","trial_index":50,"time_elapsed":258709,"internal_node_id":"0.0-4.0-1.21","subject_id":"608c349d8e7f57e8f84d3a27","study_id":"60edd13110225f80f9f3709b","session_id":"6196d064e22c89fcfa1ab880","condition":"contingent","relevant_dimensions":["pattern","legs"],"bee_group":{"antennae":"X","wings":"X","pattern":"S","legs":"F"},"bonus":1.180000000000001},{"rt":2522.9000000953674,"stimulus":"bees-with-color/bee-B2SM.svg","response":0,"trial_type":"image-button-response","trial_index":51,"time_elapsed":261233,"internal_node_id":"0.0-4.0-0.22","subject_id":"608c349d8e7f57e8f84d3a27","study_id":"60edd13110225f80f9f3709b","session_id":"6196d064e22c89fcfa1ab880","condition":"contingent","relevant_dimensions":["pattern","legs"],"bee_group":{"antennae":"X","wings":"X","pattern":"S","legs":"F"},"action":"harvest","summary":"good-harvest","bonus":1.180000000000001},{"rt":851.8999999761581,"stimulus":"\n                    <p><b>Action: <em>harvest</em></b></p>\n                    <p>This is the bee that you just saw.</p>\n                    <img src=\"bees-with-color/bee-B2SM.svg\" width=\"200\">\n                    <p><span class=\"greenText\"><b>Successful harvest!</b></span><br>Your pay has increased by $0.02. Your bonus pay is now $0.56.</p>\n            ","response":0,"trial_type":"html-button-response","trial_index":52,"time_elapsed":262088,"internal_node_id":"0.0-4.0-1.22","subject_id":"608c349d8e7f57e8f84d3a27","study_id":"60edd13110225f80f9f3709b","session_id":"6196d064e22c89fcfa1ab880","condition":"contingent","relevant_dimensions":["pattern","legs"],"bee_group":{"antennae":"X","wings":"X","pattern":"S","legs":"F"},"bonus":1.180000000000001},{"rt":1198.1000000238419,"stimulus":"bees-with-color/bee-A2DM.svg","response":0,"trial_type":"image-button-response","trial_index":53,"time_elapsed":263289,"internal_node_id":"0.0-4.0-0.23","subject_id":"608c349d8e7f57e8f84d3a27","study_id":"60edd13110225f80f9f3709b","session_id":"6196d064e22c89fcfa1ab880","condition":"contingent","relevant_dimensions":["pattern","legs"],"bee_group":{"antennae":"X","wings":"X","pattern":"S","legs":"F"},"action":"harvest","summary":"good-harvest","bonus":1.180000000000001},{"rt":848.2000000476837,"stimulus":"\n                    <p><b>Action: <em>harvest</em></b></p>\n                    <p>This is the bee that you just saw.</p>\n                    <img src=\"bees-with-color/bee-A2DM.svg\" width=\"200\">\n                    <p><span class=\"greenText\"><b>Successful harvest!</b></span><br>Your pay has increased by $0.02. Your bonus pay is now $0.58.</p>\n            ","response":0,"trial_type":"html-button-response","trial_index":54,"time_elapsed":264139,"internal_node_id":"0.0-4.0-1.23","subject_id":"608c349d8e7f57e8f84d3a27","study_id":"60edd13110225f80f9f3709b","session_id":"6196d064e22c89fcfa1ab880","condition":"contingent","relevant_dimensions":["pattern","legs"],"bee_group":{"antennae":"X","wings":"X","pattern":"S","legs":"F"},"bonus":1.180000000000001},{"rt":1592.2999999523163,"stimulus":"bees-with-color/bee-A1DF.svg","response":1,"trial_type":"image-button-response","trial_index":55,"time_elapsed":265734,"internal_node_id":"0.0-4.0-0.24","subject_id":"608c349d8e7f57e8f84d3a27","study_id":"60edd13110225f80f9f3709b","session_id":"6196d064e22c89fcfa1ab880","condition":"contingent","relevant_dimensions":["pattern","legs"],"bee_group":{"antennae":"X","wings":"X","pattern":"S","legs":"F"},"action":"avoid","summary":"bad-avoid","bonus":1.180000000000001},{"rt":864.2000000476837,"stimulus":"\n                    <p><b>Action: <em>avoid</em></b></p>\n                    <p>This is the bee that you just saw.</p>\n                    <img src=\"bees-with-color/bee-A1DF.svg\" width=\"200\">\n                    <p><br>Your bonus pay is unchanged, and remains at $0.58.</p>\n            ","response":0,"trial_type":"html-button-response","trial_index":56,"time_elapsed":266601,"internal_node_id":"0.0-4.0-1.24","subject_id":"608c349d8e7f57e8f84d3a27","study_id":"60edd13110225f80f9f3709b","session_id":"6196d064e22c89fcfa1ab880","condition":"contingent","relevant_dimensions":["pattern","legs"],"bee_group":{"antennae":"X","wings":"X","pattern":"S","legs":"F"},"bonus":1.180000000000001},{"rt":1360.6000000238419,"stimulus":"bees-with-color/bee-A2SF.svg","response":1,"trial_type":"image-button-response","trial_index":57,"time_elapsed":267964,"internal_node_id":"0.0-4.0-0.25","subject_id":"608c349d8e7f57e8f84d3a27","study_id":"60edd13110225f80f9f3709b","session_id":"6196d064e22c89fcfa1ab880","condition":"contingent","relevant_dimensions":["pattern","legs"],"bee_group":{"antennae":"X","wings":"X","pattern":"S","legs":"F"},"action":"avoid","summary":"good-avoid","bonus":1.180000000000001},{"rt":784,"stimulus":"\n                    <p><b>Action: <em>avoid</em></b></p>\n                    <p>This is the bee that you just saw.</p>\n                    <img src=\"bees-with-color/bee-A2SF.svg\" width=\"200\">\n                    <p><br>Your bonus pay is unchanged, and remains at $0.58.</p>\n            ","response":0,"trial_type":"html-button-response","trial_index":58,"time_elapsed":268750,"internal_node_id":"0.0-4.0-1.25","subject_id":"608c349d8e7f57e8f84d3a27","study_id":"60edd13110225f80f9f3709b","session_id":"6196d064e22c89fcfa1ab880","condition":"contingent","relevant_dimensions":["pattern","legs"],"bee_group":{"antennae":"X","wings":"X","pattern":"S","legs":"F"},"bonus":1.180000000000001},{"rt":1066.5,"stimulus":"bees-with-color/bee-B2DM.svg","response":0,"trial_type":"image-button-response","trial_index":59,"time_elapsed":269819,"internal_node_id":"0.0-4.0-0.26","subject_id":"608c349d8e7f57e8f84d3a27","study_id":"60edd13110225f80f9f3709b","session_id":"6196d064e22c89fcfa1ab880","condition":"contingent","relevant_dimensions":["pattern","legs"],"bee_group":{"antennae":"X","wings":"X","pattern":"S","legs":"F"},"action":"harvest","summary":"good-harvest","bonus":1.180000000000001},{"rt":787,"stimulus":"\n                    <p><b>Action: <em>harvest</em></b></p>\n                    <p>This is the bee that you just saw.</p>\n                    <img src=\"bees-with-color/bee-B2DM.svg\" width=\"200\">\n                    <p><span class=\"greenText\"><b>Successful harvest!</b></span><br>Your pay has increased by $0.02. Your bonus pay is now $0.60.</p>\n            ","response":0,"trial_type":"html-button-response","trial_index":60,"time_elapsed":270609,"internal_node_id":"0.0-4.0-1.26","subject_id":"608c349d8e7f57e8f84d3a27","study_id":"60edd13110225f80f9f3709b","session_id":"6196d064e22c89fcfa1ab880","condition":"contingent","relevant_dimensions":["pattern","legs"],"bee_group":{"antennae":"X","wings":"X","pattern":"S","legs":"F"},"bonus":1.180000000000001},{"rt":1048.8999999761581,"stimulus":"bees-with-color/bee-A1DM.svg","response":0,"trial_type":"image-button-response","trial_index":61,"time_elapsed":271660,"internal_node_id":"0.0-4.0-0.27","subject_id":"608c349d8e7f57e8f84d3a27","study_id":"60edd13110225f80f9f3709b","session_id":"6196d064e22c89fcfa1ab880","condition":"contingent","relevant_dimensions":["pattern","legs"],"bee_group":{"antennae":"X","wings":"X","pattern":"S","legs":"F"},"action":"harvest","summary":"good-harvest","bonus":1.180000000000001},{"rt":816.5999999046326,"stimulus":"\n                    <p><b>Action: <em>harvest</em></b></p>\n                    <p>This is the bee that you just saw.</p>\n                    <img src=\"bees-with-color/bee-A1DM.svg\" width=\"200\">\n                    <p><span class=\"greenText\"><b>Successful harvest!</b></span><br>Your pay has increased by $0.02. Your bonus pay is now $0.62.</p>\n            ","response":0,"trial_type":"html-button-response","trial_index":62,"time_elapsed":272479,"internal_node_id":"0.0-4.0-1.27","subject_id":"608c349d8e7f57e8f84d3a27","study_id":"60edd13110225f80f9f3709b","session_id":"6196d064e22c89fcfa1ab880","condition":"contingent","relevant_dimensions":["pattern","legs"],"bee_group":{"antennae":"X","wings":"X","pattern":"S","legs":"F"},"bonus":1.180000000000001},{"rt":1550.2999999523163,"stimulus":"bees-with-color/bee-A1SF.svg","response":1,"trial_type":"image-button-response","trial_index":63,"time_elapsed":274031,"internal_node_id":"0.0-4.0-0.28","subject_id":"608c349d8e7f57e8f84d3a27","study_id":"60edd13110225f80f9f3709b","session_id":"6196d064e22c89fcfa1ab880","condition":"contingent","relevant_dimensions":["pattern","legs"],"bee_group":{"antennae":"X","wings":"X","pattern":"S","legs":"F"},"action":"avoid","summary":"good-avoid","bonus":1.180000000000001},{"rt":820.5,"stimulus":"\n                    <p><b>Action: <em>avoid</em></b></p>\n                    <p>This is the bee that you just saw.</p>\n                    <img src=\"bees-with-color/bee-A1SF.svg\" width=\"200\">\n                    <p><br>Your bonus pay is unchanged, and remains at $0.62.</p>\n            ","response":0,"trial_type":"html-button-response","trial_index":64,"time_elapsed":274855,"internal_node_id":"0.0-4.0-1.28","subject_id":"608c349d8e7f57e8f84d3a27","study_id":"60edd13110225f80f9f3709b","session_id":"6196d064e22c89fcfa1ab880","condition":"contingent","relevant_dimensions":["pattern","legs"],"bee_group":{"antennae":"X","wings":"X","pattern":"S","legs":"F"},"bonus":1.180000000000001},{"rt":1729,"stimulus":"bees-with-color/bee-B1SM.svg","response":0,"trial_type":"image-button-response","trial_index":65,"time_elapsed":276586,"internal_node_id":"0.0-4.0-0.29","subject_id":"608c349d8e7f57e8f84d3a27","study_id":"60edd13110225f80f9f3709b","session_id":"6196d064e22c89fcfa1ab880","condition":"contingent","relevant_dimensions":["pattern","legs"],"bee_group":{"antennae":"X","wings":"X","pattern":"S","legs":"F"},"action":"harvest","summary":"good-harvest","bonus":1.180000000000001},{"rt":911.2999999523163,"stimulus":"\n                    <p><b>Action: <em>harvest</em></b></p>\n                    <p>This is the bee that you just saw.</p>\n                    <img src=\"bees-with-color/bee-B1SM.svg\" width=\"200\">\n                    <p><span class=\"greenText\"><b>Successful harvest!</b></span><br>Your pay has increased by $0.02. Your bonus pay is now $0.64.</p>\n            ","response":0,"trial_type":"html-button-response","trial_index":66,"time_elapsed":277500,"internal_node_id":"0.0-4.0-1.29","subject_id":"608c349d8e7f57e8f84d3a27","study_id":"60edd13110225f80f9f3709b","session_id":"6196d064e22c89fcfa1ab880","condition":"contingent","relevant_dimensions":["pattern","legs"],"bee_group":{"antennae":"X","wings":"X","pattern":"S","legs":"F"},"bonus":1.180000000000001},{"rt":1039.2000000476837,"stimulus":"bees-with-color/bee-A1SM.svg","response":0,"trial_type":"image-button-response","trial_index":67,"time_elapsed":278542,"internal_node_id":"0.0-4.0-0.30","subject_id":"608c349d8e7f57e8f84d3a27","study_id":"60edd13110225f80f9f3709b","session_id":"6196d064e22c89fcfa1ab880","condition":"contingent","relevant_dimensions":["pattern","legs"],"bee_group":{"antennae":"X","wings":"X","pattern":"S","legs":"F"},"action":"harvest","summary":"good-harvest","bonus":1.180000000000001},{"rt":1202.1000000238419,"stimulus":"\n                    <p><b>Action: <em>harvest</em></b></p>\n                    <p>This is the bee that you just saw.</p>\n                    <img src=\"bees-with-color/bee-A1SM.svg\" width=\"200\">\n                    <p><span class=\"greenText\"><b>Successful harvest!</b></span><br>Your pay has increased by $0.02. Your bonus pay is now $0.66.</p>\n            ","response":0,"trial_type":"html-button-response","trial_index":68,"time_elapsed":279747,"internal_node_id":"0.0-4.0-1.30","subject_id":"608c349d8e7f57e8f84d3a27","study_id":"60edd13110225f80f9f3709b","session_id":"6196d064e22c89fcfa1ab880","condition":"contingent","relevant_dimensions":["pattern","legs"],"bee_group":{"antennae":"X","wings":"X","pattern":"S","legs":"F"},"bonus":1.180000000000001},{"rt":1080.6000000238419,"stimulus":"bees-with-color/bee-A2DF.svg","response":0,"trial_type":"image-button-response","trial_index":69,"time_elapsed":280830,"internal_node_id":"0.0-4.0-0.31","subject_id":"608c349d8e7f57e8f84d3a27","study_id":"60edd13110225f80f9f3709b","session_id":"6196d064e22c89fcfa1ab880","condition":"contingent","relevant_dimensions":["pattern","legs"],"bee_group":{"antennae":"X","wings":"X","pattern":"S","legs":"F"},"action":"harvest","summary":"good-harvest","bonus":1.180000000000001},{"rt":907,"stimulus":"\n                    <p><b>Action: <em>harvest</em></b></p>\n                    <p>This is the bee that you just saw.</p>\n                    <img src=\"bees-with-color/bee-A2DF.svg\" width=\"200\">\n                    <p><span class=\"greenText\"><b>Successful harvest!</b></span><br>Your pay has increased by $0.02. Your bonus pay is now $0.68.</p>\n            ","response":0,"trial_type":"html-button-response","trial_index":70,"time_elapsed":281740,"internal_node_id":"0.0-4.0-1.31","subject_id":"608c349d8e7f57e8f84d3a27","study_id":"60edd13110225f80f9f3709b","session_id":"6196d064e22c89fcfa1ab880","condition":"contingent","relevant_dimensions":["pattern","legs"],"bee_group":{"antennae":"X","wings":"X","pattern":"S","legs":"F"},"bonus":1.180000000000001},{"rt":1186.6999999284744,"stimulus":"bees-with-color/bee-A1SF.svg","response":1,"trial_type":"image-button-response","trial_index":71,"time_elapsed":282929,"internal_node_id":"0.0-4.0-0.32","subject_id":"608c349d8e7f57e8f84d3a27","study_id":"60edd13110225f80f9f3709b","session_id":"6196d064e22c89fcfa1ab880","condition":"contingent","relevant_dimensions":["pattern","legs"],"bee_group":{"antennae":"X","wings":"X","pattern":"S","legs":"F"},"action":"avoid","summary":"good-avoid","bonus":1.180000000000001},{"rt":832.7999999523163,"stimulus":"\n                    <p><b>Action: <em>avoid</em></b></p>\n                    <p>This is the bee that you just saw.</p>\n                    <img src=\"bees-with-color/bee-A1SF.svg\" width=\"200\">\n                    <p><br>Your bonus pay is unchanged, and remains at $0.68.</p>\n            ","response":0,"trial_type":"html-button-response","trial_index":72,"time_elapsed":283764,"internal_node_id":"0.0-4.0-1.32","subject_id":"608c349d8e7f57e8f84d3a27","study_id":"60edd13110225f80f9f3709b","session_id":"6196d064e22c89fcfa1ab880","condition":"contingent","relevant_dimensions":["pattern","legs"],"bee_group":{"antennae":"X","wings":"X","pattern":"S","legs":"F"},"bonus":1.180000000000001},{"rt":1327.7000000476837,"stimulus":"bees-with-color/bee-B1DM.svg","response":0,"trial_type":"image-button-response","trial_index":73,"time_elapsed":285094,"internal_node_id":"0.0-4.0-0.33","subject_id":"608c349d8e7f57e8f84d3a27","study_id":"60edd13110225f80f9f3709b","session_id":"6196d064e22c89fcfa1ab880","condition":"contingent","relevant_dimensions":["pattern","legs"],"bee_group":{"antennae":"X","wings":"X","pattern":"S","legs":"F"},"action":"harvest","summary":"good-harvest","bonus":1.180000000000001},{"rt":864.2999999523163,"stimulus":"\n                    <p><b>Action: <em>harvest</em></b></p>\n                    <p>This is the bee that you just saw.</p>\n                    <img src=\"bees-with-color/bee-B1DM.svg\" width=\"200\">\n                    <p><span class=\"greenText\"><b>Successful harvest!</b></span><br>Your pay has increased by $0.02. Your bonus pay is now $0.70.</p>\n            ","response":0,"trial_type":"html-button-response","trial_index":74,"time_elapsed":285960,"internal_node_id":"0.0-4.0-1.33","subject_id":"608c349d8e7f57e8f84d3a27","study_id":"60edd13110225f80f9f3709b","session_id":"6196d064e22c89fcfa1ab880","condition":"contingent","relevant_dimensions":["pattern","legs"],"bee_group":{"antennae":"X","wings":"X","pattern":"S","legs":"F"},"bonus":1.180000000000001},{"rt":1484.3000000715256,"stimulus":"bees-with-color/bee-B2SM.svg","response":0,"trial_type":"image-button-response","trial_index":75,"time_elapsed":287446,"internal_node_id":"0.0-4.0-0.34","subject_id":"608c349d8e7f57e8f84d3a27","study_id":"60edd13110225f80f9f3709b","session_id":"6196d064e22c89fcfa1ab880","condition":"contingent","relevant_dimensions":["pattern","legs"],"bee_group":{"antennae":"X","wings":"X","pattern":"S","legs":"F"},"action":"harvest","summary":"good-harvest","bonus":1.180000000000001},{"rt":817.6000000238419,"stimulus":"\n                    <p><b>Action: <em>harvest</em></b></p>\n                    <p>This is the bee that you just saw.</p>\n                    <img src=\"bees-with-color/bee-B2SM.svg\" width=\"200\">\n                    <p><span class=\"greenText\"><b>Successful harvest!</b></span><br>Your pay has increased by $0.02. Your bonus pay is now $0.72.</p>\n            ","response":0,"trial_type":"html-button-response","trial_index":76,"time_elapsed":288266,"internal_node_id":"0.0-4.0-1.34","subject_id":"608c349d8e7f57e8f84d3a27","study_id":"60edd13110225f80f9f3709b","session_id":"6196d064e22c89fcfa1ab880","condition":"contingent","relevant_dimensions":["pattern","legs"],"bee_group":{"antennae":"X","wings":"X","pattern":"S","legs":"F"},"bonus":1.180000000000001},{"rt":1142.7999999523163,"stimulus":"bees-with-color/bee-A2DF.svg","response":1,"trial_type":"image-button-response","trial_index":77,"time_elapsed":289411,"internal_node_id":"0.0-4.0-0.35","subject_id":"608c349d8e7f57e8f84d3a27","study_id":"60edd13110225f80f9f3709b","session_id":"6196d064e22c89fcfa1ab880","condition":"contingent","relevant_dimensions":["pattern","legs"],"bee_group":{"antennae":"X","wings":"X","pattern":"S","legs":"F"},"action":"avoid","summary":"bad-avoid","bonus":1.180000000000001},{"rt":816.9000000953674,"stimulus":"\n                    <p><b>Action: <em>avoid</em></b></p>\n                    <p>This is the bee that you just saw.</p>\n                    <img src=\"bees-with-color/bee-A2DF.svg\" width=\"200\">\n                    <p><br>Your bonus pay is unchanged, and remains at $0.72.</p>\n            ","response":0,"trial_type":"html-button-response","trial_index":78,"time_elapsed":290230,"internal_node_id":"0.0-4.0-1.35","subject_id":"608c349d8e7f57e8f84d3a27","study_id":"60edd13110225f80f9f3709b","session_id":"6196d064e22c89fcfa1ab880","condition":"contingent","relevant_dimensions":["pattern","legs"],"bee_group":{"antennae":"X","wings":"X","pattern":"S","legs":"F"},"bonus":1.180000000000001},{"rt":1233.0999999046326,"stimulus":"bees-with-color/bee-B1SF.svg","response":1,"trial_type":"image-button-response","trial_index":79,"time_elapsed":291465,"internal_node_id":"0.0-4.0-0.36","subject_id":"608c349d8e7f57e8f84d3a27","study_id":"60edd13110225f80f9f3709b","session_id":"6196d064e22c89fcfa1ab880","condition":"contingent","relevant_dimensions":["pattern","legs"],"bee_group":{"antennae":"X","wings":"X","pattern":"S","legs":"F"},"action":"avoid","summary":"good-avoid","bonus":1.180000000000001},{"rt":799.8999999761581,"stimulus":"\n                    <p><b>Action: <em>avoid</em></b></p>\n                    <p>This is the bee that you just saw.</p>\n                    <img src=\"bees-with-color/bee-B1SF.svg\" width=\"200\">\n                    <p><br>Your bonus pay is unchanged, and remains at $0.72.</p>\n            ","response":0,"trial_type":"html-button-response","trial_index":80,"time_elapsed":292267,"internal_node_id":"0.0-4.0-1.36","subject_id":"608c349d8e7f57e8f84d3a27","study_id":"60edd13110225f80f9f3709b","session_id":"6196d064e22c89fcfa1ab880","condition":"contingent","relevant_dimensions":["pattern","legs"],"bee_group":{"antennae":"X","wings":"X","pattern":"S","legs":"F"},"bonus":1.180000000000001},{"rt":1050.2999999523163,"stimulus":"bees-with-color/bee-A1SM.svg","response":0,"trial_type":"image-button-response","trial_index":81,"time_elapsed":293319,"internal_node_id":"0.0-4.0-0.37","subject_id":"608c349d8e7f57e8f84d3a27","study_id":"60edd13110225f80f9f3709b","session_id":"6196d064e22c89fcfa1ab880","condition":"contingent","relevant_dimensions":["pattern","legs"],"bee_group":{"antennae":"X","wings":"X","pattern":"S","legs":"F"},"action":"harvest","summary":"good-harvest","bonus":1.180000000000001},{"rt":756.8999999761581,"stimulus":"\n                    <p><b>Action: <em>harvest</em></b></p>\n                    <p>This is the bee that you just saw.</p>\n                    <img src=\"bees-with-color/bee-A1SM.svg\" width=\"200\">\n                    <p><span class=\"greenText\"><b>Successful harvest!</b></span><br>Your pay has increased by $0.02. Your bonus pay is now $0.74.</p>\n            ","response":0,"trial_type":"html-button-response","trial_index":82,"time_elapsed":294079,"internal_node_id":"0.0-4.0-1.37","subject_id":"608c349d8e7f57e8f84d3a27","study_id":"60edd13110225f80f9f3709b","session_id":"6196d064e22c89fcfa1ab880","condition":"contingent","relevant_dimensions":["pattern","legs"],"bee_group":{"antennae":"X","wings":"X","pattern":"S","legs":"F"},"bonus":1.180000000000001},{"rt":1038.3999999761581,"stimulus":"bees-with-color/bee-A2SM.svg","response":0,"trial_type":"image-button-response","trial_index":83,"time_elapsed":295119,"internal_node_id":"0.0-4.0-0.38","subject_id":"608c349d8e7f57e8f84d3a27","study_id":"60edd13110225f80f9f3709b","session_id":"6196d064e22c89fcfa1ab880","condition":"contingent","relevant_dimensions":["pattern","legs"],"bee_group":{"antennae":"X","wings":"X","pattern":"S","legs":"F"},"action":"harvest","summary":"good-harvest","bonus":1.180000000000001},{"rt":833.6000000238419,"stimulus":"\n                    <p><b>Action: <em>harvest</em></b></p>\n                    <p>This is the bee that you just saw.</p>\n                    <img src=\"bees-with-color/bee-A2SM.svg\" width=\"200\">\n                    <p><span class=\"greenText\"><b>Successful harvest!</b></span><br>Your pay has increased by $0.02. Your bonus pay is now $0.76.</p>\n            ","response":0,"trial_type":"html-button-response","trial_index":84,"time_elapsed":295954,"internal_node_id":"0.0-4.0-1.38","subject_id":"608c349d8e7f57e8f84d3a27","study_id":"60edd13110225f80f9f3709b","session_id":"6196d064e22c89fcfa1ab880","condition":"contingent","relevant_dimensions":["pattern","legs"],"bee_group":{"antennae":"X","wings":"X","pattern":"S","legs":"F"},"bonus":1.180000000000001},{"rt":914.1000000238419,"stimulus":"bees-with-color/bee-B2DM.svg","response":0,"trial_type":"image-button-response","trial_index":85,"time_elapsed":296871,"internal_node_id":"0.0-4.0-0.39","subject_id":"608c349d8e7f57e8f84d3a27","study_id":"60edd13110225f80f9f3709b","session_id":"6196d064e22c89fcfa1ab880","condition":"contingent","relevant_dimensions":["pattern","legs"],"bee_group":{"antennae":"X","wings":"X","pattern":"S","legs":"F"},"action":"harvest","summary":"good-harvest","bonus":1.180000000000001},{"rt":829.9000000953674,"stimulus":"\n                    <p><b>Action: <em>harvest</em></b></p>\n                    <p>This is the bee that you just saw.</p>\n                    <img src=\"bees-with-color/bee-B2DM.svg\" width=\"200\">\n                    <p><span class=\"greenText\"><b>Successful harvest!</b></span><br>Your pay has increased by $0.02. Your bonus pay is now $0.78.</p>\n            ","response":0,"trial_type":"html-button-response","trial_index":86,"time_elapsed":297703,"internal_node_id":"0.0-4.0-1.39","subject_id":"608c349d8e7f57e8f84d3a27","study_id":"60edd13110225f80f9f3709b","session_id":"6196d064e22c89fcfa1ab880","condition":"contingent","relevant_dimensions":["pattern","legs"],"bee_group":{"antennae":"X","wings":"X","pattern":"S","legs":"F"},"bonus":1.180000000000001},{"rt":1238.3000000715256,"stimulus":"bees-with-color/bee-B2SF.svg","response":0,"trial_type":"image-button-response","trial_index":87,"time_elapsed":298943,"internal_node_id":"0.0-4.0-0.40","subject_id":"608c349d8e7f57e8f84d3a27","study_id":"60edd13110225f80f9f3709b","session_id":"6196d064e22c89fcfa1ab880","condition":"contingent","relevant_dimensions":["pattern","legs"],"bee_group":{"antennae":"X","wings":"X","pattern":"S","legs":"F"},"action":"harvest","summary":"bad-harvest","bonus":1.180000000000001},{"rt":1984.3999999761581,"stimulus":"\n                    <p><b>Action: <em>harvest</em></b></p>\n                    <p>This is the bee that you just saw.</p>\n                    <img src=\"bees-with-color/bee-B2SF.svg\" width=\"200\">\n                    <p><span class=\"redText\">Bad choice, the bee was angry.</span><br><b>You have been stung!</b><br>Your pay has been decreased by $0.10. Your bonus pay is now $0.68.</p>\n            ","response":0,"trial_type":"html-button-response","trial_index":88,"time_elapsed":300930,"internal_node_id":"0.0-4.0-1.40","subject_id":"608c349d8e7f57e8f84d3a27","study_id":"60edd13110225f80f9f3709b","session_id":"6196d064e22c89fcfa1ab880","condition":"contingent","relevant_dimensions":["pattern","legs"],"bee_group":{"antennae":"X","wings":"X","pattern":"S","legs":"F"},"bonus":1.180000000000001},{"rt":1332.6000000238419,"stimulus":"bees-with-color/bee-B2DF.svg","response":0,"trial_type":"image-button-response","trial_index":89,"time_elapsed":302265,"internal_node_id":"0.0-4.0-0.41","subject_id":"608c349d8e7f57e8f84d3a27","study_id":"60edd13110225f80f9f3709b","session_id":"6196d064e22c89fcfa1ab880","condition":"contingent","relevant_dimensions":["pattern","legs"],"bee_group":{"antennae":"X","wings":"X","pattern":"S","legs":"F"},"action":"harvest","summary":"good-harvest","bonus":1.180000000000001},{"rt":913.6000000238419,"stimulus":"\n                    <p><b>Action: <em>harvest</em></b></p>\n                    <p>This is the bee that you just saw.</p>\n                    <img src=\"bees-with-color/bee-B2DF.svg\" width=\"200\">\n                    <p><span class=\"greenText\"><b>Successful harvest!</b></span><br>Your pay has increased by $0.02. Your bonus pay is now $0.70.</p>\n            ","response":0,"trial_type":"html-button-response","trial_index":90,"time_elapsed":303180,"internal_node_id":"0.0-4.0-1.41","subject_id":"608c349d8e7f57e8f84d3a27","study_id":"60edd13110225f80f9f3709b","session_id":"6196d064e22c89fcfa1ab880","condition":"contingent","relevant_dimensions":["pattern","legs"],"bee_group":{"antennae":"X","wings":"X","pattern":"S","legs":"F"},"bonus":1.180000000000001},{"rt":1006.2999999523163,"stimulus":"bees-with-color/bee-B1DF.svg","response":1,"trial_type":"image-button-response","trial_index":91,"time_elapsed":304189,"internal_node_id":"0.0-4.0-0.42","subject_id":"608c349d8e7f57e8f84d3a27","study_id":"60edd13110225f80f9f3709b","session_id":"6196d064e22c89fcfa1ab880","condition":"contingent","relevant_dimensions":["pattern","legs"],"bee_group":{"antennae":"X","wings":"X","pattern":"S","legs":"F"},"action":"avoid","summary":"bad-avoid","bonus":1.180000000000001},{"rt":775.2999999523163,"stimulus":"\n                    <p><b>Action: <em>avoid</em></b></p>\n                    <p>This is the bee that you just saw.</p>\n                    <img src=\"bees-with-color/bee-B1DF.svg\" width=\"200\">\n                    <p><br>Your bonus pay is unchanged, and remains at $0.70.</p>\n            ","response":0,"trial_type":"html-button-response","trial_index":92,"time_elapsed":304966,"internal_node_id":"0.0-4.0-1.42","subject_id":"608c349d8e7f57e8f84d3a27","study_id":"60edd13110225f80f9f3709b","session_id":"6196d064e22c89fcfa1ab880","condition":"contingent","relevant_dimensions":["pattern","legs"],"bee_group":{"antennae":"X","wings":"X","pattern":"S","legs":"F"},"bonus":1.180000000000001},{"rt":1543.1000000238419,"stimulus":"bees-with-color/bee-B1SM.svg","response":1,"trial_type":"image-button-response","trial_index":93,"time_elapsed":306512,"internal_node_id":"0.0-4.0-0.43","subject_id":"608c349d8e7f57e8f84d3a27","study_id":"60edd13110225f80f9f3709b","session_id":"6196d064e22c89fcfa1ab880","condition":"contingent","relevant_dimensions":["pattern","legs"],"bee_group":{"antennae":"X","wings":"X","pattern":"S","legs":"F"},"action":"avoid","summary":"bad-avoid","bonus":1.180000000000001},{"rt":1328.8000000715256,"stimulus":"\n                    <p><b>Action: <em>avoid</em></b></p>\n                    <p>This is the bee that you just saw.</p>\n                    <img src=\"bees-with-color/bee-B1SM.svg\" width=\"200\">\n                    <p><br>Your bonus pay is unchanged, and remains at $0.70.</p>\n            ","response":0,"trial_type":"html-button-response","trial_index":94,"time_elapsed":307843,"internal_node_id":"0.0-4.0-1.43","subject_id":"608c349d8e7f57e8f84d3a27","study_id":"60edd13110225f80f9f3709b","session_id":"6196d064e22c89fcfa1ab880","condition":"contingent","relevant_dimensions":["pattern","legs"],"bee_group":{"antennae":"X","wings":"X","pattern":"S","legs":"F"},"bonus":1.180000000000001},{"rt":848.2999999523163,"stimulus":"bees-with-color/bee-A2DM.svg","response":0,"trial_type":"image-button-response","trial_index":95,"time_elapsed":308693,"internal_node_id":"0.0-4.0-0.44","subject_id":"608c349d8e7f57e8f84d3a27","study_id":"60edd13110225f80f9f3709b","session_id":"6196d064e22c89fcfa1ab880","condition":"contingent","relevant_dimensions":["pattern","legs"],"bee_group":{"antennae":"X","wings":"X","pattern":"S","legs":"F"},"action":"harvest","summary":"good-harvest","bonus":1.180000000000001},{"rt":851,"stimulus":"\n                    <p><b>Action: <em>harvest</em></b></p>\n                    <p>This is the bee that you just saw.</p>\n                    <img src=\"bees-with-color/bee-A2DM.svg\" width=\"200\">\n                    <p><span class=\"greenText\"><b>Successful harvest!</b></span><br>Your pay has increased by $0.02. Your bonus pay is now $0.72.</p>\n            ","response":0,"trial_type":"html-button-response","trial_index":96,"time_elapsed":309547,"internal_node_id":"0.0-4.0-1.44","subject_id":"608c349d8e7f57e8f84d3a27","study_id":"60edd13110225f80f9f3709b","session_id":"6196d064e22c89fcfa1ab880","condition":"contingent","relevant_dimensions":["pattern","legs"],"bee_group":{"antennae":"X","wings":"X","pattern":"S","legs":"F"},"bonus":1.180000000000001},{"rt":1238,"stimulus":"bees-with-color/bee-A1DF.svg","response":1,"trial_type":"image-button-response","trial_index":97,"time_elapsed":310787,"internal_node_id":"0.0-4.0-0.45","subject_id":"608c349d8e7f57e8f84d3a27","study_id":"60edd13110225f80f9f3709b","session_id":"6196d064e22c89fcfa1ab880","condition":"contingent","relevant_dimensions":["pattern","legs"],"bee_group":{"antennae":"X","wings":"X","pattern":"S","legs":"F"},"action":"avoid","summary":"bad-avoid","bonus":1.180000000000001},{"rt":789.7999999523163,"stimulus":"\n                    <p><b>Action: <em>avoid</em></b></p>\n                    <p>This is the bee that you just saw.</p>\n                    <img src=\"bees-with-color/bee-A1DF.svg\" width=\"200\">\n                    <p><br>Your bonus pay is unchanged, and remains at $0.72.</p>\n            ","response":0,"trial_type":"html-button-response","trial_index":98,"time_elapsed":311579,"internal_node_id":"0.0-4.0-1.45","subject_id":"608c349d8e7f57e8f84d3a27","study_id":"60edd13110225f80f9f3709b","session_id":"6196d064e22c89fcfa1ab880","condition":"contingent","relevant_dimensions":["pattern","legs"],"bee_group":{"antennae":"X","wings":"X","pattern":"S","legs":"F"},"bonus":1.180000000000001},{"rt":909.7999999523163,"stimulus":"bees-with-color/bee-A1DM.svg","response":0,"trial_type":"image-button-response","trial_index":99,"time_elapsed":312491,"internal_node_id":"0.0-4.0-0.46","subject_id":"608c349d8e7f57e8f84d3a27","study_id":"60edd13110225f80f9f3709b","session_id":"6196d064e22c89fcfa1ab880","condition":"contingent","relevant_dimensions":["pattern","legs"],"bee_group":{"antennae":"X","wings":"X","pattern":"S","legs":"F"},"action":"harvest","summary":"good-harvest","bonus":1.180000000000001},{"rt":1127.4000000953674,"stimulus":"\n                    <p><b>Action: <em>harvest</em></b></p>\n                    <p>This is the bee that you just saw.</p>\n                    <img src=\"bees-with-color/bee-A1DM.svg\" width=\"200\">\n                    <p><span class=\"greenText\"><b>Successful harvest!</b></span><br>Your pay has increased by $0.02. Your bonus pay is now $0.74.</p>\n            ","response":0,"trial_type":"html-button-response","trial_index":100,"time_elapsed":313621,"internal_node_id":"0.0-4.0-1.46","subject_id":"608c349d8e7f57e8f84d3a27","study_id":"60edd13110225f80f9f3709b","session_id":"6196d064e22c89fcfa1ab880","condition":"contingent","relevant_dimensions":["pattern","legs"],"bee_group":{"antennae":"X","wings":"X","pattern":"S","legs":"F"},"bonus":1.180000000000001},{"rt":1083.4000000953674,"stimulus":"bees-with-color/bee-A2SF.svg","response":0,"trial_type":"image-button-response","trial_index":101,"time_elapsed":314706,"internal_node_id":"0.0-4.0-0.47","subject_id":"608c349d8e7f57e8f84d3a27","study_id":"60edd13110225f80f9f3709b","session_id":"6196d064e22c89fcfa1ab880","condition":"contingent","relevant_dimensions":["pattern","legs"],"bee_group":{"antennae":"X","wings":"X","pattern":"S","legs":"F"},"action":"harvest","summary":"bad-harvest","bonus":1.180000000000001},{"rt":2039.5,"stimulus":"\n                    <p><b>Action: <em>harvest</em></b></p>\n                    <p>This is the bee that you just saw.</p>\n                    <img src=\"bees-with-color/bee-A2SF.svg\" width=\"200\">\n                    <p><span class=\"redText\">Bad choice, the bee was angry.</span><br><b>You have been stung!</b><br>Your pay has been decreased by $0.10. Your bonus pay is now $0.64.</p>\n            ","response":0,"trial_type":"html-button-response","trial_index":102,"time_elapsed":316748,"internal_node_id":"0.0-4.0-1.47","subject_id":"608c349d8e7f57e8f84d3a27","study_id":"60edd13110225f80f9f3709b","session_id":"6196d064e22c89fcfa1ab880","condition":"contingent","relevant_dimensions":["pattern","legs"],"bee_group":{"antennae":"X","wings":"X","pattern":"S","legs":"F"},"bonus":1.180000000000001},{"rt":1375.6000000238419,"stimulus":"bees-with-color/bee-A1DM.svg","response":0,"trial_type":"image-button-response","trial_index":103,"time_elapsed":318126,"internal_node_id":"0.0-4.0-0.48","subject_id":"608c349d8e7f57e8f84d3a27","study_id":"60edd13110225f80f9f3709b","session_id":"6196d064e22c89fcfa1ab880","condition":"contingent","relevant_dimensions":["pattern","legs"],"bee_group":{"antennae":"X","wings":"X","pattern":"S","legs":"F"},"action":"harvest","summary":"good-harvest","bonus":1.180000000000001},{"rt":783.2999999523163,"stimulus":"\n                    <p><b>Action: <em>harvest</em></b></p>\n                    <p>This is the bee that you just saw.</p>\n                    <img src=\"bees-with-color/bee-A1DM.svg\" width=\"200\">\n                    <p><span class=\"greenText\"><b>Successful harvest!</b></span><br>Your pay has increased by $0.02. Your bonus pay is now $0.66.</p>\n            ","response":0,"trial_type":"html-button-response","trial_index":104,"time_elapsed":318912,"internal_node_id":"0.0-4.0-1.48","subject_id":"608c349d8e7f57e8f84d3a27","study_id":"60edd13110225f80f9f3709b","session_id":"6196d064e22c89fcfa1ab880","condition":"contingent","relevant_dimensions":["pattern","legs"],"bee_group":{"antennae":"X","wings":"X","pattern":"S","legs":"F"},"bonus":1.180000000000001},{"rt":1155.9000000953674,"stimulus":"bees-with-color/bee-A2SF.svg","response":1,"trial_type":"image-button-response","trial_index":105,"time_elapsed":320070,"internal_node_id":"0.0-4.0-0.49","subject_id":"608c349d8e7f57e8f84d3a27","study_id":"60edd13110225f80f9f3709b","session_id":"6196d064e22c89fcfa1ab880","condition":"contingent","relevant_dimensions":["pattern","legs"],"bee_group":{"antennae":"X","wings":"X","pattern":"S","legs":"F"},"action":"avoid","summary":"good-avoid","bonus":1.180000000000001},{"rt":725.5999999046326,"stimulus":"\n                    <p><b>Action: <em>avoid</em></b></p>\n                    <p>This is the bee that you just saw.</p>\n                    <img src=\"bees-with-color/bee-A2SF.svg\" width=\"200\">\n                    <p><br>Your bonus pay is unchanged, and remains at $0.66.</p>\n            ","response":0,"trial_type":"html-button-response","trial_index":106,"time_elapsed":320798,"internal_node_id":"0.0-4.0-1.49","subject_id":"608c349d8e7f57e8f84d3a27","study_id":"60edd13110225f80f9f3709b","session_id":"6196d064e22c89fcfa1ab880","condition":"contingent","relevant_dimensions":["pattern","legs"],"bee_group":{"antennae":"X","wings":"X","pattern":"S","legs":"F"},"bonus":1.180000000000001},{"rt":1191.6000000238419,"stimulus":"bees-with-color/bee-A1SF.svg","response":1,"trial_type":"image-button-response","trial_index":107,"time_elapsed":321993,"internal_node_id":"0.0-4.0-0.50","subject_id":"608c349d8e7f57e8f84d3a27","study_id":"60edd13110225f80f9f3709b","session_id":"6196d064e22c89fcfa1ab880","condition":"contingent","relevant_dimensions":["pattern","legs"],"bee_group":{"antennae":"X","wings":"X","pattern":"S","legs":"F"},"action":"avoid","summary":"good-avoid","bonus":1.180000000000001},{"rt":1094.7000000476837,"stimulus":"\n                    <p><b>Action: <em>avoid</em></b></p>\n                    <p>This is the bee that you just saw.</p>\n                    <img src=\"bees-with-color/bee-A1SF.svg\" width=\"200\">\n                    <p><br>Your bonus pay is unchanged, and remains at $0.66.</p>\n            ","response":0,"trial_type":"html-button-response","trial_index":108,"time_elapsed":323090,"internal_node_id":"0.0-4.0-1.50","subject_id":"608c349d8e7f57e8f84d3a27","study_id":"60edd13110225f80f9f3709b","session_id":"6196d064e22c89fcfa1ab880","condition":"contingent","relevant_dimensions":["pattern","legs"],"bee_group":{"antennae":"X","wings":"X","pattern":"S","legs":"F"},"bonus":1.180000000000001},{"rt":1079.6000000238419,"stimulus":"bees-with-color/bee-A2SM.svg","response":0,"trial_type":"image-button-response","trial_index":109,"time_elapsed":324172,"internal_node_id":"0.0-4.0-0.51","subject_id":"608c349d8e7f57e8f84d3a27","study_id":"60edd13110225f80f9f3709b","session_id":"6196d064e22c89fcfa1ab880","condition":"contingent","relevant_dimensions":["pattern","legs"],"bee_group":{"antennae":"X","wings":"X","pattern":"S","legs":"F"},"action":"harvest","summary":"good-harvest","bonus":1.180000000000001},{"rt":783.6000000238419,"stimulus":"\n                    <p><b>Action: <em>harvest</em></b></p>\n                    <p>This is the bee that you just saw.</p>\n                    <img src=\"bees-with-color/bee-A2SM.svg\" width=\"200\">\n                    <p><span class=\"greenText\"><b>Successful harvest!</b></span><br>Your pay has increased by $0.02. Your bonus pay is now $0.68.</p>\n            ","response":0,"trial_type":"html-button-response","trial_index":110,"time_elapsed":324959,"internal_node_id":"0.0-4.0-1.51","subject_id":"608c349d8e7f57e8f84d3a27","study_id":"60edd13110225f80f9f3709b","session_id":"6196d064e22c89fcfa1ab880","condition":"contingent","relevant_dimensions":["pattern","legs"],"bee_group":{"antennae":"X","wings":"X","pattern":"S","legs":"F"},"bonus":1.180000000000001},{"rt":1423.2000000476837,"stimulus":"bees-with-color/bee-A1DF.svg","response":1,"trial_type":"image-button-response","trial_index":111,"time_elapsed":326384,"internal_node_id":"0.0-4.0-0.52","subject_id":"608c349d8e7f57e8f84d3a27","study_id":"60edd13110225f80f9f3709b","session_id":"6196d064e22c89fcfa1ab880","condition":"contingent","relevant_dimensions":["pattern","legs"],"bee_group":{"antennae":"X","wings":"X","pattern":"S","legs":"F"},"action":"avoid","summary":"bad-avoid","bonus":1.180000000000001},{"rt":740.2999999523163,"stimulus":"\n                    <p><b>Action: <em>avoid</em></b></p>\n                    <p>This is the bee that you just saw.</p>\n                    <img src=\"bees-with-color/bee-A1DF.svg\" width=\"200\">\n                    <p><br>Your bonus pay is unchanged, and remains at $0.68.</p>\n            ","response":0,"trial_type":"html-button-response","trial_index":112,"time_elapsed":327127,"internal_node_id":"0.0-4.0-1.52","subject_id":"608c349d8e7f57e8f84d3a27","study_id":"60edd13110225f80f9f3709b","session_id":"6196d064e22c89fcfa1ab880","condition":"contingent","relevant_dimensions":["pattern","legs"],"bee_group":{"antennae":"X","wings":"X","pattern":"S","legs":"F"},"bonus":1.180000000000001},{"rt":1102.5,"stimulus":"bees-with-color/bee-B1DF.svg","response":1,"trial_type":"image-button-response","trial_index":113,"time_elapsed":328232,"internal_node_id":"0.0-4.0-0.53","subject_id":"608c349d8e7f57e8f84d3a27","study_id":"60edd13110225f80f9f3709b","session_id":"6196d064e22c89fcfa1ab880","condition":"contingent","relevant_dimensions":["pattern","legs"],"bee_group":{"antennae":"X","wings":"X","pattern":"S","legs":"F"},"action":"avoid","summary":"bad-avoid","bonus":1.180000000000001},{"rt":786.1999999284744,"stimulus":"\n                    <p><b>Action: <em>avoid</em></b></p>\n                    <p>This is the bee that you just saw.</p>\n                    <img src=\"bees-with-color/bee-B1DF.svg\" width=\"200\">\n                    <p><br>Your bonus pay is unchanged, and remains at $0.68.</p>\n            ","response":0,"trial_type":"html-button-response","trial_index":114,"time_elapsed":329021,"internal_node_id":"0.0-4.0-1.53","subject_id":"608c349d8e7f57e8f84d3a27","study_id":"60edd13110225f80f9f3709b","session_id":"6196d064e22c89fcfa1ab880","condition":"contingent","relevant_dimensions":["pattern","legs"],"bee_group":{"antennae":"X","wings":"X","pattern":"S","legs":"F"},"bonus":1.180000000000001},{"rt":1484.2000000476837,"stimulus":"bees-with-color/bee-B2DM.svg","response":0,"trial_type":"image-button-response","trial_index":115,"time_elapsed":330507,"internal_node_id":"0.0-4.0-0.54","subject_id":"608c349d8e7f57e8f84d3a27","study_id":"60edd13110225f80f9f3709b","session_id":"6196d064e22c89fcfa1ab880","condition":"contingent","relevant_dimensions":["pattern","legs"],"bee_group":{"antennae":"X","wings":"X","pattern":"S","legs":"F"},"action":"harvest","summary":"good-harvest","bonus":1.180000000000001},{"rt":769.1999999284744,"stimulus":"\n                    <p><b>Action: <em>harvest</em></b></p>\n                    <p>This is the bee that you just saw.</p>\n                    <img src=\"bees-with-color/bee-B2DM.svg\" width=\"200\">\n                    <p><span class=\"greenText\"><b>Successful harvest!</b></span><br>Your pay has increased by $0.02. Your bonus pay is now $0.70.</p>\n            ","response":0,"trial_type":"html-button-response","trial_index":116,"time_elapsed":331279,"internal_node_id":"0.0-4.0-1.54","subject_id":"608c349d8e7f57e8f84d3a27","study_id":"60edd13110225f80f9f3709b","session_id":"6196d064e22c89fcfa1ab880","condition":"contingent","relevant_dimensions":["pattern","legs"],"bee_group":{"antennae":"X","wings":"X","pattern":"S","legs":"F"},"bonus":1.180000000000001},{"rt":2064.4000000953674,"stimulus":"bees-with-color/bee-B2DF.svg","response":1,"trial_type":"image-button-response","trial_index":117,"time_elapsed":333346,"internal_node_id":"0.0-4.0-0.55","subject_id":"608c349d8e7f57e8f84d3a27","study_id":"60edd13110225f80f9f3709b","session_id":"6196d064e22c89fcfa1ab880","condition":"contingent","relevant_dimensions":["pattern","legs"],"bee_group":{"antennae":"X","wings":"X","pattern":"S","legs":"F"},"action":"avoid","summary":"bad-avoid","bonus":1.180000000000001},{"rt":713.2000000476837,"stimulus":"\n                    <p><b>Action: <em>avoid</em></b></p>\n                    <p>This is the bee that you just saw.</p>\n                    <img src=\"bees-with-color/bee-B2DF.svg\" width=\"200\">\n                    <p><br>Your bonus pay is unchanged, and remains at $0.70.</p>\n            ","response":0,"trial_type":"html-button-response","trial_index":118,"time_elapsed":334061,"internal_node_id":"0.0-4.0-1.55","subject_id":"608c349d8e7f57e8f84d3a27","study_id":"60edd13110225f80f9f3709b","session_id":"6196d064e22c89fcfa1ab880","condition":"contingent","relevant_dimensions":["pattern","legs"],"bee_group":{"antennae":"X","wings":"X","pattern":"S","legs":"F"},"bonus":1.180000000000001},{"rt":1546.0999999046326,"stimulus":"bees-with-color/bee-B1SF.svg","response":1,"trial_type":"image-button-response","trial_index":119,"time_elapsed":335609,"internal_node_id":"0.0-4.0-0.56","subject_id":"608c349d8e7f57e8f84d3a27","study_id":"60edd13110225f80f9f3709b","session_id":"6196d064e22c89fcfa1ab880","condition":"contingent","relevant_dimensions":["pattern","legs"],"bee_group":{"antennae":"X","wings":"X","pattern":"S","legs":"F"},"action":"avoid","summary":"good-avoid","bonus":1.180000000000001},{"rt":771.1000000238419,"stimulus":"\n                    <p><b>Action: <em>avoid</em></b></p>\n                    <p>This is the bee that you just saw.</p>\n                    <img src=\"bees-with-color/bee-B1SF.svg\" width=\"200\">\n                    <p><br>Your bonus pay is unchanged, and remains at $0.70.</p>\n            ","response":0,"trial_type":"html-button-response","trial_index":120,"time_elapsed":336383,"internal_node_id":"0.0-4.0-1.56","subject_id":"608c349d8e7f57e8f84d3a27","study_id":"60edd13110225f80f9f3709b","session_id":"6196d064e22c89fcfa1ab880","condition":"contingent","relevant_dimensions":["pattern","legs"],"bee_group":{"antennae":"X","wings":"X","pattern":"S","legs":"F"},"bonus":1.180000000000001},{"rt":1206.2999999523163,"stimulus":"bees-with-color/bee-A1SM.svg","response":0,"trial_type":"image-button-response","trial_index":121,"time_elapsed":337592,"internal_node_id":"0.0-4.0-0.57","subject_id":"608c349d8e7f57e8f84d3a27","study_id":"60edd13110225f80f9f3709b","session_id":"6196d064e22c89fcfa1ab880","condition":"contingent","relevant_dimensions":["pattern","legs"],"bee_group":{"antennae":"X","wings":"X","pattern":"S","legs":"F"},"action":"harvest","summary":"good-harvest","bonus":1.180000000000001},{"rt":787.8000000715256,"stimulus":"\n                    <p><b>Action: <em>harvest</em></b></p>\n                    <p>This is the bee that you just saw.</p>\n                    <img src=\"bees-with-color/bee-A1SM.svg\" width=\"200\">\n                    <p><span class=\"greenText\"><b>Successful harvest!</b></span><br>Your pay has increased by $0.02. Your bonus pay is now $0.72.</p>\n            ","response":0,"trial_type":"html-button-response","trial_index":122,"time_elapsed":338382,"internal_node_id":"0.0-4.0-1.57","subject_id":"608c349d8e7f57e8f84d3a27","study_id":"60edd13110225f80f9f3709b","session_id":"6196d064e22c89fcfa1ab880","condition":"contingent","relevant_dimensions":["pattern","legs"],"bee_group":{"antennae":"X","wings":"X","pattern":"S","legs":"F"},"bonus":1.180000000000001},{"rt":1420.7999999523163,"stimulus":"bees-with-color/bee-B2SF.svg","response":1,"trial_type":"image-button-response","trial_index":123,"time_elapsed":339806,"internal_node_id":"0.0-4.0-0.58","subject_id":"608c349d8e7f57e8f84d3a27","study_id":"60edd13110225f80f9f3709b","session_id":"6196d064e22c89fcfa1ab880","condition":"contingent","relevant_dimensions":["pattern","legs"],"bee_group":{"antennae":"X","wings":"X","pattern":"S","legs":"F"},"action":"avoid","summary":"good-avoid","bonus":1.180000000000001},{"rt":1080.3999999761581,"stimulus":"\n                    <p><b>Action: <em>avoid</em></b></p>\n                    <p>This is the bee that you just saw.</p>\n                    <img src=\"bees-with-color/bee-B2SF.svg\" width=\"200\">\n                    <p><br>Your bonus pay is unchanged, and remains at $0.72.</p>\n            ","response":0,"trial_type":"html-button-response","trial_index":124,"time_elapsed":340888,"internal_node_id":"0.0-4.0-1.58","subject_id":"608c349d8e7f57e8f84d3a27","study_id":"60edd13110225f80f9f3709b","session_id":"6196d064e22c89fcfa1ab880","condition":"contingent","relevant_dimensions":["pattern","legs"],"bee_group":{"antennae":"X","wings":"X","pattern":"S","legs":"F"},"bonus":1.180000000000001},{"rt":895.2999999523163,"stimulus":"bees-with-color/bee-A2DM.svg","response":0,"trial_type":"image-button-response","trial_index":125,"time_elapsed":341786,"internal_node_id":"0.0-4.0-0.59","subject_id":"608c349d8e7f57e8f84d3a27","study_id":"60edd13110225f80f9f3709b","session_id":"6196d064e22c89fcfa1ab880","condition":"contingent","relevant_dimensions":["pattern","legs"],"bee_group":{"antennae":"X","wings":"X","pattern":"S","legs":"F"},"action":"harvest","summary":"good-harvest","bonus":1.180000000000001},{"rt":744,"stimulus":"\n                    <p><b>Action: <em>harvest</em></b></p>\n                    <p>This is the bee that you just saw.</p>\n                    <img src=\"bees-with-color/bee-A2DM.svg\" width=\"200\">\n                    <p><span class=\"greenText\"><b>Successful harvest!</b></span><br>Your pay has increased by $0.02. Your bonus pay is now $0.74.</p>\n            ","response":0,"trial_type":"html-button-response","trial_index":126,"time_elapsed":342533,"internal_node_id":"0.0-4.0-1.59","subject_id":"608c349d8e7f57e8f84d3a27","study_id":"60edd13110225f80f9f3709b","session_id":"6196d064e22c89fcfa1ab880","condition":"contingent","relevant_dimensions":["pattern","legs"],"bee_group":{"antennae":"X","wings":"X","pattern":"S","legs":"F"},"bonus":1.180000000000001},{"rt":943,"stimulus":"bees-with-color/bee-B2SM.svg","response":0,"trial_type":"image-button-response","trial_index":127,"time_elapsed":343478,"internal_node_id":"0.0-4.0-0.60","subject_id":"608c349d8e7f57e8f84d3a27","study_id":"60edd13110225f80f9f3709b","session_id":"6196d064e22c89fcfa1ab880","condition":"contingent","relevant_dimensions":["pattern","legs"],"bee_group":{"antennae":"X","wings":"X","pattern":"S","legs":"F"},"action":"harvest","summary":"good-harvest","bonus":1.180000000000001},{"rt":741.3000000715256,"stimulus":"\n                    <p><b>Action: <em>harvest</em></b></p>\n                    <p>This is the bee that you just saw.</p>\n                    <img src=\"bees-with-color/bee-B2SM.svg\" width=\"200\">\n                    <p><span class=\"greenText\"><b>Successful harvest!</b></span><br>Your pay has increased by $0.02. Your bonus pay is now $0.76.</p>\n            ","response":0,"trial_type":"html-button-response","trial_index":128,"time_elapsed":344222,"internal_node_id":"0.0-4.0-1.60","subject_id":"608c349d8e7f57e8f84d3a27","study_id":"60edd13110225f80f9f3709b","session_id":"6196d064e22c89fcfa1ab880","condition":"contingent","relevant_dimensions":["pattern","legs"],"bee_group":{"antennae":"X","wings":"X","pattern":"S","legs":"F"},"bonus":1.180000000000001},{"rt":1175.7999999523163,"stimulus":"bees-with-color/bee-B1SM.svg","response":1,"trial_type":"image-button-response","trial_index":129,"time_elapsed":345400,"internal_node_id":"0.0-4.0-0.61","subject_id":"608c349d8e7f57e8f84d3a27","study_id":"60edd13110225f80f9f3709b","session_id":"6196d064e22c89fcfa1ab880","condition":"contingent","relevant_dimensions":["pattern","legs"],"bee_group":{"antennae":"X","wings":"X","pattern":"S","legs":"F"},"action":"avoid","summary":"bad-avoid","bonus":1.180000000000001},{"rt":755,"stimulus":"\n                    <p><b>Action: <em>avoid</em></b></p>\n                    <p>This is the bee that you just saw.</p>\n                    <img src=\"bees-with-color/bee-B1SM.svg\" width=\"200\">\n                    <p><br>Your bonus pay is unchanged, and remains at $0.76.</p>\n            ","response":0,"trial_type":"html-button-response","trial_index":130,"time_elapsed":346157,"internal_node_id":"0.0-4.0-1.61","subject_id":"608c349d8e7f57e8f84d3a27","study_id":"60edd13110225f80f9f3709b","session_id":"6196d064e22c89fcfa1ab880","condition":"contingent","relevant_dimensions":["pattern","legs"],"bee_group":{"antennae":"X","wings":"X","pattern":"S","legs":"F"},"bonus":1.180000000000001},{"rt":1032.1000000238419,"stimulus":"bees-with-color/bee-A2DF.svg","response":1,"trial_type":"image-button-response","trial_index":131,"time_elapsed":347191,"internal_node_id":"0.0-4.0-0.62","subject_id":"608c349d8e7f57e8f84d3a27","study_id":"60edd13110225f80f9f3709b","session_id":"6196d064e22c89fcfa1ab880","condition":"contingent","relevant_dimensions":["pattern","legs"],"bee_group":{"antennae":"X","wings":"X","pattern":"S","legs":"F"},"action":"avoid","summary":"bad-avoid","bonus":1.180000000000001},{"rt":816.8999999761581,"stimulus":"\n                    <p><b>Action: <em>avoid</em></b></p>\n                    <p>This is the bee that you just saw.</p>\n                    <img src=\"bees-with-color/bee-A2DF.svg\" width=\"200\">\n                    <p><br>Your bonus pay is unchanged, and remains at $0.76.</p>\n            ","response":0,"trial_type":"html-button-response","trial_index":132,"time_elapsed":348010,"internal_node_id":"0.0-4.0-1.62","subject_id":"608c349d8e7f57e8f84d3a27","study_id":"60edd13110225f80f9f3709b","session_id":"6196d064e22c89fcfa1ab880","condition":"contingent","relevant_dimensions":["pattern","legs"],"bee_group":{"antennae":"X","wings":"X","pattern":"S","legs":"F"},"bonus":1.180000000000001},{"rt":1066.2999999523163,"stimulus":"bees-with-color/bee-B1DM.svg","response":0,"trial_type":"image-button-response","trial_index":133,"time_elapsed":349078,"internal_node_id":"0.0-4.0-0.63","subject_id":"608c349d8e7f57e8f84d3a27","study_id":"60edd13110225f80f9f3709b","session_id":"6196d064e22c89fcfa1ab880","condition":"contingent","relevant_dimensions":["pattern","legs"],"bee_group":{"antennae":"X","wings":"X","pattern":"S","legs":"F"},"action":"harvest","summary":"good-harvest","bonus":1.180000000000001},{"rt":799.6000000238419,"stimulus":"\n                    <p><b>Action: <em>harvest</em></b></p>\n                    <p>This is the bee that you just saw.</p>\n                    <img src=\"bees-with-color/bee-B1DM.svg\" width=\"200\">\n                    <p><span class=\"greenText\"><b>Successful harvest!</b></span><br>Your pay has increased by $0.02. Your bonus pay is now $0.78.</p>\n            ","response":0,"trial_type":"html-button-response","trial_index":134,"time_elapsed":349880,"internal_node_id":"0.0-4.0-1.63","subject_id":"608c349d8e7f57e8f84d3a27","study_id":"60edd13110225f80f9f3709b","session_id":"6196d064e22c89fcfa1ab880","condition":"contingent","relevant_dimensions":["pattern","legs"],"bee_group":{"antennae":"X","wings":"X","pattern":"S","legs":"F"},"bonus":1.180000000000001},{"rt":3180,"stimulus":"You have completed the first part of this experiment.<br><br>You will now begin a shorter second part, in which you will receive no feedback.<br>The same rules regarding bonus pay apply.<br><br>Press any key to begin.","response":" ","trial_type":"html-keyboard-response","trial_index":135,"time_elapsed":353062,"internal_node_id":"0.0-5.0","subject_id":"608c349d8e7f57e8f84d3a27","study_id":"60edd13110225f80f9f3709b","session_id":"6196d064e22c89fcfa1ab880","condition":"contingent","relevant_dimensions":["pattern","legs"],"bee_group":{"antennae":"X","wings":"X","pattern":"S","legs":"F"},"bonus":1.180000000000001},{"rt":7127.799999952316,"stimulus":"bees-with-color/bee-A1DM.svg","response":0,"trial_type":"image-button-response","trial_index":136,"time_elapsed":360206,"internal_node_id":"0.0-6.0-0.0","subject_id":"608c349d8e7f57e8f84d3a27","study_id":"60edd13110225f80f9f3709b","session_id":"6196d064e22c89fcfa1ab880","condition":"contingent","relevant_dimensions":["pattern","legs"],"bee_group":{"antennae":"X","wings":"X","pattern":"S","legs":"F"},"bonus":1.180000000000001},{"rt":2675.7999999523163,"stimulus":"bees-with-color/bee-B1DM.svg","response":0,"trial_type":"image-button-response","trial_index":137,"time_elapsed":362886,"internal_node_id":"0.0-6.0-0.1","subject_id":"608c349d8e7f57e8f84d3a27","study_id":"60edd13110225f80f9f3709b","session_id":"6196d064e22c89fcfa1ab880","condition":"contingent","relevant_dimensions":["pattern","legs"],"bee_group":{"antennae":"X","wings":"X","pattern":"S","legs":"F"},"bonus":1.180000000000001},{"rt":1344.1000000238419,"stimulus":"bees-with-color/bee-B1SF.svg","response":1,"trial_type":"image-button-response","trial_index":138,"time_elapsed":364233,"internal_node_id":"0.0-6.0-0.2","subject_id":"608c349d8e7f57e8f84d3a27","study_id":"60edd13110225f80f9f3709b","session_id":"6196d064e22c89fcfa1ab880","condition":"contingent","relevant_dimensions":["pattern","legs"],"bee_group":{"antennae":"X","wings":"X","pattern":"S","legs":"F"},"bonus":1.180000000000001},{"rt":4271.099999904633,"stimulus":"bees-with-color/bee-B2DF.svg","response":0,"trial_type":"image-button-response","trial_index":139,"time_elapsed":368507,"internal_node_id":"0.0-6.0-0.3","subject_id":"608c349d8e7f57e8f84d3a27","study_id":"60edd13110225f80f9f3709b","session_id":"6196d064e22c89fcfa1ab880","condition":"contingent","relevant_dimensions":["pattern","legs"],"bee_group":{"antennae":"X","wings":"X","pattern":"S","legs":"F"},"bonus":1.180000000000001},{"rt":1589.6000000238419,"stimulus":"bees-with-color/bee-A2SM.svg","response":0,"trial_type":"image-button-response","trial_index":140,"time_elapsed":370101,"internal_node_id":"0.0-6.0-0.4","subject_id":"608c349d8e7f57e8f84d3a27","study_id":"60edd13110225f80f9f3709b","session_id":"6196d064e22c89fcfa1ab880","condition":"contingent","relevant_dimensions":["pattern","legs"],"bee_group":{"antennae":"X","wings":"X","pattern":"S","legs":"F"},"bonus":1.180000000000001},{"rt":1372.6999999284744,"stimulus":"bees-with-color/bee-A2SF.svg","response":1,"trial_type":"image-button-response","trial_index":141,"time_elapsed":371477,"internal_node_id":"0.0-6.0-0.5","subject_id":"608c349d8e7f57e8f84d3a27","study_id":"60edd13110225f80f9f3709b","session_id":"6196d064e22c89fcfa1ab880","condition":"contingent","relevant_dimensions":["pattern","legs"],"bee_group":{"antennae":"X","wings":"X","pattern":"S","legs":"F"},"bonus":1.180000000000001},{"rt":1235.4000000953674,"stimulus":"bees-with-color/bee-B2DM.svg","response":0,"trial_type":"image-button-response","trial_index":142,"time_elapsed":372715,"internal_node_id":"0.0-6.0-0.6","subject_id":"608c349d8e7f57e8f84d3a27","study_id":"60edd13110225f80f9f3709b","session_id":"6196d064e22c89fcfa1ab880","condition":"contingent","relevant_dimensions":["pattern","legs"],"bee_group":{"antennae":"X","wings":"X","pattern":"S","legs":"F"},"bonus":1.180000000000001},{"rt":2660.5,"stimulus":"bees-with-color/bee-A1DF.svg","response":0,"trial_type":"image-button-response","trial_index":143,"time_elapsed":375378,"internal_node_id":"0.0-6.0-0.7","subject_id":"608c349d8e7f57e8f84d3a27","study_id":"60edd13110225f80f9f3709b","session_id":"6196d064e22c89fcfa1ab880","condition":"contingent","relevant_dimensions":["pattern","legs"],"bee_group":{"antennae":"X","wings":"X","pattern":"S","legs":"F"},"bonus":1.180000000000001},{"rt":2625,"stimulus":"bees-with-color/bee-B2SF.svg","response":1,"trial_type":"image-button-response","trial_index":144,"time_elapsed":378007,"internal_node_id":"0.0-6.0-0.8","subject_id":"608c349d8e7f57e8f84d3a27","study_id":"60edd13110225f80f9f3709b","session_id":"6196d064e22c89fcfa1ab880","condition":"contingent","relevant_dimensions":["pattern","legs"],"bee_group":{"antennae":"X","wings":"X","pattern":"S","legs":"F"},"bonus":1.180000000000001},{"rt":1623.2000000476837,"stimulus":"bees-with-color/bee-B2SM.svg","response":0,"trial_type":"image-button-response","trial_index":145,"time_elapsed":379634,"internal_node_id":"0.0-6.0-0.9","subject_id":"608c349d8e7f57e8f84d3a27","study_id":"60edd13110225f80f9f3709b","session_id":"6196d064e22c89fcfa1ab880","condition":"contingent","relevant_dimensions":["pattern","legs"],"bee_group":{"antennae":"X","wings":"X","pattern":"S","legs":"F"},"bonus":1.180000000000001},{"rt":1327.8999999761581,"stimulus":"bees-with-color/bee-A1SM.svg","response":0,"trial_type":"image-button-response","trial_index":146,"time_elapsed":380964,"internal_node_id":"0.0-6.0-0.10","subject_id":"608c349d8e7f57e8f84d3a27","study_id":"60edd13110225f80f9f3709b","session_id":"6196d064e22c89fcfa1ab880","condition":"contingent","relevant_dimensions":["pattern","legs"],"bee_group":{"antennae":"X","wings":"X","pattern":"S","legs":"F"},"bonus":1.180000000000001},{"rt":1452.2999999523163,"stimulus":"bees-with-color/bee-B1DF.svg","response":1,"trial_type":"image-button-response","trial_index":147,"time_elapsed":382419,"internal_node_id":"0.0-6.0-0.11","subject_id":"608c349d8e7f57e8f84d3a27","study_id":"60edd13110225f80f9f3709b","session_id":"6196d064e22c89fcfa1ab880","condition":"contingent","relevant_dimensions":["pattern","legs"],"bee_group":{"antennae":"X","wings":"X","pattern":"S","legs":"F"},"bonus":1.180000000000001},{"rt":1095.6000000238419,"stimulus":"bees-with-color/bee-B1SM.svg","response":0,"trial_type":"image-button-response","trial_index":148,"time_elapsed":383518,"internal_node_id":"0.0-6.0-0.12","subject_id":"608c349d8e7f57e8f84d3a27","study_id":"60edd13110225f80f9f3709b","session_id":"6196d064e22c89fcfa1ab880","condition":"contingent","relevant_dimensions":["pattern","legs"],"bee_group":{"antennae":"X","wings":"X","pattern":"S","legs":"F"},"bonus":1.180000000000001},{"rt":1356.6000000238419,"stimulus":"bees-with-color/bee-A1SF.svg","response":1,"trial_type":"image-button-response","trial_index":149,"time_elapsed":384877,"internal_node_id":"0.0-6.0-0.13","subject_id":"608c349d8e7f57e8f84d3a27","study_id":"60edd13110225f80f9f3709b","session_id":"6196d064e22c89fcfa1ab880","condition":"contingent","relevant_dimensions":["pattern","legs"],"bee_group":{"antennae":"X","wings":"X","pattern":"S","legs":"F"},"bonus":1.180000000000001},{"rt":2024.8999999761581,"stimulus":"bees-with-color/bee-A2DF.svg","response":1,"trial_type":"image-button-response","trial_index":150,"time_elapsed":386906,"internal_node_id":"0.0-6.0-0.14","subject_id":"608c349d8e7f57e8f84d3a27","study_id":"60edd13110225f80f9f3709b","session_id":"6196d064e22c89fcfa1ab880","condition":"contingent","relevant_dimensions":["pattern","legs"],"bee_group":{"antennae":"X","wings":"X","pattern":"S","legs":"F"},"bonus":1.180000000000001},{"rt":1315.6000000238419,"stimulus":"bees-with-color/bee-A2DM.svg","response":0,"trial_type":"image-button-response","trial_index":151,"time_elapsed":388224,"internal_node_id":"0.0-6.0-0.15","subject_id":"608c349d8e7f57e8f84d3a27","study_id":"60edd13110225f80f9f3709b","session_id":"6196d064e22c89fcfa1ab880","condition":"contingent","relevant_dimensions":["pattern","legs"],"bee_group":{"antennae":"X","wings":"X","pattern":"S","legs":"F"},"bonus":1.180000000000001},{"rt":1114.1000000238419,"stimulus":"bees-with-color/bee-A1SM.svg","response":0,"trial_type":"image-button-response","trial_index":152,"time_elapsed":389341,"internal_node_id":"0.0-6.0-0.16","subject_id":"608c349d8e7f57e8f84d3a27","study_id":"60edd13110225f80f9f3709b","session_id":"6196d064e22c89fcfa1ab880","condition":"contingent","relevant_dimensions":["pattern","legs"],"bee_group":{"antennae":"X","wings":"X","pattern":"S","legs":"F"},"bonus":1.180000000000001},{"rt":3220.7999999523163,"stimulus":"bees-with-color/bee-B2DF.svg","response":1,"trial_type":"image-button-response","trial_index":153,"time_elapsed":392564,"internal_node_id":"0.0-6.0-0.17","subject_id":"608c349d8e7f57e8f84d3a27","study_id":"60edd13110225f80f9f3709b","session_id":"6196d064e22c89fcfa1ab880","condition":"contingent","relevant_dimensions":["pattern","legs"],"bee_group":{"antennae":"X","wings":"X","pattern":"S","legs":"F"},"bonus":1.180000000000001},{"rt":1033.8000000715256,"stimulus":"bees-with-color/bee-A2DM.svg","response":0,"trial_type":"image-button-response","trial_index":154,"time_elapsed":393601,"internal_node_id":"0.0-6.0-0.18","subject_id":"608c349d8e7f57e8f84d3a27","study_id":"60edd13110225f80f9f3709b","session_id":"6196d064e22c89fcfa1ab880","condition":"contingent","relevant_dimensions":["pattern","legs"],"bee_group":{"antennae":"X","wings":"X","pattern":"S","legs":"F"},"bonus":1.180000000000001},{"rt":1610.3999999761581,"stimulus":"bees-with-color/bee-B1DM.svg","response":0,"trial_type":"image-button-response","trial_index":155,"time_elapsed":395214,"internal_node_id":"0.0-6.0-0.19","subject_id":"608c349d8e7f57e8f84d3a27","study_id":"60edd13110225f80f9f3709b","session_id":"6196d064e22c89fcfa1ab880","condition":"contingent","relevant_dimensions":["pattern","legs"],"bee_group":{"antennae":"X","wings":"X","pattern":"S","legs":"F"},"bonus":1.180000000000001},{"rt":1312.8999999761581,"stimulus":"bees-with-color/bee-A2SF.svg","response":1,"trial_type":"image-button-response","trial_index":156,"time_elapsed":396529,"internal_node_id":"0.0-6.0-0.20","subject_id":"608c349d8e7f57e8f84d3a27","study_id":"60edd13110225f80f9f3709b","session_id":"6196d064e22c89fcfa1ab880","condition":"contingent","relevant_dimensions":["pattern","legs"],"bee_group":{"antennae":"X","wings":"X","pattern":"S","legs":"F"},"bonus":1.180000000000001},{"rt":2253.5,"stimulus":"bees-with-color/bee-B2SM.svg","response":0,"trial_type":"image-button-response","trial_index":157,"time_elapsed":398785,"internal_node_id":"0.0-6.0-0.21","subject_id":"608c349d8e7f57e8f84d3a27","study_id":"60edd13110225f80f9f3709b","session_id":"6196d064e22c89fcfa1ab880","condition":"contingent","relevant_dimensions":["pattern","legs"],"bee_group":{"antennae":"X","wings":"X","pattern":"S","legs":"F"},"bonus":1.180000000000001},{"rt":1867.3999999761581,"stimulus":"bees-with-color/bee-B1DF.svg","response":1,"trial_type":"image-button-response","trial_index":158,"time_elapsed":400655,"internal_node_id":"0.0-6.0-0.22","subject_id":"608c349d8e7f57e8f84d3a27","study_id":"60edd13110225f80f9f3709b","session_id":"6196d064e22c89fcfa1ab880","condition":"contingent","relevant_dimensions":["pattern","legs"],"bee_group":{"antennae":"X","wings":"X","pattern":"S","legs":"F"},"bonus":1.180000000000001},{"rt":1423.3999999761581,"stimulus":"bees-with-color/bee-B2SF.svg","response":1,"trial_type":"image-button-response","trial_index":159,"time_elapsed":402081,"internal_node_id":"0.0-6.0-0.23","subject_id":"608c349d8e7f57e8f84d3a27","study_id":"60edd13110225f80f9f3709b","session_id":"6196d064e22c89fcfa1ab880","condition":"contingent","relevant_dimensions":["pattern","legs"],"bee_group":{"antennae":"X","wings":"X","pattern":"S","legs":"F"},"bonus":1.180000000000001},{"rt":1746.7999999523163,"stimulus":"bees-with-color/bee-A2DF.svg","response":0,"trial_type":"image-button-response","trial_index":160,"time_elapsed":403831,"internal_node_id":"0.0-6.0-0.24","subject_id":"608c349d8e7f57e8f84d3a27","study_id":"60edd13110225f80f9f3709b","session_id":"6196d064e22c89fcfa1ab880","condition":"contingent","relevant_dimensions":["pattern","legs"],"bee_group":{"antennae":"X","wings":"X","pattern":"S","legs":"F"},"bonus":1.180000000000001},{"rt":1176.2000000476837,"stimulus":"bees-with-color/bee-B1SF.svg","response":1,"trial_type":"image-button-response","trial_index":161,"time_elapsed":405009,"internal_node_id":"0.0-6.0-0.25","subject_id":"608c349d8e7f57e8f84d3a27","study_id":"60edd13110225f80f9f3709b","session_id":"6196d064e22c89fcfa1ab880","condition":"contingent","relevant_dimensions":["pattern","legs"],"bee_group":{"antennae":"X","wings":"X","pattern":"S","legs":"F"},"bonus":1.180000000000001},{"rt":2149.5,"stimulus":"bees-with-color/bee-A1SF.svg","response":1,"trial_type":"image-button-response","trial_index":162,"time_elapsed":407161,"internal_node_id":"0.0-6.0-0.26","subject_id":"608c349d8e7f57e8f84d3a27","study_id":"60edd13110225f80f9f3709b","session_id":"6196d064e22c89fcfa1ab880","condition":"contingent","relevant_dimensions":["pattern","legs"],"bee_group":{"antennae":"X","wings":"X","pattern":"S","legs"