[{"success":true,"trial_type":"fullscreen","trial_index":0,"time_elapsed":1466459,"internal_node_id":"0.0-0.0","subject_id":"6151fe992547b315ffff75ef","study_id":"60edd13110225f80f9f3709b","session_id":"6196c7035905512678cd45a9","condition":"contingent","relevant_dimensions":["wings","legs"],"bee_group":{"antennae":"X","wings":"2","pattern":"X","legs":"M"},"bonus":1.6800000000000013},{"success":true,"timeout":false,"failed_images":[],"failed_audio":[],"failed_video":[],"trial_type":"preload","trial_index":1,"time_elapsed":1468513,"internal_node_id":"0.0-1.0","subject_id":"6151fe992547b315ffff75ef","study_id":"60edd13110225f80f9f3709b","session_id":"6196c7035905512678cd45a9","condition":"contingent","relevant_dimensions":["wings","legs"],"bee_group":{"antennae":"X","wings":"2","pattern":"X","legs":"M"},"bonus":1.6800000000000013},{"rt":3614.7000000476837,"stimulus":"Welcome! Press any key to begin.","response":"enter","trial_type":"html-keyboard-response","trial_index":2,"time_elapsed":1472128,"internal_node_id":"0.0-2.0","subject_id":"6151fe992547b315ffff75ef","study_id":"60edd13110225f80f9f3709b","session_id":"6196c7035905512678cd45a9","condition":"contingent","relevant_dimensions":["wings","legs"],"bee_group":{"antennae":"X","wings":"2","pattern":"X","legs":"M"},"bonus":1.6800000000000013},{"view_history":[{"page_index":0,"viewing_time":3368.7999999523163},{"page_index":1,"viewing_time":9669},{"page_index":2,"viewing_time":11790},{"page_index":3,"viewing_time":13012},{"page_index":4,"viewing_time":5942},{"page_index":5,"viewing_time":10189.900000095367},{"page_index":6,"viewing_time":8837},{"page_index":7,"viewing_time":5365.199999928474},{"page_index":8,"viewing_time":4065.8000000715256},{"page_index":9,"viewing_time":2986.1999999284744},{"page_index":10,"viewing_time":3120.8000000715256},{"page_index":11,"viewing_time":7193.899999976158},{"page_index":12,"viewing_time":9171},{"page_index":13,"viewing_time":1121.1000000238419},{"page_index":14,"viewing_time":2994}],"rt":98827.20000004768,"trial_type":"instructions","trial_index":3,"time_elapsed":1570956,"internal_node_id":"0.0-3.0-0.0","subject_id":"6151fe992547b315ffff75ef","study_id":"60edd13110225f80f9f3709b","session_id":"6196c7035905512678cd45a9","condition":"contingent","relevant_dimensions":["wings","legs"],"bee_group":{"antennae":"X","wings":"2","pattern":"X","legs":"M"},"bonus":1.6800000000000013},{"rt":24763.899999976158,"response":{"Q0":["Stripes or spots on body","Single or double wings","Antennae or no antennae"]},"question_order":[0],"trial_type":"survey-multi-select","trial_index":4,"time_elapsed":1595723,"internal_node_id":"0.0-3.0-1.0","subject_id":"6151fe992547b315ffff75ef","study_id":"60edd13110225f80f9f3709b","session_id":"6196c7035905512678cd45a9","condition":"contingent","relevant_dimensions":["wings","legs"],"bee_group":{"antennae":"X","wings":"2","pattern":"X","legs":"M"},"correct":false,"bonus":1.6800000000000013},{"rt":25493.199999928474,"response":{"Q1":"No.","Q2":"Based on the four features of the bee.","Q3":"You do not learn if it was friendly or dangerous, and do not alter your bonus."},"question_order":[0,1,2],"trial_type":"survey-multi-choice","trial_index":5,"time_elapsed":1621218,"internal_node_id":"0.0-3.0-2.0","subject_id":"6151fe992547b315ffff75ef","study_id":"60edd13110225f80f9f3709b","session_id":"6196c7035905512678cd45a9","condition":"contingent","relevant_dimensions":["wings","legs"],"bee_group":{"antennae":"X","wings":"2","pattern":"X","legs":"M"},"correct":true,"bonus":1.6800000000000013},{"rt":5012.5,"stimulus":"<p>You did not answer all comprehension questions correctly.<br>Press <b>continue</b> to review the instructions again.</p>","response":0,"trial_type":"html-button-response","trial_index":6,"time_elapsed":1626233,"internal_node_id":"0.0-3.0-3.0","subject_id":"6151fe992547b315ffff75ef","study_id":"60edd13110225f80f9f3709b","session_id":"6196c7035905512678cd45a9","condition":"contingent","relevant_dimensions":["wings","legs"],"bee_group":{"antennae":"X","wings":"2","pattern":"X","legs":"M"},"bonus":1.6800000000000013},{"view_history":[{"page_index":0,"viewing_time":2105.899999976158},{"page_index":1,"viewing_time":1474},{"page_index":2,"viewing_time":1206.1000000238419},{"page_index":3,"viewing_time":1866},{"page_index":4,"viewing_time":1619},{"page_index":3,"viewing_time":672.8999999761581},{"page_index":2,"viewing_time":3146},{"page_index":3,"viewing_time":3449.2000000476837},{"page_index":4,"viewing_time":2758.899999976158},{"page_index":5,"viewing_time":8832.100000023842},{"page_index":6,"viewing_time":3823.7999999523163},{"page_index":7,"viewing_time":2444.100000023842},{"page_index":8,"viewing_time":247.89999997615814},{"page_index":9,"viewing_time":243.89999997615814},{"page_index":10,"viewing_time":580.3000000715256},{"page_index":11,"viewing_time":1111.7999999523163},{"page_index":12,"viewing_time":1208},{"page_index":13,"viewing_time":1038},{"page_index":14,"viewing_time":693.8999999761581}],"rt":38522.199999928474,"trial_type":"instructions","trial_index":7,"time_elapsed":1664756,"internal_node_id":"0.0-3.0-4.0-0.0","subject_id":"6151fe992547b315ffff75ef","study_id":"60edd13110225f80f9f3709b","session_id":"6196c7035905512678cd45a9","condition":"contingent","relevant_dimensions":["wings","legs"],"bee_group":{"antennae":"X","wings":"2","pattern":"X","legs":"M"},"bonus":1.6800000000000013},{"rt":5593.399999976158,"response":{"Q0":["Two or six legs","Stripes or spots on body","Single or double wings","Antennae or no antennae"]},"question_order":[0],"trial_type":"survey-multi-select","trial_index":8,"time_elapsed":1670351,"internal_node_id":"0.0-3.0-4.0-1.0","subject_id":"6151fe992547b315ffff75ef","study_id":"60edd13110225f80f9f3709b","session_id":"6196c7035905512678cd45a9","condition":"contingent","relevant_dimensions":["wings","legs"],"bee_group":{"antennae":"X","wings":"2","pattern":"X","legs":"M"},"correct":true,"bonus":1.6800000000000013},{"rt":6909.100000023842,"response":{"Q1":"No.","Q2":"Based on the four features of the bee.","Q3":"You do not learn if it was friendly or dangerous, and do not alter your bonus."},"question_order":[0,1,2],"trial_type":"survey-multi-choice","trial_index":9,"time_elapsed":1677263,"internal_node_id":"0.0-3.0-4.0-2.0","subject_id":"6151fe992547b315ffff75ef","study_id":"60edd13110225f80f9f3709b","session_id":"6196c7035905512678cd45a9","condition":"contingent","relevant_dimensions":["wings","legs"],"bee_group":{"antennae":"X","wings":"2","pattern":"X","legs":"M"},"correct":true,"bonus":1.6800000000000013},{"rt":1265.5,"stimulus":"<p>Congrats, you got everything right<br>When you're ready, click the button below to continue to the experiment.</p>","response":0,"trial_type":"html-button-response","trial_index":10,"time_elapsed":1678531,"internal_node_id":"0.0-3.0-4.0-3.0","subject_id":"6151fe992547b315ffff75ef","study_id":"60edd13110225f80f9f3709b","session_id":"6196c7035905512678cd45a9","condition":"contingent","relevant_dimensions":["wings","legs"],"bee_group":{"antennae":"X","wings":"2","pattern":"X","legs":"M"},"bonus":1.6800000000000013},{"rt":5962.5,"stimulus":"bees-with-color/bee-A1SM.svg","response":0,"trial_type":"image-button-response","trial_index":11,"time_elapsed":1684495,"internal_node_id":"0.0-4.0-0.0","subject_id":"6151fe992547b315ffff75ef","study_id":"60edd13110225f80f9f3709b","session_id":"6196c7035905512678cd45a9","condition":"contingent","relevant_dimensions":["wings","legs"],"bee_group":{"antennae":"X","wings":"2","pattern":"X","legs":"M"},"action":"harvest","summary":"good-harvest","bonus":1.6800000000000013},{"rt":27250.5,"stimulus":"\n                    <p><b>Action: <em>harvest</em></b></p>\n                    <p>This is the bee that you just saw.</p>\n                    <img src=\"bees-with-color/bee-A1SM.svg\" width=\"200\">\n                    <p><span class=\"greenText\"><b>Successful harvest!</b></span><br>Your pay has increased by $0.02. Your bonus pay is now $0.56.</p>\n            ","response":0,"trial_type":"html-button-response","trial_index":12,"time_elapsed":1711747,"internal_node_id":"0.0-4.0-1.0","subject_id":"6151fe992547b315ffff75ef","study_id":"60edd13110225f80f9f3709b","session_id":"6196c7035905512678cd45a9","condition":"contingent","relevant_dimensions":["wings","legs"],"bee_group":{"antennae":"X","wings":"2","pattern":"X","legs":"M"},"bonus":1.6800000000000013},{"rt":16203.600000023842,"stimulus":"bees-with-color/bee-A2SF.svg","response":0,"trial_type":"image-button-response","trial_index":13,"time_elapsed":1727952,"internal_node_id":"0.0-4.0-0.1","subject_id":"6151fe992547b315ffff75ef","study_id":"60edd13110225f80f9f3709b","session_id":"6196c7035905512678cd45a9","condition":"contingent","relevant_dimensions":["wings","legs"],"bee_group":{"antennae":"X","wings":"2","pattern":"X","legs":"M"},"action":"harvest","summary":"good-harvest","bonus":1.6800000000000013},{"rt":30716,"stimulus":"\n                    <p><b>Action: <em>harvest</em></b></p>\n                    <p>This is the bee that you just saw.</p>\n                    <img src=\"bees-with-color/bee-A2SF.svg\" width=\"200\">\n                    <p><span class=\"greenText\"><b>Successful harvest!</b></span><br>Your pay has increased by $0.02. Your bonus pay is now $0.58.</p>\n            ","response":0,"trial_type":"html-button-response","trial_index":14,"time_elapsed":1758670,"internal_node_id":"0.0-4.0-1.1","subject_id":"6151fe992547b315ffff75ef","study_id":"60edd13110225f80f9f3709b","session_id":"6196c7035905512678cd45a9","condition":"contingent","relevant_dimensions":["wings","legs"],"bee_group":{"antennae":"X","wings":"2","pattern":"X","legs":"M"},"bonus":1.6800000000000013},{"rt":11762.799999952316,"stimulus":"bees-with-color/bee-A2SM.svg","response":0,"trial_type":"image-button-response","trial_index":15,"time_elapsed":1770433,"internal_node_id":"0.0-4.0-0.2","subject_id":"6151fe992547b315ffff75ef","study_id":"60edd13110225f80f9f3709b","session_id":"6196c7035905512678cd45a9","condition":"contingent","relevant_dimensions":["wings","legs"],"bee_group":{"antennae":"X","wings":"2","pattern":"X","legs":"M"},"action":"harvest","summary":"bad-harvest","bonus":1.6800000000000013},{"rt":34655.200000047684,"stimulus":"\n                    <p><b>Action: <em>harvest</em></b></p>\n                    <p>This is the bee that you just saw.</p>\n                    <img src=\"bees-with-color/bee-A2SM.svg\" width=\"200\">\n                    <p><span class=\"redText\">Bad choice, the bee was angry.</span><br><b>You have been stung!</b><br>Your pay has been decreased by $0.10. Your bonus pay is now $0.48.</p>\n            ","response":0,"trial_type":"html-button-response","trial_index":16,"time_elapsed":1805089,"internal_node_id":"0.0-4.0-1.2","subject_id":"6151fe992547b315ffff75ef","study_id":"60edd13110225f80f9f3709b","session_id":"6196c7035905512678cd45a9","condition":"contingent","relevant_dimensions":["wings","legs"],"bee_group":{"antennae":"X","wings":"2","pattern":"X","legs":"M"},"bonus":1.6800000000000013},{"rt":5453.5,"stimulus":"bees-with-color/bee-B2SF.svg","response":0,"trial_type":"image-button-response","trial_index":17,"time_elapsed":1810544,"internal_node_id":"0.0-4.0-0.3","subject_id":"6151fe992547b315ffff75ef","study_id":"60edd13110225f80f9f3709b","session_id":"6196c7035905512678cd45a9","condition":"contingent","relevant_dimensions":["wings","legs"],"bee_group":{"antennae":"X","wings":"2","pattern":"X","legs":"M"},"action":"harvest","summary":"good-harvest","bonus":1.6800000000000013},{"rt":13994.199999928474,"stimulus":"\n                    <p><b>Action: <em>harvest</em></b></p>\n                    <p>This is the bee that you just saw.</p>\n                    <img src=\"bees-with-color/bee-B2SF.svg\" width=\"200\">\n                    <p><span class=\"greenText\"><b>Successful harvest!</b></span><br>Your pay has increased by $0.02. Your bonus pay is now $0.50.</p>\n            ","response":0,"trial_type":"html-button-response","trial_index":18,"time_elapsed":1824539,"internal_node_id":"0.0-4.0-1.3","subject_id":"6151fe992547b315ffff75ef","study_id":"60edd13110225f80f9f3709b","session_id":"6196c7035905512678cd45a9","condition":"contingent","relevant_dimensions":["wings","legs"],"bee_group":{"antennae":"X","wings":"2","pattern":"X","legs":"M"},"bonus":1.6800000000000013},{"rt":3914.7999999523163,"stimulus":"bees-with-color/bee-B1SM.svg","response":0,"trial_type":"image-button-response","trial_index":19,"time_elapsed":1828454,"internal_node_id":"0.0-4.0-0.4","subject_id":"6151fe992547b315ffff75ef","study_id":"60edd13110225f80f9f3709b","session_id":"6196c7035905512678cd45a9","condition":"contingent","relevant_dimensions":["wings","legs"],"bee_group":{"antennae":"X","wings":"2","pattern":"X","legs":"M"},"action":"harvest","summary":"good-harvest","bonus":1.6800000000000013},{"rt":15001.299999952316,"stimulus":"\n                    <p><b>Action: <em>harvest</em></b></p>\n                    <p>This is the bee that you just saw.</p>\n                    <img src=\"bees-with-color/bee-B1SM.svg\" width=\"200\">\n                    <p><span class=\"greenText\"><b>Successful harvest!</b></span><br>Your pay has increased by $0.02. Your bonus pay is now $0.52.</p>\n            ","response":0,"trial_type":"html-button-response","trial_index":20,"time_elapsed":1843457,"internal_node_id":"0.0-4.0-1.4","subject_id":"6151fe992547b315ffff75ef","study_id":"60edd13110225f80f9f3709b","session_id":"6196c7035905512678cd45a9","condition":"contingent","relevant_dimensions":["wings","legs"],"bee_group":{"antennae":"X","wings":"2","pattern":"X","legs":"M"},"bonus":1.6800000000000013},{"rt":11926.699999928474,"stimulus":"bees-with-color/bee-B1DF.svg","response":0,"trial_type":"image-button-response","trial_index":21,"time_elapsed":1855384,"internal_node_id":"0.0-4.0-0.5","subject_id":"6151fe992547b315ffff75ef","study_id":"60edd13110225f80f9f3709b","session_id":"6196c7035905512678cd45a9","condition":"contingent","relevant_dimensions":["wings","legs"],"bee_group":{"antennae":"X","wings":"2","pattern":"X","legs":"M"},"action":"harvest","summary":"good-harvest","bonus":1.6800000000000013},{"rt":15379.099999904633,"stimulus":"\n                    <p><b>Action: <em>harvest</em></b></p>\n                    <p>This is the bee that you just saw.</p>\n                    <img src=\"bees-with-color/bee-B1DF.svg\" width=\"200\">\n                    <p><span class=\"greenText\"><b>Successful harvest!</b></span><br>Your pay has increased by $0.02. Your bonus pay is now $0.54.</p>\n            ","response":0,"trial_type":"html-button-response","trial_index":22,"time_elapsed":1870765,"internal_node_id":"0.0-4.0-1.5","subject_id":"6151fe992547b315ffff75ef","study_id":"60edd13110225f80f9f3709b","session_id":"6196c7035905512678cd45a9","condition":"contingent","relevant_dimensions":["wings","legs"],"bee_group":{"antennae":"X","wings":"2","pattern":"X","legs":"M"},"bonus":1.6800000000000013},{"rt":9673.5,"stimulus":"bees-with-color/bee-B2SM.svg","response":0,"trial_type":"image-button-response","trial_index":23,"time_elapsed":1880440,"internal_node_id":"0.0-4.0-0.6","subject_id":"6151fe992547b315ffff75ef","study_id":"60edd13110225f80f9f3709b","session_id":"6196c7035905512678cd45a9","condition":"contingent","relevant_dimensions":["wings","legs"],"bee_group":{"antennae":"X","wings":"2","pattern":"X","legs":"M"},"action":"harvest","summary":"bad-harvest","bonus":1.6800000000000013},{"rt":10860.899999976158,"stimulus":"\n                    <p><b>Action: <em>harvest</em></b></p>\n                    <p>This is the bee that you just saw.</p>\n                    <img src=\"bees-with-color/bee-B2SM.svg\" width=\"200\">\n                    <p><span class=\"redText\">Bad choice, the bee was angry.</span><br><b>You have been stung!</b><br>Your pay has been decreased by $0.10. Your bonus pay is now $0.44.</p>\n            ","response":0,"trial_type":"html-button-response","trial_index":24,"time_elapsed":1891302,"internal_node_id":"0.0-4.0-1.6","subject_id":"6151fe992547b315ffff75ef","study_id":"60edd13110225f80f9f3709b","session_id":"6196c7035905512678cd45a9","condition":"contingent","relevant_dimensions":["wings","legs"],"bee_group":{"antennae":"X","wings":"2","pattern":"X","legs":"M"},"bonus":1.6800000000000013},{"rt":2125.9000000953674,"stimulus":"bees-with-color/bee-B1DM.svg","response":0,"trial_type":"image-button-response","trial_index":25,"time_elapsed":1893429,"internal_node_id":"0.0-4.0-0.7","subject_id":"6151fe992547b315ffff75ef","study_id":"60edd13110225f80f9f3709b","session_id":"6196c7035905512678cd45a9","condition":"contingent","relevant_dimensions":["wings","legs"],"bee_group":{"antennae":"X","wings":"2","pattern":"X","legs":"M"},"action":"harvest","summary":"good-harvest","bonus":1.6800000000000013},{"rt":9817.299999952316,"stimulus":"\n                    <p><b>Action: <em>harvest</em></b></p>\n                    <p>This is the bee that you just saw.</p>\n                    <img src=\"bees-with-color/bee-B1DM.svg\" width=\"200\">\n                    <p><span class=\"greenText\"><b>Successful harvest!</b></span><br>Your pay has increased by $0.02. Your bonus pay is now $0.46.</p>\n            ","response":0,"trial_type":"html-button-response","trial_index":26,"time_elapsed":1903247,"internal_node_id":"0.0-4.0-1.7","subject_id":"6151fe992547b315ffff75ef","study_id":"60edd13110225f80f9f3709b","session_id":"6196c7035905512678cd45a9","condition":"contingent","relevant_dimensions":["wings","legs"],"bee_group":{"antennae":"X","wings":"2","pattern":"X","legs":"M"},"bonus":1.6800000000000013},{"rt":7665.600000023842,"stimulus":"bees-with-color/bee-B2DM.svg","response":0,"trial_type":"image-button-response","trial_index":27,"time_elapsed":1910914,"internal_node_id":"0.0-4.0-0.8","subject_id":"6151fe992547b315ffff75ef","study_id":"60edd13110225f80f9f3709b","session_id":"6196c7035905512678cd45a9","condition":"contingent","relevant_dimensions":["wings","legs"],"bee_group":{"antennae":"X","wings":"2","pattern":"X","legs":"M"},"action":"harvest","summary":"bad-harvest","bonus":1.6800000000000013},{"rt":10139.099999904633,"stimulus":"\n                    <p><b>Action: <em>harvest</em></b></p>\n                    <p>This is the bee that you just saw.</p>\n                    <img src=\"bees-with-color/bee-B2DM.svg\" width=\"200\">\n                    <p><span class=\"redText\">Bad choice, the bee was angry.</span><br><b>You have been stung!</b><br>Your pay has been decreased by $0.10. Your bonus pay is now $0.36.</p>\n            ","response":0,"trial_type":"html-button-response","trial_index":28,"time_elapsed":1921054,"internal_node_id":"0.0-4.0-1.8","subject_id":"6151fe992547b315ffff75ef","study_id":"60edd13110225f80f9f3709b","session_id":"6196c7035905512678cd45a9","condition":"contingent","relevant_dimensions":["wings","legs"],"bee_group":{"antennae":"X","wings":"2","pattern":"X","legs":"M"},"bonus":1.6800000000000013},{"rt":13259.800000071526,"stimulus":"bees-with-color/bee-A2DM.svg","response":1,"trial_type":"image-button-response","trial_index":29,"time_elapsed":1934315,"internal_node_id":"0.0-4.0-0.9","subject_id":"6151fe992547b315ffff75ef","study_id":"60edd13110225f80f9f3709b","session_id":"6196c7035905512678cd45a9","condition":"contingent","relevant_dimensions":["wings","legs"],"bee_group":{"antennae":"X","wings":"2","pattern":"X","legs":"M"},"action":"avoid","summary":"good-avoid","bonus":1.6800000000000013},{"rt":4245,"stimulus":"\n                    <p><b>Action: <em>avoid</em></b></p>\n                    <p>This is the bee that you just saw.</p>\n                    <img src=\"bees-with-color/bee-A2DM.svg\" width=\"200\">\n                    <p><br>Your bonus pay is unchanged, and remains at $0.36.</p>\n            ","response":0,"trial_type":"html-button-response","trial_index":30,"time_elapsed":1938561,"internal_node_id":"0.0-4.0-1.9","subject_id":"6151fe992547b315ffff75ef","study_id":"60edd13110225f80f9f3709b","session_id":"6196c7035905512678cd45a9","condition":"contingent","relevant_dimensions":["wings","legs"],"bee_group":{"antennae":"X","wings":"2","pattern":"X","legs":"M"},"bonus":1.6800000000000013},{"rt":2420.8000000715256,"stimulus":"bees-with-color/bee-A1SF.svg","response":0,"trial_type":"image-button-response","trial_index":31,"time_elapsed":1940983,"internal_node_id":"0.0-4.0-0.10","subject_id":"6151fe992547b315ffff75ef","study_id":"60edd13110225f80f9f3709b","session_id":"6196c7035905512678cd45a9","condition":"contingent","relevant_dimensions":["wings","legs"],"bee_group":{"antennae":"X","wings":"2","pattern":"X","legs":"M"},"action":"harvest","summary":"good-harvest","bonus":1.6800000000000013},{"rt":11426.100000023842,"stimulus":"\n                    <p><b>Action: <em>harvest</em></b></p>\n                    <p>This is the bee that you just saw.</p>\n                    <img src=\"bees-with-color/bee-A1SF.svg\" width=\"200\">\n                    <p><span class=\"greenText\"><b>Successful harvest!</b></span><br>Your pay has increased by $0.02. Your bonus pay is now $0.38.</p>\n            ","response":0,"trial_type":"html-button-response","trial_index":32,"time_elapsed":1952410,"internal_node_id":"0.0-4.0-1.10","subject_id":"6151fe992547b315ffff75ef","study_id":"60edd13110225f80f9f3709b","session_id":"6196c7035905512678cd45a9","condition":"contingent","relevant_dimensions":["wings","legs"],"bee_group":{"antennae":"X","wings":"2","pattern":"X","legs":"M"},"bonus":1.6800000000000013},{"rt":2829.7000000476837,"stimulus":"bees-with-color/bee-A1DM.svg","response":0,"trial_type":"image-button-response","trial_index":33,"time_elapsed":1955241,"internal_node_id":"0.0-4.0-0.11","subject_id":"6151fe992547b315ffff75ef","study_id":"60edd13110225f80f9f3709b","session_id":"6196c7035905512678cd45a9","condition":"contingent","relevant_dimensions":["wings","legs"],"bee_group":{"antennae":"X","wings":"2","pattern":"X","legs":"M"},"action":"harvest","summary":"good-harvest","bonus":1.6800000000000013},{"rt":12533.300000071526,"stimulus":"\n                    <p><b>Action: <em>harvest</em></b></p>\n                    <p>This is the bee that you just saw.</p>\n                    <img src=\"bees-with-color/bee-A1DM.svg\" width=\"200\">\n                    <p><span class=\"greenText\"><b>Successful harvest!</b></span><br>Your pay has increased by $0.02. Your bonus pay is now $0.40.</p>\n            ","response":0,"trial_type":"html-button-response","trial_index":34,"time_elapsed":1967775,"internal_node_id":"0.0-4.0-1.11","subject_id":"6151fe992547b315ffff75ef","study_id":"60edd13110225f80f9f3709b","session_id":"6196c7035905512678cd45a9","condition":"contingent","relevant_dimensions":["wings","legs"],"bee_group":{"antennae":"X","wings":"2","pattern":"X","legs":"M"},"bonus":1.6800000000000013},{"rt":1819.8999999761581,"stimulus":"bees-with-color/bee-B1SF.svg","response":0,"trial_type":"image-button-response","trial_index":35,"time_elapsed":1969596,"internal_node_id":"0.0-4.0-0.12","subject_id":"6151fe992547b315ffff75ef","study_id":"60edd13110225f80f9f3709b","session_id":"6196c7035905512678cd45a9","condition":"contingent","relevant_dimensions":["wings","legs"],"bee_group":{"antennae":"X","wings":"2","pattern":"X","legs":"M"},"action":"harvest","summary":"good-harvest","bonus":1.6800000000000013},{"rt":9701.300000071526,"stimulus":"\n                    <p><b>Action: <em>harvest</em></b></p>\n                    <p>This is the bee that you just saw.</p>\n                    <img src=\"bees-with-color/bee-B1SF.svg\" width=\"200\">\n                    <p><span class=\"greenText\"><b>Successful harvest!</b></span><br>Your pay has increased by $0.02. Your bonus pay is now $0.42.</p>\n            ","response":0,"trial_type":"html-button-response","trial_index":36,"time_elapsed":1979298,"internal_node_id":"0.0-4.0-1.12","subject_id":"6151fe992547b315ffff75ef","study_id":"60edd13110225f80f9f3709b","session_id":"6196c7035905512678cd45a9","condition":"contingent","relevant_dimensions":["wings","legs"],"bee_group":{"antennae":"X","wings":"2","pattern":"X","legs":"M"},"bonus":1.6800000000000013},{"rt":4659.800000071526,"stimulus":"bees-with-color/bee-A2DF.svg","response":0,"trial_type":"image-button-response","trial_index":37,"time_elapsed":1983959,"internal_node_id":"0.0-4.0-0.13","subject_id":"6151fe992547b315ffff75ef","study_id":"60edd13110225f80f9f3709b","session_id":"6196c7035905512678cd45a9","condition":"contingent","relevant_dimensions":["wings","legs"],"bee_group":{"antennae":"X","wings":"2","pattern":"X","legs":"M"},"action":"harvest","summary":"good-harvest","bonus":1.6800000000000013},{"rt":83306,"stimulus":"\n                    <p><b>Action: <em>harvest</em></b></p>\n                    <p>This is the bee that you just saw.</p>\n                    <img src=\"bees-with-color/bee-A2DF.svg\" width=\"200\">\n                    <p><span class=\"greenText\"><b>Successful harvest!</b></span><br>Your pay has increased by $0.02. Your bonus pay is now $0.44.</p>\n            ","response":0,"trial_type":"html-button-response","trial_index":38,"time_elapsed":2067266,"internal_node_id":"0.0-4.0-1.13","subject_id":"6151fe992547b315ffff75ef","study_id":"60edd13110225f80f9f3709b","session_id":"6196c7035905512678cd45a9","condition":"contingent","relevant_dimensions":["wings","legs"],"bee_group":{"antennae":"X","wings":"2","pattern":"X","legs":"M"},"bonus":1.6800000000000013},{"rt":3392,"stimulus":"bees-with-color/bee-B2DF.svg","response":0,"trial_type":"image-button-response","trial_index":39,"time_elapsed":2070659,"internal_node_id":"0.0-4.0-0.14","subject_id":"6151fe992547b315ffff75ef","study_id":"60edd13110225f80f9f3709b","session_id":"6196c7035905512678cd45a9","condition":"contingent","relevant_dimensions":["wings","legs"],"bee_group":{"antennae":"X","wings":"2","pattern":"X","legs":"M"},"action":"harvest","summary":"good-harvest","bonus":1.6800000000000013},{"rt":33720.300000071526,"stimulus":"\n                    <p><b>Action: <em>harvest</em></b></p>\n                    <p>This is the bee that you just saw.</p>\n                    <img src=\"bees-with-color/bee-B2DF.svg\" width=\"200\">\n                    <p><span class=\"greenText\"><b>Successful harvest!</b></span><br>Your pay has increased by $0.02. Your bonus pay is now $0.46.</p>\n            ","response":0,"trial_type":"html-button-response","trial_index":40,"time_elapsed":2104380,"internal_node_id":"0.0-4.0-1.14","subject_id":"6151fe992547b315ffff75ef","study_id":"60edd13110225f80f9f3709b","session_id":"6196c7035905512678cd45a9","condition":"contingent","relevant_dimensions":["wings","legs"],"bee_group":{"antennae":"X","wings":"2","pattern":"X","legs":"M"},"bonus":1.6800000000000013},{"rt":1209.4000000953674,"stimulus":"bees-with-color/bee-A1DF.svg","response":0,"trial_type":"image-button-response","trial_index":41,"time_elapsed":2105591,"internal_node_id":"0.0-4.0-0.15","subject_id":"6151fe992547b315ffff75ef","study_id":"60edd13110225f80f9f3709b","session_id":"6196c7035905512678cd45a9","condition":"contingent","relevant_dimensions":["wings","legs"],"bee_group":{"antennae":"X","wings":"2","pattern":"X","legs":"M"},"action":"harvest","summary":"good-harvest","bonus":1.6800000000000013},{"rt":4436.299999952316,"stimulus":"\n                    <p><b>Action: <em>harvest</em></b></p>\n                    <p>This is the bee that you just saw.</p>\n                    <img src=\"bees-with-color/bee-A1DF.svg\" width=\"200\">\n                    <p><span class=\"greenText\"><b>Successful harvest!</b></span><br>Your pay has increased by $0.02. Your bonus pay is now $0.48.</p>\n            ","response":0,"trial_type":"html-button-response","trial_index":42,"time_elapsed":2110028,"internal_node_id":"0.0-4.0-1.15","subject_id":"6151fe992547b315ffff75ef","study_id":"60edd13110225f80f9f3709b","session_id":"6196c7035905512678cd45a9","condition":"contingent","relevant_dimensions":["wings","legs"],"bee_group":{"antennae":"X","wings":"2","pattern":"X","legs":"M"},"bonus":1.6800000000000013},{"rt":6365,"stimulus":"bees-with-color/bee-A2SM.svg","response":1,"trial_type":"image-button-response","trial_index":43,"time_elapsed":2116394,"internal_node_id":"0.0-4.0-0.16","subject_id":"6151fe992547b315ffff75ef","study_id":"60edd13110225f80f9f3709b","session_id":"6196c7035905512678cd45a9","condition":"contingent","relevant_dimensions":["wings","legs"],"bee_group":{"antennae":"X","wings":"2","pattern":"X","legs":"M"},"action":"avoid","summary":"good-avoid","bonus":1.6800000000000013},{"rt":1920.1999999284744,"stimulus":"\n                    <p><b>Action: <em>avoid</em></b></p>\n                    <p>This is the bee that you just saw.</p>\n                    <img src=\"bees-with-color/bee-A2SM.svg\" width=\"200\">\n                    <p><br>Your bonus pay is unchanged, and remains at $0.48.</p>\n            ","response":0,"trial_type":"html-button-response","trial_index":44,"time_elapsed":2118315,"internal_node_id":"0.0-4.0-1.16","subject_id":"6151fe992547b315ffff75ef","study_id":"60edd13110225f80f9f3709b","session_id":"6196c7035905512678cd45a9","condition":"contingent","relevant_dimensions":["wings","legs"],"bee_group":{"antennae":"X","wings":"2","pattern":"X","legs":"M"},"bonus":1.6800000000000013},{"rt":4220.299999952316,"stimulus":"bees-with-color/bee-A2DF.svg","response":0,"trial_type":"image-button-response","trial_index":45,"time_elapsed":2122536,"internal_node_id":"0.0-4.0-0.17","subject_id":"6151fe992547b315ffff75ef","study_id":"60edd13110225f80f9f3709b","session_id":"6196c7035905512678cd45a9","condition":"contingent","relevant_dimensions":["wings","legs"],"bee_group":{"antennae":"X","wings":"2","pattern":"X","legs":"M"},"action":"harvest","summary":"good-harvest","bonus":1.6800000000000013},{"rt":1133,"stimulus":"\n                    <p><b>Action: <em>harvest</em></b></p>\n                    <p>This is the bee that you just saw.</p>\n                    <img src=\"bees-with-color/bee-A2DF.svg\" width=\"200\">\n                    <p><span class=\"greenText\"><b>Successful harvest!</b></span><br>Your pay has increased by $0.02. Your bonus pay is now $0.50.</p>\n            ","response":0,"trial_type":"html-button-response","trial_index":46,"time_elapsed":2123670,"internal_node_id":"0.0-4.0-1.17","subject_id":"6151fe992547b315ffff75ef","study_id":"60edd13110225f80f9f3709b","session_id":"6196c7035905512678cd45a9","condition":"contingent","relevant_dimensions":["wings","legs"],"bee_group":{"antennae":"X","wings":"2","pattern":"X","legs":"M"},"bonus":1.6800000000000013},{"rt":3543.899999976158,"stimulus":"bees-with-color/bee-A2SF.svg","response":0,"trial_type":"image-button-response","trial_index":47,"time_elapsed":2127214,"internal_node_id":"0.0-4.0-0.18","subject_id":"6151fe992547b315ffff75ef","study_id":"60edd13110225f80f9f3709b","session_id":"6196c7035905512678cd45a9","condition":"contingent","relevant_dimensions":["wings","legs"],"bee_group":{"antennae":"X","wings":"2","pattern":"X","legs":"M"},"action":"harvest","summary":"good-harvest","bonus":1.6800000000000013},{"rt":875.0999999046326,"stimulus":"\n                    <p><b>Action: <em>harvest</em></b></p>\n                    <p>This is the bee that you just saw.</p>\n                    <img src=\"bees-with-color/bee-A2SF.svg\" width=\"200\">\n                    <p><span class=\"greenText\"><b>Successful harvest!</b></span><br>Your pay has increased by $0.02. Your bonus pay is now $0.52.</p>\n            ","response":0,"trial_type":"html-button-response","trial_index":48,"time_elapsed":2128090,"internal_node_id":"0.0-4.0-1.18","subject_id":"6151fe992547b315ffff75ef","study_id":"60edd13110225f80f9f3709b","session_id":"6196c7035905512678cd45a9","condition":"contingent","relevant_dimensions":["wings","legs"],"bee_group":{"antennae":"X","wings":"2","pattern":"X","legs":"M"},"bonus":1.6800000000000013},{"rt":1357.0999999046326,"stimulus":"bees-with-color/bee-B1DF.svg","response":0,"trial_type":"image-button-response","trial_index":49,"time_elapsed":2129448,"internal_node_id":"0.0-4.0-0.19","subject_id":"6151fe992547b315ffff75ef","study_id":"60edd13110225f80f9f3709b","session_id":"6196c7035905512678cd45a9","condition":"contingent","relevant_dimensions":["wings","legs"],"bee_group":{"antennae":"X","wings":"2","pattern":"X","legs":"M"},"action":"harvest","summary":"good-harvest","bonus":1.6800000000000013},{"rt":657,"stimulus":"\n                    <p><b>Action: <em>harvest</em></b></p>\n                    <p>This is the bee that you just saw.</p>\n                    <img src=\"bees-with-color/bee-B1DF.svg\" width=\"200\">\n                    <p><span class=\"greenText\"><b>Successful harvest!</b></span><br>Your pay has increased by $0.02. Your bonus pay is now $0.54.</p>\n            ","response":0,"trial_type":"html-button-response","trial_index":50,"time_elapsed":2130106,"internal_node_id":"0.0-4.0-1.19","subject_id":"6151fe992547b315ffff75ef","study_id":"60edd13110225f80f9f3709b","session_id":"6196c7035905512678cd45a9","condition":"contingent","relevant_dimensions":["wings","legs"],"bee_group":{"antennae":"X","wings":"2","pattern":"X","legs":"M"},"bonus":1.6800000000000013},{"rt":1495.1999999284744,"stimulus":"bees-with-color/bee-A1DM.svg","response":0,"trial_type":"image-button-response","trial_index":51,"time_elapsed":2131602,"internal_node_id":"0.0-4.0-0.20","subject_id":"6151fe992547b315ffff75ef","study_id":"60edd13110225f80f9f3709b","session_id":"6196c7035905512678cd45a9","condition":"contingent","relevant_dimensions":["wings","legs"],"bee_group":{"antennae":"X","wings":"2","pattern":"X","legs":"M"},"action":"harvest","summary":"good-harvest","bonus":1.6800000000000013},{"rt":705.0999999046326,"stimulus":"\n                    <p><b>Action: <em>harvest</em></b></p>\n                    <p>This is the bee that you just saw.</p>\n                    <img src=\"bees-with-color/bee-A1DM.svg\" width=\"200\">\n                    <p><span class=\"greenText\"><b>Successful harvest!</b></span><br>Your pay has increased by $0.02. Your bonus pay is now $0.56.</p>\n            ","response":0,"trial_type":"html-button-response","trial_index":52,"time_elapsed":2132308,"internal_node_id":"0.0-4.0-1.20","subject_id":"6151fe992547b315ffff75ef","study_id":"60edd13110225f80f9f3709b","session_id":"6196c7035905512678cd45a9","condition":"contingent","relevant_dimensions":["wings","legs"],"bee_group":{"antennae":"X","wings":"2","pattern":"X","legs":"M"},"bonus":1.6800000000000013},{"rt":3655.1999999284744,"stimulus":"bees-with-color/bee-B2SM.svg","response":1,"trial_type":"image-button-response","trial_index":53,"time_elapsed":2135964,"internal_node_id":"0.0-4.0-0.21","subject_id":"6151fe992547b315ffff75ef","study_id":"60edd13110225f80f9f3709b","session_id":"6196c7035905512678cd45a9","condition":"contingent","relevant_dimensions":["wings","legs"],"bee_group":{"antennae":"X","wings":"2","pattern":"X","legs":"M"},"action":"avoid","summary":"good-avoid","bonus":1.6800000000000013},{"rt":1559.1999999284744,"stimulus":"\n                    <p><b>Action: <em>avoid</em></b></p>\n                    <p>This is the bee that you just saw.</p>\n                    <img src=\"bees-with-color/bee-B2SM.svg\" width=\"200\">\n                    <p><br>Your bonus pay is unchanged, and remains at $0.56.</p>\n            ","response":0,"trial_type":"html-button-response","trial_index":54,"time_elapsed":2137524,"internal_node_id":"0.0-4.0-1.21","subject_id":"6151fe992547b315ffff75ef","study_id":"60edd13110225f80f9f3709b","session_id":"6196c7035905512678cd45a9","condition":"contingent","relevant_dimensions":["wings","legs"],"bee_group":{"antennae":"X","wings":"2","pattern":"X","legs":"M"},"bonus":1.6800000000000013},{"rt":1655.1999999284744,"stimulus":"bees-with-color/bee-A1SM.svg","response":0,"trial_type":"image-button-response","trial_index":55,"time_elapsed":2139180,"internal_node_id":"0.0-4.0-0.22","subject_id":"6151fe992547b315ffff75ef","study_id":"60edd13110225f80f9f3709b","session_id":"6196c7035905512678cd45a9","condition":"contingent","relevant_dimensions":["wings","legs"],"bee_group":{"antennae":"X","wings":"2","pattern":"X","legs":"M"},"action":"harvest","summary":"good-harvest","bonus":1.6800000000000013},{"rt":910.3999999761581,"stimulus":"\n                    <p><b>Action: <em>harvest</em></b></p>\n                    <p>This is the bee that you just saw.</p>\n                    <img src=\"bees-with-color/bee-A1SM.svg\" width=\"200\">\n                    <p><span class=\"greenText\"><b>Successful harvest!</b></span><br>Your pay has increased by $0.02. Your bonus pay is now $0.58.</p>\n            ","response":0,"trial_type":"html-button-response","trial_index":56,"time_elapsed":2140091,"internal_node_id":"0.0-4.0-1.22","subject_id":"6151fe992547b315ffff75ef","study_id":"60edd13110225f80f9f3709b","session_id":"6196c7035905512678cd45a9","condition":"contingent","relevant_dimensions":["wings","legs"],"bee_group":{"antennae":"X","wings":"2","pattern":"X","legs":"M"},"bonus":1.6800000000000013},{"rt":1183.2999999523163,"stimulus":"bees-with-color/bee-B1SF.svg","response":0,"trial_type":"image-button-response","trial_index":57,"time_elapsed":2141275,"internal_node_id":"0.0-4.0-0.23","subject_id":"6151fe992547b315ffff75ef","study_id":"60edd13110225f80f9f3709b","session_id":"6196c7035905512678cd45a9","condition":"contingent","relevant_dimensions":["wings","legs"],"bee_group":{"antennae":"X","wings":"2","pattern":"X","legs":"M"},"action":"harvest","summary":"good-harvest","bonus":1.6800000000000013},{"rt":704.9000000953674,"stimulus":"\n                    <p><b>Action: <em>harvest</em></b></p>\n                    <p>This is the bee that you just saw.</p>\n                    <img src=\"bees-with-color/bee-B1SF.svg\" width=\"200\">\n                    <p><span class=\"greenText\"><b>Successful harvest!</b></span><br>Your pay has increased by $0.02. Your bonus pay is now $0.60.</p>\n            ","response":0,"trial_type":"html-button-response","trial_index":58,"time_elapsed":2141981,"internal_node_id":"0.0-4.0-1.23","subject_id":"6151fe992547b315ffff75ef","study_id":"60edd13110225f80f9f3709b","session_id":"6196c7035905512678cd45a9","condition":"contingent","relevant_dimensions":["wings","legs"],"bee_group":{"antennae":"X","wings":"2","pattern":"X","legs":"M"},"bonus":1.6800000000000013},{"rt":5694.399999976158,"stimulus":"bees-with-color/bee-A2DM.svg","response":1,"trial_type":"image-button-response","trial_index":59,"time_elapsed":2147676,"internal_node_id":"0.0-4.0-0.24","subject_id":"6151fe992547b315ffff75ef","study_id":"60edd13110225f80f9f3709b","session_id":"6196c7035905512678cd45a9","condition":"contingent","relevant_dimensions":["wings","legs"],"bee_group":{"antennae":"X","wings":"2","pattern":"X","legs":"M"},"action":"avoid","summary":"good-avoid","bonus":1.6800000000000013},{"rt":1000.1000000238419,"stimulus":"\n                    <p><b>Action: <em>avoid</em></b></p>\n                    <p>This is the bee that you just saw.</p>\n                    <img src=\"bees-with-color/bee-A2DM.svg\" width=\"200\">\n                    <p><br>Your bonus pay is unchanged, and remains at $0.60.</p>\n            ","response":0,"trial_type":"html-button-response","trial_index":60,"time_elapsed":2148677,"internal_node_id":"0.0-4.0-1.24","subject_id":"6151fe992547b315ffff75ef","study_id":"60edd13110225f80f9f3709b","session_id":"6196c7035905512678cd45a9","condition":"contingent","relevant_dimensions":["wings","legs"],"bee_group":{"antennae":"X","wings":"2","pattern":"X","legs":"M"},"bonus":1.6800000000000013},{"rt":2062,"stimulus":"bees-with-color/bee-B2DM.svg","response":1,"trial_type":"image-button-response","trial_index":61,"time_elapsed":2150740,"internal_node_id":"0.0-4.0-0.25","subject_id":"6151fe992547b315ffff75ef","study_id":"60edd13110225f80f9f3709b","session_id":"6196c7035905512678cd45a9","condition":"contingent","relevant_dimensions":["wings","legs"],"bee_group":{"antennae":"X","wings":"2","pattern":"X","legs":"M"},"action":"avoid","summary":"good-avoid","bonus":1.6800000000000013},{"rt":910.2000000476837,"stimulus":"\n                    <p><b>Action: <em>avoid</em></b></p>\n                    <p>This is the bee that you just saw.</p>\n                    <img src=\"bees-with-color/bee-B2DM.svg\" width=\"200\">\n                    <p><br>Your bonus pay is unchanged, and remains at $0.60.</p>\n            ","response":0,"trial_type":"html-button-response","trial_index":62,"time_elapsed":2151651,"internal_node_id":"0.0-4.0-1.25","subject_id":"6151fe992547b315ffff75ef","study_id":"60edd13110225f80f9f3709b","session_id":"6196c7035905512678cd45a9","condition":"contingent","relevant_dimensions":["wings","legs"],"bee_group":{"antennae":"X","wings":"2","pattern":"X","legs":"M"},"bonus":1.6800000000000013},{"rt":1460.2999999523163,"stimulus":"bees-with-color/bee-B2DF.svg","response":0,"trial_type":"image-button-response","trial_index":63,"time_elapsed":2153112,"internal_node_id":"0.0-4.0-0.26","subject_id":"6151fe992547b315ffff75ef","study_id":"60edd13110225f80f9f3709b","session_id":"6196c7035905512678cd45a9","condition":"contingent","relevant_dimensions":["wings","legs"],"bee_group":{"antennae":"X","wings":"2","pattern":"X","legs":"M"},"action":"harvest","summary":"good-harvest","bonus":1.6800000000000013},{"rt":881.0999999046326,"stimulus":"\n                    <p><b>Action: <em>harvest</em></b></p>\n                    <p>This is the bee that you just saw.</p>\n                    <img src=\"bees-with-color/bee-B2DF.svg\" width=\"200\">\n                    <p><span class=\"greenText\"><b>Successful harvest!</b></span><br>Your pay has increased by $0.02. Your bonus pay is now $0.62.</p>\n            ","response":0,"trial_type":"html-button-response","trial_index":64,"time_elapsed":2153994,"internal_node_id":"0.0-4.0-1.26","subject_id":"6151fe992547b315ffff75ef","study_id":"60edd13110225f80f9f3709b","session_id":"6196c7035905512678cd45a9","condition":"contingent","relevant_dimensions":["wings","legs"],"bee_group":{"antennae":"X","wings":"2","pattern":"X","legs":"M"},"bonus":1.6800000000000013},{"rt":1010.0999999046326,"stimulus":"bees-with-color/bee-A1SF.svg","response":0,"trial_type":"image-button-response","trial_index":65,"time_elapsed":2155005,"internal_node_id":"0.0-4.0-0.27","subject_id":"6151fe992547b315ffff75ef","study_id":"60edd13110225f80f9f3709b","session_id":"6196c7035905512678cd45a9","condition":"contingent","relevant_dimensions":["wings","legs"],"bee_group":{"antennae":"X","wings":"2","pattern":"X","legs":"M"},"action":"harvest","summary":"good-harvest","bonus":1.6800000000000013},{"rt":618,"stimulus":"\n                    <p><b>Action: <em>harvest</em></b></p>\n                    <p>This is the bee that you just saw.</p>\n                    <img src=\"bees-with-color/bee-A1SF.svg\" width=\"200\">\n                    <p><span class=\"greenText\"><b>Successful harvest!</b></span><br>Your pay has increased by $0.02. Your bonus pay is now $0.64.</p>\n            ","response":0,"trial_type":"html-button-response","trial_index":66,"time_elapsed":2155624,"internal_node_id":"0.0-4.0-1.27","subject_id":"6151fe992547b315ffff75ef","study_id":"60edd13110225f80f9f3709b","session_id":"6196c7035905512678cd45a9","condition":"contingent","relevant_dimensions":["wings","legs"],"bee_group":{"antennae":"X","wings":"2","pattern":"X","legs":"M"},"bonus":1.6800000000000013},{"rt":909.5,"stimulus":"bees-with-color/bee-A1DF.svg","response":0,"trial_type":"image-button-response","trial_index":67,"time_elapsed":2156534,"internal_node_id":"0.0-4.0-0.28","subject_id":"6151fe992547b315ffff75ef","study_id":"60edd13110225f80f9f3709b","session_id":"6196c7035905512678cd45a9","condition":"contingent","relevant_dimensions":["wings","legs"],"bee_group":{"antennae":"X","wings":"2","pattern":"X","legs":"M"},"action":"harvest","summary":"good-harvest","bonus":1.6800000000000013},{"rt":593.1000000238419,"stimulus":"\n                    <p><b>Action: <em>harvest</em></b></p>\n                    <p>This is the bee that you just saw.</p>\n                    <img src=\"bees-with-color/bee-A1DF.svg\" width=\"200\">\n                    <p><span class=\"greenText\"><b>Successful harvest!</b></span><br>Your pay has increased by $0.02. Your bonus pay is now $0.66.</p>\n            ","response":0,"trial_type":"html-button-response","trial_index":68,"time_elapsed":2157128,"internal_node_id":"0.0-4.0-1.28","subject_id":"6151fe992547b315ffff75ef","study_id":"60edd13110225f80f9f3709b","session_id":"6196c7035905512678cd45a9","condition":"contingent","relevant_dimensions":["wings","legs"],"bee_group":{"antennae":"X","wings":"2","pattern":"X","legs":"M"},"bonus":1.6800000000000013},{"rt":2038.3999999761581,"stimulus":"bees-with-color/bee-B2SF.svg","response":0,"trial_type":"image-button-response","trial_index":69,"time_elapsed":2159167,"internal_node_id":"0.0-4.0-0.29","subject_id":"6151fe992547b315ffff75ef","study_id":"60edd13110225f80f9f3709b","session_id":"6196c7035905512678cd45a9","condition":"contingent","relevant_dimensions":["wings","legs"],"bee_group":{"antennae":"X","wings":"2","pattern":"X","legs":"M"},"action":"harvest","summary":"good-harvest","bonus":1.6800000000000013},{"rt":685.1999999284744,"stimulus":"\n                    <p><b>Action: <em>harvest</em></b></p>\n                    <p>This is the bee that you just saw.</p>\n                    <img src=\"bees-with-color/bee-B2SF.svg\" width=\"200\">\n                    <p><span class=\"greenText\"><b>Successful harvest!</b></span><br>Your pay has increased by $0.02. Your bonus pay is now $0.68.</p>\n            ","response":0,"trial_type":"html-button-response","trial_index":70,"time_elapsed":2159853,"internal_node_id":"0.0-4.0-1.29","subject_id":"6151fe992547b315ffff75ef","study_id":"60edd13110225f80f9f3709b","session_id":"6196c7035905512678cd45a9","condition":"contingent","relevant_dimensions":["wings","legs"],"bee_group":{"antennae":"X","wings":"2","pattern":"X","legs":"M"},"bonus":1.6800000000000013},{"rt":1440.3999999761581,"stimulus":"bees-with-color/bee-B1SM.svg","response":0,"trial_type":"image-button-response","trial_index":71,"time_elapsed":2161294,"internal_node_id":"0.0-4.0-0.30","subject_id":"6151fe992547b315ffff75ef","study_id":"60edd13110225f80f9f3709b","session_id":"6196c7035905512678cd45a9","condition":"contingent","relevant_dimensions":["wings","legs"],"bee_group":{"antennae":"X","wings":"2","pattern":"X","legs":"M"},"action":"harvest","summary":"good-harvest","bonus":1.6800000000000013},{"rt":646.9000000953674,"stimulus":"\n                    <p><b>Action: <em>harvest</em></b></p>\n                    <p>This is the bee that you just saw.</p>\n                    <img src=\"bees-with-color/bee-B1SM.svg\" width=\"200\">\n                    <p><span class=\"greenText\"><b>Successful harvest!</b></span><br>Your pay has increased by $0.02. Your bonus pay is now $0.70.</p>\n            ","response":0,"trial_type":"html-button-response","trial_index":72,"time_elapsed":2161942,"internal_node_id":"0.0-4.0-1.30","subject_id":"6151fe992547b315ffff75ef","study_id":"60edd13110225f80f9f3709b","session_id":"6196c7035905512678cd45a9","condition":"contingent","relevant_dimensions":["wings","legs"],"bee_group":{"antennae":"X","wings":"2","pattern":"X","legs":"M"},"bonus":1.6800000000000013},{"rt":1244.2999999523163,"stimulus":"bees-with-color/bee-B1DM.svg","response":0,"trial_type":"image-button-response","trial_index":73,"time_elapsed":2163187,"internal_node_id":"0.0-4.0-0.31","subject_id":"6151fe992547b315ffff75ef","study_id":"60edd13110225f80f9f3709b","session_id":"6196c7035905512678cd45a9","condition":"contingent","relevant_dimensions":["wings","legs"],"bee_group":{"antennae":"X","wings":"2","pattern":"X","legs":"M"},"action":"harvest","summary":"good-harvest","bonus":1.6800000000000013},{"rt":676.1000000238419,"stimulus":"\n                    <p><b>Action: <em>harvest</em></b></p>\n                    <p>This is the bee that you just saw.</p>\n                    <img src=\"bees-with-color/bee-B1DM.svg\" width=\"200\">\n                    <p><span class=\"greenText\"><b>Successful harvest!</b></span><br>Your pay has increased by $0.02. Your bonus pay is now $0.72.</p>\n            ","response":0,"trial_type":"html-button-response","trial_index":74,"time_elapsed":2163864,"internal_node_id":"0.0-4.0-1.31","subject_id":"6151fe992547b315ffff75ef","study_id":"60edd13110225f80f9f3709b","session_id":"6196c7035905512678cd45a9","condition":"contingent","relevant_dimensions":["wings","legs"],"bee_group":{"antennae":"X","wings":"2","pattern":"X","legs":"M"},"bonus":1.6800000000000013},{"rt":861.1999999284744,"stimulus":"bees-with-color/bee-B1SM.svg","response":0,"trial_type":"image-button-response","trial_index":75,"time_elapsed":2164726,"internal_node_id":"0.0-4.0-0.32","subject_id":"6151fe992547b315ffff75ef","study_id":"60edd13110225f80f9f3709b","session_id":"6196c7035905512678cd45a9","condition":"contingent","relevant_dimensions":["wings","legs"],"bee_group":{"antennae":"X","wings":"2","pattern":"X","legs":"M"},"action":"harvest","summary":"good-harvest","bonus":1.6800000000000013},{"rt":663.1999999284744,"stimulus":"\n                    <p><b>Action: <em>harvest</em></b></p>\n                    <p>This is the bee that you just saw.</p>\n                    <img src=\"bees-with-color/bee-B1SM.svg\" width=\"200\">\n                    <p><span class=\"greenText\"><b>Successful harvest!</b></span><br>Your pay has increased by $0.02. Your bonus pay is now $0.74.</p>\n            ","response":0,"trial_type":"html-button-response","trial_index":76,"time_elapsed":2165390,"internal_node_id":"0.0-4.0-1.32","subject_id":"6151fe992547b315ffff75ef","study_id":"60edd13110225f80f9f3709b","session_id":"6196c7035905512678cd45a9","condition":"contingent","relevant_dimensions":["wings","legs"],"bee_group":{"antennae":"X","wings":"2","pattern":"X","legs":"M"},"bonus":1.6800000000000013},{"rt":1309.1000000238419,"stimulus":"bees-with-color/bee-A2DF.svg","response":0,"trial_type":"image-button-response","trial_index":77,"time_elapsed":2166700,"internal_node_id":"0.0-4.0-0.33","subject_id":"6151fe992547b315ffff75ef","study_id":"60edd13110225f80f9f3709b","session_id":"6196c7035905512678cd45a9","condition":"contingent","relevant_dimensions":["wings","legs"],"bee_group":{"antennae":"X","wings":"2","pattern":"X","legs":"M"},"action":"harvest","summary":"good-harvest","bonus":1.6800000000000013},{"rt":619.1000000238419,"stimulus":"\n                    <p><b>Action: <em>harvest</em></b></p>\n                    <p>This is the bee that you just saw.</p>\n                    <img src=\"bees-with-color/bee-A2DF.svg\" width=\"200\">\n                    <p><span class=\"greenText\"><b>Successful harvest!</b></span><br>Your pay has increased by $0.02. Your bonus pay is now $0.76.</p>\n            ","response":0,"trial_type":"html-button-response","trial_index":78,"time_elapsed":2167320,"internal_node_id":"0.0-4.0-1.33","subject_id":"6151fe992547b315ffff75ef","study_id":"60edd13110225f80f9f3709b","session_id":"6196c7035905512678cd45a9","condition":"contingent","relevant_dimensions":["wings","legs"],"bee_group":{"antennae":"X","wings":"2","pattern":"X","legs":"M"},"bonus":1.6800000000000013},{"rt":1400.5,"stimulus":"bees-with-color/bee-B2DF.svg","response":0,"trial_type":"image-button-response","trial_index":79,"time_elapsed":2168721,"internal_node_id":"0.0-4.0-0.34","subject_id":"6151fe992547b315ffff75ef","study_id":"60edd13110225f80f9f3709b","session_id":"6196c7035905512678cd45a9","condition":"contingent","relevant_dimensions":["wings","legs"],"bee_group":{"antennae":"X","wings":"2","pattern":"X","legs":"M"},"action":"harvest","summary":"good-harvest","bonus":1.6800000000000013},{"rt":575.1999999284744,"stimulus":"\n                    <p><b>Action: <em>harvest</em></b></p>\n                    <p>This is the bee that you just saw.</p>\n                    <img src=\"bees-with-color/bee-B2DF.svg\" width=\"200\">\n                    <p><span class=\"greenText\"><b>Successful harvest!</b></span><br>Your pay has increased by $0.02. Your bonus pay is now $0.78.</p>\n            ","response":0,"trial_type":"html-button-response","trial_index":80,"time_elapsed":2169297,"internal_node_id":"0.0-4.0-1.34","subject_id":"6151fe992547b315ffff75ef","study_id":"60edd13110225f80f9f3709b","session_id":"6196c7035905512678cd45a9","condition":"contingent","relevant_dimensions":["wings","legs"],"bee_group":{"antennae":"X","wings":"2","pattern":"X","legs":"M"},"bonus":1.6800000000000013},{"rt":1548.8999999761581,"stimulus":"bees-with-color/bee-B2SM.svg","response":1,"trial_type":"image-button-response","trial_index":81,"time_elapsed":2170847,"internal_node_id":"0.0-4.0-0.35","subject_id":"6151fe992547b315ffff75ef","study_id":"60edd13110225f80f9f3709b","session_id":"6196c7035905512678cd45a9","condition":"contingent","relevant_dimensions":["wings","legs"],"bee_group":{"antennae":"X","wings":"2","pattern":"X","legs":"M"},"action":"avoid","summary":"good-avoid","bonus":1.6800000000000013},{"rt":626.2000000476837,"stimulus":"\n                    <p><b>Action: <em>avoid</em></b></p>\n                    <p>This is the bee that you just saw.</p>\n                    <img src=\"bees-with-color/bee-B2SM.svg\" width=\"200\">\n                    <p><br>Your bonus pay is unchanged, and remains at $0.78.</p>\n            ","response":0,"trial_type":"html-button-response","trial_index":82,"time_elapsed":2171474,"internal_node_id":"0.0-4.0-1.35","subject_id":"6151fe992547b315ffff75ef","study_id":"60edd13110225f80f9f3709b","session_id":"6196c7035905512678cd45a9","condition":"contingent","relevant_dimensions":["wings","legs"],"bee_group":{"antennae":"X","wings":"2","pattern":"X","legs":"M"},"bonus":1.6800000000000013},{"rt":1038.2000000476837,"stimulus":"bees-with-color/bee-B2SF.svg","response":0,"trial_type":"image-button-response","trial_index":83,"time_elapsed":2172513,"internal_node_id":"0.0-4.0-0.36","subject_id":"6151fe992547b315ffff75ef","study_id":"60edd13110225f80f9f3709b","session_id":"6196c7035905512678cd45a9","condition":"contingent","relevant_dimensions":["wings","legs"],"bee_group":{"antennae":"X","wings":"2","pattern":"X","legs":"M"},"action":"harvest","summary":"good-harvest","bonus":1.6800000000000013},{"rt":691.3000000715256,"stimulus":"\n                    <p><b>Action: <em>harvest</em></b></p>\n                    <p>This is the bee that you just saw.</p>\n                    <img src=\"bees-with-color/bee-B2SF.svg\" width=\"200\">\n                    <p><span class=\"greenText\"><b>Successful harvest!</b></span><br>Your pay has increased by $0.02. Your bonus pay is now $0.80.</p>\n            ","response":0,"trial_type":"html-button-response","trial_index":84,"time_elapsed":2173205,"internal_node_id":"0.0-4.0-1.36","subject_id":"6151fe992547b315ffff75ef","study_id":"60edd13110225f80f9f3709b","session_id":"6196c7035905512678cd45a9","condition":"contingent","relevant_dimensions":["wings","legs"],"bee_group":{"antennae":"X","wings":"2","pattern":"X","legs":"M"},"bonus":1.6800000000000013},{"rt":3372.3000000715256,"stimulus":"bees-with-color/bee-B2DM.svg","response":1,"trial_type":"image-button-response","trial_index":85,"time_elapsed":2176578,"internal_node_id":"0.0-4.0-0.37","subject_id":"6151fe992547b315ffff75ef","study_id":"60edd13110225f80f9f3709b","session_id":"6196c7035905512678cd45a9","condition":"contingent","relevant_dimensions":["wings","legs"],"bee_group":{"antennae":"X","wings":"2","pattern":"X","legs":"M"},"action":"avoid","summary":"good-avoid","bonus":1.6800000000000013},{"rt":780.1000000238419,"stimulus":"\n                    <p><b>Action: <em>avoid</em></b></p>\n                    <p>This is the bee that you just saw.</p>\n                    <img src=\"bees-with-color/bee-B2DM.svg\" width=\"200\">\n                    <p><br>Your bonus pay is unchanged, and remains at $0.80.</p>\n            ","response":0,"trial_type":"html-button-response","trial_index":86,"time_elapsed":2177359,"internal_node_id":"0.0-4.0-1.37","subject_id":"6151fe992547b315ffff75ef","study_id":"60edd13110225f80f9f3709b","session_id":"6196c7035905512678cd45a9","condition":"contingent","relevant_dimensions":["wings","legs"],"bee_group":{"antennae":"X","wings":"2","pattern":"X","legs":"M"},"bonus":1.6800000000000013},{"rt":1642.3999999761581,"stimulus":"bees-with-color/bee-A1DF.svg","response":0,"trial_type":"image-button-response","trial_index":87,"time_elapsed":2179002,"internal_node_id":"0.0-4.0-0.38","subject_id":"6151fe992547b315ffff75ef","study_id":"60edd13110225f80f9f3709b","session_id":"6196c7035905512678cd45a9","condition":"contingent","relevant_dimensions":["wings","legs"],"bee_group":{"antennae":"X","wings":"2","pattern":"X","legs":"M"},"action":"harvest","summary":"good-harvest","bonus":1.6800000000000013},{"rt":542.1000000238419,"stimulus":"\n                    <p><b>Action: <em>harvest</em></b></p>\n                    <p>This is the bee that you just saw.</p>\n                    <img src=\"bees-with-color/bee-A1DF.svg\" width=\"200\">\n                    <p><span class=\"greenText\"><b>Successful harvest!</b></span><br>Your pay has increased by $0.02. Your bonus pay is now $0.82.</p>\n            ","response":0,"trial_type":"html-button-response","trial_index":88,"time_elapsed":2179545,"internal_node_id":"0.0-4.0-1.38","subject_id":"6151fe992547b315ffff75ef","study_id":"60edd13110225f80f9f3709b","session_id":"6196c7035905512678cd45a9","condition":"contingent","relevant_dimensions":["wings","legs"],"bee_group":{"antennae":"X","wings":"2","pattern":"X","legs":"M"},"bonus":1.6800000000000013},{"rt":1214.1999999284744,"stimulus":"bees-with-color/bee-B1SF.svg","response":0,"trial_type":"image-button-response","trial_index":89,"time_elapsed":2180760,"internal_node_id":"0.0-4.0-0.39","subject_id":"6151fe992547b315ffff75ef","study_id":"60edd13110225f80f9f3709b","session_id":"6196c7035905512678cd45a9","condition":"contingent","relevant_dimensions":["wings","legs"],"bee_group":{"antennae":"X","wings":"2","pattern":"X","legs":"M"},"action":"harvest","summary":"good-harvest","bonus":1.6800000000000013},{"rt":623.1999999284744,"stimulus":"\n                    <p><b>Action: <em>harvest</em></b></p>\n                    <p>This is the bee that you just saw.</p>\n                    <img src=\"bees-with-color/bee-B1SF.svg\" width=\"200\">\n                    <p><span class=\"greenText\"><b>Successful harvest!</b></span><br>Your pay has increased by $0.02. Your bonus pay is now $0.84.</p>\n            ","response":0,"trial_type":"html-button-response","trial_index":90,"time_elapsed":2181384,"internal_node_id":"0.0-4.0-1.39","subject_id":"6151fe992547b315ffff75ef","study_id":"60edd13110225f80f9f3709b","session_id":"6196c7035905512678cd45a9","condition":"contingent","relevant_dimensions":["wings","legs"],"bee_group":{"antennae":"X","wings":"2","pattern":"X","legs":"M"},"bonus":1.6800000000000013},{"rt":1696,"stimulus":"bees-with-color/bee-A1DM.svg","response":0,"trial_type":"image-button-response","trial_index":91,"time_elapsed":2183081,"internal_node_id":"0.0-4.0-0.40","subject_id":"6151fe992547b315ffff75ef","study_id":"60edd13110225f80f9f3709b","session_id":"6196c7035905512678cd45a9","condition":"contingent","relevant_dimensions":["wings","legs"],"bee_group":{"antennae":"X","wings":"2","pattern":"X","legs":"M"},"action":"harvest","summary":"good-harvest","bonus":1.6800000000000013},{"rt":746.1000000238419,"stimulus":"\n                    <p><b>Action: <em>harvest</em></b></p>\n                    <p>This is the bee that you just saw.</p>\n                    <img src=\"bees-with-color/bee-A1DM.svg\" width=\"200\">\n                    <p><span class=\"greenText\"><b>Successful harvest!</b></span><br>Your pay has increased by $0.02. Your bonus pay is now $0.86.</p>\n            ","response":0,"trial_type":"html-button-response","trial_index":92,"time_elapsed":2183828,"internal_node_id":"0.0-4.0-1.40","subject_id":"6151fe992547b315ffff75ef","study_id":"60edd13110225f80f9f3709b","session_id":"6196c7035905512678cd45a9","condition":"contingent","relevant_dimensions":["wings","legs"],"bee_group":{"antennae":"X","wings":"2","pattern":"X","legs":"M"},"bonus":1.6800000000000013},{"rt":5951,"stimulus":"bees-with-color/bee-A2SF.svg","response":0,"trial_type":"image-button-response","trial_index":93,"time_elapsed":2189780,"internal_node_id":"0.0-4.0-0.41","subject_id":"6151fe992547b315ffff75ef","study_id":"60edd13110225f80f9f3709b","session_id":"6196c7035905512678cd45a9","condition":"contingent","relevant_dimensions":["wings","legs"],"bee_group":{"antennae":"X","wings":"2","pattern":"X","legs":"M"},"action":"harvest","summary":"good-harvest","bonus":1.6800000000000013},{"rt":832.1000000238419,"stimulus":"\n                    <p><b>Action: <em>harvest</em></b></p>\n                    <p>This is the bee that you just saw.</p>\n                    <img src=\"bees-with-color/bee-A2SF.svg\" width=\"200\">\n                    <p><span class=\"greenText\"><b>Successful harvest!</b></span><br>Your pay has increased by $0.02. Your bonus pay is now $0.88.</p>\n            ","response":0,"trial_type":"html-button-response","trial_index":94,"time_elapsed":2190613,"internal_node_id":"0.0-4.0-1.41","subject_id":"6151fe992547b315ffff75ef","study_id":"60edd13110225f80f9f3709b","session_id":"6196c7035905512678cd45a9","condition":"contingent","relevant_dimensions":["wings","legs"],"bee_group":{"antennae":"X","wings":"2","pattern":"X","legs":"M"},"bonus":1.6800000000000013},{"rt":3015.100000023842,"stimulus":"bees-with-color/bee-A2DM.svg","response":1,"trial_type":"image-button-response","trial_index":95,"time_elapsed":2193629,"internal_node_id":"0.0-4.0-0.42","subject_id":"6151fe992547b315ffff75ef","study_id":"60edd13110225f80f9f3709b","session_id":"6196c7035905512678cd45a9","condition":"contingent","relevant_dimensions":["wings","legs"],"bee_group":{"antennae":"X","wings":"2","pattern":"X","legs":"M"},"action":"avoid","summary":"good-avoid","bonus":1.6800000000000013},{"rt":754.8999999761581,"stimulus":"\n                    <p><b>Action: <em>avoid</em></b></p>\n                    <p>This is the bee that you just saw.</p>\n                    <img src=\"bees-with-color/bee-A2DM.svg\" width=\"200\">\n                    <p><br>Your bonus pay is unchanged, and remains at $0.88.</p>\n            ","response":0,"trial_type":"html-button-response","trial_index":96,"time_elapsed":2194385,"internal_node_id":"0.0-4.0-1.42","subject_id":"6151fe992547b315ffff75ef","study_id":"60edd13110225f80f9f3709b","session_id":"6196c7035905512678cd45a9","condition":"contingent","relevant_dimensions":["wings","legs"],"bee_group":{"antennae":"X","wings":"2","pattern":"X","legs":"M"},"bonus":1.6800000000000013},{"rt":1383.5,"stimulus":"bees-with-color/bee-A1SF.svg","response":0,"trial_type":"image-button-response","trial_index":97,"time_elapsed":2195769,"internal_node_id":"0.0-4.0-0.43","subject_id":"6151fe992547b315ffff75ef","study_id":"60edd13110225f80f9f3709b","session_id":"6196c7035905512678cd45a9","condition":"contingent","relevant_dimensions":["wings","legs"],"bee_group":{"antennae":"X","wings":"2","pattern":"X","legs":"M"},"action":"harvest","summary":"good-harvest","bonus":1.6800000000000013},{"rt":701.1000000238419,"stimulus":"\n                    <p><b>Action: <em>harvest</em></b></p>\n                    <p>This is the bee that you just saw.</p>\n                    <img src=\"bees-with-color/bee-A1SF.svg\" width=\"200\">\n                    <p><span class=\"greenText\"><b>Successful harvest!</b></span><br>Your pay has increased by $0.02. Your bonus pay is now $0.90.</p>\n            ","response":0,"trial_type":"html-button-response","trial_index":98,"time_elapsed":2196471,"internal_node_id":"0.0-4.0-1.43","subject_id":"6151fe992547b315ffff75ef","study_id":"60edd13110225f80f9f3709b","session_id":"6196c7035905512678cd45a9","condition":"contingent","relevant_dimensions":["wings","legs"],"bee_group":{"antennae":"X","wings":"2","pattern":"X","legs":"M"},"bonus":1.6800000000000013},{"rt":2480.3000000715256,"stimulus":"bees-with-color/bee-B1DF.svg","response":0,"trial_type":"image-button-response","trial_index":99,"time_elapsed":2198952,"internal_node_id":"0.0-4.0-0.44","subject_id":"6151fe992547b315ffff75ef","study_id":"60edd13110225f80f9f3709b","session_id":"6196c7035905512678cd45a9","condition":"contingent","relevant_dimensions":["wings","legs"],"bee_group":{"antennae":"X","wings":"2","pattern":"X","legs":"M"},"action":"harvest","summary":"good-harvest","bonus":1.6800000000000013},{"rt":541.3999999761581,"stimulus":"\n                    <p><b>Action: <em>harvest</em></b></p>\n                    <p>This is the bee that you just saw.</p>\n                    <img src=\"bees-with-color/bee-B1DF.svg\" width=\"200\">\n                    <p><span class=\"greenText\"><b>Successful harvest!</b></span><br>Your pay has increased by $0.02. Your bonus pay is now $0.92.</p>\n            ","response":0,"trial_type":"html-button-response","trial_index":100,"time_elapsed":2199494,"internal_node_id":"0.0-4.0-1.44","subject_id":"6151fe992547b315ffff75ef","study_id":"60edd13110225f80f9f3709b","session_id":"6196c7035905512678cd45a9","condition":"contingent","relevant_dimensions":["wings","legs"],"bee_group":{"antennae":"X","wings":"2","pattern":"X","legs":"M"},"bonus":1.6800000000000013},{"rt":3086.9000000953674,"stimulus":"bees-with-color/bee-A2SM.svg","response":1,"trial_type":"image-button-response","trial_index":101,"time_elapsed":2202582,"internal_node_id":"0.0-4.0-0.45","subject_id":"6151fe992547b315ffff75ef","study_id":"60edd13110225f80f9f3709b","session_id":"6196c7035905512678cd45a9","condition":"contingent","relevant_dimensions":["wings","legs"],"bee_group":{"antennae":"X","wings":"2","pattern":"X","legs":"M"},"action":"avoid","summary":"good-avoid","bonus":1.6800000000000013},{"rt":640.1000000238419,"stimulus":"\n                    <p><b>Action: <em>avoid</em></b></p>\n                    <p>This is the bee that you just saw.</p>\n                    <img src=\"bees-with-color/bee-A2SM.svg\" width=\"200\">\n                    <p><br>Your bonus pay is unchanged, and remains at $0.92.</p>\n            ","response":0,"trial_type":"html-button-response","trial_index":102,"time_elapsed":2203223,"internal_node_id":"0.0-4.0-1.45","subject_id":"6151fe992547b315ffff75ef","study_id":"60edd13110225f80f9f3709b","session_id":"6196c7035905512678cd45a9","condition":"contingent","relevant_dimensions":["wings","legs"],"bee_group":{"antennae":"X","wings":"2","pattern":"X","legs":"M"},"bonus":1.6800000000000013},{"rt":907,"stimulus":"bees-with-color/bee-A1SM.svg","response":0,"trial_type":"image-button-response","trial_index":103,"time_elapsed":2204131,"internal_node_id":"0.0-4.0-0.46","subject_id":"6151fe992547b315ffff75ef","study_id":"60edd13110225f80f9f3709b","session_id":"6196c7035905512678cd45a9","condition":"contingent","relevant_dimensions":["wings","legs"],"bee_group":{"antennae":"X","wings":"2","pattern":"X","legs":"M"},"action":"harvest","summary":"good-harvest","bonus":1.6800000000000013},{"rt":613.1000000238419,"stimulus":"\n                    <p><b>Action: <em>harvest</em></b></p>\n                    <p>This is the bee that you just saw.</p>\n                    <img src=\"bees-with-color/bee-A1SM.svg\" width=\"200\">\n                    <p><span class=\"greenText\"><b>Successful harvest!</b></span><br>Your pay has increased by $0.02. Your bonus pay is now $0.94.</p>\n            ","response":0,"trial_type":"html-button-response","trial_index":104,"time_elapsed":2204745,"internal_node_id":"0.0-4.0-1.46","subject_id":"6151fe992547b315ffff75ef","study_id":"60edd13110225f80f9f3709b","session_id":"6196c7035905512678cd45a9","condition":"contingent","relevant_dimensions":["wings","legs"],"bee_group":{"antennae":"X","wings":"2","pattern":"X","legs":"M"},"bonus":1.6800000000000013},{"rt":1111,"stimulus":"bees-with-color/bee-B1DM.svg","response":0,"trial_type":"image-button-response","trial_index":105,"time_elapsed":2205857,"internal_node_id":"0.0-4.0-0.47","subject_id":"6151fe992547b315ffff75ef","study_id":"60edd13110225f80f9f3709b","session_id":"6196c7035905512678cd45a9","condition":"contingent","relevant_dimensions":["wings","legs"],"bee_group":{"antennae":"X","wings":"2","pattern":"X","legs":"M"},"action":"harvest","summary":"good-harvest","bonus":1.6800000000000013},{"rt":485.10000002384186,"stimulus":"\n                    <p><b>Action: <em>harvest</em></b></p>\n                    <p>This is the bee that you just saw.</p>\n                    <img src=\"bees-with-color/bee-B1DM.svg\" width=\"200\">\n                    <p><span class=\"greenText\"><b>Successful harvest!</b></span><br>Your pay has increased by $0.02. Your bonus pay is now $0.96.</p>\n            ","response":0,"trial_type":"html-button-response","trial_index":106,"time_elapsed":2206343,"internal_node_id":"0.0-4.0-1.47","subject_id":"6151fe992547b315ffff75ef","study_id":"60edd13110225f80f9f3709b","session_id":"6196c7035905512678cd45a9","condition":"contingent","relevant_dimensions":["wings","legs"],"bee_group":{"antennae":"X","wings":"2","pattern":"X","legs":"M"},"bonus":1.6800000000000013},{"rt":1381.2999999523163,"stimulus":"bees-with-color/bee-A2SF.svg","response":0,"trial_type":"image-button-response","trial_index":107,"time_elapsed":2207725,"internal_node_id":"0.0-4.0-0.48","subject_id":"6151fe992547b315ffff75ef","study_id":"60edd13110225f80f9f3709b","session_id":"6196c7035905512678cd45a9","condition":"contingent","relevant_dimensions":["wings","legs"],"bee_group":{"antennae":"X","wings":"2","pattern":"X","legs":"M"},"action":"harvest","summary":"good-harvest","bonus":1.6800000000000013},{"rt":537.2000000476837,"stimulus":"\n                    <p><b>Action: <em>harvest</em></b></p>\n                    <p>This is the bee that you just saw.</p>\n                    <img src=\"bees-with-color/bee-A2SF.svg\" width=\"200\">\n                    <p><span class=\"greenText\"><b>Successful harvest!</b></span><br>Your pay has increased by $0.02. Your bonus pay is now $0.98.</p>\n            ","response":0,"trial_type":"html-button-response","trial_index":108,"time_elapsed":2208263,"internal_node_id":"0.0-4.0-1.48","subject_id":"6151fe992547b315ffff75ef","study_id":"60edd13110225f80f9f3709b","session_id":"6196c7035905512678cd45a9","condition":"contingent","relevant_dimensions":["wings","legs"],"bee_group":{"antennae":"X","wings":"2","pattern":"X","legs":"M"},"bonus":1.6800000000000013},{"rt":736.2000000476837,"stimulus":"bees-with-color/bee-B1SF.svg","response":0,"trial_type":"image-button-response","trial_index":109,"time_elapsed":2209000,"internal_node_id":"0.0-4.0-0.49","subject_id":"6151fe992547b315ffff75ef","study_id":"60edd13110225f80f9f3709b","session_id":"6196c7035905512678cd45a9","condition":"contingent","relevant_dimensions":["wings","legs"],"bee_group":{"antennae":"X","wings":"2","pattern":"X","legs":"M"},"action":"harvest","summary":"good-harvest","bonus":1.6800000000000013},{"rt":472.2000000476837,"stimulus":"\n                    <p><b>Action: <em>harvest</em></b></p>\n                    <p>This is the bee that you just saw.</p>\n                    <img src=\"bees-with-color/bee-B1SF.svg\" width=\"200\">\n                    <p><span class=\"greenText\"><b>Successful harvest!</b></span><br>Your pay has increased by $0.02. Your bonus pay is now $1.00.</p>\n            ","response":0,"trial_type":"html-button-response","trial_index":110,"time_elapsed":2209473,"internal_node_id":"0.0-4.0-1.49","subject_id":"6151fe992547b315ffff75ef","study_id":"60edd13110225f80f9f3709b","session_id":"6196c7035905512678cd45a9","condition":"contingent","relevant_dimensions":["wings","legs"],"bee_group":{"antennae":"X","wings":"2","pattern":"X","legs":"M"},"bonus":1.6800000000000013},{"rt":1589.4000000953674,"stimulus":"bees-with-color/bee-A2DM.svg","response":1,"trial_type":"image-button-response","trial_index":111,"time_elapsed":2211063,"internal_node_id":"0.0-4.0-0.50","subject_id":"6151fe992547b315ffff75ef","study_id":"60edd13110225f80f9f3709b","session_id":"6196c7035905512678cd45a9","condition":"contingent","relevant_dimensions":["wings","legs"],"bee_group":{"antennae":"X","wings":"2","pattern":"X","legs":"M"},"action":"avoid","summary":"good-avoid","bonus":1.6800000000000013},{"rt":729.2000000476837,"stimulus":"\n                    <p><b>Action: <em>avoid</em></b></p>\n                    <p>This is the bee that you just saw.</p>\n                    <img src=\"bees-with-color/bee-A2DM.svg\" width=\"200\">\n                    <p><br>Your bonus pay is unchanged, and remains at $1.00.</p>\n            ","response":0,"trial_type":"html-button-response","trial_index":112,"time_elapsed":2211793,"internal_node_id":"0.0-4.0-1.50","subject_id":"6151fe992547b315ffff75ef","study_id":"60edd13110225f80f9f3709b","session_id":"6196c7035905512678cd45a9","condition":"contingent","relevant_dimensions":["wings","legs"],"bee_group":{"antennae":"X","wings":"2","pattern":"X","legs":"M"},"bonus":1.6800000000000013},{"rt":1142.3000000715256,"stimulus":"bees-with-color/bee-A1SM.svg","response":0,"trial_type":"image-button-response","trial_index":113,"time_elapsed":2212936,"internal_node_id":"0.0-4.0-0.51","subject_id":"6151fe992547b315ffff75ef","study_id":"60edd13110225f80f9f3709b","session_id":"6196c7035905512678cd45a9","condition":"contingent","relevant_dimensions":["wings","legs"],"bee_group":{"antennae":"X","wings":"2","pattern":"X","legs":"M"},"action":"harvest","summary":"good-harvest","bonus":1.6800000000000013},{"rt":519.3000000715256,"stimulus":"\n                    <p><b>Action: <em>harvest</em></b></p>\n                    <p>This is the bee that you just saw.</p>\n                    <img src=\"bees-with-color/bee-A1SM.svg\" width=\"200\">\n                    <p><span class=\"greenText\"><b>Successful harvest!</b></span><br>Your pay has increased by $0.02. Your bonus pay is now $1.02.</p>\n            ","response":0,"trial_type":"html-button-response","trial_index":114,"time_elapsed":2213456,"internal_node_id":"0.0-4.0-1.51","subject_id":"6151fe992547b315ffff75ef","study_id":"60edd13110225f80f9f3709b","session_id":"6196c7035905512678cd45a9","condition":"contingent","relevant_dimensions":["wings","legs"],"bee_group":{"antennae":"X","wings":"2","pattern":"X","legs":"M"},"bonus":1.6800000000000013},{"rt":1395.2000000476837,"stimulus":"bees-with-color/bee-A2SM.svg","response":1,"trial_type":"image-button-response","trial_index":115,"time_elapsed":2214852,"internal_node_id":"0.0-4.0-0.52","subject_id":"6151fe992547b315ffff75ef","study_id":"60edd13110225f80f9f3709b","session_id":"6196c7035905512678cd45a9","condition":"contingent","relevant_dimensions":["wings","legs"],"bee_group":{"antennae":"X","wings":"2","pattern":"X","legs":"M"},"action":"avoid","summary":"good-avoid","bonus":1.6800000000000013},{"rt":575.2000000476837,"stimulus":"\n                    <p><b>Action: <em>avoid</em></b></p>\n                    <p>This is the bee that you just saw.</p>\n                    <img src=\"bees-with-color/bee-A2SM.svg\" width=\"200\">\n                    <p><br>Your bonus pay is unchanged, and remains at $1.02.</p>\n            ","response":0,"trial_type":"html-button-response","trial_index":116,"time_elapsed":2215428,"internal_node_id":"0.0-4.0-1.52","subject_id":"6151fe992547b315ffff75ef","study_id":"60edd13110225f80f9f3709b","session_id":"6196c7035905512678cd45a9","condition":"contingent","relevant_dimensions":["wings","legs"],"bee_group":{"antennae":"X","wings":"2","pattern":"X","legs":"M"},"bonus":1.6800000000000013},{"rt":2277.2000000476837,"stimulus":"bees-with-color/bee-A1DM.svg","response":0,"trial_type":"image-button-response","trial_index":117,"time_elapsed":2217706,"internal_node_id":"0.0-4.0-0.53","subject_id":"6151fe992547b315ffff75ef","study_id":"60edd13110225f80f9f3709b","session_id":"6196c7035905512678cd45a9","condition":"contingent","relevant_dimensions":["wings","legs"],"bee_group":{"antennae":"X","wings":"2","pattern":"X","legs":"M"},"action":"harvest","summary":"good-harvest","bonus":1.6800000000000013},{"rt":474,"stimulus":"\n                    <p><b>Action: <em>harvest</em></b></p>\n                    <p>This is the bee that you just saw.</p>\n                    <img src=\"bees-with-color/bee-A1DM.svg\" width=\"200\">\n                    <p><span class=\"greenText\"><b>Successful harvest!</b></span><br>Your pay has increased by $0.02. Your bonus pay is now $1.04.</p>\n            ","response":0,"trial_type":"html-button-response","trial_index":118,"time_elapsed":2218181,"internal_node_id":"0.0-4.0-1.53","subject_id":"6151fe992547b315ffff75ef","study_id":"60edd13110225f80f9f3709b","session_id":"6196c7035905512678cd45a9","condition":"contingent","relevant_dimensions":["wings","legs"],"bee_group":{"antennae":"X","wings":"2","pattern":"X","legs":"M"},"bonus":1.6800000000000013},{"rt":1085.4000000953674,"stimulus":"bees-with-color/bee-B2DF.svg","response":0,"trial_type":"image-button-response","trial_index":119,"time_elapsed":2219267,"internal_node_id":"0.0-4.0-0.54","subject_id":"6151fe992547b315ffff75ef","study_id":"60edd13110225f80f9f3709b","session_id":"6196c7035905512678cd45a9","condition":"contingent","relevant_dimensions":["wings","legs"],"bee_group":{"antennae":"X","wings":"2","pattern":"X","legs":"M"},"action":"harvest","summary":"good-harvest","bonus":1.6800000000000013},{"rt":471,"stimulus":"\n                    <p><b>Action: <em>harvest</em></b></p>\n                    <p>This is the bee that you just saw.</p>\n                    <img src=\"bees-with-color/bee-B2DF.svg\" width=\"200\">\n                    <p><span class=\"greenText\"><b>Successful harvest!</b></span><br>Your pay has increased by $0.02. Your bonus pay is now $1.06.</p>\n            ","response":0,"trial_type":"html-button-response","trial_index":120,"time_elapsed":2219739,"internal_node_id":"0.0-4.0-1.54","subject_id":"6151fe992547b315ffff75ef","study_id":"60edd13110225f80f9f3709b","session_id":"6196c7035905512678cd45a9","condition":"contingent","relevant_dimensions":["wings","legs"],"bee_group":{"antennae":"X","wings":"2","pattern":"X","legs":"M"},"bonus":1.6800000000000013},{"rt":804.2000000476837,"stimulus":"bees-with-color/bee-A1DF.svg","response":0,"trial_type":"image-button-response","trial_index":121,"time_elapsed":2220544,"internal_node_id":"0.0-4.0-0.55","subject_id":"6151fe992547b315ffff75ef","study_id":"60edd13110225f80f9f3709b","session_id":"6196c7035905512678cd45a9","condition":"contingent","relevant_dimensions":["wings","legs"],"bee_group":{"antennae":"X","wings":"2","pattern":"X","legs":"M"},"action":"harvest","summary":"good-harvest","bonus":1.6800000000000013},{"rt":450,"stimulus":"\n                    <p><b>Action: <em>harvest</em></b></p>\n                    <p>This is the bee that you just saw.</p>\n                    <img src=\"bees-with-color/bee-A1DF.svg\" width=\"200\">\n                    <p><span class=\"greenText\"><b>Successful harvest!</b></span><br>Your pay has increased by $0.02. Your bonus pay is now $1.08.</p>\n            ","response":0,"trial_type":"html-button-response","trial_index":122,"time_elapsed":2220995,"internal_node_id":"0.0-4.0-1.55","subject_id":"6151fe992547b315ffff75ef","study_id":"60edd13110225f80f9f3709b","session_id":"6196c7035905512678cd45a9","condition":"contingent","relevant_dimensions":["wings","legs"],"bee_group":{"antennae":"X","wings":"2","pattern":"X","legs":"M"},"bonus":1.6800000000000013},{"rt":944.3999999761581,"stimulus":"bees-with-color/bee-A2DF.svg","response":0,"trial_type":"image-button-response","trial_index":123,"time_elapsed":2221940,"internal_node_id":"0.0-4.0-0.56","subject_id":"6151fe992547b315ffff75ef","study_id":"60edd13110225f80f9f3709b","session_id":"6196c7035905512678cd45a9","condition":"contingent","relevant_dimensions":["wings","legs"],"bee_group":{"antennae":"X","wings":"2","pattern":"X","legs":"M"},"action":"harvest","summary":"good-harvest","bonus":1.6800000000000013},{"rt":483.2000000476837,"stimulus":"\n                    <p><b>Action: <em>harvest</em></b></p>\n                    <p>This is the bee that you just saw.</p>\n                    <img src=\"bees-with-color/bee-A2DF.svg\" width=\"200\">\n                    <p><span class=\"greenText\"><b>Successful harvest!</b></span><br>Your pay has increased by $0.02. Your bonus pay is now $1.10.</p>\n            ","response":0,"trial_type":"html-button-response","trial_index":124,"time_elapsed":2222424,"internal_node_id":"0.0-4.0-1.56","subject_id":"6151fe992547b315ffff75ef","study_id":"60edd13110225f80f9f3709b","session_id":"6196c7035905512678cd45a9","condition":"contingent","relevant_dimensions":["wings","legs"],"bee_group":{"antennae":"X","wings":"2","pattern":"X","legs":"M"},"bonus":1.6800000000000013},{"rt":1052.4000000953674,"stimulus":"bees-with-color/bee-B1DM.svg","response":0,"trial_type":"image-button-response","trial_index":125,"time_elapsed":2223477,"internal_node_id":"0.0-4.0-0.57","subject_id":"6151fe992547b315ffff75ef","study_id":"60edd13110225f80f9f3709b","session_id":"6196c7035905512678cd45a9","condition":"contingent","relevant_dimensions":["wings","legs"],"bee_group":{"antennae":"X","wings":"2","pattern":"X","legs":"M"},"action":"harvest","summary":"good-harvest","bonus":1.6800000000000013},{"rt":543.1999999284744,"stimulus":"\n                    <p><b>Action: <em>harvest</em></b></p>\n                    <p>This is the bee that you just saw.</p>\n                    <img src=\"bees-with-color/bee-B1DM.svg\" width=\"200\">\n                    <p><span class=\"greenText\"><b>Successful harvest!</b></span><br>Your pay has increased by $0.02. Your bonus pay is now $1.12.</p>\n            ","response":0,"trial_type":"html-button-response","trial_index":126,"time_elapsed":2224021,"internal_node_id":"0.0-4.0-1.57","subject_id":"6151fe992547b315ffff75ef","study_id":"60edd13110225f80f9f3709b","session_id":"6196c7035905512678cd45a9","condition":"contingent","relevant_dimensions":["wings","legs"],"bee_group":{"antennae":"X","wings":"2","pattern":"X","legs":"M"},"bonus":1.6800000000000013},{"rt":1078.1000000238419,"stimulus":"bees-with-color/bee-B1DF.svg","response":0,"trial_type":"image-button-response","trial_index":127,"time_elapsed":2225100,"internal_node_id":"0.0-4.0-0.58","subject_id":"6151fe992547b315ffff75ef","study_id":"60edd13110225f80f9f3709b","session_id":"6196c7035905512678cd45a9","condition":"contingent","relevant_dimensions":["wings","legs"],"bee_group":{"antennae":"X","wings":"2","pattern":"X","legs":"M"},"action":"harvest","summary":"good-harvest","bonus":1.6800000000000013},{"rt":479.40000009536743,"stimulus":"\n                    <p><b>Action: <em>harvest</em></b></p>\n                    <p>This is the bee that you just saw.</p>\n                    <img src=\"bees-with-color/bee-B1DF.svg\" width=\"200\">\n                    <p><span class=\"greenText\"><b>Successful harvest!</b></span><br>Your pay has increased by $0.02. Your bonus pay is now $1.14.</p>\n            ","response":0,"trial_type":"html-button-response","trial_index":128,"time_elapsed":2225580,"internal_node_id":"0.0-4.0-1.58","subject_id":"6151fe992547b315ffff75ef","study_id":"60edd13110225f80f9f3709b","session_id":"6196c7035905512678cd45a9","condition":"contingent","relevant_dimensions":["wings","legs"],"bee_group":{"antennae":"X","wings":"2","pattern":"X","legs":"M"},"bonus":1.6800000000000013},{"rt":2811.2000000476837,"stimulus":"bees-with-color/bee-B2DM.svg","response":1,"trial_type":"image-button-response","trial_index":129,"time_elapsed":2228392,"internal_node_id":"0.0-4.0-0.59","subject_id":"6151fe992547b315ffff75ef","study_id":"60edd13110225f80f9f3709b","session_id":"6196c7035905512678cd45a9","condition":"contingent","relevant_dimensions":["wings","legs"],"bee_group":{"antennae":"X","wings":"2","pattern":"X","legs":"M"},"action":"avoid","summary":"good-avoid","bonus":1.6800000000000013},{"rt":621.2000000476837,"stimulus":"\n                    <p><b>Action: <em>avoid</em></b></p>\n                    <p>This is the bee that you just saw.</p>\n                    <img src=\"bees-with-color/bee-B2DM.svg\" width=\"200\">\n                    <p><br>Your bonus pay is unchanged, and remains at $1.14.</p>\n            ","response":0,"trial_type":"html-button-response","trial_index":130,"time_elapsed":2229014,"internal_node_id":"0.0-4.0-1.59","subject_id":"6151fe992547b315ffff75ef","study_id":"60edd13110225f80f9f3709b","session_id":"6196c7035905512678cd45a9","condition":"contingent","relevant_dimensions":["wings","legs"],"bee_group":{"antennae":"X","wings":"2","pattern":"X","legs":"M"},"bonus":1.6800000000000013},{"rt":1288.1999999284744,"stimulus":"bees-with-color/bee-B2SM.svg","response":1,"trial_type":"image-button-response","trial_index":131,"time_elapsed":2230303,"internal_node_id":"0.0-4.0-0.60","subject_id":"6151fe992547b315ffff75ef","study_id":"60edd13110225f80f9f3709b","session_id":"6196c7035905512678cd45a9","condition":"contingent","relevant_dimensions":["wings","legs"],"bee_group":{"antennae":"X","wings":"2","pattern":"X","legs":"M"},"action":"avoid","summary":"good-avoid","bonus":1.6800000000000013},{"rt":474,"stimulus":"\n                    <p><b>Action: <em>avoid</em></b></p>\n                    <p>This is the bee that you just saw.</p>\n                    <img src=\"bees-with-color/bee-B2SM.svg\" width=\"200\">\n                    <p><br>Your bonus pay is unchanged, and remains at $1.14.</p>\n            ","response":0,"trial_type":"html-button-response","trial_index":132,"time_elapsed":2230778,"internal_node_id":"0.0-4.0-1.60","subject_id":"6151fe992547b315ffff75ef","study_id":"60edd13110225f80f9f3709b","session_id":"6196c7035905512678cd45a9","condition":"contingent","relevant_dimensions":["wings","legs"],"bee_group":{"antennae":"X","wings":"2","pattern":"X","legs":"M"},"bonus":1.6800000000000013},{"rt":748.3000000715256,"stimulus":"bees-with-color/bee-A1SF.svg","response":0,"trial_type":"image-button-response","trial_index":133,"time_elapsed":2231527,"internal_node_id":"0.0-4.0-0.61","subject_id":"6151fe992547b315ffff75ef","study_id":"60edd13110225f80f9f3709b","session_id":"6196c7035905512678cd45a9","condition":"contingent","relevant_dimensions":["wings","legs"],"bee_group":{"antennae":"X","wings":"2","pattern":"X","legs":"M"},"action":"harvest","summary":"good-harvest","bonus":1.6800000000000013},{"rt":462.2000000476837,"stimulus":"\n                    <p><b>Action: <em>harvest</em></b></p>\n                    <p>This is the bee that you just saw.</p>\n                    <img src=\"bees-with-color/bee-A1SF.svg\" width=\"200\">\n                    <p><span class=\"greenText\"><b>Successful harvest!</b></span><br>Your pay has increased by $0.02. Your bonus pay is now $1.16.</p>\n            ","response":0,"trial_type":"html-button-response","trial_index":134,"time_elapsed":2231990,"internal_node_id":"0.0-4.0-1.61","subject_id":"6151fe992547b315ffff75ef","study_id":"60edd13110225f80f9f3709b","session_id":"6196c7035905512678cd45a9","condition":"contingent","relevant_dimensions":["wings","legs"],"bee_group":{"antennae":"X","wings":"2","pattern":"X","legs":"M"},"bonus":1.6800000000000013},{"rt":710,"stimulus":"bees-with-color/bee-B1SM.svg","response":0,"trial_type":"image-button-response","trial_index":135,"time_elapsed":2232701,"internal_node_id":"0.0-4.0-0.62","subject_id":"6151fe992547b315ffff75ef","study_id":"60edd13110225f80f9f3709b","session_id":"6196c7035905512678cd45a9","condition":"contingent","relevant_dimensions":["wings","legs"],"bee_group":{"antennae":"X","wings":"2","pattern":"X","legs":"M"},"action":"harvest","summary":"good-harvest","bonus":1.6800000000000013},{"rt":554.4000000953674,"stimulus":"\n                    <p><b>Action: <em>harvest</em></b></p>\n                    <p>This is the bee that you just saw.</p>\n                    <img src=\"bees-with-color/bee-B1SM.svg\" width=\"200\">\n                    <p><span class=\"greenText\"><b>Successful harvest!</b></span><br>Your pay has increased by $0.02. Your bonus pay is now $1.18.</p>\n            ","response":0,"trial_type":"html-button-response","trial_index":136,"time_elapsed":2233256,"internal_node_id":"0.0-4.0-1.62","subject_id":"6151fe992547b315ffff75ef","study_id":"60edd13110225f80f9f3709b","session_id":"6196c7035905512678cd45a9","condition":"contingent","relevant_dimensions":["wings","legs"],"bee_group":{"antennae":"X","wings":"2","pattern":"X","legs":"M"},"bonus":1.6800000000000013},{"rt":1277.5,"stimulus":"bees-with-color/bee-B2SF.svg","response":0,"trial_type":"image-button-response","trial_index":137,"time_elapsed":2234534,"internal_node_id":"0.0-4.0-0.63","subject_id":"6151fe992547b315ffff75ef","study_id":"60edd13110225f80f9f3709b","session_id":"6196c7035905512678cd45a9","condition":"contingent","relevant_dimensions":["wings","legs"],"bee_group":{"antennae":"X","wings":"2","pattern":"X","legs":"M"},"action":"harvest","summary":"good-harvest","bonus":1.6800000000000013},{"rt":423.10000002384186,"stimulus":"\n                    <p><b>Action: <em>harvest</em></b></p>\n                    <p>This is the bee that you just saw.</p>\n                    <img src=\"bees-with-color/bee-B2SF.svg\" width=\"200\">\n                    <p><span class=\"greenText\"><b>Successful harvest!</b></span><br>Your pay has increased by $0.02. Your bonus pay is now $1.20.</p>\n            ","response":0,"trial_type":"html-button-response","trial_index":138,"time_elapsed":2234958,"internal_node_id":"0.0-4.0-1.63","subject_id":"6151fe992547b315ffff75ef","study_id":"60edd13110225f80f9f3709b","session_id":"6196c7035905512678cd45a9","condition":"contingent","relevant_dimensions":["wings","legs"],"bee_group":{"antennae":"X","wings":"2","pattern":"X","legs":"M"},"bonus":1.6800000000000013},{"rt":12048.099999904633,"stimulus":"You have completed the first part of this experiment.<br><br>You will now begin a shorter second part, in which you will receive no feedback.<br>The same rules regarding bonus pay apply.<br><br>Press any key to begin.","response":"enter","trial_type":"html-keyboard-response","trial_index":139,"time_elapsed":2247006,"internal_node_id":"0.0-5.0","subject_id":"6151fe992547b315ffff75ef","study_id":"60edd13110225f80f9f3709b","session_id":"6196c7035905512678cd45a9","condition":"contingent","relevant_dimensions":["wings","legs"],"bee_group":{"antennae":"X","wings":"2","pattern":"X","legs":"M"},"bonus":1.6800000000000013},{"rt":5119.800000071526,"stimulus":"bees-with-color/bee-B1DF.svg","response":0,"trial_type":"image-button-response","trial_index":140,"time_elapsed":2252128,"internal_node_id":"0.0-6.0-0.0","subject_id":"6151fe992547b315ffff75ef","study_id":"60edd13110225f80f9f3709b","session_id":"6196c7035905512678cd45a9","condition":"contingent","relevant_dimensions":["wings","legs"],"bee_group":{"antennae":"X","wings":"2","pattern":"X","legs":"M"},"bonus":1.6800000000000013},{"rt":2074.5,"stimulus":"bees-with-color/bee-B1SF.svg","response":0,"trial_type":"image-button-response","trial_index":141,"time_elapsed":2254204,"internal_node_id":"0.0-6.0-0.1","subject_id":"6151fe992547b315ffff75ef","study_id":"60edd13110225f80f9f3709b","session_id":"6196c7035905512678cd45a9","condition":"contingent","relevant_dimensions":["wings","legs"],"bee_group":{"antennae":"X","wings":"2","pattern":"X","legs":"M"},"bonus":1.6800000000000013},{"rt":1023.9000000953674,"stimulus":"bees-with-color/bee-A2DF.svg","response":0,"trial_type":"image-button-response","trial_index":142,"time_elapsed":2255229,"internal_node_id":"0.0-6.0-0.2","subject_id":"6151fe992547b315ffff75ef","study_id":"60edd13110225f80f9f3709b","session_id":"6196c7035905512678cd45a9","condition":"contingent","relevant_dimensions":["wings","legs"],"bee_group":{"antennae":"X","wings":"2","pattern":"X","legs":"M"},"bonus":1.6800000000000013},{"rt":1143.7000000476837,"stimulus":"bees-with-color/bee-B2DM.svg","response":1,"trial_type":"image-button-response","trial_index":143,"time_elapsed":2256374,"internal_node_id":"0.0-6.0-0.3","subject_id":"6151fe992547b315ffff75ef","study_id":"60edd13110225f80f9f3709b","session_id":"6196c7035905512678cd45a9","condition":"contingent","relevant_dimensions":["wings","legs"],"bee_group":{"antennae":"X","wings":"2","pattern":"X","legs":"M"},"bonus":1.6800000000000013},{"rt":892.7999999523163,"stimulus":"bees-with-color/bee-A2DM.svg","response":1,"trial_type":"image-button-response","trial_index":144,"time_elapsed":2257268,"internal_node_id":"0.0-6.0-0.4","subject_id":"6151fe992547b315ffff75ef","study_id":"60edd13110225f80f9f3709b","session_id":"6196c7035905512678cd45a9","condition":"contingent","relevant_dimensions":["wings","legs"],"bee_group":{"antennae":"X","wings":"2","pattern":"X","legs":"M"},"bonus":1.6800000000000013},{"rt":798,"stimulus":"bees-with-color/bee-A1SF.svg","response":0,"trial_type":"image-button-response","trial_index":145,"time_elapsed":2258067,"internal_node_id":"0.0-6.0-0.5","subject_id":"6151fe992547b315ffff75ef","study_id":"60edd13110225f80f9f3709b","session_id":"6196c7035905512678cd45a9","condition":"contingent","relevant_dimensions":["wings","legs"],"bee_group":{"antennae":"X","wings":"2","pattern":"X","legs":"M"},"bonus":1.6800000000000013},{"rt":1312.0999999046326,"stimulus":"bees-with-color/bee-A2SF.svg","response":0,"trial_type":"image-button-response","trial_index":146,"time_elapsed":2259380,"internal_node_id":"0.0-6.0-0.6","subject_id":"6151fe992547b315ffff75ef","study_id":"60edd13110225f80f9f3709b","session_id":"6196c7035905512678cd45a9","condition":"contingent","relevant_dimensions":["wings","legs"],"bee_group":{"antennae":"X","wings":"2","pattern":"X","legs":"M"},"bonus":1.6800000000000013},{"rt":1064.7000000476837,"stimulus":"bees-with-color/bee-B1SM.svg","response":0,"trial_type":"image-button-response","trial_index":147,"time_elapsed":2260446,"internal_node_id":"0.0-6.0-0.7","subject_id":"6151fe992547b315ffff75ef","study_id":"60edd13110225f80f9f3709b","session_id":"6196c7035905512678cd45a9","condition":"contingent","relevant_dimensions":["wings","legs"],"bee_group":{"antennae":"X","wings":"2","pattern":"X","legs":"M"},"bonus":1.6800000000000013},{"rt":992.6000000238419,"stimulus":"bees-with-color/bee-A2SM.svg","response":1,"trial_type":"image-button-response","trial_index":148,"time_elapsed":2261440,"internal_node_id":"0.0-6.0-0.8","subject_id":"6151fe992547b315ffff75ef","study_id":"60edd13110225f80f9f3709b","session_id":"6196c7035905512678cd45a9","condition":"contingent","relevant_dimensions":["wings","legs"],"bee_group":{"antennae":"X","wings":"2","pattern":"X","legs":"M"},"bonus":1.6800000000000013},{"rt":1270.6999999284744,"stimulus":"bees-with-color/bee-B1DM.svg","response":0,"trial_type":"image-button-response","trial_index":149,"time_elapsed":2262712,"internal_node_id":"0.0-6.0-0.9","subject_id":"6151fe992547b315ffff75ef","study_id":"60edd13110225f80f9f3709b","session_id":"6196c7035905512678cd45a9","condition":"contingent","relevant_dimensions":["wings","legs"],"bee_group":{"antennae":"X","wings":"2","pattern":"X","legs":"M"},"bonus":1.6800000000000013},{"rt":1681.7000000476837,"stimulus":"bees-with-color/bee-B2DF.svg","response":0,"trial_type":"image-button-response","trial_index":150,"time_elapsed":2264395,"internal_node_id":"0.0-6.0-0.10","subject_id":"6151fe992547b315ffff75ef","study_id":"60edd13110225f80f9f3709b","session_id":"6196c7035905512678cd45a9","condition":"contingent","relevant_dimensions":["wings","legs"],"bee_group":{"antennae":"X","wings":"2","pattern":"X","legs":"M"},"bonus":1.6800000000000013},{"rt":1287,"stimulus":"bees-with-color/bee-B2SF.svg","response":0,"trial_type":"image-button-response","trial_index":151,"time_elapsed":2265683,"internal_node_id":"0.0-6.0-0.11","subject_id":"6151fe992547b315ffff75ef","study_id":"60edd13110225f80f9f3709b","session_id":"6196c7035905512678cd45a9","condition":"contingent","relevant_dimensions":["wings","legs"],"bee_group":{"antennae":"X","wings":"2","pattern":"X","legs":"M"},"bonus":1.6800000000000013},{"rt":804.9000000953674,"stimulus":"bees-with-color/bee-B2SM.svg","response":1,"trial_type":"image-button-response","trial_index":152,"time_elapsed":2266489,"internal_node_id":"0.0-6.0-0.12","subject_id":"6151fe992547b315ffff75ef","study_id":"60edd13110225f80f9f3709b","session_id":"6196c7035905512678cd45a9","condition":"contingent","relevant_dimensions":["wings","legs"],"bee_group":{"antennae":"X","wings":"2","pattern":"X","legs":"M"},"bonus":1.6800000000000013},{"rt":1083.8000000715256,"stimulus":"bees-with-color/bee-A1DM.svg","response":0,"trial_type":"image-button-response","trial_index":153,"time_elapsed":2267574,"internal_node_id":"0.0-6.0-0.13","subject_id":"6151fe992547b315ffff75ef","study_id":"60edd13110225f80f9f3709b","session_id":"6196c7035905512678cd45a9","condition":"contingent","relevant_dimensions":["wings","legs"],"bee_group":{"antennae":"X","wings":"2","pattern":"X","legs":"M"},"bonus":1.6800000000000013},{"rt":1767.8000000715256,"stimulus":"bees-with-color/bee-A1SM.svg","response":0,"trial_type":"image-button-response","trial_index":154,"time_elapsed":2269343,"internal_node_id":"0.0-6.0-0.14","subject_id":"6151fe992547b315ffff75ef","study_id":"60edd13110225f80f9f3709b","session_id":"6196c7035905512678cd45a9","condition":"contingent","relevant_dimensions":["wings","legs"],"bee_group":{"antennae":"X","wings":"2","pattern":"X","legs":"M"},"bonus":1.6800000000000013},{"rt":1725.8999999761581,"stimulus":"bees-with-color/bee-A1DF.svg","response":0,"trial_type":"image-button-response","trial_index":155,"time_elapsed":2271070,"internal_node_id":"0.0-6.0-0.15","subject_id":"6151fe992547b315ffff75ef","study_id":"60edd13110225f80f9f3709b","session_id":"6196c7035905512678cd45a9","condition":"contingent","relevant_dimensions":["wings","legs"],"bee_group":{"antennae":"X","wings":"2","pattern":"X","legs":"M"},"bonus":1.6800000000000013},{"rt":1181.1000000238419,"stimulus":"bees-with-color/bee-B1DM.svg","response":0,"trial_type":"image-button-response","trial_index":156,"time_elapsed":2272252,"internal_node_id":"0.0-6.0-0.16","subject_id":"6151fe992547b315ffff75ef","study_id":"60edd13110225f80f9f3709b","session_id":"6196c7035905512678cd45a9","condition":"contingent","relevant_dimensions":["wings","legs"],"bee_group":{"antennae":"X","wings":"2","pattern":"X","legs":"M"},"bonus":1.6800000000000013},{"rt":954,"stimulus":"bees-with-color/bee-B2SM.svg","response":1,"trial_type":"image-button-response","trial_index":157,"time_elapsed":2273207,"internal_node_id":"0.0-6.0-0.17","subject_id":"6151fe992547b315ffff75ef","study_id":"60edd13110225f80f9f3709b","session_id":"6196c7035905512678cd45a9","condition":"contingent","relevant_dimensions":["wings","legs"],"bee_group":{"antennae":"X","wings":"2","pattern":"X","legs":"M"},"bonus":1.6800000000000013},{"rt":2655,"stimulus":"bees-with-color/bee-A1SM.svg","response":0,"trial_type":"image-button-response","trial_index":158,"time_elapsed":2275863,"internal_node_id":"0.0-6.0-0.18","subject_id":"6151fe992547b315ffff75ef","study_id":"60edd13110225f80f9f3709b","session_id":"6196c7035905512678cd45a9","condition":"contingent","relevant_dimensions":["wings","legs"],"bee_group":{"antennae":"X","wings":"2","pattern":"X","legs":"M"},"bonus":1.6800000000000013},{"rt":2491.100000023842,"stimulus":"bees-with-color/bee-A2DF.svg","response":0,"trial_type":"image-button-response","trial_index":159,"time_elapsed":2278355,"internal_node_id":"0.0-6.0-0.19","subject_id":"6151fe992547b315ffff75ef","study_id":"60edd13110225f80f9f3709b","session_id":"6196c7035905512678cd45a9","condition":"contingent","relevant_dimensions":["wings","legs"],"bee_group":{"an