[{"success":true,"trial_type":"fullscreen","trial_index":0,"time_elapsed":6648,"internal_node_id":"0.0-0.0","subject_id":"6119272eab990f2cad815a38","study_id":"6197b3f67c2b5cd3b6d9596a","session_id":"619be78a3e4070aec74389df","condition":"full-information","relevant_dimensions":["antennae","legs"],"bee_group":{"antennae":"B","wings":"X","pattern":"X","legs":"F"},"bonus":0.740000000000001},{"success":true,"timeout":false,"failed_images":[],"failed_audio":[],"failed_video":[],"trial_type":"preload","trial_index":1,"time_elapsed":8562,"internal_node_id":"0.0-1.0","subject_id":"6119272eab990f2cad815a38","study_id":"6197b3f67c2b5cd3b6d9596a","session_id":"619be78a3e4070aec74389df","condition":"full-information","relevant_dimensions":["antennae","legs"],"bee_group":{"antennae":"B","wings":"X","pattern":"X","legs":"F"},"bonus":0.740000000000001},{"rt":2516.9000000059605,"stimulus":"Welcome! Press any key to begin.","response":"w","trial_type":"html-keyboard-response","trial_index":2,"time_elapsed":11080,"internal_node_id":"0.0-2.0","subject_id":"6119272eab990f2cad815a38","study_id":"6197b3f67c2b5cd3b6d9596a","session_id":"619be78a3e4070aec74389df","condition":"full-information","relevant_dimensions":["antennae","legs"],"bee_group":{"antennae":"B","wings":"X","pattern":"X","legs":"F"},"bonus":0.740000000000001},{"view_history":[{"page_index":0,"viewing_time":71820.09999999404},{"page_index":1,"viewing_time":20605},{"page_index":2,"viewing_time":18371},{"page_index":3,"viewing_time":48807.90000000596},{"page_index":4,"viewing_time":6514},{"page_index":5,"viewing_time":8285.09999999404},{"page_index":6,"viewing_time":9440.09999999404},{"page_index":7,"viewing_time":6557.800000011921},{"page_index":8,"viewing_time":6855.0999999940395},{"page_index":9,"viewing_time":4599.9000000059605},{"page_index":10,"viewing_time":3985.0999999940395},{"page_index":11,"viewing_time":12739.90000000596},{"page_index":12,"viewing_time":10990.90000000596},{"page_index":13,"viewing_time":1157},{"page_index":14,"viewing_time":4985}],"rt":235714.09999999404,"trial_type":"instructions","trial_index":3,"time_elapsed":246794,"internal_node_id":"0.0-3.0-0.0","subject_id":"6119272eab990f2cad815a38","study_id":"6197b3f67c2b5cd3b6d9596a","session_id":"619be78a3e4070aec74389df","condition":"full-information","relevant_dimensions":["antennae","legs"],"bee_group":{"antennae":"B","wings":"X","pattern":"X","legs":"F"},"bonus":0.740000000000001},{"rt":14427.5,"response":{"Q0":["Two or six legs","Stripes or spots on body","Single or double wings"]},"question_order":[0],"trial_type":"survey-multi-select","trial_index":4,"time_elapsed":261224,"internal_node_id":"0.0-3.0-1.0","subject_id":"6119272eab990f2cad815a38","study_id":"6197b3f67c2b5cd3b6d9596a","session_id":"619be78a3e4070aec74389df","condition":"full-information","relevant_dimensions":["antennae","legs"],"bee_group":{"antennae":"B","wings":"X","pattern":"X","legs":"F"},"correct":false,"bonus":0.740000000000001},{"rt":33439.30000001192,"response":{"Q1":"No.","Q2":"Based on the four features of the bee.","Q3":"You learn if it was friendly or dangerous, but do not alter your bonus."},"question_order":[0,1,2],"trial_type":"survey-multi-choice","trial_index":5,"time_elapsed":294666,"internal_node_id":"0.0-3.0-2.0","subject_id":"6119272eab990f2cad815a38","study_id":"6197b3f67c2b5cd3b6d9596a","session_id":"619be78a3e4070aec74389df","condition":"full-information","relevant_dimensions":["antennae","legs"],"bee_group":{"antennae":"B","wings":"X","pattern":"X","legs":"F"},"correct":true,"bonus":0.740000000000001},{"rt":4179.5,"stimulus":"<p>You did not answer all comprehension questions correctly.<br>Press <b>continue</b> to review the instructions again.</p>","response":0,"trial_type":"html-button-response","trial_index":6,"time_elapsed":298849,"internal_node_id":"0.0-3.0-3.0","subject_id":"6119272eab990f2cad815a38","study_id":"6197b3f67c2b5cd3b6d9596a","session_id":"619be78a3e4070aec74389df","condition":"full-information","relevant_dimensions":["antennae","legs"],"bee_group":{"antennae":"B","wings":"X","pattern":"X","legs":"F"},"bonus":0.740000000000001},{"view_history":[{"page_index":0,"viewing_time":1684.699999988079},{"page_index":1,"viewing_time":1388.0999999940395},{"page_index":2,"viewing_time":640.2000000178814},{"page_index":3,"viewing_time":683.7999999821186},{"page_index":4,"viewing_time":464.30000001192093},{"page_index":5,"viewing_time":375.80000001192093},{"page_index":6,"viewing_time":475.89999997615814},{"page_index":7,"viewing_time":574.1000000238419},{"page_index":8,"viewing_time":716.8999999761581},{"page_index":7,"viewing_time":1817.2000000178814},{"page_index":8,"viewing_time":1696.0999999940395},{"page_index":9,"viewing_time":1148},{"page_index":10,"viewing_time":3543},{"page_index":11,"viewing_time":1047.699999988079},{"page_index":12,"viewing_time":728.1000000238419},{"page_index":13,"viewing_time":750.0999999940395},{"page_index":14,"viewing_time":618.7999999821186}],"rt":18353,"trial_type":"instructions","trial_index":7,"time_elapsed":317202,"internal_node_id":"0.0-3.0-4.0-0.0","subject_id":"6119272eab990f2cad815a38","study_id":"6197b3f67c2b5cd3b6d9596a","session_id":"619be78a3e4070aec74389df","condition":"full-information","relevant_dimensions":["antennae","legs"],"bee_group":{"antennae":"B","wings":"X","pattern":"X","legs":"F"},"bonus":0.740000000000001},{"rt":7632.200000017881,"response":{"Q0":["Two or six legs","Stripes or spots on body","Single or double wings","Antennae or no antennae"]},"question_order":[0],"trial_type":"survey-multi-select","trial_index":8,"time_elapsed":324836,"internal_node_id":"0.0-3.0-4.0-1.0","subject_id":"6119272eab990f2cad815a38","study_id":"6197b3f67c2b5cd3b6d9596a","session_id":"619be78a3e4070aec74389df","condition":"full-information","relevant_dimensions":["antennae","legs"],"bee_group":{"antennae":"B","wings":"X","pattern":"X","legs":"F"},"correct":true,"bonus":0.740000000000001},{"rt":10083.40000000596,"response":{"Q1":"No.","Q2":"Based on the four features of the bee.","Q3":"You learn if it was friendly or dangerous, but do not alter your bonus."},"question_order":[0,1,2],"trial_type":"survey-multi-choice","trial_index":9,"time_elapsed":334922,"internal_node_id":"0.0-3.0-4.0-2.0","subject_id":"6119272eab990f2cad815a38","study_id":"6197b3f67c2b5cd3b6d9596a","session_id":"619be78a3e4070aec74389df","condition":"full-information","relevant_dimensions":["antennae","legs"],"bee_group":{"antennae":"B","wings":"X","pattern":"X","legs":"F"},"correct":true,"bonus":0.740000000000001},{"rt":3277.699999988079,"stimulus":"<p>Congrats, you got everything right<br>When you're ready, click the button below to continue to the experiment.</p>","response":0,"trial_type":"html-button-response","trial_index":10,"time_elapsed":338202,"internal_node_id":"0.0-3.0-4.0-3.0","subject_id":"6119272eab990f2cad815a38","study_id":"6197b3f67c2b5cd3b6d9596a","session_id":"619be78a3e4070aec74389df","condition":"full-information","relevant_dimensions":["antennae","legs"],"bee_group":{"antennae":"B","wings":"X","pattern":"X","legs":"F"},"bonus":0.740000000000001},{"rt":20747,"stimulus":"bees-with-color/bee-B2SM.svg","response":0,"trial_type":"image-button-response","trial_index":11,"time_elapsed":358951,"internal_node_id":"0.0-4.0-0.0","subject_id":"6119272eab990f2cad815a38","study_id":"6197b3f67c2b5cd3b6d9596a","session_id":"619be78a3e4070aec74389df","condition":"full-information","relevant_dimensions":["antennae","legs"],"bee_group":{"antennae":"B","wings":"X","pattern":"X","legs":"F"},"action":"harvest","summary":"good-harvest","bonus":0.740000000000001},{"rt":9625.40000000596,"stimulus":"\n                    <p><b>Action: <em>harvest</em></b></p>\n                    <p>This is the bee that you just saw.</p>\n                    <img src=\"bees-with-color/bee-B2SM.svg\" width=\"200\">\n                    <p><span class=\"greenText\"><b>Successful harvest!</b></span><br>Your pay has increased by $0.02. Your bonus pay is now $0.56.</p>\n            ","response":0,"trial_type":"html-button-response","trial_index":12,"time_elapsed":368578,"internal_node_id":"0.0-4.0-1.0","subject_id":"6119272eab990f2cad815a38","study_id":"6197b3f67c2b5cd3b6d9596a","session_id":"619be78a3e4070aec74389df","condition":"full-information","relevant_dimensions":["antennae","legs"],"bee_group":{"antennae":"B","wings":"X","pattern":"X","legs":"F"},"bonus":0.740000000000001},{"rt":14072.09999999404,"stimulus":"bees-with-color/bee-B1DM.svg","response":1,"trial_type":"image-button-response","trial_index":13,"time_elapsed":382651,"internal_node_id":"0.0-4.0-0.1","subject_id":"6119272eab990f2cad815a38","study_id":"6197b3f67c2b5cd3b6d9596a","session_id":"619be78a3e4070aec74389df","condition":"full-information","relevant_dimensions":["antennae","legs"],"bee_group":{"antennae":"B","wings":"X","pattern":"X","legs":"F"},"action":"avoid","summary":"bad-avoid","bonus":0.740000000000001},{"rt":3554.800000011921,"stimulus":"\n                    <p><b>Action: <em>avoid</em></b></p>\n                    <p>This is the bee that you just saw.</p>\n                    <img src=\"bees-with-color/bee-B1DM.svg\" width=\"200\">\n                    <p><span class=\"redText\">Bad choice,</span> the bee was friendly.<br>Your bonus pay is unchanged, and remains at $0.56.</p>\n            ","response":0,"trial_type":"html-button-response","trial_index":14,"time_elapsed":386207,"internal_node_id":"0.0-4.0-1.1","subject_id":"6119272eab990f2cad815a38","study_id":"6197b3f67c2b5cd3b6d9596a","session_id":"619be78a3e4070aec74389df","condition":"full-information","relevant_dimensions":["antennae","legs"],"bee_group":{"antennae":"B","wings":"X","pattern":"X","legs":"F"},"bonus":0.740000000000001},{"rt":17084.29999998212,"stimulus":"bees-with-color/bee-A1DM.svg","response":0,"trial_type":"image-button-response","trial_index":15,"time_elapsed":403293,"internal_node_id":"0.0-4.0-0.2","subject_id":"6119272eab990f2cad815a38","study_id":"6197b3f67c2b5cd3b6d9596a","session_id":"619be78a3e4070aec74389df","condition":"full-information","relevant_dimensions":["antennae","legs"],"bee_group":{"antennae":"B","wings":"X","pattern":"X","legs":"F"},"action":"harvest","summary":"good-harvest","bonus":0.740000000000001},{"rt":1596.2999999821186,"stimulus":"\n                    <p><b>Action: <em>harvest</em></b></p>\n                    <p>This is the bee that you just saw.</p>\n                    <img src=\"bees-with-color/bee-A1DM.svg\" width=\"200\">\n                    <p><span class=\"greenText\"><b>Successful harvest!</b></span><br>Your pay has increased by $0.02. Your bonus pay is now $0.58.</p>\n            ","response":0,"trial_type":"html-button-response","trial_index":16,"time_elapsed":404890,"internal_node_id":"0.0-4.0-1.2","subject_id":"6119272eab990f2cad815a38","study_id":"6197b3f67c2b5cd3b6d9596a","session_id":"619be78a3e4070aec74389df","condition":"full-information","relevant_dimensions":["antennae","legs"],"bee_group":{"antennae":"B","wings":"X","pattern":"X","legs":"F"},"bonus":0.740000000000001},{"rt":13542.5,"stimulus":"bees-with-color/bee-B1SF.svg","response":1,"trial_type":"image-button-response","trial_index":17,"time_elapsed":418434,"internal_node_id":"0.0-4.0-0.3","subject_id":"6119272eab990f2cad815a38","study_id":"6197b3f67c2b5cd3b6d9596a","session_id":"619be78a3e4070aec74389df","condition":"full-information","relevant_dimensions":["antennae","legs"],"bee_group":{"antennae":"B","wings":"X","pattern":"X","legs":"F"},"action":"avoid","summary":"good-avoid","bonus":0.740000000000001},{"rt":7053.9000000059605,"stimulus":"\n                    <p><b>Action: <em>avoid</em></b></p>\n                    <p>This is the bee that you just saw.</p>\n                    <img src=\"bees-with-color/bee-B1SF.svg\" width=\"200\">\n                    <p><span class=\"greenText\">Good choice!</span>  This bee would have stung you.<br>Your bonus pay is unchanged, and remains at $0.58.</p>\n            ","response":0,"trial_type":"html-button-response","trial_index":18,"time_elapsed":425488,"internal_node_id":"0.0-4.0-1.3","subject_id":"6119272eab990f2cad815a38","study_id":"6197b3f67c2b5cd3b6d9596a","session_id":"619be78a3e4070aec74389df","condition":"full-information","relevant_dimensions":["antennae","legs"],"bee_group":{"antennae":"B","wings":"X","pattern":"X","legs":"F"},"bonus":0.740000000000001},{"rt":14070.90000000596,"stimulus":"bees-with-color/bee-B2SF.svg","response":1,"trial_type":"image-button-response","trial_index":19,"time_elapsed":439560,"internal_node_id":"0.0-4.0-0.4","subject_id":"6119272eab990f2cad815a38","study_id":"6197b3f67c2b5cd3b6d9596a","session_id":"619be78a3e4070aec74389df","condition":"full-information","relevant_dimensions":["antennae","legs"],"bee_group":{"antennae":"B","wings":"X","pattern":"X","legs":"F"},"action":"avoid","summary":"good-avoid","bonus":0.740000000000001},{"rt":5181.9000000059605,"stimulus":"\n                    <p><b>Action: <em>avoid</em></b></p>\n                    <p>This is the bee that you just saw.</p>\n                    <img src=\"bees-with-color/bee-B2SF.svg\" width=\"200\">\n                    <p><span class=\"greenText\">Good choice!</span>  This bee would have stung you.<br>Your bonus pay is unchanged, and remains at $0.58.</p>\n            ","response":0,"trial_type":"html-button-response","trial_index":20,"time_elapsed":444743,"internal_node_id":"0.0-4.0-1.4","subject_id":"6119272eab990f2cad815a38","study_id":"6197b3f67c2b5cd3b6d9596a","session_id":"619be78a3e4070aec74389df","condition":"full-information","relevant_dimensions":["antennae","legs"],"bee_group":{"antennae":"B","wings":"X","pattern":"X","legs":"F"},"bonus":0.740000000000001},{"rt":6272,"stimulus":"bees-with-color/bee-B1SM.svg","response":0,"trial_type":"image-button-response","trial_index":21,"time_elapsed":451016,"internal_node_id":"0.0-4.0-0.5","subject_id":"6119272eab990f2cad815a38","study_id":"6197b3f67c2b5cd3b6d9596a","session_id":"619be78a3e4070aec74389df","condition":"full-information","relevant_dimensions":["antennae","legs"],"bee_group":{"antennae":"B","wings":"X","pattern":"X","legs":"F"},"action":"harvest","summary":"good-harvest","bonus":0.740000000000001},{"rt":16765.90000000596,"stimulus":"\n                    <p><b>Action: <em>harvest</em></b></p>\n                    <p>This is the bee that you just saw.</p>\n                    <img src=\"bees-with-color/bee-B1SM.svg\" width=\"200\">\n                    <p><span class=\"greenText\"><b>Successful harvest!</b></span><br>Your pay has increased by $0.02. Your bonus pay is now $0.60.</p>\n            ","response":0,"trial_type":"html-button-response","trial_index":22,"time_elapsed":467783,"internal_node_id":"0.0-4.0-1.5","subject_id":"6119272eab990f2cad815a38","study_id":"6197b3f67c2b5cd3b6d9596a","session_id":"619be78a3e4070aec74389df","condition":"full-information","relevant_dimensions":["antennae","legs"],"bee_group":{"antennae":"B","wings":"X","pattern":"X","legs":"F"},"bonus":0.740000000000001},{"rt":9363.199999988079,"stimulus":"bees-with-color/bee-A1SF.svg","response":1,"trial_type":"image-button-response","trial_index":23,"time_elapsed":477147,"internal_node_id":"0.0-4.0-0.6","subject_id":"6119272eab990f2cad815a38","study_id":"6197b3f67c2b5cd3b6d9596a","session_id":"619be78a3e4070aec74389df","condition":"full-information","relevant_dimensions":["antennae","legs"],"bee_group":{"antennae":"B","wings":"X","pattern":"X","legs":"F"},"action":"avoid","summary":"bad-avoid","bonus":0.740000000000001},{"rt":25359,"stimulus":"\n                    <p><b>Action: <em>avoid</em></b></p>\n                    <p>This is the bee that you just saw.</p>\n                    <img src=\"bees-with-color/bee-A1SF.svg\" width=\"200\">\n                    <p><span class=\"redText\">Bad choice,</span> the bee was friendly.<br>Your bonus pay is unchanged, and remains at $0.60.</p>\n            ","response":0,"trial_type":"html-button-response","trial_index":24,"time_elapsed":502508,"internal_node_id":"0.0-4.0-1.6","subject_id":"6119272eab990f2cad815a38","study_id":"6197b3f67c2b5cd3b6d9596a","session_id":"619be78a3e4070aec74389df","condition":"full-information","relevant_dimensions":["antennae","legs"],"bee_group":{"antennae":"B","wings":"X","pattern":"X","legs":"F"},"bonus":0.740000000000001},{"rt":11332,"stimulus":"bees-with-color/bee-A1DF.svg","response":1,"trial_type":"image-button-response","trial_index":25,"time_elapsed":513841,"internal_node_id":"0.0-4.0-0.7","subject_id":"6119272eab990f2cad815a38","study_id":"6197b3f67c2b5cd3b6d9596a","session_id":"619be78a3e4070aec74389df","condition":"full-information","relevant_dimensions":["antennae","legs"],"bee_group":{"antennae":"B","wings":"X","pattern":"X","legs":"F"},"action":"avoid","summary":"bad-avoid","bonus":0.740000000000001},{"rt":1796.5,"stimulus":"\n                    <p><b>Action: <em>avoid</em></b></p>\n                    <p>This is the bee that you just saw.</p>\n                    <img src=\"bees-with-color/bee-A1DF.svg\" width=\"200\">\n                    <p><span class=\"redText\">Bad choice,</span> the bee was friendly.<br>Your bonus pay is unchanged, and remains at $0.60.</p>\n            ","response":0,"trial_type":"html-button-response","trial_index":26,"time_elapsed":515638,"internal_node_id":"0.0-4.0-1.7","subject_id":"6119272eab990f2cad815a38","study_id":"6197b3f67c2b5cd3b6d9596a","session_id":"619be78a3e4070aec74389df","condition":"full-information","relevant_dimensions":["antennae","legs"],"bee_group":{"antennae":"B","wings":"X","pattern":"X","legs":"F"},"bonus":0.740000000000001},{"rt":2575.2999999821186,"stimulus":"bees-with-color/bee-B2DF.svg","response":1,"trial_type":"image-button-response","trial_index":27,"time_elapsed":518215,"internal_node_id":"0.0-4.0-0.8","subject_id":"6119272eab990f2cad815a38","study_id":"6197b3f67c2b5cd3b6d9596a","session_id":"619be78a3e4070aec74389df","condition":"full-information","relevant_dimensions":["antennae","legs"],"bee_group":{"antennae":"B","wings":"X","pattern":"X","legs":"F"},"action":"avoid","summary":"good-avoid","bonus":0.740000000000001},{"rt":1145.300000011921,"stimulus":"\n                    <p><b>Action: <em>avoid</em></b></p>\n                    <p>This is the bee that you just saw.</p>\n                    <img src=\"bees-with-color/bee-B2DF.svg\" width=\"200\">\n                    <p><span class=\"greenText\">Good choice!</span>  This bee would have stung you.<br>Your bonus pay is unchanged, and remains at $0.60.</p>\n            ","response":0,"trial_type":"html-button-response","trial_index":28,"time_elapsed":519361,"internal_node_id":"0.0-4.0-1.8","subject_id":"6119272eab990f2cad815a38","study_id":"6197b3f67c2b5cd3b6d9596a","session_id":"619be78a3e4070aec74389df","condition":"full-information","relevant_dimensions":["antennae","legs"],"bee_group":{"antennae":"B","wings":"X","pattern":"X","legs":"F"},"bonus":0.740000000000001},{"rt":1519.0999999940395,"stimulus":"bees-with-color/bee-B2DM.svg","response":0,"trial_type":"image-button-response","trial_index":29,"time_elapsed":520880,"internal_node_id":"0.0-4.0-0.9","subject_id":"6119272eab990f2cad815a38","study_id":"6197b3f67c2b5cd3b6d9596a","session_id":"619be78a3e4070aec74389df","condition":"full-information","relevant_dimensions":["antennae","legs"],"bee_group":{"antennae":"B","wings":"X","pattern":"X","legs":"F"},"action":"harvest","summary":"good-harvest","bonus":0.740000000000001},{"rt":1838.300000011921,"stimulus":"\n                    <p><b>Action: <em>harvest</em></b></p>\n                    <p>This is the bee that you just saw.</p>\n                    <img src=\"bees-with-color/bee-B2DM.svg\" width=\"200\">\n                    <p><span class=\"greenText\"><b>Successful harvest!</b></span><br>Your pay has increased by $0.02. Your bonus pay is now $0.62.</p>\n            ","response":0,"trial_type":"html-button-response","trial_index":30,"time_elapsed":522720,"internal_node_id":"0.0-4.0-1.9","subject_id":"6119272eab990f2cad815a38","study_id":"6197b3f67c2b5cd3b6d9596a","session_id":"619be78a3e4070aec74389df","condition":"full-information","relevant_dimensions":["antennae","legs"],"bee_group":{"antennae":"B","wings":"X","pattern":"X","legs":"F"},"bonus":0.740000000000001},{"rt":7294.9000000059605,"stimulus":"bees-with-color/bee-A1SM.svg","response":0,"trial_type":"image-button-response","trial_index":31,"time_elapsed":530016,"internal_node_id":"0.0-4.0-0.10","subject_id":"6119272eab990f2cad815a38","study_id":"6197b3f67c2b5cd3b6d9596a","session_id":"619be78a3e4070aec74389df","condition":"full-information","relevant_dimensions":["antennae","legs"],"bee_group":{"antennae":"B","wings":"X","pattern":"X","legs":"F"},"action":"harvest","summary":"good-harvest","bonus":0.740000000000001},{"rt":1443,"stimulus":"\n                    <p><b>Action: <em>harvest</em></b></p>\n                    <p>This is the bee that you just saw.</p>\n                    <img src=\"bees-with-color/bee-A1SM.svg\" width=\"200\">\n                    <p><span class=\"greenText\"><b>Successful harvest!</b></span><br>Your pay has increased by $0.02. Your bonus pay is now $0.64.</p>\n            ","response":0,"trial_type":"html-button-response","trial_index":32,"time_elapsed":531459,"internal_node_id":"0.0-4.0-1.10","subject_id":"6119272eab990f2cad815a38","study_id":"6197b3f67c2b5cd3b6d9596a","session_id":"619be78a3e4070aec74389df","condition":"full-information","relevant_dimensions":["antennae","legs"],"bee_group":{"antennae":"B","wings":"X","pattern":"X","legs":"F"},"bonus":0.740000000000001},{"rt":3543,"stimulus":"bees-with-color/bee-A2DF.svg","response":0,"trial_type":"image-button-response","trial_index":33,"time_elapsed":535003,"internal_node_id":"0.0-4.0-0.11","subject_id":"6119272eab990f2cad815a38","study_id":"6197b3f67c2b5cd3b6d9596a","session_id":"619be78a3e4070aec74389df","condition":"full-information","relevant_dimensions":["antennae","legs"],"bee_group":{"antennae":"B","wings":"X","pattern":"X","legs":"F"},"action":"harvest","summary":"good-harvest","bonus":0.740000000000001},{"rt":1321.199999988079,"stimulus":"\n                    <p><b>Action: <em>harvest</em></b></p>\n                    <p>This is the bee that you just saw.</p>\n                    <img src=\"bees-with-color/bee-A2DF.svg\" width=\"200\">\n                    <p><span class=\"greenText\"><b>Successful harvest!</b></span><br>Your pay has increased by $0.02. Your bonus pay is now $0.66.</p>\n            ","response":0,"trial_type":"html-button-response","trial_index":34,"time_elapsed":536325,"internal_node_id":"0.0-4.0-1.11","subject_id":"6119272eab990f2cad815a38","study_id":"6197b3f67c2b5cd3b6d9596a","session_id":"619be78a3e4070aec74389df","condition":"full-information","relevant_dimensions":["antennae","legs"],"bee_group":{"antennae":"B","wings":"X","pattern":"X","legs":"F"},"bonus":0.740000000000001},{"rt":2675.300000011921,"stimulus":"bees-with-color/bee-A2SM.svg","response":1,"trial_type":"image-button-response","trial_index":35,"time_elapsed":539002,"internal_node_id":"0.0-4.0-0.12","subject_id":"6119272eab990f2cad815a38","study_id":"6197b3f67c2b5cd3b6d9596a","session_id":"619be78a3e4070aec74389df","condition":"full-information","relevant_dimensions":["antennae","legs"],"bee_group":{"antennae":"B","wings":"X","pattern":"X","legs":"F"},"action":"avoid","summary":"bad-avoid","bonus":0.740000000000001},{"rt":969,"stimulus":"\n                    <p><b>Action: <em>avoid</em></b></p>\n                    <p>This is the bee that you just saw.</p>\n                    <img src=\"bees-with-color/bee-A2SM.svg\" width=\"200\">\n                    <p><span class=\"redText\">Bad choice,</span> the bee was friendly.<br>Your bonus pay is unchanged, and remains at $0.66.</p>\n            ","response":0,"trial_type":"html-button-response","trial_index":36,"time_elapsed":539972,"internal_node_id":"0.0-4.0-1.12","subject_id":"6119272eab990f2cad815a38","study_id":"6197b3f67c2b5cd3b6d9596a","session_id":"619be78a3e4070aec74389df","condition":"full-information","relevant_dimensions":["antennae","legs"],"bee_group":{"antennae":"B","wings":"X","pattern":"X","legs":"F"},"bonus":0.740000000000001},{"rt":1619.0999999940395,"stimulus":"bees-with-color/bee-A2SF.svg","response":0,"trial_type":"image-button-response","trial_index":37,"time_elapsed":541592,"internal_node_id":"0.0-4.0-0.13","subject_id":"6119272eab990f2cad815a38","study_id":"6197b3f67c2b5cd3b6d9596a","session_id":"619be78a3e4070aec74389df","condition":"full-information","relevant_dimensions":["antennae","legs"],"bee_group":{"antennae":"B","wings":"X","pattern":"X","legs":"F"},"action":"harvest","summary":"good-harvest","bonus":0.740000000000001},{"rt":991.9000000059605,"stimulus":"\n                    <p><b>Action: <em>harvest</em></b></p>\n                    <p>This is the bee that you just saw.</p>\n                    <img src=\"bees-with-color/bee-A2SF.svg\" width=\"200\">\n                    <p><span class=\"greenText\"><b>Successful harvest!</b></span><br>Your pay has increased by $0.02. Your bonus pay is now $0.68.</p>\n            ","response":0,"trial_type":"html-button-response","trial_index":38,"time_elapsed":542585,"internal_node_id":"0.0-4.0-1.13","subject_id":"6119272eab990f2cad815a38","study_id":"6197b3f67c2b5cd3b6d9596a","session_id":"619be78a3e4070aec74389df","condition":"full-information","relevant_dimensions":["antennae","legs"],"bee_group":{"antennae":"B","wings":"X","pattern":"X","legs":"F"},"bonus":0.740000000000001},{"rt":1431.4000000059605,"stimulus":"bees-with-color/bee-B1DF.svg","response":1,"trial_type":"image-button-response","trial_index":39,"time_elapsed":544017,"internal_node_id":"0.0-4.0-0.14","subject_id":"6119272eab990f2cad815a38","study_id":"6197b3f67c2b5cd3b6d9596a","session_id":"619be78a3e4070aec74389df","condition":"full-information","relevant_dimensions":["antennae","legs"],"bee_group":{"antennae":"B","wings":"X","pattern":"X","legs":"F"},"action":"avoid","summary":"good-avoid","bonus":0.740000000000001},{"rt":1267.0999999940395,"stimulus":"\n                    <p><b>Action: <em>avoid</em></b></p>\n                    <p>This is the bee that you just saw.</p>\n                    <img src=\"bees-with-color/bee-B1DF.svg\" width=\"200\">\n                    <p><span class=\"greenText\">Good choice!</span>  This bee would have stung you.<br>Your bonus pay is unchanged, and remains at $0.68.</p>\n            ","response":0,"trial_type":"html-button-response","trial_index":40,"time_elapsed":545285,"internal_node_id":"0.0-4.0-1.14","subject_id":"6119272eab990f2cad815a38","study_id":"6197b3f67c2b5cd3b6d9596a","session_id":"619be78a3e4070aec74389df","condition":"full-information","relevant_dimensions":["antennae","legs"],"bee_group":{"antennae":"B","wings":"X","pattern":"X","legs":"F"},"bonus":0.740000000000001},{"rt":1080.199999988079,"stimulus":"bees-with-color/bee-A2DM.svg","response":0,"trial_type":"image-button-response","trial_index":41,"time_elapsed":546366,"internal_node_id":"0.0-4.0-0.15","subject_id":"6119272eab990f2cad815a38","study_id":"6197b3f67c2b5cd3b6d9596a","session_id":"619be78a3e4070aec74389df","condition":"full-information","relevant_dimensions":["antennae","legs"],"bee_group":{"antennae":"B","wings":"X","pattern":"X","legs":"F"},"action":"harvest","summary":"good-harvest","bonus":0.740000000000001},{"rt":1200.199999988079,"stimulus":"\n                    <p><b>Action: <em>harvest</em></b></p>\n                    <p>This is the bee that you just saw.</p>\n                    <img src=\"bees-with-color/bee-A2DM.svg\" width=\"200\">\n                    <p><span class=\"greenText\"><b>Successful harvest!</b></span><br>Your pay has increased by $0.02. Your bonus pay is now $0.70.</p>\n            ","response":0,"trial_type":"html-button-response","trial_index":42,"time_elapsed":547567,"internal_node_id":"0.0-4.0-1.15","subject_id":"6119272eab990f2cad815a38","study_id":"6197b3f67c2b5cd3b6d9596a","session_id":"619be78a3e4070aec74389df","condition":"full-information","relevant_dimensions":["antennae","legs"],"bee_group":{"antennae":"B","wings":"X","pattern":"X","legs":"F"},"bonus":0.740000000000001},{"rt":4841.4000000059605,"stimulus":"bees-with-color/bee-A2DM.svg","response":1,"trial_type":"image-button-response","trial_index":43,"time_elapsed":552409,"internal_node_id":"0.0-4.0-0.16","subject_id":"6119272eab990f2cad815a38","study_id":"6197b3f67c2b5cd3b6d9596a","session_id":"619be78a3e4070aec74389df","condition":"full-information","relevant_dimensions":["antennae","legs"],"bee_group":{"antennae":"B","wings":"X","pattern":"X","legs":"F"},"action":"avoid","summary":"bad-avoid","bonus":0.740000000000001},{"rt":2267.0999999940395,"stimulus":"\n                    <p><b>Action: <em>avoid</em></b></p>\n                    <p>This is the bee that you just saw.</p>\n                    <img src=\"bees-with-color/bee-A2DM.svg\" width=\"200\">\n                    <p><span class=\"redText\">Bad choice,</span> the bee was friendly.<br>Your bonus pay is unchanged, and remains at $0.70.</p>\n            ","response":0,"trial_type":"html-button-response","trial_index":44,"time_elapsed":554677,"internal_node_id":"0.0-4.0-1.16","subject_id":"6119272eab990f2cad815a38","study_id":"6197b3f67c2b5cd3b6d9596a","session_id":"619be78a3e4070aec74389df","condition":"full-information","relevant_dimensions":["antennae","legs"],"bee_group":{"antennae":"B","wings":"X","pattern":"X","legs":"F"},"bonus":0.740000000000001},{"rt":1366.199999988079,"stimulus":"bees-with-color/bee-A2SM.svg","response":0,"trial_type":"image-button-response","trial_index":45,"time_elapsed":556044,"internal_node_id":"0.0-4.0-0.17","subject_id":"6119272eab990f2cad815a38","study_id":"6197b3f67c2b5cd3b6d9596a","session_id":"619be78a3e4070aec74389df","condition":"full-information","relevant_dimensions":["antennae","legs"],"bee_group":{"antennae":"B","wings":"X","pattern":"X","legs":"F"},"action":"harvest","summary":"good-harvest","bonus":0.740000000000001},{"rt":891.9000000059605,"stimulus":"\n                    <p><b>Action: <em>harvest</em></b></p>\n                    <p>This is the bee that you just saw.</p>\n                    <img src=\"bees-with-color/bee-A2SM.svg\" width=\"200\">\n                    <p><span class=\"greenText\"><b>Successful harvest!</b></span><br>Your pay has increased by $0.02. Your bonus pay is now $0.72.</p>\n            ","response":0,"trial_type":"html-button-response","trial_index":46,"time_elapsed":556937,"internal_node_id":"0.0-4.0-1.17","subject_id":"6119272eab990f2cad815a38","study_id":"6197b3f67c2b5cd3b6d9596a","session_id":"619be78a3e4070aec74389df","condition":"full-information","relevant_dimensions":["antennae","legs"],"bee_group":{"antennae":"B","wings":"X","pattern":"X","legs":"F"},"bonus":0.740000000000001},{"rt":1024.2999999821186,"stimulus":"bees-with-color/bee-A1DF.svg","response":1,"trial_type":"image-button-response","trial_index":47,"time_elapsed":557962,"internal_node_id":"0.0-4.0-0.18","subject_id":"6119272eab990f2cad815a38","study_id":"6197b3f67c2b5cd3b6d9596a","session_id":"619be78a3e4070aec74389df","condition":"full-information","relevant_dimensions":["antennae","legs"],"bee_group":{"antennae":"B","wings":"X","pattern":"X","legs":"F"},"action":"avoid","summary":"bad-avoid","bonus":0.740000000000001},{"rt":1024.2999999821186,"stimulus":"\n                    <p><b>Action: <em>avoid</em></b></p>\n                    <p>This is the bee that you just saw.</p>\n                    <img src=\"bees-with-color/bee-A1DF.svg\" width=\"200\">\n                    <p><span class=\"redText\">Bad choice,</span> the bee was friendly.<br>Your bonus pay is unchanged, and remains at $0.72.</p>\n            ","response":0,"trial_type":"html-button-response","trial_index":48,"time_elapsed":558987,"internal_node_id":"0.0-4.0-1.18","subject_id":"6119272eab990f2cad815a38","study_id":"6197b3f67c2b5cd3b6d9596a","session_id":"619be78a3e4070aec74389df","condition":"full-information","relevant_dimensions":["antennae","legs"],"bee_group":{"antennae":"B","wings":"X","pattern":"X","legs":"F"},"bonus":0.740000000000001},{"rt":1079.2999999821186,"stimulus":"bees-with-color/bee-A1SF.svg","response":1,"trial_type":"image-button-response","trial_index":49,"time_elapsed":560067,"internal_node_id":"0.0-4.0-0.19","subject_id":"6119272eab990f2cad815a38","study_id":"6197b3f67c2b5cd3b6d9596a","session_id":"619be78a3e4070aec74389df","condition":"full-information","relevant_dimensions":["antennae","legs"],"bee_group":{"antennae":"B","wings":"X","pattern":"X","legs":"F"},"action":"avoid","summary":"bad-avoid","bonus":0.740000000000001},{"rt":727.1999999880791,"stimulus":"\n                    <p><b>Action: <em>avoid</em></b></p>\n                    <p>This is the bee that you just saw.</p>\n                    <img src=\"bees-with-color/bee-A1SF.svg\" width=\"200\">\n                    <p><span class=\"redText\">Bad choice,</span> the bee was friendly.<br>Your bonus pay is unchanged, and remains at $0.72.</p>\n            ","response":0,"trial_type":"html-button-response","trial_index":50,"time_elapsed":560795,"internal_node_id":"0.0-4.0-1.19","subject_id":"6119272eab990f2cad815a38","study_id":"6197b3f67c2b5cd3b6d9596a","session_id":"619be78a3e4070aec74389df","condition":"full-information","relevant_dimensions":["antennae","legs"],"bee_group":{"antennae":"B","wings":"X","pattern":"X","legs":"F"},"bonus":0.740000000000001},{"rt":1530.199999988079,"stimulus":"bees-with-color/bee-B2SM.svg","response":1,"trial_type":"image-button-response","trial_index":51,"time_elapsed":562326,"internal_node_id":"0.0-4.0-0.20","subject_id":"6119272eab990f2cad815a38","study_id":"6197b3f67c2b5cd3b6d9596a","session_id":"619be78a3e4070aec74389df","condition":"full-information","relevant_dimensions":["antennae","legs"],"bee_group":{"antennae":"B","wings":"X","pattern":"X","legs":"F"},"action":"avoid","summary":"bad-avoid","bonus":0.740000000000001},{"rt":595,"stimulus":"\n                    <p><b>Action: <em>avoid</em></b></p>\n                    <p>This is the bee that you just saw.</p>\n                    <img src=\"bees-with-color/bee-B2SM.svg\" width=\"200\">\n                    <p><span class=\"redText\">Bad choice,</span> the bee was friendly.<br>Your bonus pay is unchanged, and remains at $0.72.</p>\n            ","response":0,"trial_type":"html-button-response","trial_index":52,"time_elapsed":562922,"internal_node_id":"0.0-4.0-1.20","subject_id":"6119272eab990f2cad815a38","study_id":"6197b3f67c2b5cd3b6d9596a","session_id":"619be78a3e4070aec74389df","condition":"full-information","relevant_dimensions":["antennae","legs"],"bee_group":{"antennae":"B","wings":"X","pattern":"X","legs":"F"},"bonus":0.740000000000001},{"rt":837.3000000119209,"stimulus":"bees-with-color/bee-A1DM.svg","response":1,"trial_type":"image-button-response","trial_index":53,"time_elapsed":563760,"internal_node_id":"0.0-4.0-0.21","subject_id":"6119272eab990f2cad815a38","study_id":"6197b3f67c2b5cd3b6d9596a","session_id":"619be78a3e4070aec74389df","condition":"full-information","relevant_dimensions":["antennae","legs"],"bee_group":{"antennae":"B","wings":"X","pattern":"X","legs":"F"},"action":"avoid","summary":"bad-avoid","bonus":0.740000000000001},{"rt":508.09999999403954,"stimulus":"\n                    <p><b>Action: <em>avoid</em></b></p>\n                    <p>This is the bee that you just saw.</p>\n                    <img src=\"bees-with-color/bee-A1DM.svg\" width=\"200\">\n                    <p><span class=\"redText\">Bad choice,</span> the bee was friendly.<br>Your bonus pay is unchanged, and remains at $0.72.</p>\n            ","response":0,"trial_type":"html-button-response","trial_index":54,"time_elapsed":564269,"internal_node_id":"0.0-4.0-1.21","subject_id":"6119272eab990f2cad815a38","study_id":"6197b3f67c2b5cd3b6d9596a","session_id":"619be78a3e4070aec74389df","condition":"full-information","relevant_dimensions":["antennae","legs"],"bee_group":{"antennae":"B","wings":"X","pattern":"X","legs":"F"},"bonus":0.740000000000001},{"rt":1310.4000000059605,"stimulus":"bees-with-color/bee-B1DF.svg","response":1,"trial_type":"image-button-response","trial_index":55,"time_elapsed":565580,"internal_node_id":"0.0-4.0-0.22","subject_id":"6119272eab990f2cad815a38","study_id":"6197b3f67c2b5cd3b6d9596a","session_id":"619be78a3e4070aec74389df","condition":"full-information","relevant_dimensions":["antennae","legs"],"bee_group":{"antennae":"B","wings":"X","pattern":"X","legs":"F"},"action":"avoid","summary":"good-avoid","bonus":0.740000000000001},{"rt":728.7999999821186,"stimulus":"\n                    <p><b>Action: <em>avoid</em></b></p>\n                    <p>This is the bee that you just saw.</p>\n                    <img src=\"bees-with-color/bee-B1DF.svg\" width=\"200\">\n                    <p><span class=\"greenText\">Good choice!</span>  This bee would have stung you.<br>Your bonus pay is unchanged, and remains at $0.72.</p>\n            ","response":0,"trial_type":"html-button-response","trial_index":56,"time_elapsed":566310,"internal_node_id":"0.0-4.0-1.22","subject_id":"6119272eab990f2cad815a38","study_id":"6197b3f67c2b5cd3b6d9596a","session_id":"619be78a3e4070aec74389df","condition":"full-information","relevant_dimensions":["antennae","legs"],"bee_group":{"antennae":"B","wings":"X","pattern":"X","legs":"F"},"bonus":0.740000000000001},{"rt":1144.300000011921,"stimulus":"bees-with-color/bee-B1SF.svg","response":1,"trial_type":"image-button-response","trial_index":57,"time_elapsed":567455,"internal_node_id":"0.0-4.0-0.23","subject_id":"6119272eab990f2cad815a38","study_id":"6197b3f67c2b5cd3b6d9596a","session_id":"619be78a3e4070aec74389df","condition":"full-information","relevant_dimensions":["antennae","legs"],"bee_group":{"antennae":"B","wings":"X","pattern":"X","legs":"F"},"action":"avoid","summary":"good-avoid","bonus":0.740000000000001},{"rt":585.1999999880791,"stimulus":"\n                    <p><b>Action: <em>avoid</em></b></p>\n                    <p>This is the bee that you just saw.</p>\n                    <img src=\"bees-with-color/bee-B1SF.svg\" width=\"200\">\n                    <p><span class=\"greenText\">Good choice!</span>  This bee would have stung you.<br>Your bonus pay is unchanged, and remains at $0.72.</p>\n            ","response":0,"trial_type":"html-button-response","trial_index":58,"time_elapsed":568041,"internal_node_id":"0.0-4.0-1.23","subject_id":"6119272eab990f2cad815a38","study_id":"6197b3f67c2b5cd3b6d9596a","session_id":"619be78a3e4070aec74389df","condition":"full-information","relevant_dimensions":["antennae","legs"],"bee_group":{"antennae":"B","wings":"X","pattern":"X","legs":"F"},"bonus":0.740000000000001},{"rt":948,"stimulus":"bees-with-color/bee-A1SM.svg","response":1,"trial_type":"image-button-response","trial_index":59,"time_elapsed":568990,"internal_node_id":"0.0-4.0-0.24","subject_id":"6119272eab990f2cad815a38","study_id":"6197b3f67c2b5cd3b6d9596a","session_id":"619be78a3e4070aec74389df","condition":"full-information","relevant_dimensions":["antennae","legs"],"bee_group":{"antennae":"B","wings":"X","pattern":"X","legs":"F"},"action":"avoid","summary":"bad-avoid","bonus":0.740000000000001},{"rt":573.1999999880791,"stimulus":"\n                    <p><b>Action: <em>avoid</em></b></p>\n                    <p>This is the bee that you just saw.</p>\n                    <img src=\"bees-with-color/bee-A1SM.svg\" width=\"200\">\n                    <p><span class=\"redText\">Bad choice,</span> the bee was friendly.<br>Your bonus pay is unchanged, and remains at $0.72.</p>\n            ","response":0,"trial_type":"html-button-response","trial_index":60,"time_elapsed":569564,"internal_node_id":"0.0-4.0-1.24","subject_id":"6119272eab990f2cad815a38","study_id":"6197b3f67c2b5cd3b6d9596a","session_id":"619be78a3e4070aec74389df","condition":"full-information","relevant_dimensions":["antennae","legs"],"bee_group":{"antennae":"B","wings":"X","pattern":"X","legs":"F"},"bonus":0.740000000000001},{"rt":716.3000000119209,"stimulus":"bees-with-color/bee-B2SF.svg","response":0,"trial_type":"image-button-response","trial_index":61,"time_elapsed":570281,"internal_node_id":"0.0-4.0-0.25","subject_id":"6119272eab990f2cad815a38","study_id":"6197b3f67c2b5cd3b6d9596a","session_id":"619be78a3e4070aec74389df","condition":"full-information","relevant_dimensions":["antennae","legs"],"bee_group":{"antennae":"B","wings":"X","pattern":"X","legs":"F"},"action":"harvest","summary":"bad-harvest","bonus":0.740000000000001},{"rt":1243.9000000059605,"stimulus":"\n                    <p><b>Action: <em>harvest</em></b></p>\n                    <p>This is the bee that you just saw.</p>\n                    <img src=\"bees-with-color/bee-B2SF.svg\" width=\"200\">\n                    <p><span class=\"redText\">Bad choice, the bee was angry.</span><br><b>You have been stung!</b><br>Your pay has been decreased by $0.10. Your bonus pay is now $0.62.</p>\n            ","response":0,"trial_type":"html-button-response","trial_index":62,"time_elapsed":571526,"internal_node_id":"0.0-4.0-1.25","subject_id":"6119272eab990f2cad815a38","study_id":"6197b3f67c2b5cd3b6d9596a","session_id":"619be78a3e4070aec74389df","condition":"full-information","relevant_dimensions":["antennae","legs"],"bee_group":{"antennae":"B","wings":"X","pattern":"X","legs":"F"},"bonus":0.740000000000001},{"rt":1202.5,"stimulus":"bees-with-color/bee-A2DF.svg","response":0,"trial_type":"image-button-response","trial_index":63,"time_elapsed":572729,"internal_node_id":"0.0-4.0-0.26","subject_id":"6119272eab990f2cad815a38","study_id":"6197b3f67c2b5cd3b6d9596a","session_id":"619be78a3e4070aec74389df","condition":"full-information","relevant_dimensions":["antennae","legs"],"bee_group":{"antennae":"B","wings":"X","pattern":"X","legs":"F"},"action":"harvest","summary":"good-harvest","bonus":0.740000000000001},{"rt":804,"stimulus":"\n                    <p><b>Action: <em>harvest</em></b></p>\n                    <p>This is the bee that you just saw.</p>\n                    <img src=\"bees-with-color/bee-A2DF.svg\" width=\"200\">\n                    <p><span class=\"greenText\"><b>Successful harvest!</b></span><br>Your pay has increased by $0.02. Your bonus pay is now $0.64.</p>\n            ","response":0,"trial_type":"html-button-response","trial_index":64,"time_elapsed":573534,"internal_node_id":"0.0-4.0-1.26","subject_id":"6119272eab990f2cad815a38","study_id":"6197b3f67c2b5cd3b6d9596a","session_id":"619be78a3e4070aec74389df","condition":"full-information","relevant_dimensions":["antennae","legs"],"bee_group":{"antennae":"B","wings":"X","pattern":"X","legs":"F"},"bonus":0.740000000000001},{"rt":3841.199999988079,"stimulus":"bees-with-color/bee-A2SF.svg","response":1,"trial_type":"image-button-response","trial_index":65,"time_elapsed":577376,"internal_node_id":"0.0-4.0-0.27","subject_id":"6119272eab990f2cad815a38","study_id":"6197b3f67c2b5cd3b6d9596a","session_id":"619be78a3e4070aec74389df","condition":"full-information","relevant_dimensions":["antennae","legs"],"bee_group":{"antennae":"B","wings":"X","pattern":"X","legs":"F"},"action":"avoid","summary":"bad-avoid","bonus":0.740000000000001},{"rt":958.0999999940395,"stimulus":"\n                    <p><b>Action: <em>avoid</em></b></p>\n                    <p>This is the bee that you just saw.</p>\n                    <img src=\"bees-with-color/bee-A2SF.svg\" width=\"200\">\n                    <p><span class=\"redText\">Bad choice,</span> the bee was friendly.<br>Your bonus pay is unchanged, and remains at $0.64.</p>\n            ","response":0,"trial_type":"html-button-response","trial_index":66,"time_elapsed":578335,"internal_node_id":"0.0-4.0-1.27","subject_id":"6119272eab990f2cad815a38","study_id":"6197b3f67c2b5cd3b6d9596a","session_id":"619be78a3e4070aec74389df","condition":"full-information","relevant_dimensions":["antennae","legs"],"bee_group":{"antennae":"B","wings":"X","pattern":"X","legs":"F"},"bonus":0.740000000000001},{"rt":683,"stimulus":"bees-with-color/bee-B2DF.svg","response":0,"trial_type":"image-button-response","trial_index":67,"time_elapsed":579019,"internal_node_id":"0.0-4.0-0.28","subject_id":"6119272eab990f2cad815a38","study_id":"6197b3f67c2b5cd3b6d9596a","session_id":"619be78a3e4070aec74389df","condition":"full-information","relevant_dimensions":["antennae","legs"],"bee_group":{"antennae":"B","wings":"X","pattern":"X","legs":"F"},"action":"harvest","summary":"bad-harvest","bonus":0.740000000000001},{"rt":804.3999999761581,"stimulus":"\n                    <p><b>Action: <em>harvest</em></b></p>\n                    <p>This is the bee that you just saw.</p>\n                    <img src=\"bees-with-color/bee-B2DF.svg\" width=\"200\">\n                    <p><span class=\"redText\">Bad choice, the bee was angry.</span><br><b>You have been stung!</b><br>Your pay has been decreased by $0.10. Your bonus pay is now $0.54.</p>\n            ","response":0,"trial_type":"html-button-response","trial_index":68,"time_elapsed":579824,"internal_node_id":"0.0-4.0-1.28","subject_id":"6119272eab990f2cad815a38","study_id":"6197b3f67c2b5cd3b6d9596a","session_id":"619be78a3e4070aec74389df","condition":"full-information","relevant_dimensions":["antennae","legs"],"bee_group":{"antennae":"B","wings":"X","pattern":"X","legs":"F"},"bonus":0.740000000000001},{"rt":353.69999998807907,"stimulus":"bees-with-color/bee-B2DM.svg","response":0,"trial_type":"image-button-response","trial_index":69,"time_elapsed":580179,"internal_node_id":"0.0-4.0-0.29","subject_id":"6119272eab990f2cad815a38","study_id":"6197b3f67c2b5cd3b6d9596a","session_id":"619be78a3e4070aec74389df","condition":"full-information","relevant_dimensions":["antennae","legs"],"bee_group":{"antennae":"B","wings":"X","pattern":"X","legs":"F"},"action":"harvest","summary":"good-harvest","bonus":0.740000000000001},{"rt":539.9000000059605,"stimulus":"\n                    <p><b>Action: <em>harvest</em></b></p>\n                    <p>This is the bee that you just saw.</p>\n                    <img src=\"bees-with-color/bee-B2DM.svg\" width=\"200\">\n                    <p><span class=\"greenText\"><b>Successful harvest!</b></span><br>Your pay has increased by $0.02. Your bonus pay is now $0.56.</p>\n            ","response":0,"trial_type":"html-button-response","trial_index":70,"time_elapsed":580719,"internal_node_id":"0.0-4.0-1.29","subject_id":"6119272eab990f2cad815a38","study_id":"6197b3f67c2b5cd3b6d9596a","session_id":"619be78a3e4070aec74389df","condition":"full-information","relevant_dimensions":["antennae","legs"],"bee_group":{"antennae":"B","wings":"X","pattern":"X","legs":"F"},"bonus":0.740000000000001},{"rt":397.10000002384186,"stimulus":"bees-with-color/bee-B1SM.svg","response":0,"trial_type":"image-button-response","trial_index":71,"time_elapsed":581117,"internal_node_id":"0.0-4.0-0.30","subject_id":"6119272eab990f2cad815a38","study_id":"6197b3f67c2b5cd3b6d9596a","session_id":"619be78a3e4070aec74389df","condition":"full-information","relevant_dimensions":["antennae","legs"],"bee_group":{"antennae":"B","wings":"X","pattern":"X","legs":"F"},"action":"harvest","summary":"good-harvest","bonus":0.740000000000001},{"rt":517.9000000059605,"stimulus":"\n                    <p><b>Action: <em>harvest</em></b></p>\n                    <p>This is the bee that you just saw.</p>\n                    <img src=\"bees-with-color/bee-B1SM.svg\" width=\"200\">\n                    <p><span class=\"greenText\"><b>Successful harvest!</b></span><br>Your pay has increased by $0.02. Your bonus pay is now $0.58.</p>\n            ","response":0,"trial_type":"html-button-response","trial_index":72,"time_elapsed":581636,"internal_node_id":"0.0-4.0-1.30","subject_id":"6119272eab990f2cad815a38","study_id":"6197b3f67c2b5cd3b6d9596a","session_id":"619be78a3e4070aec74389df","condition":"full-information","relevant_dimensions":["antennae","legs"],"bee_group":{"antennae":"B","wings":"X","pattern":"X","legs":"F"},"bonus":0.740000000000001},{"rt":421.40000000596046,"stimulus":"bees-with-color/bee-B1DM.svg","response":0,"trial_type":"image-button-response","trial_index":73,"time_elapsed":582058,"internal_node_id":"0.0-4.0-0.31","subject_id":"6119272eab990f2cad815a38","study_id":"6197b3f67c2b5cd3b6d9596a","session_id":"619be78a3e4070aec74389df","condition":"full-information","relevant_dimensions":["antennae","legs"],"bee_group":{"antennae":"B","wings":"X","pattern":"X","legs":"F"},"action":"harvest","summary":"good-harvest","bonus":0.740000000000001},{"rt":565.0999999940395,"stimulus":"\n                    <p><b>Action: <em>harvest</em></b></p>\n                    <p>This is the bee that you just saw.</p>\n                    <img src=\"bees-with-color/bee-B1DM.svg\" width=\"200\">\n                    <p><span class=\"greenText\"><b>Successful harvest!</b></span><br>Your pay has increased by $0.02. Your bonus pay is now $0.60.</p>\n            ","response":0,"trial_type":"html-button-response","trial_index":74,"time_elapsed":582624,"internal_node_id":"0.0-4.0-1.31","subject_id":"6119272eab990f2cad815a38","study_id":"6197b3f67c2b5cd3b6d9596a","session_id":"619be78a3e4070aec74389df","condition":"full-information","relevant_dimensions":["antennae","legs"],"bee_group":{"antennae":"B","wings":"X","pattern":"X","legs":"F"},"bonus":0.740000000000001},{"rt":660.3000000119209,"stimulus":"bees-with-color/bee-B1SM.svg","response":1,"trial_type":"image-button-response","trial_index":75,"time_elapsed":583285,"internal_node_id":"0.0-4.0-0.32","subject_id":"6119272eab990f2cad815a38","study_id":"6197b3f67c2b5cd3b6d9596a","session_id":"619be78a3e4070aec74389df","condition":"full-information","relevant_dimensions":["antennae","legs"],"bee_group":{"antennae":"B","wings":"X","pattern":"X","legs":"F"},"action":"avoid","summary":"bad-avoid","bonus":0.740000000000001},{"rt":936,"stimulus":"\n                    <p><b>Action: <em>avoid</em></b></p>\n                    <p>This is the bee that you just saw.</p>\n                    <img src=\"bees-with-color/bee-B1SM.svg\" width=\"200\">\n                    <p><span class=\"redText\">Bad choice,</span> the bee was friendly.<br>Your bonus pay is unchanged, and remains at $0.60.</p>\n            ","response":0,"trial_type":"html-button-response","trial_index":76,"time_elapsed":584222,"internal_node_id":"0.0-4.0-1.32","subject_id":"6119272eab990f2cad815a38","study_id":"6197b3f67c2b5cd3b6d9596a","session_id":"619be78a3e4070aec74389df","condition":"full-information","relevant_dimensions":["antennae","legs"],"bee_group":{"antennae":"B","wings":"X","pattern":"X","legs":"F"},"bonus":0.740000000000001},{"rt":893.5999999940395,"stimulus":"bees-with-color/bee-B2SF.svg","response":1,"trial_type":"image-button-response","trial_index":77,"time_elapsed":585116,"internal_node_id":"0.0-4.0-0.33","subject_id":"6119272eab990f2cad815a38","study_id":"6197b3f67c2b5cd3b6d9596a","session_id":"619be78a3e4070aec74389df","condition":"full-information","relevant_dimensions":["antennae","legs"],"bee_group":{"antennae":"B","wings":"X","pattern":"X","legs":"F"},"action":"avoid","summary":"good-avoid","bonus":0.740000000000001},{"rt":959.9000000059605,"stimulus":"\n                    <p><b>Action: <em>avoid</em></b></p>\n                    <p>This is the bee that you just saw.</p>\n                    <img src=\"bees-with-color/bee-B2SF.svg\" width=\"200\">\n                    <p><span class=\"greenText\">Good choice!</span>  This bee would have stung you.<br>Your bonus pay is unchanged, and remains at $0.60.</p>\n            ","response":0,"trial_type":"html-button-response","trial_index":78,"time_elapsed":586077,"internal_node_id":"0.0-4.0-1.33","subject_id":"6119272eab990f2cad815a38","study_id":"6197b3f67c2b5cd3b6d9596a","session_id":"619be78a3e4070aec74389df","condition":"full-information","relevant_dimensions":["antennae","legs"],"bee_group":{"antennae":"B","wings":"X","pattern":"X","legs":"F"},"bonus":0.740000000000001},{"rt":1343.199999988079,"stimulus":"bees-with-color/bee-A2DM.svg","response":0,"trial_type":"image-button-response","trial_index":79,"time_elapsed":587421,"internal_node_id":"0.0-4.0-0.34","subject_id":"6119272eab990f2cad815a38","study_id":"6197b3f67c2b5cd3b6d9596a","session_id":"619be78a3e4070aec74389df","condition":"full-information","relevant_dimensions":["antennae","legs"],"bee_group":{"antennae":"B","wings":"X","pattern":"X","legs":"F"},"action":"harvest","summary":"good-harvest","bonus":0.740000000000001},{"rt":562.3000000119209,"stimulus":"\n                    <p><b>Action: <em>harvest</em></b></p>\n                    <p>This is the bee that you just saw.</p>\n                    <img src=\"bees-with-color/bee-A2DM.svg\" width=\"200\">\n                    <p><span class=\"greenText\"><b>Successful harvest!</b></span><br>Your pay has increased by $0.02. Your bonus pay is now $0.62.</p>\n            ","response":0,"trial_type":"html-button-response","trial_index":80,"time_elapsed":587984,"internal_node_id":"0.0-4.0-1.34","subject_id":"6119272eab990f2cad815a38","study_id":"6197b3f67c2b5cd3b6d9596a","session_id":"619be78a3e4070aec74389df","condition":"full-information","relevant_dimensions":["antennae","legs"],"bee_group":{"antennae":"B","wings":"X","pattern":"X","legs":"F"},"bonus":0.740000000000001},{"rt":1156.300000011921,"stimulus":"bees-with-color/bee-B2SM.svg","response":0,"trial_type":"image-button-response","trial_index":81,"time_elapsed":589141,"internal_node_id":"0.0-4.0-0.35","subject_id":"6119272eab990f2cad815a38","study_id":"6197b3f67c2b5cd3b6d9596a","session_id":"619be78a3e4070aec74389df","condition":"full-information","relevant_dimensions":["antennae","legs"],"bee_group":{"antennae":"B","wings":"X","pattern":"X","legs":"F"},"action":"harvest","summary":"good-harvest","bonus":0.740000000000001},{"rt":606.4000000059605,"stimulus":"\n                    <p><b>Action: <em>harvest</em></b></p>\n                    <p>This is the bee that you just saw.</p>\n                    <img src=\"bees-with-color/bee-B2SM.svg\" width=\"200\">\n                    <p><span class=\"greenText\"><b>Successful harvest!</b></span><br>Your pay has increased by $0.02. Your bonus pay is now $0.64.</p>\n            ","response":0,"trial_type":"html-button-response","trial_index":82,"time_elapsed":589748,"internal_node_id":"0.0-4.0-1.35","subject_id":"6119272eab990f2cad815a38","study_id":"6197b3f67c2b5cd3b6d9596a","session_id":"619be78a3e4070aec74389df","condition":"full-information","relevant_dimensions":["antennae","legs"],"bee_group":{"antennae":"B","wings":"X","pattern":"X","legs":"F"},"bonus":0.740000000000001},{"rt":1123.0999999940395,"stimulus":"bees-with-color/bee-A1SM.svg","response":1,"trial_type":"image-button-response","trial_index":83,"time_elapsed":590872,"internal_node_id":"0.0-4.0-0.36","subject_id":"6119272eab990f2cad815a38","study_id":"6197b3f67c2b5cd3b6d9596a","session_id":"619be78a3e4070aec74389df","condition":"full-information","relevant_dimensions":["antennae","legs"],"bee_group":{"antennae":"B","wings":"X","pattern":"X","legs":"F"},"action":"avoid","summary":"bad-avoid","bonus":0.740000000000001},{"rt":716.6999999880791,"stimulus":"\n                    <p><b>Action: <em>avoid</em></b></p>\n                    <p>This is the bee that you just saw.</p>\n                    <img src=\"bees-with-color/bee-A1SM.svg\" width=\"200\">\n                    <p><span class=\"redText\">Bad choice,</span> the bee was friendly.<br>Your bonus pay is unchanged, and remains at $0.64.</p>\n            ","response":0,"trial_type":"html-button-response","trial_index":84,"time_elapsed":591590,"internal_node_id":"0.0-4.0-1.36","subject_id":"6119272eab990f2cad815a38","study_id":"6197b3f67c2b5cd3b6d9596a","session_id":"619be78a3e4070aec74389df","condition":"full-information","relevant_dimensions":["antennae","legs"],"bee_group":{"antennae":"B","wings":"X","pattern":"X","legs":"F"},"bonus":0.740000000000001},{"rt":979.5999999940395,"stimulus":"bees-with-color/bee-B2DF.svg","response":1,"trial_type":"image-button-response","trial_index":85,"time_elapsed":592570,"internal_node_id":"0.0-4.0-0.37","subject_id":"6119272eab990f2cad815a38","study_id":"6197b3f67c2b5cd3b6d9596a","session_id":"619be78a3e4070aec74389df","condition":"full-information","relevant_dimensions":["antennae","legs"],"bee_group":{"antennae":"B","wings":"X","pattern":"X","legs":"F"},"action":"avoid","summary":"good-avoid","bonus":0.740000000000001},{"rt":826,"stimulus":"\n                    <p><b>Action: <em>avoid</em></b></p>\n                    <p>This is the bee that you just saw.</p>\n                    <img src=\"bees-with-color/bee-B2DF.svg\" width=\"200\">\n                    <p><span class=\"greenText\">Good choice!</span>  This bee would have stung you.<br>Your bonus pay is unchanged, and remains at $0.64.</p>\n            ","response":0,"trial_type":"html-button-response","trial_index":86,"time_elapsed":593397,"internal_node_id":"0.0-4.0-1.37","subject_id":"6119272eab990f2cad815a38","study_id":"6197b3f67c2b5cd3b6d9596a","session_id":"619be78a3e4070aec74389df","condition":"full-information","relevant_dimensions":["antennae","legs"],"bee_group":{"antennae":"B","wings":"X","pattern":"X","legs":"F"},"bonus":0.740000000000001},{"rt":948.0999999940395,"stimulus":"bees-with-color/bee-A1DM.svg","response":1,"trial_type":"image-button-response","trial_index":87,"time_elapsed":594346,"internal_node_id":"0.0-4.0-0.38","subject_id":"6119272eab990f2cad815a38","study_id":"6197b3f67c2b5cd3b6d9596a","session_id":"619be78a3e4070aec74389df","condition":"full-information","relevant_dimensions":["antennae","legs"],"bee_group":{"antennae":"B","wings":"X","pattern":"X","legs":"F"},"action":"avoid","summary":"bad-avoid","bonus":0.740000000000001},{"rt":727.0999999940395,"stimulus":"\n                    <p><b>Action: <em>avoid</em></b></p>\n                    <p>This is the bee that you just saw.</p>\n                    <img src=\"bees-with-color/bee-A1DM.svg\" width=\"200\">\n                    <p><span class=\"redText\">Bad choice,</span> the bee was friendly.<br>Your bonus pay is unchanged, and remains at $0.64.</p>\n            ","response":0,"trial_type":"html-button-response","trial_index":88,"time_elapsed":595074,"internal_node_id":"0.0-4.0-1.38","subject_id":"6119272eab990f2cad815a38","study_id":"6197b3f67c2b5cd3b6d9596a","session_id":"619be78a3e4070aec74389df","condition":"full-information","relevant_dimensions":["antennae","legs"],"bee_group":{"antennae":"B","wings":"X","pattern":"X","legs":"F"},"bonus":0.740000000000001},{"rt":508.5,"stimulus":"bees-with-color/bee-B1DM.svg","response":0,"trial_type":"image-button-response","trial_index":89,"time_elapsed":595583,"internal_node_id":"0.0-4.0-0.39","subject_id":"6119272eab990f2cad815a38","study_id":"6197b3f67c2b5cd3b6d9596a","session_id":"619be78a3e4070aec74389df","condition":"full-information","relevant_dimensions":["antennae","legs"],"bee_group":{"antennae":"B","wings":"X","pattern":"X","legs":"F"},"action":"harvest","summary":"good-harvest","bonus":0.740000000000001},{"rt":628.9000000059605,"stimulus":"\n                    <p><b>Action: <em>harvest</em></b></p>\n                    <p>This is the bee that you just saw.</p>\n                    <img src=\"bees-with-color/bee-B1DM.svg\" width=\"200\">\n                    <p><span class=\"greenText\"><b>Successful harvest!</b></span><br>Your pay has increased by $0.02. Your bonus pay is now $0.66.</p>\n            ","response":0,"trial_type":"html-button-response","trial_index":90,"time_elapsed":596213,"internal_node_id":"0.0-4.0-1.39","subject_id":"6119272eab990f2cad815a38","study_id":"6197b3f67c2b5cd3b6d9596a","session_id":"619be78a3e4070aec74389df","condition":"full-information","relevant_dimensions":["antennae","legs"],"bee_group":{"antennae":"B","wings":"X","pattern":"X","legs":"F"},"bonus":0.740000000000001},{"rt":1664,"stimulus":"bees-with-color/bee-B2DM.svg","response":0,"trial_type":"image-button-response","trial_index":91,"time_elapsed":597878,"internal_node_id":"0.0-4.0-0.40","subject_id":"6119272eab990f2cad815a38","study_id":"6197b3f67c2b5cd3b6d9596a","session_id":"619be78a3e4070aec74389df","condition":"full-information","relevant_dimensions":["antennae","legs"],"bee_group":{"antennae":"B","wings":"X","pattern":"X","legs":"F"},"action":"harvest","summary":"good-harvest","bonus":0.740000000000001},{"rt":716.3000000119209,"stimulus":"\n                    <p><b>Action: <em>harvest</em></b></p>\n                    <p>This is the bee that you just saw.</p>\n                    <img src=\"bees-with-color/bee-B2DM.svg\" width=\"200\">\n                    <p><span class=\"greenText\"><b>Successful harvest!</b></span><br>Your pay has increased by $0.02. Your bonus pay is now $0.68.</p>\n            ","response":0,"trial_type":"html-button-response","trial_index":92,"time_elapsed":598595,"internal_node_id":"0.0-4.0-1.40","subject_id":"6119272eab990f2cad815a38","study_id":"6197b3f67c2b5cd3b6d9596a","session_id":"619be78a3e4070aec74389df","condition":"full-information","relevant_dimensions":["antennae","legs"],"bee_group":{"antennae":"B","wings":"X","pattern":"X","legs":"F"},"bonus":0.740000000000001},{"rt":870.2000000178814,"stimulus":"bees-with-color/bee-B1DF.svg","response":1,"trial_type":"image-button-response","trial_index":93,"time_elapsed":599465,"internal_node_id":"0.0-4.0-0.41","subject_id":"6119272eab990f2cad815a38","study_id":"6197b3f67c2b5cd3b6d9596a","session_id":"619be78a3e4070aec74389df","condition":"full-information","relevant_dimensions":["antennae","legs"],"bee_group":{"antennae":"B","wings":"X","pattern":"X","legs":"F"},"action":"avoid","summary":"good-avoid","bonus":0.740000000000001},{"rt":903.3000000119209,"stimulus":"\n                    <p><b>Action: <em>avoid</em></b></p>\n                    <p>This is the bee that you just saw.</p>\n                    <img src=\"bees-with-color/bee-B1DF.svg\" width=\"200\">\n                    <p><span class=\"greenText\">Good choice!</span>  This bee would have stung you.<br>Your bonus pay is unchanged, and remains at $0.68.</p>\n            ","response":0,"trial_type":"html-button-response","trial_index":94,"time_elapsed":600369,"internal_node_id":"0.0-4.0-1.41","subject_id":"6119272eab990f2cad815a38","study_id":"6197b3f67c2b5cd3b6d9596a","session_id":"619be78a3e4070aec74389df","condition":"full-information","relevant_dimensions":["antennae","legs"],"bee_group":{"antennae":"B","wings":"X","pattern":"X","legs":"F"},"bonus":0.740000000000001},{"rt":441.40000000596046,"stimulus":"bees-with-color/bee-A1SF.svg","response":0,"trial_type":"image-button-response","trial_index":95,"time_elapsed":600812,"internal_node_id":"0.0-4.0-0.42","subject_id":"6119272eab990f2cad815a38","study_id":"6197b3f67c2b5cd3b6d9596a","session_id":"619be78a3e4070aec74389df","condition":"full-information","relevant_dimensions":["antennae","legs"],"bee_group":{"antennae":"B","wings":"X","pattern":"X","legs":"F"},"action":"harvest","summary":"good-harvest","bonus":0.740000000000001},{"rt":1123,"stimulus":"\n                    <p><b>Action: <em>harvest</em></b></p>\n                    <p>This is the bee that you just saw.</p>\n                    <img src=\"bees-with-color/bee-A1SF.svg\" width=\"200\">\n                    <p><span class=\"greenText\"><b>Successful harvest!</b></span><br>Your pay has increased by $0.02. Your bonus pay is now $0.70.</p>\n            ","response":0,"trial_type":"html-button-response","trial_index":96,"time_elapsed":601935,"internal_node_id":"0.0-4.0-1.42","subject_id":"6119272eab990f2cad815a38","study_id":"6197b3f67c2b5cd3b6d9596a","session_id":"619be78a3e4070aec74389df","condition":"full-information","relevant_dimensions":["antennae","legs"],"bee_group":{"antennae":"B","wings":"X","pattern":"X","legs":"F"},"bonus":0.740000000000001},{"rt":35688.40000000596,"stimulus":"bees-with-color/bee-A2SF.svg","response":0,"trial_type":"image-button-response","trial_index":97,"time_elapsed":637624,"internal_node_id":"0.0-4.0-0.43","subject_id":"6119272eab990f2cad815a38","study_id":"6197b3f67c2b5cd3b6d9596a","session_id":"619be78a3e4070aec74389df","condition":"full-information","relevant_dimensions":["antennae","legs"],"bee_group":{"antennae":"B","wings":"X","pattern":"X","legs":"F"},"action":"harvest","summary":"good-harvest","bonus":0.740000000000001},{"rt":1366.300000011921,"stimulus":"\n                    <p><b>Action: <em>harvest</em></b></p>\n                    <p>This is the bee that you just saw.</p>\n                    <img src=\"bees-with-color/bee-A2SF.svg\" width=\"200\">\n                    <p><span class=\"greenText\"><b>Successful harvest!</b></span><br>Your pay has increased by $0.02. Your bonus pay is now $0.72.</p>\n            ","response":0,"trial_type":"html-button-response","trial_index":98,"time_elapsed":638991,"internal_node_id":"0.0-4.0-1.43","subject_id":"6119272eab990f2cad815a38","study_id":"6197b3f67c2b5cd3b6d9596a","session_id":"619be78a3e4070aec74389df","condition":"full-information","relevant_dimensions":["antennae","legs"],"bee_group":{"antennae":"B","wings":"X","pattern":"X","legs":"F"},"bonus":0.740000000000001},{"rt":1166.9000000059605,"stimulus":"bees-with-color/bee-A2SM.svg","response":0,"trial_type":"image-button-response","trial_index":99,"time_elapsed":640160,"internal_node_id":"0.0-4.0-0.44","subject_id":"6119272eab990f2cad815a38","study_id":"6197b3f67c2b5cd3b6d9596a","session_id":"619be78a3e4070aec74389df","condition":"full-information","relevant_dimensions":["antennae","legs"],"bee_group":{"antennae":"B","wings":"X","pattern":"X","legs":"F"},"action":"harvest","summary":"good-harvest","bonus":0.740000000000001},{"rt":748.9000000059605,"stimulus":"\n                    <p><b>Action: <em>harvest</em></b></p>\n                    <p>This is the bee that you just saw.</p>\n                    <img src=\"bees-with-color/bee-A2SM.svg\" width=\"200\">\n                    <p><span class=\"greenText\"><b>Successful harvest!</b></span><br>Your pay has increased by $0.02. Your bonus pay is now $0.74.</p>\n            ","response":0,"trial_type":"html-button-response","trial_index":100,"time_elapsed":640909,"internal_node_id":"0.0-4.0-1.44","subject_id":"6119272eab990f2cad815a38","study_id":"6197b3f67c2b5cd3b6d9596a","session_id":"619be78a3e4070aec74389df","condition":"full-information","relevant_dimensions":["antennae","legs"],"bee_group":{"antennae":"B","wings":"X","pattern":"X","legs":"F"},"bonus":0.740000000000001},{"rt":1465.4000000059605,"stimulus":"bees-with-color/bee-B1SF.svg","response":1,"trial_type":"image-button-response","trial_index":101,"time_elapsed":642376,"internal_node_id":"0.0-4.0-0.45","subject_id":"6119272eab990f2cad815a38","study_id":"6197b3f67c2b5cd3b6d9596a","session_id":"619be78a3e4070aec74389df","condition":"full-information","relevant_dimensions":["antennae","legs"],"bee_group":{"antennae":"B","wings":"X","pattern":"X","legs":"F"},"action":"avoid","summary":"good-avoid","bonus":0.740000000000001},{"rt":881,"stimulus":"\n                    <p><b>Action: <em>avoid</em></b></p>\n                    <p>This is the bee that you just saw.</p>\n                    <img src=\"bees-with-color/bee-B1SF.svg\" width=\"200\">\n                    <p><span class=\"greenText\">Good choice!</span>  This bee would have stung you.<br>Your bonus pay is unchanged, and remains at $0.74.</p>\n            ","response":0,"trial_type":"html-button-response","trial_index":102,"time_elapsed":643257,"internal_node_id":"0.0-4.0-1.45","subject_id":"6119272eab990f2cad815a38","study_id":"6197b3f67c2b5cd3b6d9596a","session_id":"619be78a3e4070aec74389df","condition":"full-information","relevant_dimensions":["antennae","legs"],"bee_group":{"antennae":"B","wings":"X","pattern":"X","legs":"F"},"bonus":0.740000000000001},{"rt":20617,"stimulus":"bees-with-color/bee-A1DF.svg","response":1,"trial_type":"image-button-response","trial_index":103,"time_elapsed":663875,"internal_node_id":"0.0-4.0-0.46","subject_id":"6119272eab990f2cad815a38","study_id":"6197b3f67c2b5cd3b6d9596a","session_id":"619be78a3e4070aec74389df","condition":"full-information","relevant_dimensions":["antennae","legs"],"bee_group":{"antennae":"B","wings":"X","pattern":"X","legs":"F"},"action":"avoid","summary":"bad-avoid","bonus":0.740000000000001},{"rt":761.5,"stimulus":"\n                    <p><b>Action: <em>avoid</em></b></p>\n                    <p>This is the bee that you just saw.</p>\n                    <img src=\"bees-with-color/bee-A1DF.svg\" width=\"200\">\n                    <p><span class=\"redText\">Bad choice,</span> the bee was friendly.<br>Your bonus pay is unchanged, and remains at $0.74.</p>\n            ","response":0,"trial_type":"html-button-response","trial_index":104,"time_elapsed":664637,"internal_node_id":"0.0-4.0-1.46","subject_id":"6119272eab990f2cad815a38","study_id":"6197b3f67c2b5cd3b6d9596a","session_id":"619be78a3e4070aec74389df","condition":"full-information","relevant_dimensions":["antennae","legs"],"bee_group":{"antennae":"B","wings":"X","pattern":"X","legs":"F"},"bonus":0.740000000000001},{"rt":990.6999999880791,"stimulus":"bees-with-color/bee-A2DF.svg","response":1,"trial_type":"image-button-response","trial_index":105,"time_elapsed":665629,"internal_node_id":"0.0-4.0-0.47","subject_id":"6119272eab990f2cad815a38","study_id":"6197b3f67c2b5cd3b6d9596a","session_id":"619be78a3e4070aec74389df","condition":"full-information","relevant_dimensions":["antennae","legs"],"bee_group":{"antennae":"B","wings":"X","pattern":"X","legs":"F"},"action":"avoid","summary":"bad-avoid","bonus":0.740000000000001},{"rt":562.1999999880791,"stimulus":"\n                    <p><b>Action: <em>avoid</em></b></p>\n                    <p>This is the bee that you just saw.</p>\n                    <img src=\"bees-with-color/bee-A2DF.svg\" width=\"200\">\n                    <p><span class=\"redText\">Bad choice,</span> the bee was friendly.<br>Your bonus pay is unchanged, and remains at $0.74.</p>\n            ","response":0,"trial_type":"html-button-response","trial_index":106,"time_elapsed":666192,"internal_node_id":"0.0-4.0-1.47","subject_id":"6119272eab990f2cad815a38","study_id":"6197b3f67c2b5cd3b6d9596a","session_id":"619be78a3e4070aec74389df","condition":"full-information","relevant_dimensions":["antennae","legs"],"bee_group":{"antennae":"B","wings":"X","pattern":"X","legs":"F"},"bonus":0.740000000000001},{"rt":958.3000000119209,"stimulus":"bees-with-color/bee-B1DF.svg","response":1,"trial_type":"image-button-response","trial_index":107,"time_elapsed":667151,"internal_node_id":"0.0-4.0-0.48","subject_id":"6119272eab990f2cad815a38","study_id":"6197b3f67c2b5cd3b6d9596a","session_id":"619be78a3e4070aec74389df","condition":"full-information","relevant_dimensions":["antennae","legs"],"bee_group":{"antennae":"B","wings":"X","pattern":"X","legs":"F"},"action":"avoid","summary":"good-avoid","bonus":0.740000000000001},{"rt":1068.1000000238419,"stimulus":"\n                    <p><b>Action: <em>avoid</em></b></p>\n                    <p>This is the bee that you just saw.</p>\n                    <img src=\"bees-with-color/bee-B1DF.svg\" width=\"200\">\n                    <p><span class=\"greenText\">Good choice!</span>  This bee would have stung you.<br>Your bonus pay is unchanged, and remains at $0.74.</p>\n            ","response":0,"trial_type":"html-button-response","trial_index":108,"time_elapsed":668220,"internal_node_id":"0.0-4.0-1.48","subject_id":"6119272eab990f2cad815a38","study_id":"6197b3f67c2b5cd3b6d9596a","session_id":"619be78a3e4070aec74389df","condition":"full-information","relevant_dimensions":["antennae","legs"],"bee_group":{"antennae":"B","wings":"X","pattern":"X","legs":"F"},"bonus":0.740000000000001},{"rt":694.3000000119209,"stimulus":"bees-with-color/bee-A2SM.svg","response":0,"trial_type":"image-button-response","trial_index":109,"time_elapsed":668915,"internal_node_id":"0.0-4.0-0.49","subject_id":"6119272eab990f2cad815a38","study_id":"6197b3f67c2b5cd3b6d9596a","session_id":"619be78a3e4070aec74389df","condition":"full-information","relevant_dimensions":["antennae","legs"],"bee_group":{"antennae":"B","wings":"X","pattern":"X","legs":"F"},"action":"harvest","summary":"good-harvest","bonus":0.740000000000001},{"rt":727.0999999940395,"stimulus":"\n                    <p><b>Action: <em>harvest</em></b></p>\n                    <p>This is the bee that you just saw.</p>\n                    <img src=\"bees-with-color/bee-A2SM.svg\" width=\"200\">\n                    <p><span class=\"greenText\"><b>Successful harvest!</b></span><br>Your pay has increased by $0.02. Your bonus pay is now $0.76.</p>\n            ","response":0,"trial_type":"html-button-response","trial_index":110,"time_elapsed":669643,"internal_node_id":"0.0-4.0-1.49","subject_id":"6119272eab990f2cad815a38","study_id":"6197b3f67c2b5cd3b6d9596a","session_id":"619be78a3e4070aec74389df","condition":"full-information","relevant_dimensions":["antennae","legs"],"bee_group":{"antennae":"B","wings":"X","pattern":"X","legs":"F"},"bonus":0.740000000000001},{"rt":519.5,"stimulus":"bees-with-color/bee-A2SF.svg","response":0,"trial_type":"image-button-response","trial_index":111,"time_elapsed":670163,"internal_node_id":"0.0-4.0-0.50","subject_id":"6119272eab990f2cad815a38","study_id":"6197b3f67c2b5cd3b6d9596a","session_id":"619be78a3e4070aec74389df","condition":"full-information","relevant_dimensions":["antennae","legs"],"bee_group":{"antennae":"B","wings":"X","pattern":"X","legs":"F"},"action":"harvest","summary":"good-harvest","bonus":0.740000000000001},{"rt":584.2000000178814,"stimulus":"\n                    <p><b>Action: <em>harvest</em></b></p>\n                    <p>This is the bee that you just saw.</p>\n                    <img src=\"bees-with-color/bee-A2SF.svg\" width=\"200\">\n                    <p><span class=\"greenText\"><b>Successful harvest!</b></span><br>Your pay has increased by $0.02. Your bonus pay is now $0.78.</p>\n            ","response":0,"trial_type":"html-button-response","trial_index":112,"time_elapsed":670748,"internal_node_id":"0.0-4.0-1.50","subject_id":"6119272eab990f2cad815a38","study_id":"6197b3f67c2b5cd3b6d9596a","session_id":"619be78a3e4070aec74389df","condition":"full-information","relevant_dimensions":["antennae","legs"],"bee_group":{"antennae":"B","wings":"X","pattern":"X","legs":"F"},"bonus":0.740000000000001},{"rt":1211.2000000178814,"stimulus":"bees-with-color/bee-B1SF.svg","response":1,"trial_type":"image-button-response","trial_index":113,"time_elapsed":671960,"internal_node_id":"0.0-4.0-0.51","subject_id":"6119272eab990f2cad815a38","study_id":"6197b3f67c2b5cd3b6d9596a","session_id":"619be78a3e4070aec74389df","condition":"full-information","relevant_dimensions":["antennae","legs"],"bee_group":{"antennae":"B","wings":"X","pattern":"X","legs":"F"},"action":"avoid","summary":"good-avoid","bonus":0.740000000000001},{"rt":804.0999999940395,"stimulus":"\n                    <p><b>Action: <em>avoid</em></b></p>\n                    <p>This is the bee that you just saw.</p>\n                    <img src=\"bees-with-color/bee-B1SF.svg\" width=\"200\">\n                    <p><span class=\"greenText\">Good choice!</span>  This bee would have stung you.<br>Your bonus pay is unchanged, and remains at $0.78.</p>\n            ","response":0,"trial_type":"html-button-response","trial_index":114,"time_elapsed":672765,"internal_node_id":"0.0-4.0-1.51","subject_id":"6119272eab990f2cad815a38","study_id":"6197b3f67c2b5cd3b6d9596a","session_id":"619be78a3e4070aec74389df","condition":"full-information","relevant_dimensions":["antennae","legs"],"bee_group":{"antennae":"B","wings":"X","pattern":"X","legs":"F"},"bonus":0.740000000000001},{"rt":694.0999999940395,"stimulus":"bees-with-color/bee-B2SM.svg","response":0,"trial_type":"image-button-response","trial_index":115,"time_elapsed":673460,"internal_node_id":"0.0-4.0-0.52","subject_id":"6119272eab990f2cad815a38","study_id":"6197b3f67c2b5cd3b6d9596a","session_id":"619be78a3e4070aec74389df","condition":"full-information","relevant_dimensions":["antennae","legs"],"bee_group":{"antennae":"B","wings":"X","pattern":"X","legs":"F"},"action":"harvest","summary":"good-harvest","bonus":0.740000000000001},{"rt":540.3000000119209,"stimulus":"\n                    <p><b>Action: <em>harvest</em></b></p>\n                    <p>This is the bee that you just saw.</p>\n                    <img src=\"bees-with-color/bee-B2SM.svg\" width=\"200\">\n                    <p><span class=\"greenText\"><b>Successful harvest!</b></span><br>Your pay has increased by $0.02. Your bonus pay is now $0.80.</p>\n            ","response":0,"trial_type":"html-button-response","trial_index":116,"time_elapsed":674001,"internal_node_id":"0.0-4.0-1.52","subject_id":"6119272eab990f2cad815a38","study_id":"6197b3f67c2b5cd3b6d9596a","session_id":"619be78a3e4070aec74389df","condition":"full-information","relevant_dimensions":["antennae","legs"],"bee_group":{"antennae":"B","wings":"X","pattern":"X","legs":"F"},"bonus":0.740000000000001},{"rt":760.5,"stimulus":"bees-with-color/bee-A1DM.svg","response":0,"trial_type":"image-button-response","trial_index":117,"time_elapsed":674762,"internal_node_id":"0.0-4.0-0.53","subject_id":"6119272eab990f2cad815a38","study_id":"6197b3f67c2b5cd3b6d9596a","session_id":"619be78a3e4070aec74389df","condition":"full-information","relevant_dimensions":["antennae","legs"],"bee_group":{"antennae":"B","wings":"X","pattern":"X","legs":"F"},"action":"harvest","summary":"good-harvest","bonus":0.740000000000001},{"rt":737.9000000059605,"stimulus":"\n                    <p><b>Action: <em>harvest</em></b></p>\n                    <p>This is the bee that you just saw.</p>\n                    <img src=\"bees-with-color/bee-A1DM.svg\" width=\"200\">\n                    <p><span class=\"greenText\"><b>Successful harvest!</b></span><br>Your pay has increased by $0.02. Your bonus pay is now $0.82.</p>\n            ","response":0,"trial_type":"html-button-response","trial_index":118,"time_elapsed":675501,"internal_node_id":"0.0-4.0-1.53","subject_id":"6119272eab990f2cad815a38","study_id":"6197b3f67c2b5cd3b6d9596a","session_id":"619be78a3e4070aec74389df","condition":"full-information","relevant_dimensions":["antennae","legs"],"bee_group":{"antennae":"B","wings":"X","pattern":"X","legs":"F"},"bonus":0.740000000000001},{"rt":1046.0999999940395,"stimulus":"bees-with-color/bee-B1SM.svg","response":0,"trial_type":"image-button-response","trial_index":119,"time_elapsed":676548,"internal_node_id":"0.0-4.0-0.54","subject_id":"6119272eab990f2cad815a38","study_id":"6197b3f67c2b5cd3b6d9596a","session_id":"619be78a3e4070aec74389df","condition":"full-information","relevant_dimensions":["antennae","legs"],"bee_group":{"antennae":"B","wings":"X","pattern":"X","legs":"F"},"action":"harvest","summary":"good-harvest","bonus":0.740000000000001},{"rt":628.4000000059605,"stimulus":"\n                    <p><b>Action: <em>harvest</em></b></p>\n                    <p>This is the bee that you just saw.</p>\n                    <img src=\"bees-with-color/bee-B1SM.svg\" width=\"200\">\n                    <p><span class=\"greenText\"><b>Successful harvest!</b></span><br>Your pay has increased by $0.02. Your bonus pay is now $0.84.</p>\n            ","response":0,"trial_type":"html-button-response","trial_index":120,"time_elapsed":677177,"internal_node_id":"0.0-4.0-1.54","subject_id":"6119272eab990f2cad815a38","study_id":"6197b3f67c2b5cd3b6d9596a","session_id":"619be78a3e4070aec74389df","condition":"full-information","relevant_dimensions":["antennae","legs"],"bee_group":{"antennae":"B","wings":"X","pattern":"X","legs":"F"},"bonus":0.740000000000001},{"rt":903.6000000238419,"stimulus":"bees-with-color/bee-A2DF.svg","response":1,"trial_type":"image-button-response","trial_index":121,"time_elapsed":678081,"internal_node_id":"0.0-4.0-0.55","subject_id":"6119272eab990f2cad815a38","study_id":"6197b3f67c2b5cd3b6d9596a","session_id":"619be78a3e4070aec74389df","condition":"full-information","relevant_dimensions":["antennae","legs"],"bee_group":{"antennae":"B","wings":"X","pattern":"X","legs":"F"},"action":"avoid","summary":"bad-avoid","bonus":0.740000000000001},{"rt":540.5999999940395,"stimulus":"\n                    <p><b>Action: <em>avoid</em></b></p>\n                    <p>This is the bee that you just saw.</p>\n                    <img src=\"bees-with-color/bee-A2DF.svg\" width=\"200\">\n                    <p><span class=\"redText\">Bad choice,</span> the bee was friendly.<br>Your bonus pay is unchanged, and remains at $0.84.</p>\n            ","response":0,"trial_type":"html-button-response","trial_index":122,"time_elapsed":678623,"internal_node_id":"0.0-4.0-1.55","subject_id":"6119272eab990f2cad815a38","study_id":"6197b3f67c2b5cd3b6d9596a","session_id":"619be78a3e4070aec74389df","condition":"full-information","relevant_dimensions":["antennae","legs"],"bee_group":{"antennae":"B","wings":"X","pattern":"X","legs":"F"},"bonus":0.740000000000001},{"rt":1025.699999988079,"stimulus":"bees-with-color/bee-A1DF.svg","response":1,"trial_type":"image-button-response","trial_index":123,"time_elapsed":679649,"internal_node_id":"0.0-4.0-0.56","subject_id":"6119272eab990f2cad815a38","study_id":"6197b3f67c2b5cd3b6d9596a","session_id":"619be78a3e4070aec74389df","condition":"full-information","relevant_dimensions":["antennae","legs"],"bee_group":{"antennae":"B","wings":"X","pattern":"X","legs":"F"},"action":"avoid","summary":"bad-avoid","bonus":0.740000000000001},{"rt":517.5999999940395,"stimulus":"\n                    <p><b>Action: <em>avoid</em></b></p>\n                    <p>This is the bee that you just saw.</p>\n                    <img src=\"bees-with-color/bee-A1DF.svg\" width=\"200\">\n                    <p><span class=\"redText\">Bad choice,</span> the bee was friendly.<br>Your bonus pay is unchanged, and remains at $0.84.</p>\n            ","response":0,"trial_type":"html-button-response","trial_index":124,"time_elapsed":680168,"internal_node_id":"0.0-4.0-1.56","subject_id":"6119272eab990f2cad815a38","study_id":"6197b3f67c2b5cd3b6d9596a","session_id":"619be78a3e4070aec74389df","condition":"full-information","relevant_dimensions":["antennae","legs"],"bee_group":{"antennae":"B","wings":"X","pattern":"X","legs":"F"},"bonus":0.740000000000001},{"rt":684.5999999940395,"stimulus":"bees-with-color/bee-B1DM.svg","response":0,"trial_type":"image-button-response","trial_index":125,"time_elapsed":680853,"internal_node_id":"0.0-4.0-0.57","subject_id":"6119272eab990f2cad815a38","study_id":"6197b3f67c2b5cd3b6d9596a","session_id":"619be78a3e4070aec74389df","condition":"full-information","relevant_dimensions":["antennae","legs"],"bee_group":{"antennae":"B","wings":"X","pattern":"X","legs":"F"},"action":"harvest","summary":"good-harvest","bonus":0.740000000000001},{"rt":540,"stimulus":"\n                    <p><b>Action: <em>harvest</em></b></p>\n                    <p>This is the bee that you just saw.</p>\n                    <img src=\"bees-with-color/bee-B1DM.svg\" width=\"200\">\n                    <p><span class=\"greenText\"><b>Successful harvest!</b></span><br>Your pay has increased by $0.02. Your bonus pay is now $0.86.</p>\n            ","response":0,"trial_type":"html-button-response","trial_index":126,"time_elapsed":681394,"internal_node_id":"0.0-4.0-1.57","subject_id":"6119272eab990f2cad815a38","study_id":"6197b3f67c2b5cd3b6d9596a","session_id":"619be78a3e4070aec74389df","condition":"full-information","relevant_dimensions":["antennae","legs"],"bee_group":{"antennae":"B","wings":"X","pattern":"X","legs":"F"},"bonus":0.740000000000001},{"rt":783.9000000059605,"stimulus":"bees-with-color/bee-A1SM.svg","response":0,"trial_type":"image-button-response","trial_index":127,"time_elapsed":682178,"internal_node_id":"0.0-4.0-0.58","subject_id":"6119272eab990f2cad815a38","study_id":"6197b3f67c2b5cd3b6d9596a","session_id":"619be78a3e4070aec74389df","condition":"full-information","relevant_dimensions":["antennae","legs"],"bee_group":{"antennae":"B","wings":"X","pattern":"X","legs":"F"},"action":"harvest","summary":"good-harvest","bonus":0.740000000000001},{"rt":617.6000000238419,"stimulus":"\n                    <p><b>Action: <em>harvest</em></b></p>\n                    <p>This is the bee that you just saw.</p>\n                    <img src=\"bees-with-color/bee-A1SM.svg\" width=\"200\">\n                    <p><span class=\"greenText\"><b>Successful harvest!</b></span><br>Your pay has increased by $0.02. Your bonus pay is now $0.88.</p>\n            ","response":0,"trial_type":"html-button-response","trial_index":128,"time_elapsed":682797,"internal_node_id":"0.0-4.0-1.58","subject_id":"6119272eab990f2cad815a38","study_id":"6197b3f67c2b5cd3b6d9596a","session_id":"619be78a3e4070aec74389df","condition":"full-information","relevant_dimensions":["antennae","legs"],"bee_group":{"antennae":"B","wings":"X","pattern":"X","legs":"F"},"bonus":0.740000000000001},{"rt":794.7000000178814,"stimulus":"bees-with-color/bee-B2DM.svg","response":0,"trial_type":"image-button-response","trial_index":129,"time_elapsed":683592,"internal_node_id":"0.0-4.0-0.59","subject_id":"6119272eab990f2cad815a38","study_id":"6197b3f67c2b5cd3b6d9596a","session_id":"619be78a3e4070aec74389df","condition":"full-information","relevant_dimensions":["antennae","legs"],"bee_group":{"antennae":"B","wings":"X","pattern":"X","legs":"F"},"action":"harvest","summary":"good-harvest","bonus":0.740000000000001},{"rt":726.9000000059605,"stimulus":"\n                    <p><b>Action: <em>harvest</em></b></p>\n                    <p>This is the bee that you just saw.</p>\n                    <img src=\"bees-with-color/bee-B2DM.svg\" width=\"200\">\n                    <p><span class=\"greenText\"><b>Successful harvest!</b></span><br>Your pay has increased by $0.02. Your bonus pay is now $0.90.</p>\n            ","response":0,"trial_type":"html-button-response","trial_index":130,"time_elapsed":684320,"internal_node_id":"0.0-4.0-1.59","subject_id":"6119272eab990f2cad815a38","study_id":"6197b3f67c2b5cd3b6d9596a","session_id":"619be78a3e4070aec74389df","condition":"full-information","relevant_dimensions":["antennae","legs"],"bee_group":{"antennae":"B","wings":"X","pattern":"X","legs":"F"},"bonus":0.740000000000001},{"rt":1662,"stimulus":"bees-with-color/bee-B2SF.svg","response":1,"trial_type":"image-button-response","trial_index":131,"time_elapsed":685983,"internal_node_id":"0.0-4.0-0.60","subject_id":"6119272eab990f2cad815a38","study_id":"6197b3f67c2b5cd3b6d9596a","session_id":"619be78a3e4070aec74389df","condition":"full-information","relevant_dimensions":["antennae","legs"],"bee_group":{"antennae":"B","wings":"X","pattern":"X","legs":"F"},"action":"avoid","summary":"good-avoid","bonus":0.740000000000001},{"rt":947.0999999940395,"stimulus":"\n                    <p><b>Action: <em>avoid</em></b></p>\n                    <p>This is the bee that you just saw.</p>\n                    <img src=\"bees-with-color/bee-B2SF.svg\" width=\"200\">\n                    <p><span class=\"greenText\">Good choice!</span>  This bee would have stung you.<br>Your bonus pay is unchanged, and remains at $0.90.</p>\n            ","response":0,"trial_type":"html-button-response","trial_index":132,"time_elapsed":686931,"internal_node_id":"0.0-4.0-1.60","subject_id":"6119272eab990f2cad815a38","study_id":"6197b3f67c2b5cd3b6d9596a","session_id":"619be78a3e4070aec74389df","condition":"full-information","relevant_dimensions":["antennae","legs"],"bee_group":{"antennae":"B","wings":"X","pattern":"X","legs":"F"},"bonus":0.740000000000001},{"rt":1122.5999999940395,"stimulus":"bees-with-color/bee-B2DF.svg","response":1,"trial_type":"image-button-response","trial_index":133,"time_elapsed":688055,"internal_node_id":"0.0-4.0-0.61","subject_id":"6119272eab990f2cad815a38","study_id":"6197b3f67c2b5cd3b6d9596a","session_id":"619be78a3e4070aec74389df","condition":"full-information","relevant_dimensions":["antennae","legs"],"bee_group":{"antennae":"B","wings":"X","pattern":"X","legs":"F"},"action":"avoid","summary":"good-avoid","bonus":0.740000000000001},{"rt":552.3000000119209,"stimulus":"\n                    <p><b>Action: <em>avoid</em></b></p>\n                    <p>This is the bee that you just saw.</p>\n                    <img src=\"bees-with-color/bee-B2DF.svg\" width=\"200\">\n                    <p><span class=\"greenText\">Good choice!</span>  This bee would have stung you.<br>Your bonus pay is unchanged, and remains at $0.90.</p>\n            ","response":0,"trial_type":"html-button-response","trial_index":134,"time_elapsed":688608,"internal_node_id":"0.0-4.0-1.61","subject_id":"6119272eab990f2cad815a38","study_id":"6197b3f67c2b5cd3b6d9596a","session_id":"619be78a3e4070aec74389df","condition":"full-information","relevant_dimensions":["antennae","legs"],"bee_group":{"antennae":"B","wings":"X","pattern":"X","legs":"F"},"bonus":0.740000000000001},{"rt":727.5,"stimulus":"bees-with-color/bee-A2DM.svg","response":1,"trial_type":"image-button-response","trial_index":135,"time_elapsed":689336,"internal_node_id":"0.0-4.0-0.62","subject_id":"6119272eab990f2cad815a38","study_id":"6197b3f67c2b5cd3b6d9596a","session_id":"619be78a3e4070aec74389df","condition":"full-information","relevant_dimensions":["antennae","legs"],"bee_group":{"antennae":"B","wings":"X","pattern":"X","legs":"F"},"action":"avoid","summary":"bad-avoid","bonus":0.740000000000001},{"rt":573.2000000178814,"stimulus":"\n                    <p><b>Action: <em>avoid</em></b></p>\n                    <p>This is the bee that you just saw.</p>\n                    <img src=\"bees-with-color/bee-A2DM.svg\" width=\"200\">\n                    <p><span class=\"redText\">Bad choice,</span> the bee was friendly.<br>Your bonus pay is unchanged, and remains at $0.90.</p>\n            ","response":0,"trial_type":"html-button-response","trial_index":136,"time_elapsed":689910,"internal_node_id":"0.0-4.0-1.62","subject_id":"6119272eab990f2cad815a38","study_id":"6197b3f67c2b5cd3b6d9596a","session_id":"619be78a3e4070aec74389df","condition":"full-information","relevant_dimensions":["antennae","legs"],"bee_group":{"antennae":"B","wings":"X","pattern":"X","legs":"F"},"bonus":0.740000000000001},{"rt":749.5999999940395,"stimulus":"bees-with-color/bee-A1SF.svg","response":1,"trial_type":"image-button-response","trial_index":137,"time_elapsed":690660,"internal_node_id":"0.0-4.0-0.63","subject_id":"6119272eab990f2cad815a38","study_id":"6197b3f67c2b5cd3b6d9596a","session_id":"619be78a3e4070aec74389df","condition":"full-information","relevant_dimensions":["antennae","legs"],"bee_group":{"antennae":"B","wings":"X","pattern":"X","legs":"F"},"action":"avoid","summary":"bad-avoid","bonus":0.740000000000001},{"rt":508.09999999403954,"stimulus":"\n                    <p><b>Action: <em>avoid</em></b></p>\n                    <p>This is the bee that you just saw.</p>\n                    <img src=\"bees-with-color/bee-A1SF.svg\" width=\"200\">\n                    <p><span class=\"redText\">Bad choice,</span> the bee was friendly.<br>Your bonus pay is unchanged, and remains at $0.90.</p>\n            ","response":0,"trial_type":"html-button-response","trial_index":138,"time_elapsed":691169,"internal_node_id":"0.0-4.0-1.63","subject_id":"6119272eab990f2cad815a38","study_id":"6197b3f67c2b5cd3b6d9596a","session_id":"619be78a3e4070aec74389df","condition":"full-information","relevant_dimensions":["antennae","legs"],"bee_group":{"antennae":"B","wings":"X","pattern":"X","legs":"F"},"bonus":0.740000000000001},{"rt":8545.300000011921,"stimulus":"You have completed the first part of this experiment.<br><br>You will now begin a shorter second part, in which you will receive no feedback.<br>The same rules regarding bonus pay apply.<br><br>Press any key to begin.","response":"k","trial_type":"html-keyboard-response","trial_index":139,"time_elapsed":699715,"internal_node_id":"0.0-5.0","subject_id":"6119272eab990f2cad815a38","study_id":"6197b3f67c2b5cd3b6d9596a","session_id":"619be78a3e4070aec74389df","condition":"full-information","relevant_dimensions":["antennae","legs"],"bee_group":{"antennae":"B","wings":"X","pattern":"X","legs":"F"},"bonus":0.740000000000001},{"rt":4862.0999999940395,"stimulus":"bees-with-color/bee-A1SF.svg","response":0,"trial_type":"image-button-response","trial_index":140,"time_elapsed":704582,"internal_node_id":"0.0-6.0-0.0","subject_id":"6119272eab990f2cad815a38","study_id":"6197b3f67c2b5cd3b6d9596a","session_id":"619be78a3e4070aec74389df","condition":"full-information","relevant_dimensions":["antennae","legs"],"bee_group":{"antennae":"B","wings":"X","pattern":"X","legs":"F"},"bonus":0.740000000000001},{"rt":814.6999999880791,"stimulus":"bees-with-color/bee-A2SF.svg","response":0,"trial_type":"image-button-response","trial_index":141,"time_elapsed":705398,"internal_node_id":"0.0-6.0-0.1","subject_id":"6119272eab990f2cad815a38","study_id":"6197b3f67c2b5cd3b6d9596a","session_id":"619be78a3e4070aec74389df","condition":"full-information","relevant_dimensions":["antennae","legs"],"bee_group":{"antennae":"B","wings":"X","pattern":"X","legs":"F"},"bonus":0.740000000000001},{"rt":892.0999999940395,"stimulus":"bees-with-color/bee-B2DF.svg","response":0,"trial_type":"image-button-response","trial_index":142,"time_elapsed":706291,"internal_node_id":"0.0-6.0-0.2","subject_id":"6119272eab990f2cad815a38","study_id":"6197b3f67c2b5cd3b6d9596a","session_id":"619be78a3e4070aec74389df","condition":"full-information","relevant_dimensions":["antennae","legs"],"bee_group":{"antennae":"B","wings":"X","pattern":"X","legs":"F"},"bonus":0.740000000000001},{"rt":737.5999999940395,"stimulus":"bees-with-color/bee-B2SF.svg","response":1,"trial_type":"image-button-response","trial_index":143,"time_elapsed":707030,"internal_node_id":"0.0-6.0-0.3","subject_id":"6119272eab990f2cad815a38","study_id":"6197b3f67c2b5cd3b6d9596a","session_id":"619be78a3e4070aec74389df","condition":"full-information","relevant_dimensions":["antennae","legs"],"bee_group":{"antennae":"B","wings":"X","pattern":"X","legs":"F"},"bonus":0.740000000000001},{"rt":825.9000000059605,"stimulus":"bees-with-color/bee-A1SM.svg","response":0,"trial_type":"image-button-response","trial_index":144,"time_elapsed":707857,"internal_node_id":"0.0-6.0-0.4","subject_id":"6119272eab990f2cad815a38","study_id":"6197b3f67c2b5cd3b6d9596a","session_id":"619be78a3e4070aec74389df","condition":"full-information","relevant_dimensions":["antennae","legs"],"bee_group":{"antennae":"B","wings":"X","pattern":"X","legs":"F"},"bonus":0.740000000000001},{"rt":650.1999999880791,"stimulus":"bees-with-color/bee-B2SM.svg","response":0,"trial_type":"image-button-response","trial_index":145,"time_elapsed":708508,"internal_node_id":"0.0-6.0-0.5","subject_id":"6119272eab990f2cad815a38","study_id":"6197b3f67c2b5cd3b6d9596a","session_id":"619be78a3e4070aec74389df","condition":"full-information","relevant_dimensions":["antennae","legs"],"bee_group":{"antennae":"B","wings":"X","pattern":"X","legs":"F"},"bonus":0.740000000000001},{"rt":946.5,"stimulus":"bees-with-color/bee-A2DF.svg","response":1,"trial_type":"image-button-response","trial_index":146,"time_elapsed":709456,"internal_node_id":"0.0-6.0-0.6","subject_id":"6119272eab990f2cad815a38","study_id":"6197b3f67c2b5cd3b6d9596a","session_id":"619be78a3e4070aec74389df","condition":"full-information","relevant_dimensions":["antennae","legs"],"bee_group":{"antennae":"B","wings":"X","pattern":"X","legs":"F"},"bonus":0.740000000000001},{"rt":2994.199999988079,"stimulus":"bees-with-color/bee-B1SM.svg","response":0,"trial_type":"image-button-response","trial_index":147,"time_elapsed":712451,"internal_node_id":"0.0-6.0-0.7","subject_id":"6119272eab990f2cad815a38","study_id":"6197b3f67c2b5cd3b6d9596a","session_id":"619be78a3e4070aec74389df","condition":"full-information","relevant_dimensions":["antennae","legs"],"bee_group":{"antennae":"B","wings":"X","pattern":"X","legs":"F"},"bonus":0.740000000000001},{"rt":617.2999999821186,"stimulus":"bees-with-color/bee-A2SM.svg","response":0,"trial_type":"image-button-response","trial_index":148,"time_elapsed":713070,"internal_node_id":"0.0-6.0-0.8","subject_id":"6119272eab990f2cad815a38","study_id":"6197b3f67c2b5cd3b6d9596a","session_id":"619be78a3e4070aec74389df","condition":"full-information","relevant_dimensions":["antennae","legs"],"bee_group":{"antennae":"B","wings":"X","pattern":"X","legs":"F"},"bonus":0.740000000000001},{"rt":847.9000000059605,"stimulus":"bees-with-color/bee-A1DM.svg","response":1,"trial_type":"image-button-response","trial_index":149,"time_elapsed":713919,"internal_node_id":"0.0-6.0-0.9","subject_id":"6119272eab990f2cad815a38","study_id":"6197b3f67c2b5cd3b6d9596a","session_id":"619be78a3e4070aec74389df","condition":"full-information","relevant_dimensions":["antennae","legs"],"bee_group":{"antennae":"B","wings":"X","pattern":"X","legs":"F"},"bonus":0.740000000000001},{"rt":826.4000000059605,"stimulus":"bees-with-color/bee-B1DF.svg","response":0,"trial_type":"image-button-response","trial_index":150,"time_elapsed":714746,"internal_node_id":"0.0-6.0-0.10","subject_id":"6119272eab990f2cad815a38","study_id":"6197b3f67c2b5cd3b6d9596a","session_id":"619be78a3e4070aec74389df","condition":"full-information","relevant_dimensions":["antennae","legs"],"bee_group":{"antennae":"B","wings":"X","pattern":"X","legs":"F"},"bonus":0.740000000000001},{"rt":693.3000000119209,"stimulus":"bees-with-color/bee-B1SF.svg","response":1,"trial_type":"image-button-response","trial_index":151,"time_elapsed":715441,"internal_node_id":"0.0-6.0-0.11","subject_id":"6119272eab990f2cad815a38","study_id":"6197b3f67c2b5cd3b6d9596a","session_id":"619be78a3e4070aec74389df","condition":"full-information","relevant_dimensions":["antennae","legs"],"bee_group":{"antennae":"B","wings":"X","pattern":"X","legs":"F"},"bonus":0.740000000000001},{"rt":761.2999999821186,"stimulus":"bees-with-color/bee-B2DM.svg","response":0,"trial_type":"image-button-response","trial_index":152,"time_elapsed":716203,"internal_node_id":"0.0-6.0-0.12","subject_id":"6119272eab990f2cad815a38","study_id":"6197b3f67c2b5cd3b6d9596a","session_id":"619be78a3e4070aec74389df","condition":"full-information","relevant_dimensions":["antennae","legs"],"bee_group":{"antennae":"B","wings":"X","pattern":"X","legs":"F"},"bonus":0.740000000000001},{"rt":1453.5999999940395,"stimulus":"bees-with-color/bee-A2DM.svg","response":0,"trial_type":"image-button-response","trial_index":153,"time_elapsed":717658,"internal_node_id":"0.0-6.0-0.13","subject_id":"6119272eab990f2cad815a38","study_id":"6197b3f67c2b5cd3b6d9596a","session_id":"619be78a3e4070aec74389df","condition":"full-information","relevant_dimensions":["antennae","legs"],"bee_group":{"antennae":"B","wings":"X","pattern":"X","legs":"F"},"bonus":0.740000000000001},{"rt":1123,"stimulus":"bees-with-color/bee-A1DF.svg","response":1,"trial_type":"image-button-response","trial_index":154,"time_elapsed":718782,"internal_node_id":"0.0-6.0-0.14","subject_id":"6119272eab990f2cad815a38","study_id":"6197b3f67c2b5cd3b6d9596a","session_id":"619be78a3e4070aec74389df","condition":"full-information","relevant_dimensions":["antennae","legs"],"bee_group":{"antennae":"B","wings":"X","pattern":"X","legs":"F"},"bonus":0.740000000000001},{"rt":1256,"stimulus":"bees-with-color/bee-B1DM.svg","response":0,"trial_type":"image-button-response","trial_index":155,"time_elapsed":720039,"internal_node_id":"0.0-6.0-0.15","subject_id":"6119272eab990f2cad815a38","study_id":"6197b3f67c2b5cd3b6d9596a","session_id":"619be78a3e4070aec74389df","condition":"full-information","relevant_dimensions":["antennae","legs"],"bee_group":{"antennae":"B","wings":"X","pattern":"X","legs":"F"},"bonus":0.740000000000001},{"rt":1089.9000000059605,"stimulus":"bees-with-color/bee-A1SM.svg","response":0,"trial_type