[{"success":true,"trial_type":"fullscreen","trial_index":0,"time_elapsed":7196,"internal_node_id":"0.0-0.0","subject_id":"601941db6605160008690742","study_id":"6197b3f67c2b5cd3b6d9596a","session_id":"619be7863b3526a319543d0a","condition":"full-information","relevant_dimensions":["wings","legs"],"bee_group":{"antennae":"X","wings":"1","pattern":"X","legs":"M"},"bonus":1.2600000000000011},{"success":true,"timeout":false,"failed_images":[],"failed_audio":[],"failed_video":[],"trial_type":"preload","trial_index":1,"time_elapsed":8765,"internal_node_id":"0.0-1.0","subject_id":"601941db6605160008690742","study_id":"6197b3f67c2b5cd3b6d9596a","session_id":"619be7863b3526a319543d0a","condition":"full-information","relevant_dimensions":["wings","legs"],"bee_group":{"antennae":"X","wings":"1","pattern":"X","legs":"M"},"bonus":1.2600000000000011},{"rt":2977.7000000476837,"stimulus":"Welcome! Press any key to begin.","response":" ","trial_type":"html-keyboard-response","trial_index":2,"time_elapsed":11744,"internal_node_id":"0.0-2.0","subject_id":"601941db6605160008690742","study_id":"6197b3f67c2b5cd3b6d9596a","session_id":"619be7863b3526a319543d0a","condition":"full-information","relevant_dimensions":["wings","legs"],"bee_group":{"antennae":"X","wings":"1","pattern":"X","legs":"M"},"bonus":1.2600000000000011},{"view_history":[{"page_index":0,"viewing_time":4187},{"page_index":1,"viewing_time":16556.200000047684},{"page_index":2,"viewing_time":10140.5},{"page_index":3,"viewing_time":13968},{"page_index":4,"viewing_time":9762},{"page_index":3,"viewing_time":3281.1999999284744},{"page_index":4,"viewing_time":4263.600000023842},{"page_index":5,"viewing_time":6550.899999976158},{"page_index":6,"viewing_time":8995.899999976158},{"page_index":7,"viewing_time":15381.800000071526},{"page_index":8,"viewing_time":9956},{"page_index":9,"viewing_time":3667},{"page_index":10,"viewing_time":6562},{"page_index":11,"viewing_time":8654},{"page_index":12,"viewing_time":17519.699999928474},{"page_index":13,"viewing_time":2271.9000000953674},{"page_index":14,"viewing_time":2821.0999999046326}],"rt":144539.70000004768,"trial_type":"instructions","trial_index":3,"time_elapsed":156285,"internal_node_id":"0.0-3.0-0.0","subject_id":"601941db6605160008690742","study_id":"6197b3f67c2b5cd3b6d9596a","session_id":"619be7863b3526a319543d0a","condition":"full-information","relevant_dimensions":["wings","legs"],"bee_group":{"antennae":"X","wings":"1","pattern":"X","legs":"M"},"bonus":1.2600000000000011},{"rt":14812.5,"response":{"Q0":["Two or six legs","Stripes or spots on body","Single or double wings","Antennae or no antennae"]},"question_order":[0],"trial_type":"survey-multi-select","trial_index":4,"time_elapsed":171103,"internal_node_id":"0.0-3.0-1.0","subject_id":"601941db6605160008690742","study_id":"6197b3f67c2b5cd3b6d9596a","session_id":"619be7863b3526a319543d0a","condition":"full-information","relevant_dimensions":["wings","legs"],"bee_group":{"antennae":"X","wings":"1","pattern":"X","legs":"M"},"correct":true,"bonus":1.2600000000000011},{"rt":22214.299999952316,"response":{"Q1":"No.","Q2":"Based on the four features of the bee.","Q3":"You learn if it was friendly or dangerous, but do not alter your bonus."},"question_order":[0,1,2],"trial_type":"survey-multi-choice","trial_index":5,"time_elapsed":193320,"internal_node_id":"0.0-3.0-2.0","subject_id":"601941db6605160008690742","study_id":"6197b3f67c2b5cd3b6d9596a","session_id":"619be7863b3526a319543d0a","condition":"full-information","relevant_dimensions":["wings","legs"],"bee_group":{"antennae":"X","wings":"1","pattern":"X","legs":"M"},"correct":true,"bonus":1.2600000000000011},{"rt":4345.800000071526,"stimulus":"<p>Congrats, you got everything right<br>When you're ready, click the button below to continue to the experiment.</p>","response":0,"trial_type":"html-button-response","trial_index":6,"time_elapsed":197668,"internal_node_id":"0.0-3.0-3.0","subject_id":"601941db6605160008690742","study_id":"6197b3f67c2b5cd3b6d9596a","session_id":"619be7863b3526a319543d0a","condition":"full-information","relevant_dimensions":["wings","legs"],"bee_group":{"antennae":"X","wings":"1","pattern":"X","legs":"M"},"bonus":1.2600000000000011},{"rt":28690.799999952316,"stimulus":"bees-with-color/bee-A2DF.svg","response":0,"trial_type":"image-button-response","trial_index":7,"time_elapsed":226361,"internal_node_id":"0.0-4.0-0.0","subject_id":"601941db6605160008690742","study_id":"6197b3f67c2b5cd3b6d9596a","session_id":"619be7863b3526a319543d0a","condition":"full-information","relevant_dimensions":["wings","legs"],"bee_group":{"antennae":"X","wings":"1","pattern":"X","legs":"M"},"action":"harvest","summary":"good-harvest","bonus":1.2600000000000011},{"rt":15517.299999952316,"stimulus":"\n                    <p><b>Action: <em>harvest</em></b></p>\n                    <p>This is the bee that you just saw.</p>\n                    <img src=\"bees-with-color/bee-A2DF.svg\" width=\"200\">\n                    <p><span class=\"greenText\"><b>Successful harvest!</b></span><br>Your pay has increased by $0.02. Your bonus pay is now $0.56.</p>\n            ","response":0,"trial_type":"html-button-response","trial_index":8,"time_elapsed":241882,"internal_node_id":"0.0-4.0-1.0","subject_id":"601941db6605160008690742","study_id":"6197b3f67c2b5cd3b6d9596a","session_id":"619be7863b3526a319543d0a","condition":"full-information","relevant_dimensions":["wings","legs"],"bee_group":{"antennae":"X","wings":"1","pattern":"X","legs":"M"},"bonus":1.2600000000000011},{"rt":6174.700000047684,"stimulus":"bees-with-color/bee-B1DM.svg","response":0,"trial_type":"image-button-response","trial_index":9,"time_elapsed":248059,"internal_node_id":"0.0-4.0-0.1","subject_id":"601941db6605160008690742","study_id":"6197b3f67c2b5cd3b6d9596a","session_id":"619be7863b3526a319543d0a","condition":"full-information","relevant_dimensions":["wings","legs"],"bee_group":{"antennae":"X","wings":"1","pattern":"X","legs":"M"},"action":"harvest","summary":"bad-harvest","bonus":1.2600000000000011},{"rt":12144,"stimulus":"\n                    <p><b>Action: <em>harvest</em></b></p>\n                    <p>This is the bee that you just saw.</p>\n                    <img src=\"bees-with-color/bee-B1DM.svg\" width=\"200\">\n                    <p><span class=\"redText\">Bad choice, the bee was angry.</span><br><b>You have been stung!</b><br>Your pay has been decreased by $0.10. Your bonus pay is now $0.46.</p>\n            ","response":0,"trial_type":"html-button-response","trial_index":10,"time_elapsed":260205,"internal_node_id":"0.0-4.0-1.1","subject_id":"601941db6605160008690742","study_id":"6197b3f67c2b5cd3b6d9596a","session_id":"619be7863b3526a319543d0a","condition":"full-information","relevant_dimensions":["wings","legs"],"bee_group":{"antennae":"X","wings":"1","pattern":"X","legs":"M"},"bonus":1.2600000000000011},{"rt":6607.5,"stimulus":"bees-with-color/bee-B2DM.svg","response":0,"trial_type":"image-button-response","trial_index":11,"time_elapsed":266815,"internal_node_id":"0.0-4.0-0.2","subject_id":"601941db6605160008690742","study_id":"6197b3f67c2b5cd3b6d9596a","session_id":"619be7863b3526a319543d0a","condition":"full-information","relevant_dimensions":["wings","legs"],"bee_group":{"antennae":"X","wings":"1","pattern":"X","legs":"M"},"action":"harvest","summary":"good-harvest","bonus":1.2600000000000011},{"rt":11014.200000047684,"stimulus":"\n                    <p><b>Action: <em>harvest</em></b></p>\n                    <p>This is the bee that you just saw.</p>\n                    <img src=\"bees-with-color/bee-B2DM.svg\" width=\"200\">\n                    <p><span class=\"greenText\"><b>Successful harvest!</b></span><br>Your pay has increased by $0.02. Your bonus pay is now $0.48.</p>\n            ","response":0,"trial_type":"html-button-response","trial_index":12,"time_elapsed":277831,"internal_node_id":"0.0-4.0-1.2","subject_id":"601941db6605160008690742","study_id":"6197b3f67c2b5cd3b6d9596a","session_id":"619be7863b3526a319543d0a","condition":"full-information","relevant_dimensions":["wings","legs"],"bee_group":{"antennae":"X","wings":"1","pattern":"X","legs":"M"},"bonus":1.2600000000000011},{"rt":3134.7000000476837,"stimulus":"bees-with-color/bee-B1SM.svg","response":1,"trial_type":"image-button-response","trial_index":13,"time_elapsed":280968,"internal_node_id":"0.0-4.0-0.3","subject_id":"601941db6605160008690742","study_id":"6197b3f67c2b5cd3b6d9596a","session_id":"619be7863b3526a319543d0a","condition":"full-information","relevant_dimensions":["wings","legs"],"bee_group":{"antennae":"X","wings":"1","pattern":"X","legs":"M"},"action":"avoid","summary":"good-avoid","bonus":1.2600000000000011},{"rt":7781.100000023842,"stimulus":"\n                    <p><b>Action: <em>avoid</em></b></p>\n                    <p>This is the bee that you just saw.</p>\n                    <img src=\"bees-with-color/bee-B1SM.svg\" width=\"200\">\n                    <p><span class=\"greenText\">Good choice!</span>  This bee would have stung you.<br>Your bonus pay is unchanged, and remains at $0.48.</p>\n            ","response":0,"trial_type":"html-button-response","trial_index":14,"time_elapsed":288751,"internal_node_id":"0.0-4.0-1.3","subject_id":"601941db6605160008690742","study_id":"6197b3f67c2b5cd3b6d9596a","session_id":"619be7863b3526a319543d0a","condition":"full-information","relevant_dimensions":["wings","legs"],"bee_group":{"antennae":"X","wings":"1","pattern":"X","legs":"M"},"bonus":1.2600000000000011},{"rt":4589.800000071526,"stimulus":"bees-with-color/bee-B1DF.svg","response":1,"trial_type":"image-button-response","trial_index":15,"time_elapsed":293342,"internal_node_id":"0.0-4.0-0.4","subject_id":"601941db6605160008690742","study_id":"6197b3f67c2b5cd3b6d9596a","session_id":"619be7863b3526a319543d0a","condition":"full-information","relevant_dimensions":["wings","legs"],"bee_group":{"antennae":"X","wings":"1","pattern":"X","legs":"M"},"action":"avoid","summary":"bad-avoid","bonus":1.2600000000000011},{"rt":6837.699999928474,"stimulus":"\n                    <p><b>Action: <em>avoid</em></b></p>\n                    <p>This is the bee that you just saw.</p>\n                    <img src=\"bees-with-color/bee-B1DF.svg\" width=\"200\">\n                    <p><span class=\"redText\">Bad choice,</span> the bee was friendly.<br>Your bonus pay is unchanged, and remains at $0.48.</p>\n            ","response":0,"trial_type":"html-button-response","trial_index":16,"time_elapsed":300181,"internal_node_id":"0.0-4.0-1.4","subject_id":"601941db6605160008690742","study_id":"6197b3f67c2b5cd3b6d9596a","session_id":"619be7863b3526a319543d0a","condition":"full-information","relevant_dimensions":["wings","legs"],"bee_group":{"antennae":"X","wings":"1","pattern":"X","legs":"M"},"bonus":1.2600000000000011},{"rt":2648.7999999523163,"stimulus":"bees-with-color/bee-B1SF.svg","response":0,"trial_type":"image-button-response","trial_index":17,"time_elapsed":302832,"internal_node_id":"0.0-4.0-0.5","subject_id":"601941db6605160008690742","study_id":"6197b3f67c2b5cd3b6d9596a","session_id":"619be7863b3526a319543d0a","condition":"full-information","relevant_dimensions":["wings","legs"],"bee_group":{"antennae":"X","wings":"1","pattern":"X","legs":"M"},"action":"harvest","summary":"good-harvest","bonus":1.2600000000000011},{"rt":1985.5,"stimulus":"\n                    <p><b>Action: <em>harvest</em></b></p>\n                    <p>This is the bee that you just saw.</p>\n                    <img src=\"bees-with-color/bee-B1SF.svg\" width=\"200\">\n                    <p><span class=\"greenText\"><b>Successful harvest!</b></span><br>Your pay has increased by $0.02. Your bonus pay is now $0.50.</p>\n            ","response":0,"trial_type":"html-button-response","trial_index":18,"time_elapsed":304819,"internal_node_id":"0.0-4.0-1.5","subject_id":"601941db6605160008690742","study_id":"6197b3f67c2b5cd3b6d9596a","session_id":"619be7863b3526a319543d0a","condition":"full-information","relevant_dimensions":["wings","legs"],"bee_group":{"antennae":"X","wings":"1","pattern":"X","legs":"M"},"bonus":1.2600000000000011},{"rt":2680,"stimulus":"bees-with-color/bee-B2SM.svg","response":1,"trial_type":"image-button-response","trial_index":19,"time_elapsed":307501,"internal_node_id":"0.0-4.0-0.6","subject_id":"601941db6605160008690742","study_id":"6197b3f67c2b5cd3b6d9596a","session_id":"619be7863b3526a319543d0a","condition":"full-information","relevant_dimensions":["wings","legs"],"bee_group":{"antennae":"X","wings":"1","pattern":"X","legs":"M"},"action":"avoid","summary":"bad-avoid","bonus":1.2600000000000011},{"rt":3570.2000000476837,"stimulus":"\n                    <p><b>Action: <em>avoid</em></b></p>\n                    <p>This is the bee that you just saw.</p>\n                    <img src=\"bees-with-color/bee-B2SM.svg\" width=\"200\">\n                    <p><span class=\"redText\">Bad choice,</span> the bee was friendly.<br>Your bonus pay is unchanged, and remains at $0.50.</p>\n            ","response":0,"trial_type":"html-button-response","trial_index":20,"time_elapsed":311073,"internal_node_id":"0.0-4.0-1.6","subject_id":"601941db6605160008690742","study_id":"6197b3f67c2b5cd3b6d9596a","session_id":"619be7863b3526a319543d0a","condition":"full-information","relevant_dimensions":["wings","legs"],"bee_group":{"antennae":"X","wings":"1","pattern":"X","legs":"M"},"bonus":1.2600000000000011},{"rt":5536.100000023842,"stimulus":"bees-with-color/bee-B2SF.svg","response":1,"trial_type":"image-button-response","trial_index":21,"time_elapsed":316611,"internal_node_id":"0.0-4.0-0.7","subject_id":"601941db6605160008690742","study_id":"6197b3f67c2b5cd3b6d9596a","session_id":"619be7863b3526a319543d0a","condition":"full-information","relevant_dimensions":["wings","legs"],"bee_group":{"antennae":"X","wings":"1","pattern":"X","legs":"M"},"action":"avoid","summary":"bad-avoid","bonus":1.2600000000000011},{"rt":1085.3000000715256,"stimulus":"\n                    <p><b>Action: <em>avoid</em></b></p>\n                    <p>This is the bee that you just saw.</p>\n                    <img src=\"bees-with-color/bee-B2SF.svg\" width=\"200\">\n                    <p><span class=\"redText\">Bad choice,</span> the bee was friendly.<br>Your bonus pay is unchanged, and remains at $0.50.</p>\n            ","response":0,"trial_type":"html-button-response","trial_index":22,"time_elapsed":317698,"internal_node_id":"0.0-4.0-1.7","subject_id":"601941db6605160008690742","study_id":"6197b3f67c2b5cd3b6d9596a","session_id":"619be7863b3526a319543d0a","condition":"full-information","relevant_dimensions":["wings","legs"],"bee_group":{"antennae":"X","wings":"1","pattern":"X","legs":"M"},"bonus":1.2600000000000011},{"rt":1148.3999999761581,"stimulus":"bees-with-color/bee-B2DF.svg","response":0,"trial_type":"image-button-response","trial_index":23,"time_elapsed":318849,"internal_node_id":"0.0-4.0-0.8","subject_id":"601941db6605160008690742","study_id":"6197b3f67c2b5cd3b6d9596a","session_id":"619be7863b3526a319543d0a","condition":"full-information","relevant_dimensions":["wings","legs"],"bee_group":{"antennae":"X","wings":"1","pattern":"X","legs":"M"},"action":"harvest","summary":"good-harvest","bonus":1.2600000000000011},{"rt":1497.3999999761581,"stimulus":"\n                    <p><b>Action: <em>harvest</em></b></p>\n                    <p>This is the bee that you just saw.</p>\n                    <img src=\"bees-with-color/bee-B2DF.svg\" width=\"200\">\n                    <p><span class=\"greenText\"><b>Successful harvest!</b></span><br>Your pay has increased by $0.02. Your bonus pay is now $0.52.</p>\n            ","response":0,"trial_type":"html-button-response","trial_index":24,"time_elapsed":320348,"internal_node_id":"0.0-4.0-1.8","subject_id":"601941db6605160008690742","study_id":"6197b3f67c2b5cd3b6d9596a","session_id":"619be7863b3526a319543d0a","condition":"full-information","relevant_dimensions":["wings","legs"],"bee_group":{"antennae":"X","wings":"1","pattern":"X","legs":"M"},"bonus":1.2600000000000011},{"rt":7489.099999904633,"stimulus":"bees-with-color/bee-A2SM.svg","response":0,"trial_type":"image-button-response","trial_index":25,"time_elapsed":327839,"internal_node_id":"0.0-4.0-0.9","subject_id":"601941db6605160008690742","study_id":"6197b3f67c2b5cd3b6d9596a","session_id":"619be7863b3526a319543d0a","condition":"full-information","relevant_dimensions":["wings","legs"],"bee_group":{"antennae":"X","wings":"1","pattern":"X","legs":"M"},"action":"harvest","summary":"good-harvest","bonus":1.2600000000000011},{"rt":5468.199999928474,"stimulus":"\n                    <p><b>Action: <em>harvest</em></b></p>\n                    <p>This is the bee that you just saw.</p>\n                    <img src=\"bees-with-color/bee-A2SM.svg\" width=\"200\">\n                    <p><span class=\"greenText\"><b>Successful harvest!</b></span><br>Your pay has increased by $0.02. Your bonus pay is now $0.54.</p>\n            ","response":0,"trial_type":"html-button-response","trial_index":26,"time_elapsed":333309,"internal_node_id":"0.0-4.0-1.9","subject_id":"601941db6605160008690742","study_id":"6197b3f67c2b5cd3b6d9596a","session_id":"619be7863b3526a319543d0a","condition":"full-information","relevant_dimensions":["wings","legs"],"bee_group":{"antennae":"X","wings":"1","pattern":"X","legs":"M"},"bonus":1.2600000000000011},{"rt":5477,"stimulus":"bees-with-color/bee-A1DM.svg","response":1,"trial_type":"image-button-response","trial_index":27,"time_elapsed":338788,"internal_node_id":"0.0-4.0-0.10","subject_id":"601941db6605160008690742","study_id":"6197b3f67c2b5cd3b6d9596a","session_id":"619be7863b3526a319543d0a","condition":"full-information","relevant_dimensions":["wings","legs"],"bee_group":{"antennae":"X","wings":"1","pattern":"X","legs":"M"},"action":"avoid","summary":"good-avoid","bonus":1.2600000000000011},{"rt":7595,"stimulus":"\n                    <p><b>Action: <em>avoid</em></b></p>\n                    <p>This is the bee that you just saw.</p>\n                    <img src=\"bees-with-color/bee-A1DM.svg\" width=\"200\">\n                    <p><span class=\"greenText\">Good choice!</span>  This bee would have stung you.<br>Your bonus pay is unchanged, and remains at $0.54.</p>\n            ","response":0,"trial_type":"html-button-response","trial_index":28,"time_elapsed":346385,"internal_node_id":"0.0-4.0-1.10","subject_id":"601941db6605160008690742","study_id":"6197b3f67c2b5cd3b6d9596a","session_id":"619be7863b3526a319543d0a","condition":"full-information","relevant_dimensions":["wings","legs"],"bee_group":{"antennae":"X","wings":"1","pattern":"X","legs":"M"},"bonus":1.2600000000000011},{"rt":2775.9000000953674,"stimulus":"bees-with-color/bee-A1SM.svg","response":0,"trial_type":"image-button-response","trial_index":29,"time_elapsed":349162,"internal_node_id":"0.0-4.0-0.11","subject_id":"601941db6605160008690742","study_id":"6197b3f67c2b5cd3b6d9596a","session_id":"619be7863b3526a319543d0a","condition":"full-information","relevant_dimensions":["wings","legs"],"bee_group":{"antennae":"X","wings":"1","pattern":"X","legs":"M"},"action":"harvest","summary":"bad-harvest","bonus":1.2600000000000011},{"rt":2531.5,"stimulus":"\n                    <p><b>Action: <em>harvest</em></b></p>\n                    <p>This is the bee that you just saw.</p>\n                    <img src=\"bees-with-color/bee-A1SM.svg\" width=\"200\">\n                    <p><span class=\"redText\">Bad choice, the bee was angry.</span><br><b>You have been stung!</b><br>Your pay has been decreased by $0.10. Your bonus pay is now $0.44.</p>\n            ","response":0,"trial_type":"html-button-response","trial_index":30,"time_elapsed":351695,"internal_node_id":"0.0-4.0-1.11","subject_id":"601941db6605160008690742","study_id":"6197b3f67c2b5cd3b6d9596a","session_id":"619be7863b3526a319543d0a","condition":"full-information","relevant_dimensions":["wings","legs"],"bee_group":{"antennae":"X","wings":"1","pattern":"X","legs":"M"},"bonus":1.2600000000000011},{"rt":3948.5,"stimulus":"bees-with-color/bee-A1SF.svg","response":0,"trial_type":"image-button-response","trial_index":31,"time_elapsed":355645,"internal_node_id":"0.0-4.0-0.12","subject_id":"601941db6605160008690742","study_id":"6197b3f67c2b5cd3b6d9596a","session_id":"619be7863b3526a319543d0a","condition":"full-information","relevant_dimensions":["wings","legs"],"bee_group":{"antennae":"X","wings":"1","pattern":"X","legs":"M"},"action":"harvest","summary":"good-harvest","bonus":1.2600000000000011},{"rt":3645.600000023842,"stimulus":"\n                    <p><b>Action: <em>harvest</em></b></p>\n                    <p>This is the bee that you just saw.</p>\n                    <img src=\"bees-with-color/bee-A1SF.svg\" width=\"200\">\n                    <p><span class=\"greenText\"><b>Successful harvest!</b></span><br>Your pay has increased by $0.02. Your bonus pay is now $0.46.</p>\n            ","response":0,"trial_type":"html-button-response","trial_index":32,"time_elapsed":359292,"internal_node_id":"0.0-4.0-1.12","subject_id":"601941db6605160008690742","study_id":"6197b3f67c2b5cd3b6d9596a","session_id":"619be7863b3526a319543d0a","condition":"full-information","relevant_dimensions":["wings","legs"],"bee_group":{"antennae":"X","wings":"1","pattern":"X","legs":"M"},"bonus":1.2600000000000011},{"rt":1811.2000000476837,"stimulus":"bees-with-color/bee-A2SF.svg","response":0,"trial_type":"image-button-response","trial_index":33,"time_elapsed":361105,"internal_node_id":"0.0-4.0-0.13","subject_id":"601941db6605160008690742","study_id":"6197b3f67c2b5cd3b6d9596a","session_id":"619be7863b3526a319543d0a","condition":"full-information","relevant_dimensions":["wings","legs"],"bee_group":{"antennae":"X","wings":"1","pattern":"X","legs":"M"},"action":"harvest","summary":"good-harvest","bonus":1.2600000000000011},{"rt":1287.3999999761581,"stimulus":"\n                    <p><b>Action: <em>harvest</em></b></p>\n                    <p>This is the bee that you just saw.</p>\n                    <img src=\"bees-with-color/bee-A2SF.svg\" width=\"200\">\n                    <p><span class=\"greenText\"><b>Successful harvest!</b></span><br>Your pay has increased by $0.02. Your bonus pay is now $0.48.</p>\n            ","response":0,"trial_type":"html-button-response","trial_index":34,"time_elapsed":362394,"internal_node_id":"0.0-4.0-1.13","subject_id":"601941db6605160008690742","study_id":"6197b3f67c2b5cd3b6d9596a","session_id":"619be7863b3526a319543d0a","condition":"full-information","relevant_dimensions":["wings","legs"],"bee_group":{"antennae":"X","wings":"1","pattern":"X","legs":"M"},"bonus":1.2600000000000011},{"rt":1904.6000000238419,"stimulus":"bees-with-color/bee-A2DM.svg","response":0,"trial_type":"image-button-response","trial_index":35,"time_elapsed":364300,"internal_node_id":"0.0-4.0-0.14","subject_id":"601941db6605160008690742","study_id":"6197b3f67c2b5cd3b6d9596a","session_id":"619be7863b3526a319543d0a","condition":"full-information","relevant_dimensions":["wings","legs"],"bee_group":{"antennae":"X","wings":"1","pattern":"X","legs":"M"},"action":"harvest","summary":"good-harvest","bonus":1.2600000000000011},{"rt":935.3000000715256,"stimulus":"\n                    <p><b>Action: <em>harvest</em></b></p>\n                    <p>This is the bee that you just saw.</p>\n                    <img src=\"bees-with-color/bee-A2DM.svg\" width=\"200\">\n                    <p><span class=\"greenText\"><b>Successful harvest!</b></span><br>Your pay has increased by $0.02. Your bonus pay is now $0.50.</p>\n            ","response":0,"trial_type":"html-button-response","trial_index":36,"time_elapsed":365237,"internal_node_id":"0.0-4.0-1.14","subject_id":"601941db6605160008690742","study_id":"6197b3f67c2b5cd3b6d9596a","session_id":"619be7863b3526a319543d0a","condition":"full-information","relevant_dimensions":["wings","legs"],"bee_group":{"antennae":"X","wings":"1","pattern":"X","legs":"M"},"bonus":1.2600000000000011},{"rt":2120.2000000476837,"stimulus":"bees-with-color/bee-A1DF.svg","response":1,"trial_type":"image-button-response","trial_index":37,"time_elapsed":367359,"internal_node_id":"0.0-4.0-0.15","subject_id":"601941db6605160008690742","study_id":"6197b3f67c2b5cd3b6d9596a","session_id":"619be7863b3526a319543d0a","condition":"full-information","relevant_dimensions":["wings","legs"],"bee_group":{"antennae":"X","wings":"1","pattern":"X","legs":"M"},"action":"avoid","summary":"bad-avoid","bonus":1.2600000000000011},{"rt":5103.200000047684,"stimulus":"\n                    <p><b>Action: <em>avoid</em></b></p>\n                    <p>This is the bee that you just saw.</p>\n                    <img src=\"bees-with-color/bee-A1DF.svg\" width=\"200\">\n                    <p><span class=\"redText\">Bad choice,</span> the bee was friendly.<br>Your bonus pay is unchanged, and remains at $0.50.</p>\n            ","response":0,"trial_type":"html-button-response","trial_index":38,"time_elapsed":372464,"internal_node_id":"0.0-4.0-1.15","subject_id":"601941db6605160008690742","study_id":"6197b3f67c2b5cd3b6d9596a","session_id":"619be7863b3526a319543d0a","condition":"full-information","relevant_dimensions":["wings","legs"],"bee_group":{"antennae":"X","wings":"1","pattern":"X","legs":"M"},"bonus":1.2600000000000011},{"rt":1327.2000000476837,"stimulus":"bees-with-color/bee-A2DF.svg","response":0,"trial_type":"image-button-response","trial_index":39,"time_elapsed":373793,"internal_node_id":"0.0-4.0-0.16","subject_id":"601941db6605160008690742","study_id":"6197b3f67c2b5cd3b6d9596a","session_id":"619be7863b3526a319543d0a","condition":"full-information","relevant_dimensions":["wings","legs"],"bee_group":{"antennae":"X","wings":"1","pattern":"X","legs":"M"},"action":"harvest","summary":"good-harvest","bonus":1.2600000000000011},{"rt":1304.7000000476837,"stimulus":"\n                    <p><b>Action: <em>harvest</em></b></p>\n                    <p>This is the bee that you just saw.</p>\n                    <img src=\"bees-with-color/bee-A2DF.svg\" width=\"200\">\n                    <p><span class=\"greenText\"><b>Successful harvest!</b></span><br>Your pay has increased by $0.02. Your bonus pay is now $0.52.</p>\n            ","response":0,"trial_type":"html-button-response","trial_index":40,"time_elapsed":375099,"internal_node_id":"0.0-4.0-1.16","subject_id":"601941db6605160008690742","study_id":"6197b3f67c2b5cd3b6d9596a","session_id":"619be7863b3526a319543d0a","condition":"full-information","relevant_dimensions":["wings","legs"],"bee_group":{"antennae":"X","wings":"1","pattern":"X","legs":"M"},"bonus":1.2600000000000011},{"rt":1927.7000000476837,"stimulus":"bees-with-color/bee-A1DF.svg","response":1,"trial_type":"image-button-response","trial_index":41,"time_elapsed":377028,"internal_node_id":"0.0-4.0-0.17","subject_id":"601941db6605160008690742","study_id":"6197b3f67c2b5cd3b6d9596a","session_id":"619be7863b3526a319543d0a","condition":"full-information","relevant_dimensions":["wings","legs"],"bee_group":{"antennae":"X","wings":"1","pattern":"X","legs":"M"},"action":"avoid","summary":"bad-avoid","bonus":1.2600000000000011},{"rt":2200.399999976158,"stimulus":"\n                    <p><b>Action: <em>avoid</em></b></p>\n                    <p>This is the bee that you just saw.</p>\n                    <img src=\"bees-with-color/bee-A1DF.svg\" width=\"200\">\n                    <p><span class=\"redText\">Bad choice,</span> the bee was friendly.<br>Your bonus pay is unchanged, and remains at $0.52.</p>\n            ","response":0,"trial_type":"html-button-response","trial_index":42,"time_elapsed":379230,"internal_node_id":"0.0-4.0-1.17","subject_id":"601941db6605160008690742","study_id":"6197b3f67c2b5cd3b6d9596a","session_id":"619be7863b3526a319543d0a","condition":"full-information","relevant_dimensions":["wings","legs"],"bee_group":{"antennae":"X","wings":"1","pattern":"X","legs":"M"},"bonus":1.2600000000000011},{"rt":2188.2999999523163,"stimulus":"bees-with-color/bee-A1SM.svg","response":1,"trial_type":"image-button-response","trial_index":43,"time_elapsed":381420,"internal_node_id":"0.0-4.0-0.18","subject_id":"601941db6605160008690742","study_id":"6197b3f67c2b5cd3b6d9596a","session_id":"619be7863b3526a319543d0a","condition":"full-information","relevant_dimensions":["wings","legs"],"bee_group":{"antennae":"X","wings":"1","pattern":"X","legs":"M"},"action":"avoid","summary":"good-avoid","bonus":1.2600000000000011},{"rt":4164.5,"stimulus":"\n                    <p><b>Action: <em>avoid</em></b></p>\n                    <p>This is the bee that you just saw.</p>\n                    <img src=\"bees-with-color/bee-A1SM.svg\" width=\"200\">\n                    <p><span class=\"greenText\">Good choice!</span>  This bee would have stung you.<br>Your bonus pay is unchanged, and remains at $0.52.</p>\n            ","response":0,"trial_type":"html-button-response","trial_index":44,"time_elapsed":385586,"internal_node_id":"0.0-4.0-1.18","subject_id":"601941db6605160008690742","study_id":"6197b3f67c2b5cd3b6d9596a","session_id":"619be7863b3526a319543d0a","condition":"full-information","relevant_dimensions":["wings","legs"],"bee_group":{"antennae":"X","wings":"1","pattern":"X","legs":"M"},"bonus":1.2600000000000011},{"rt":1005.0999999046326,"stimulus":"bees-with-color/bee-A2SF.svg","response":0,"trial_type":"image-button-response","trial_index":45,"time_elapsed":386593,"internal_node_id":"0.0-4.0-0.19","subject_id":"601941db6605160008690742","study_id":"6197b3f67c2b5cd3b6d9596a","session_id":"619be7863b3526a319543d0a","condition":"full-information","relevant_dimensions":["wings","legs"],"bee_group":{"antennae":"X","wings":"1","pattern":"X","legs":"M"},"action":"harvest","summary":"good-harvest","bonus":1.2600000000000011},{"rt":1219.5,"stimulus":"\n                    <p><b>Action: <em>harvest</em></b></p>\n                    <p>This is the bee that you just saw.</p>\n                    <img src=\"bees-with-color/bee-A2SF.svg\" width=\"200\">\n                    <p><span class=\"greenText\"><b>Successful harvest!</b></span><br>Your pay has increased by $0.02. Your bonus pay is now $0.54.</p>\n            ","response":0,"trial_type":"html-button-response","trial_index":46,"time_elapsed":387814,"internal_node_id":"0.0-4.0-1.19","subject_id":"601941db6605160008690742","study_id":"6197b3f67c2b5cd3b6d9596a","session_id":"619be7863b3526a319543d0a","condition":"full-information","relevant_dimensions":["wings","legs"],"bee_group":{"antennae":"X","wings":"1","pattern":"X","legs":"M"},"bonus":1.2600000000000011},{"rt":4178.600000023842,"stimulus":"bees-with-color/bee-A1DM.svg","response":0,"trial_type":"image-button-response","trial_index":47,"time_elapsed":391994,"internal_node_id":"0.0-4.0-0.20","subject_id":"601941db6605160008690742","study_id":"6197b3f67c2b5cd3b6d9596a","session_id":"619be7863b3526a319543d0a","condition":"full-information","relevant_dimensions":["wings","legs"],"bee_group":{"antennae":"X","wings":"1","pattern":"X","legs":"M"},"action":"harvest","summary":"bad-harvest","bonus":1.2600000000000011},{"rt":4230.099999904633,"stimulus":"\n                    <p><b>Action: <em>harvest</em></b></p>\n                    <p>This is the bee that you just saw.</p>\n                    <img src=\"bees-with-color/bee-A1DM.svg\" width=\"200\">\n                    <p><span class=\"redText\">Bad choice, the bee was angry.</span><br><b>You have been stung!</b><br>Your pay has been decreased by $0.10. Your bonus pay is now $0.44.</p>\n            ","response":0,"trial_type":"html-button-response","trial_index":48,"time_elapsed":396226,"internal_node_id":"0.0-4.0-1.20","subject_id":"601941db6605160008690742","study_id":"6197b3f67c2b5cd3b6d9596a","session_id":"619be7863b3526a319543d0a","condition":"full-information","relevant_dimensions":["wings","legs"],"bee_group":{"antennae":"X","wings":"1","pattern":"X","legs":"M"},"bonus":1.2600000000000011},{"rt":1272.7999999523163,"stimulus":"bees-with-color/bee-A2DM.svg","response":0,"trial_type":"image-button-response","trial_index":49,"time_elapsed":397501,"internal_node_id":"0.0-4.0-0.21","subject_id":"601941db6605160008690742","study_id":"6197b3f67c2b5cd3b6d9596a","session_id":"619be7863b3526a319543d0a","condition":"full-information","relevant_dimensions":["wings","legs"],"bee_group":{"antennae":"X","wings":"1","pattern":"X","legs":"M"},"action":"harvest","summary":"good-harvest","bonus":1.2600000000000011},{"rt":938.0999999046326,"stimulus":"\n                    <p><b>Action: <em>harvest</em></b></p>\n                    <p>This is the bee that you just saw.</p>\n                    <img src=\"bees-with-color/bee-A2DM.svg\" width=\"200\">\n                    <p><span class=\"greenText\"><b>Successful harvest!</b></span><br>Your pay has increased by $0.02. Your bonus pay is now $0.46.</p>\n            ","response":0,"trial_type":"html-button-response","trial_index":50,"time_elapsed":398441,"internal_node_id":"0.0-4.0-1.21","subject_id":"601941db6605160008690742","study_id":"6197b3f67c2b5cd3b6d9596a","session_id":"619be7863b3526a319543d0a","condition":"full-information","relevant_dimensions":["wings","legs"],"bee_group":{"antennae":"X","wings":"1","pattern":"X","legs":"M"},"bonus":1.2600000000000011},{"rt":3388.2000000476837,"stimulus":"bees-with-color/bee-B1SF.svg","response":0,"trial_type":"image-button-response","trial_index":51,"time_elapsed":401831,"internal_node_id":"0.0-4.0-0.22","subject_id":"601941db6605160008690742","study_id":"6197b3f67c2b5cd3b6d9596a","session_id":"619be7863b3526a319543d0a","condition":"full-information","relevant_dimensions":["wings","legs"],"bee_group":{"antennae":"X","wings":"1","pattern":"X","legs":"M"},"action":"harvest","summary":"good-harvest","bonus":1.2600000000000011},{"rt":3136.7999999523163,"stimulus":"\n                    <p><b>Action: <em>harvest</em></b></p>\n                    <p>This is the bee that you just saw.</p>\n                    <img src=\"bees-with-color/bee-B1SF.svg\" width=\"200\">\n                    <p><span class=\"greenText\"><b>Successful harvest!</b></span><br>Your pay has increased by $0.02. Your bonus pay is now $0.48.</p>\n            ","response":0,"trial_type":"html-button-response","trial_index":52,"time_elapsed":404969,"internal_node_id":"0.0-4.0-1.22","subject_id":"601941db6605160008690742","study_id":"6197b3f67c2b5cd3b6d9596a","session_id":"619be7863b3526a319543d0a","condition":"full-information","relevant_dimensions":["wings","legs"],"bee_group":{"antennae":"X","wings":"1","pattern":"X","legs":"M"},"bonus":1.2600000000000011},{"rt":2825.2000000476837,"stimulus":"bees-with-color/bee-A1SF.svg","response":1,"trial_type":"image-button-response","trial_index":53,"time_elapsed":407796,"internal_node_id":"0.0-4.0-0.23","subject_id":"601941db6605160008690742","study_id":"6197b3f67c2b5cd3b6d9596a","session_id":"619be7863b3526a319543d0a","condition":"full-information","relevant_dimensions":["wings","legs"],"bee_group":{"antennae":"X","wings":"1","pattern":"X","legs":"M"},"action":"avoid","summary":"bad-avoid","bonus":1.2600000000000011},{"rt":3021.5,"stimulus":"\n                    <p><b>Action: <em>avoid</em></b></p>\n                    <p>This is the bee that you just saw.</p>\n                    <img src=\"bees-with-color/bee-A1SF.svg\" width=\"200\">\n                    <p><span class=\"redText\">Bad choice,</span> the bee was friendly.<br>Your bonus pay is unchanged, and remains at $0.48.</p>\n            ","response":0,"trial_type":"html-button-response","trial_index":54,"time_elapsed":410819,"internal_node_id":"0.0-4.0-1.23","subject_id":"601941db6605160008690742","study_id":"6197b3f67c2b5cd3b6d9596a","session_id":"619be7863b3526a319543d0a","condition":"full-information","relevant_dimensions":["wings","legs"],"bee_group":{"antennae":"X","wings":"1","pattern":"X","legs":"M"},"bonus":1.2600000000000011},{"rt":3348.5,"stimulus":"bees-with-color/bee-B1SM.svg","response":1,"trial_type":"image-button-response","trial_index":55,"time_elapsed":414169,"internal_node_id":"0.0-4.0-0.24","subject_id":"601941db6605160008690742","study_id":"6197b3f67c2b5cd3b6d9596a","session_id":"619be7863b3526a319543d0a","condition":"full-information","relevant_dimensions":["wings","legs"],"bee_group":{"antennae":"X","wings":"1","pattern":"X","legs":"M"},"action":"avoid","summary":"good-avoid","bonus":1.2600000000000011},{"rt":7707.200000047684,"stimulus":"\n                    <p><b>Action: <em>avoid</em></b></p>\n                    <p>This is the bee that you just saw.</p>\n                    <img src=\"bees-with-color/bee-B1SM.svg\" width=\"200\">\n                    <p><span class=\"greenText\">Good choice!</span>  This bee would have stung you.<br>Your bonus pay is unchanged, and remains at $0.48.</p>\n            ","response":0,"trial_type":"html-button-response","trial_index":56,"time_elapsed":421878,"internal_node_id":"0.0-4.0-1.24","subject_id":"601941db6605160008690742","study_id":"6197b3f67c2b5cd3b6d9596a","session_id":"619be7863b3526a319543d0a","condition":"full-information","relevant_dimensions":["wings","legs"],"bee_group":{"antennae":"X","wings":"1","pattern":"X","legs":"M"},"bonus":1.2600000000000011},{"rt":1809.7999999523163,"stimulus":"bees-with-color/bee-A2SM.svg","response":0,"trial_type":"image-button-response","trial_index":57,"time_elapsed":423690,"internal_node_id":"0.0-4.0-0.25","subject_id":"601941db6605160008690742","study_id":"6197b3f67c2b5cd3b6d9596a","session_id":"619be7863b3526a319543d0a","condition":"full-information","relevant_dimensions":["wings","legs"],"bee_group":{"antennae":"X","wings":"1","pattern":"X","legs":"M"},"action":"harvest","summary":"good-harvest","bonus":1.2600000000000011},{"rt":873.2000000476837,"stimulus":"\n                    <p><b>Action: <em>harvest</em></b></p>\n                    <p>This is the bee that you just saw.</p>\n                    <img src=\"bees-with-color/bee-A2SM.svg\" width=\"200\">\n                    <p><span class=\"greenText\"><b>Successful harvest!</b></span><br>Your pay has increased by $0.02. Your bonus pay is now $0.50.</p>\n            ","response":0,"trial_type":"html-button-response","trial_index":58,"time_elapsed":424565,"internal_node_id":"0.0-4.0-1.25","subject_id":"601941db6605160008690742","study_id":"6197b3f67c2b5cd3b6d9596a","session_id":"619be7863b3526a319543d0a","condition":"full-information","relevant_dimensions":["wings","legs"],"bee_group":{"antennae":"X","wings":"1","pattern":"X","legs":"M"},"bonus":1.2600000000000011},{"rt":5028.399999976158,"stimulus":"bees-with-color/bee-B1DF.svg","response":1,"trial_type":"image-button-response","trial_index":59,"time_elapsed":429595,"internal_node_id":"0.0-4.0-0.26","subject_id":"601941db6605160008690742","study_id":"6197b3f67c2b5cd3b6d9596a","session_id":"619be7863b3526a319543d0a","condition":"full-information","relevant_dimensions":["wings","legs"],"bee_group":{"antennae":"X","wings":"1","pattern":"X","legs":"M"},"action":"avoid","summary":"bad-avoid","bonus":1.2600000000000011},{"rt":3436.600000023842,"stimulus":"\n                    <p><b>Action: <em>avoid</em></b></p>\n                    <p>This is the bee that you just saw.</p>\n                    <img src=\"bees-with-color/bee-B1DF.svg\" width=\"200\">\n                    <p><span class=\"redText\">Bad choice,</span> the bee was friendly.<br>Your bonus pay is unchanged, and remains at $0.50.</p>\n            ","response":0,"trial_type":"html-button-response","trial_index":60,"time_elapsed":433033,"internal_node_id":"0.0-4.0-1.26","subject_id":"601941db6605160008690742","study_id":"6197b3f67c2b5cd3b6d9596a","session_id":"619be7863b3526a319543d0a","condition":"full-information","relevant_dimensions":["wings","legs"],"bee_group":{"antennae":"X","wings":"1","pattern":"X","legs":"M"},"bonus":1.2600000000000011},{"rt":1429.2999999523163,"stimulus":"bees-with-color/bee-B2DF.svg","response":0,"trial_type":"image-button-response","trial_index":61,"time_elapsed":434464,"internal_node_id":"0.0-4.0-0.27","subject_id":"601941db6605160008690742","study_id":"6197b3f67c2b5cd3b6d9596a","session_id":"619be7863b3526a319543d0a","condition":"full-information","relevant_dimensions":["wings","legs"],"bee_group":{"antennae":"X","wings":"1","pattern":"X","legs":"M"},"action":"harvest","summary":"good-harvest","bonus":1.2600000000000011},{"rt":719.6000000238419,"stimulus":"\n                    <p><b>Action: <em>harvest</em></b></p>\n                    <p>This is the bee that you just saw.</p>\n                    <img src=\"bees-with-color/bee-B2DF.svg\" width=\"200\">\n                    <p><span class=\"greenText\"><b>Successful harvest!</b></span><br>Your pay has increased by $0.02. Your bonus pay is now $0.52.</p>\n            ","response":0,"trial_type":"html-button-response","trial_index":62,"time_elapsed":435185,"internal_node_id":"0.0-4.0-1.27","subject_id":"601941db6605160008690742","study_id":"6197b3f67c2b5cd3b6d9596a","session_id":"619be7863b3526a319543d0a","condition":"full-information","relevant_dimensions":["wings","legs"],"bee_group":{"antennae":"X","wings":"1","pattern":"X","legs":"M"},"bonus":1.2600000000000011},{"rt":1257.3999999761581,"stimulus":"bees-with-color/bee-B2SM.svg","response":0,"trial_type":"image-button-response","trial_index":63,"time_elapsed":436444,"internal_node_id":"0.0-4.0-0.28","subject_id":"601941db6605160008690742","study_id":"6197b3f67c2b5cd3b6d9596a","session_id":"619be7863b3526a319543d0a","condition":"full-information","relevant_dimensions":["wings","legs"],"bee_group":{"antennae":"X","wings":"1","pattern":"X","legs":"M"},"action":"harvest","summary":"good-harvest","bonus":1.2600000000000011},{"rt":631.5,"stimulus":"\n                    <p><b>Action: <em>harvest</em></b></p>\n                    <p>This is the bee that you just saw.</p>\n                    <img src=\"bees-with-color/bee-B2SM.svg\" width=\"200\">\n                    <p><span class=\"greenText\"><b>Successful harvest!</b></span><br>Your pay has increased by $0.02. Your bonus pay is now $0.54.</p>\n            ","response":0,"trial_type":"html-button-response","trial_index":64,"time_elapsed":437077,"internal_node_id":"0.0-4.0-1.28","subject_id":"601941db6605160008690742","study_id":"6197b3f67c2b5cd3b6d9596a","session_id":"619be7863b3526a319543d0a","condition":"full-information","relevant_dimensions":["wings","legs"],"bee_group":{"antennae":"X","wings":"1","pattern":"X","legs":"M"},"bonus":1.2600000000000011},{"rt":948.6000000238419,"stimulus":"bees-with-color/bee-B2SF.svg","response":0,"trial_type":"image-button-response","trial_index":65,"time_elapsed":438027,"internal_node_id":"0.0-4.0-0.29","subject_id":"601941db6605160008690742","study_id":"6197b3f67c2b5cd3b6d9596a","session_id":"619be7863b3526a319543d0a","condition":"full-information","relevant_dimensions":["wings","legs"],"bee_group":{"antennae":"X","wings":"1","pattern":"X","legs":"M"},"action":"harvest","summary":"good-harvest","bonus":1.2600000000000011},{"rt":702.5,"stimulus":"\n                    <p><b>Action: <em>harvest</em></b></p>\n                    <p>This is the bee that you just saw.</p>\n                    <img src=\"bees-with-color/bee-B2SF.svg\" width=\"200\">\n                    <p><span class=\"greenText\"><b>Successful harvest!</b></span><br>Your pay has increased by $0.02. Your bonus pay is now $0.56.</p>\n            ","response":0,"trial_type":"html-button-response","trial_index":66,"time_elapsed":438731,"internal_node_id":"0.0-4.0-1.29","subject_id":"601941db6605160008690742","study_id":"6197b3f67c2b5cd3b6d9596a","session_id":"619be7863b3526a319543d0a","condition":"full-information","relevant_dimensions":["wings","legs"],"bee_group":{"antennae":"X","wings":"1","pattern":"X","legs":"M"},"bonus":1.2600000000000011},{"rt":3465.7000000476837,"stimulus":"bees-with-color/bee-B1DM.svg","response":1,"trial_type":"image-button-response","trial_index":67,"time_elapsed":442198,"internal_node_id":"0.0-4.0-0.30","subject_id":"601941db6605160008690742","study_id":"6197b3f67c2b5cd3b6d9596a","session_id":"619be7863b3526a319543d0a","condition":"full-information","relevant_dimensions":["wings","legs"],"bee_group":{"antennae":"X","wings":"1","pattern":"X","legs":"M"},"action":"avoid","summary":"good-avoid","bonus":1.2600000000000011},{"rt":2953.5,"stimulus":"\n                    <p><b>Action: <em>avoid</em></b></p>\n                    <p>This is the bee that you just saw.</p>\n                    <img src=\"bees-with-color/bee-B1DM.svg\" width=\"200\">\n                    <p><span class=\"greenText\">Good choice!</span>  This bee would have stung you.<br>Your bonus pay is unchanged, and remains at $0.56.</p>\n            ","response":0,"trial_type":"html-button-response","trial_index":68,"time_elapsed":445153,"internal_node_id":"0.0-4.0-1.30","subject_id":"601941db6605160008690742","study_id":"6197b3f67c2b5cd3b6d9596a","session_id":"619be7863b3526a319543d0a","condition":"full-information","relevant_dimensions":["wings","legs"],"bee_group":{"antennae":"X","wings":"1","pattern":"X","legs":"M"},"bonus":1.2600000000000011},{"rt":2266.100000023842,"stimulus":"bees-with-color/bee-B2DM.svg","response":0,"trial_type":"image-button-response","trial_index":69,"time_elapsed":447421,"internal_node_id":"0.0-4.0-0.31","subject_id":"601941db6605160008690742","study_id":"6197b3f67c2b5cd3b6d9596a","session_id":"619be7863b3526a319543d0a","condition":"full-information","relevant_dimensions":["wings","legs"],"bee_group":{"antennae":"X","wings":"1","pattern":"X","legs":"M"},"action":"harvest","summary":"good-harvest","bonus":1.2600000000000011},{"rt":861.2999999523163,"stimulus":"\n                    <p><b>Action: <em>harvest</em></b></p>\n                    <p>This is the bee that you just saw.</p>\n                    <img src=\"bees-with-color/bee-B2DM.svg\" width=\"200\">\n                    <p><span class=\"greenText\"><b>Successful harvest!</b></span><br>Your pay has increased by $0.02. Your bonus pay is now $0.58.</p>\n            ","response":0,"trial_type":"html-button-response","trial_index":70,"time_elapsed":448284,"internal_node_id":"0.0-4.0-1.31","subject_id":"601941db6605160008690742","study_id":"6197b3f67c2b5cd3b6d9596a","session_id":"619be7863b3526a319543d0a","condition":"full-information","relevant_dimensions":["wings","legs"],"bee_group":{"antennae":"X","wings":"1","pattern":"X","legs":"M"},"bonus":1.2600000000000011},{"rt":4720.199999928474,"stimulus":"bees-with-color/bee-B1DM.svg","response":1,"trial_type":"image-button-response","trial_index":71,"time_elapsed":453006,"internal_node_id":"0.0-4.0-0.32","subject_id":"601941db6605160008690742","study_id":"6197b3f67c2b5cd3b6d9596a","session_id":"619be7863b3526a319543d0a","condition":"full-information","relevant_dimensions":["wings","legs"],"bee_group":{"antennae":"X","wings":"1","pattern":"X","legs":"M"},"action":"avoid","summary":"good-avoid","bonus":1.2600000000000011},{"rt":8609.099999904633,"stimulus":"\n                    <p><b>Action: <em>avoid</em></b></p>\n                    <p>This is the bee that you just saw.</p>\n                    <img src=\"bees-with-color/bee-B1DM.svg\" width=\"200\">\n                    <p><span class=\"greenText\">Good choice!</span>  This bee would have stung you.<br>Your bonus pay is unchanged, and remains at $0.58.</p>\n            ","response":0,"trial_type":"html-button-response","trial_index":72,"time_elapsed":461617,"internal_node_id":"0.0-4.0-1.32","subject_id":"601941db6605160008690742","study_id":"6197b3f67c2b5cd3b6d9596a","session_id":"619be7863b3526a319543d0a","condition":"full-information","relevant_dimensions":["wings","legs"],"bee_group":{"antennae":"X","wings":"1","pattern":"X","legs":"M"},"bonus":1.2600000000000011},{"rt":5045.100000023842,"stimulus":"bees-with-color/bee-A1SM.svg","response":0,"trial_type":"image-button-response","trial_index":73,"time_elapsed":466664,"internal_node_id":"0.0-4.0-0.33","subject_id":"601941db6605160008690742","study_id":"6197b3f67c2b5cd3b6d9596a","session_id":"619be7863b3526a319543d0a","condition":"full-information","relevant_dimensions":["wings","legs"],"bee_group":{"antennae":"X","wings":"1","pattern":"X","legs":"M"},"action":"harvest","summary":"bad-harvest","bonus":1.2600000000000011},{"rt":1093.4000000953674,"stimulus":"\n                    <p><b>Action: <em>harvest</em></b></p>\n                    <p>This is the bee that you just saw.</p>\n                    <img src=\"bees-with-color/bee-A1SM.svg\" width=\"200\">\n                    <p><span class=\"redText\">Bad choice, the bee was angry.</span><br><b>You have been stung!</b><br>Your pay has been decreased by $0.10. Your bonus pay is now $0.48.</p>\n            ","response":0,"trial_type":"html-button-response","trial_index":74,"time_elapsed":467759,"internal_node_id":"0.0-4.0-1.33","subject_id":"601941db6605160008690742","study_id":"6197b3f67c2b5cd3b6d9596a","session_id":"619be7863b3526a319543d0a","condition":"full-information","relevant_dimensions":["wings","legs"],"bee_group":{"antennae":"X","wings":"1","pattern":"X","legs":"M"},"bonus":1.2600000000000011},{"rt":1966.2000000476837,"stimulus":"bees-with-color/bee-A2SF.svg","response":0,"trial_type":"image-button-response","trial_index":75,"time_elapsed":469727,"internal_node_id":"0.0-4.0-0.34","subject_id":"601941db6605160008690742","study_id":"6197b3f67c2b5cd3b6d9596a","session_id":"619be7863b3526a319543d0a","condition":"full-information","relevant_dimensions":["wings","legs"],"bee_group":{"antennae":"X","wings":"1","pattern":"X","legs":"M"},"action":"harvest","summary":"good-harvest","bonus":1.2600000000000011},{"rt":965.4000000953674,"stimulus":"\n                    <p><b>Action: <em>harvest</em></b></p>\n                    <p>This is the bee that you just saw.</p>\n                    <img src=\"bees-with-color/bee-A2SF.svg\" width=\"200\">\n                    <p><span class=\"greenText\"><b>Successful harvest!</b></span><br>Your pay has increased by $0.02. Your bonus pay is now $0.50.</p>\n            ","response":0,"trial_type":"html-button-response","trial_index":76,"time_elapsed":470694,"internal_node_id":"0.0-4.0-1.34","subject_id":"601941db6605160008690742","study_id":"6197b3f67c2b5cd3b6d9596a","session_id":"619be7863b3526a319543d0a","condition":"full-information","relevant_dimensions":["wings","legs"],"bee_group":{"antennae":"X","wings":"1","pattern":"X","legs":"M"},"bonus":1.2600000000000011},{"rt":683.7000000476837,"stimulus":"bees-with-color/bee-A2SM.svg","response":0,"trial_type":"image-button-response","trial_index":77,"time_elapsed":471379,"internal_node_id":"0.0-4.0-0.35","subject_id":"601941db6605160008690742","study_id":"6197b3f67c2b5cd3b6d9596a","session_id":"619be7863b3526a319543d0a","condition":"full-information","relevant_dimensions":["wings","legs"],"bee_group":{"antennae":"X","wings":"1","pattern":"X","legs":"M"},"action":"harvest","summary":"good-harvest","bonus":1.2600000000000011},{"rt":603.3000000715256,"stimulus":"\n                    <p><b>Action: <em>harvest</em></b></p>\n                    <p>This is the bee that you just saw.</p>\n                    <img src=\"bees-with-color/bee-A2SM.svg\" width=\"200\">\n                    <p><span class=\"greenText\"><b>Successful harvest!</b></span><br>Your pay has increased by $0.02. Your bonus pay is now $0.52.</p>\n            ","response":0,"trial_type":"html-button-response","trial_index":78,"time_elapsed":471984,"internal_node_id":"0.0-4.0-1.35","subject_id":"601941db6605160008690742","study_id":"6197b3f67c2b5cd3b6d9596a","session_id":"619be7863b3526a319543d0a","condition":"full-information","relevant_dimensions":["wings","legs"],"bee_group":{"antennae":"X","wings":"1","pattern":"X","legs":"M"},"bonus":1.2600000000000011},{"rt":659.4000000953674,"stimulus":"bees-with-color/bee-B2SM.svg","response":0,"trial_type":"image-button-response","trial_index":79,"time_elapsed":472645,"internal_node_id":"0.0-4.0-0.36","subject_id":"601941db6605160008690742","study_id":"6197b3f67c2b5cd3b6d9596a","session_id":"619be7863b3526a319543d0a","condition":"full-information","relevant_dimensions":["wings","legs"],"bee_group":{"antennae":"X","wings":"1","pattern":"X","legs":"M"},"action":"harvest","summary":"good-harvest","bonus":1.2600000000000011},{"rt":885.3000000715256,"stimulus":"\n                    <p><b>Action: <em>harvest</em></b></p>\n                    <p>This is the bee that you just saw.</p>\n                    <img src=\"bees-with-color/bee-B2SM.svg\" width=\"200\">\n                    <p><span class=\"greenText\"><b>Successful harvest!</b></span><br>Your pay has increased by $0.02. Your bonus pay is now $0.54.</p>\n            ","response":0,"trial_type":"html-button-response","trial_index":80,"time_elapsed":473532,"internal_node_id":"0.0-4.0-1.36","subject_id":"601941db6605160008690742","study_id":"6197b3f67c2b5cd3b6d9596a","session_id":"619be7863b3526a319543d0a","condition":"full-information","relevant_dimensions":["wings","legs"],"bee_group":{"antennae":"X","wings":"1","pattern":"X","legs":"M"},"bonus":1.2600000000000011},{"rt":808.8000000715256,"stimulus":"bees-with-color/bee-B1SF.svg","response":0,"trial_type":"image-button-response","trial_index":81,"time_elapsed":474342,"internal_node_id":"0.0-4.0-0.37","subject_id":"601941db6605160008690742","study_id":"6197b3f67c2b5cd3b6d9596a","session_id":"619be7863b3526a319543d0a","condition":"full-information","relevant_dimensions":["wings","legs"],"bee_group":{"antennae":"X","wings":"1","pattern":"X","legs":"M"},"action":"harvest","summary":"good-harvest","bonus":1.2600000000000011},{"rt":2732.7000000476837,"stimulus":"\n                    <p><b>Action: <em>harvest</em></b></p>\n                    <p>This is the bee that you just saw.</p>\n                    <img src=\"bees-with-color/bee-B1SF.svg\" width=\"200\">\n                    <p><span class=\"greenText\"><b>Successful harvest!</b></span><br>Your pay has increased by $0.02. Your bonus pay is now $0.56.</p>\n            ","response":0,"trial_type":"html-button-response","trial_index":82,"time_elapsed":477076,"internal_node_id":"0.0-4.0-1.37","subject_id":"601941db6605160008690742","study_id":"6197b3f67c2b5cd3b6d9596a","session_id":"619be7863b3526a319543d0a","condition":"full-information","relevant_dimensions":["wings","legs"],"bee_group":{"antennae":"X","wings":"1","pattern":"X","legs":"M"},"bonus":1.2600000000000011},{"rt":1104.4000000953674,"stimulus":"bees-with-color/bee-B2DM.svg","response":0,"trial_type":"image-button-response","trial_index":83,"time_elapsed":478182,"internal_node_id":"0.0-4.0-0.38","subject_id":"601941db6605160008690742","study_id":"6197b3f67c2b5cd3b6d9596a","session_id":"619be7863b3526a319543d0a","condition":"full-information","relevant_dimensions":["wings","legs"],"bee_group":{"antennae":"X","wings":"1","pattern":"X","legs":"M"},"action":"harvest","summary":"good-harvest","bonus":1.2600000000000011},{"rt":1446.6000000238419,"stimulus":"\n                    <p><b>Action: <em>harvest</em></b></p>\n                    <p>This is the bee that you just saw.</p>\n                    <img src=\"bees-with-color/bee-B2DM.svg\" width=\"200\">\n                    <p><span class=\"greenText\"><b>Successful harvest!</b></span><br>Your pay has increased by $0.02. Your bonus pay is now $0.58.</p>\n            ","response":0,"trial_type":"html-button-response","trial_index":84,"time_elapsed":479630,"internal_node_id":"0.0-4.0-1.38","subject_id":"601941db6605160008690742","study_id":"6197b3f67c2b5cd3b6d9596a","session_id":"619be7863b3526a319543d0a","condition":"full-information","relevant_dimensions":["wings","legs"],"bee_group":{"antennae":"X","wings":"1","pattern":"X","legs":"M"},"bonus":1.2600000000000011},{"rt":3247.7000000476837,"stimulus":"bees-with-color/bee-A2DF.svg","response":0,"trial_type":"image-button-response","trial_index":85,"time_elapsed":482879,"internal_node_id":"0.0-4.0-0.39","subject_id":"601941db6605160008690742","study_id":"6197b3f67c2b5cd3b6d9596a","session_id":"619be7863b3526a319543d0a","condition":"full-information","relevant_dimensions":["wings","legs"],"bee_group":{"antennae":"X","wings":"1","pattern":"X","legs":"M"},"action":"harvest","summary":"good-harvest","bonus":1.2600000000000011},{"rt":786.5,"stimulus":"\n                    <p><b>Action: <em>harvest</em></b></p>\n                    <p>This is the bee that you just saw.</p>\n                    <img src=\"bees-with-color/bee-A2DF.svg\" width=\"200\">\n                    <p><span class=\"greenText\"><b>Successful harvest!</b></span><br>Your pay has increased by $0.02. Your bonus pay is now $0.60.</p>\n            ","response":0,"trial_type":"html-button-response","trial_index":86,"time_elapsed":483667,"internal_node_id":"0.0-4.0-1.39","subject_id":"601941db6605160008690742","study_id":"6197b3f67c2b5cd3b6d9596a","session_id":"619be7863b3526a319543d0a","condition":"full-information","relevant_dimensions":["wings","legs"],"bee_group":{"antennae":"X","wings":"1","pattern":"X","legs":"M"},"bonus":1.2600000000000011},{"rt":1225.2000000476837,"stimulus":"bees-with-color/bee-B2SF.svg","response":0,"trial_type":"image-button-response","trial_index":87,"time_elapsed":484894,"internal_node_id":"0.0-4.0-0.40","subject_id":"601941db6605160008690742","study_id":"6197b3f67c2b5cd3b6d9596a","session_id":"619be7863b3526a319543d0a","condition":"full-information","relevant_dimensions":["wings","legs"],"bee_group":{"antennae":"X","wings":"1","pattern":"X","legs":"M"},"action":"harvest","summary":"good-harvest","bonus":1.2600000000000011},{"rt":933.5,"stimulus":"\n                    <p><b>Action: <em>harvest</em></b></p>\n                    <p>This is the bee that you just saw.</p>\n                    <img src=\"bees-with-color/bee-B2SF.svg\" width=\"200\">\n                    <p><span class=\"greenText\"><b>Successful harvest!</b></span><br>Your pay has increased by $0.02. Your bonus pay is now $0.62.</p>\n            ","response":0,"trial_type":"html-button-response","trial_index":88,"time_elapsed":485829,"internal_node_id":"0.0-4.0-1.40","subject_id":"601941db6605160008690742","study_id":"6197b3f67c2b5cd3b6d9596a","session_id":"619be7863b3526a319543d0a","condition":"full-information","relevant_dimensions":["wings","legs"],"bee_group":{"antennae":"X","wings":"1","pattern":"X","legs":"M"},"bonus":1.2600000000000011},{"rt":1036.6000000238419,"stimulus":"bees-with-color/bee-B2DF.svg","response":0,"trial_type":"image-button-response","trial_index":89,"time_elapsed":486867,"internal_node_id":"0.0-4.0-0.41","subject_id":"601941db6605160008690742","study_id":"6197b3f67c2b5cd3b6d9596a","session_id":"619be7863b3526a319543d0a","condition":"full-information","relevant_dimensions":["wings","legs"],"bee_group":{"antennae":"X","wings":"1","pattern":"X","legs":"M"},"action":"harvest","summary":"good-harvest","bonus":1.2600000000000011},{"rt":831.3999999761581,"stimulus":"\n                    <p><b>Action: <em>harvest</em></b></p>\n                    <p>This is the bee that you just saw.</p>\n                    <img src=\"bees-with-color/bee-B2DF.svg\" width=\"200\">\n                    <p><span class=\"greenText\"><b>Successful harvest!</b></span><br>Your pay has increased by $0.02. Your bonus pay is now $0.64.</p>\n            ","response":0,"trial_type":"html-button-response","trial_index":90,"time_elapsed":487700,"internal_node_id":"0.0-4.0-1.41","subject_id":"601941db6605160008690742","study_id":"6197b3f67c2b5cd3b6d9596a","session_id":"619be7863b3526a319543d0a","condition":"full-information","relevant_dimensions":["wings","legs"],"bee_group":{"antennae":"X","wings":"1","pattern":"X","legs":"M"},"bonus":1.2600000000000011},{"rt":3939.600000023842,"stimulus":"bees-with-color/bee-B1SM.svg","response":1,"trial_type":"image-button-response","trial_index":91,"time_elapsed":491641,"internal_node_id":"0.0-4.0-0.42","subject_id":"601941db6605160008690742","study_id":"6197b3f67c2b5cd3b6d9596a","session_id":"619be7863b3526a319543d0a","condition":"full-information","relevant_dimensions":["wings","legs"],"bee_group":{"antennae":"X","wings":"1","pattern":"X","legs":"M"},"action":"avoid","summary":"good-avoid","bonus":1.2600000000000011},{"rt":1087.3999999761581,"stimulus":"\n                    <p><b>Action: <em>avoid</em></b></p>\n                    <p>This is the bee that you just saw.</p>\n                    <img src=\"bees-with-color/bee-B1SM.svg\" width=\"200\">\n                    <p><span class=\"greenText\">Good choice!</span>  This bee would have stung you.<br>Your bonus pay is unchanged, and remains at $0.64.</p>\n            ","response":0,"trial_type":"html-button-response","trial_index":92,"time_elapsed":492730,"internal_node_id":"0.0-4.0-1.42","subject_id":"601941db6605160008690742","study_id":"6197b3f67c2b5cd3b6d9596a","session_id":"619be7863b3526a319543d0a","condition":"full-information","relevant_dimensions":["wings","legs"],"bee_group":{"antennae":"X","wings":"1","pattern":"X","legs":"M"},"bonus":1.2600000000000011},{"rt":1191,"stimulus":"bees-with-color/bee-A2DM.svg","response":0,"trial_type":"image-button-response","trial_index":93,"time_elapsed":493923,"internal_node_id":"0.0-4.0-0.43","subject_id":"601941db6605160008690742","study_id":"6197b3f67c2b5cd3b6d9596a","session_id":"619be7863b3526a319543d0a","condition":"full-information","relevant_dimensions":["wings","legs"],"bee_group":{"antennae":"X","wings":"1","pattern":"X","legs":"M"},"action":"harvest","summary":"good-harvest","bonus":1.2600000000000011},{"rt":1303.3999999761581,"stimulus":"\n                    <p><b>Action: <em>harvest</em></b></p>\n                    <p>This is the bee that you just saw.</p>\n                    <img src=\"bees-with-color/bee-A2DM.svg\" width=\"200\">\n                    <p><span class=\"greenText\"><b>Successful harvest!</b></span><br>Your pay has increased by $0.02. Your bonus pay is now $0.66.</p>\n            ","response":0,"trial_type":"html-button-response","trial_index":94,"time_elapsed":495228,"internal_node_id":"0.0-4.0-1.43","subject_id":"601941db6605160008690742","study_id":"6197b3f67c2b5cd3b6d9596a","session_id":"619be7863b3526a319543d0a","condition":"full-information","relevant_dimensions":["wings","legs"],"bee_group":{"antennae":"X","wings":"1","pattern":"X","legs":"M"},"bonus":1.2600000000000011},{"rt":3748.600000023842,"stimulus":"bees-with-color/bee-B1DF.svg","response":0,"trial_type":"image-button-response","trial_index":95,"time_elapsed":498978,"internal_node_id":"0.0-4.0-0.44","subject_id":"601941db6605160008690742","study_id":"6197b3f67c2b5cd3b6d9596a","session_id":"619be7863b3526a319543d0a","condition":"full-information","relevant_dimensions":["wings","legs"],"bee_group":{"antennae":"X","wings":"1","pattern":"X","legs":"M"},"action":"harvest","summary":"good-harvest","bonus":1.2600000000000011},{"rt":929.3999999761581,"stimulus":"\n                    <p><b>Action: <em>harvest</em></b></p>\n                    <p>This is the bee that you just saw.</p>\n                    <img src=\"bees-with-color/bee-B1DF.svg\" width=\"200\">\n                    <p><span class=\"greenText\"><b>Successful harvest!</b></span><br>Your pay has increased by $0.02. Your bonus pay is now $0.68.</p>\n            ","response":0,"trial_type":"html-button-response","trial_index":96,"time_elapsed":499909,"internal_node_id":"0.0-4.0-1.44","subject_id":"601941db6605160008690742","study_id":"6197b3f67c2b5cd3b6d9596a","session_id":"619be7863b3526a319543d0a","condition":"full-information","relevant_dimensions":["wings","legs"],"bee_group":{"antennae":"X","wings":"1","pattern":"X","legs":"M"},"bonus":1.2600000000000011},{"rt":1588.6000000238419,"stimulus":"bees-with-color/bee-A1DM.svg","response":1,"trial_type":"image-button-response","trial_index":97,"time_elapsed":501499,"internal_node_id":"0.0-4.0-0.45","subject_id":"601941db6605160008690742","study_id":"6197b3f67c2b5cd3b6d9596a","session_id":"619be7863b3526a319543d0a","condition":"full-information","relevant_dimensions":["wings","legs"],"bee_group":{"antennae":"X","wings":"1","pattern":"X","legs":"M"},"action":"avoid","summary":"good-avoid","bonus":1.2600000000000011},{"rt":1132.6000000238419,"stimulus":"\n                    <p><b>Action: <em>avoid</em></b></p>\n                    <p>This is the bee that you just saw.</p>\n                    <img src=\"bees-with-color/bee-A1DM.svg\" width=\"200\">\n                    <p><span class=\"greenText\">Good choice!</span>  This bee would have stung you.<br>Your bonus pay is unchanged, and remains at $0.68.</p>\n            ","response":0,"trial_type":"html-button-response","trial_index":98,"time_elapsed":502633,"internal_node_id":"0.0-4.0-1.45","subject_id":"601941db6605160008690742","study_id":"6197b3f67c2b5cd3b6d9596a","session_id":"619be7863b3526a319543d0a","condition":"full-information","relevant_dimensions":["wings","legs"],"bee_group":{"antennae":"X","wings":"1","pattern":"X","legs":"M"},"bonus":1.2600000000000011},{"rt":3562.6999999284744,"stimulus":"bees-with-color/bee-A1SF.svg","response":1,"trial_type":"image-button-response","trial_index":99,"time_elapsed":506197,"internal_node_id":"0.0-4.0-0.46","subject_id":"601941db6605160008690742","study_id":"6197b3f67c2b5cd3b6d9596a","session_id":"619be7863b3526a319543d0a","condition":"full-information","relevant_dimensions":["wings","legs"],"bee_group":{"antennae":"X","wings":"1","pattern":"X","legs":"M"},"action":"avoid","summary":"bad-avoid","bonus":1.2600000000000011},{"rt":819.7000000476837,"stimulus":"\n                    <p><b>Action: <em>avoid</em></b></p>\n                    <p>This is the bee that you just saw.</p>\n                    <img src=\"bees-with-color/bee-A1SF.svg\" width=\"200\">\n                    <p><span class=\"redText\">Bad choice,</span> the bee was friendly.<br>Your bonus pay is unchanged, and remains at $0.68.</p>\n            ","response":0,"trial_type":"html-button-response","trial_index":100,"time_elapsed":507018,"internal_node_id":"0.0-4.0-1.46","subject_id":"601941db6605160008690742","study_id":"6197b3f67c2b5cd3b6d9596a","session_id":"619be7863b3526a319543d0a","condition":"full-information","relevant_dimensions":["wings","legs"],"bee_group":{"antennae":"X","wings":"1","pattern":"X","legs":"M"},"bonus":1.2600000000000011},{"rt":2896.2999999523163,"stimulus":"bees-with-color/bee-A1DF.svg","response":1,"trial_type":"image-button-response","trial_index":101,"time_elapsed":509916,"internal_node_id":"0.0-4.0-0.47","subject_id":"601941db6605160008690742","study_id":"6197b3f67c2b5cd3b6d9596a","session_id":"619be7863b3526a319543d0a","condition":"full-information","relevant_dimensions":["wings","legs"],"bee_group":{"antennae":"X","wings":"1","pattern":"X","legs":"M"},"action":"avoid","summary":"bad-avoid","bonus":1.2600000000000011},{"rt":890.3999999761581,"stimulus":"\n                    <p><b>Action: <em>avoid</em></b></p>\n                    <p>This is the bee that you just saw.</p>\n                    <img src=\"bees-with-color/bee-A1DF.svg\" width=\"200\">\n                    <p><span class=\"redText\">Bad choice,</span> the bee was friendly.<br>Your bonus pay is unchanged, and remains at $0.68.</p>\n            ","response":0,"trial_type":"html-button-response","trial_index":102,"time_elapsed":510808,"internal_node_id":"0.0-4.0-1.47","subject_id":"601941db6605160008690742","study_id":"6197b3f67c2b5cd3b6d9596a","session_id":"619be7863b3526a319543d0a","condition":"full-information","relevant_dimensions":["wings","legs"],"bee_group":{"antennae":"X","wings":"1","pattern":"X","legs":"M"},"bonus":1.2600000000000011},{"rt":4159.399999976158,"stimulus":"bees-with-color/bee-B1DF.svg","response":0,"trial_type":"image-button-response","trial_index":103,"time_elapsed":514969,"internal_node_id":"0.0-4.0-0.48","subject_id":"601941db6605160008690742","study_id":"6197b3f67c2b5cd3b6d9596a","session_id":"619be7863b3526a319543d0a","condition":"full-information","relevant_dimensions":["wings","legs"],"bee_group":{"antennae":"X","wings":"1","pattern":"X","legs":"M"},"action":"harvest","summary":"good-harvest","bonus":1.2600000000000011},{"rt":737.1999999284744,"stimulus":"\n                    <p><b>Action: <em>harvest</em></b></p>\n                    <p>This is the bee that you just saw.</p>\n                    <img src=\"bees-with-color/bee-B1DF.svg\" width=\"200\">\n                    <p><span class=\"greenText\"><b>Successful harvest!</b></span><br>Your pay has increased by $0.02. Your bonus pay is now $0.70.</p>\n            ","response":0,"trial_type":"html-button-response","trial_index":104,"time_elapsed":515708,"internal_node_id":"0.0-4.0-1.48","subject_id":"601941db6605160008690742","study_id":"6197b3f67c2b5cd3b6d9596a","session_id":"619be7863b3526a319543d0a","condition":"full-information","relevant_dimensions":["wings","legs"],"bee_group":{"antennae":"X","wings":"1","pattern":"X","legs":"M"},"bonus":1.2600000000000011},{"rt":969.1999999284744,"stimulus":"bees-with-color/bee-A2DF.svg","response":0,"trial_type":"image-button-response","trial_index":105,"time_elapsed":516679,"internal_node_id":"0.0-4.0-0.49","subject_id":"601941db6605160008690742","study_id":"6197b3f67c2b5cd3b6d9596a","session_id":"619be7863b3526a319543d0a","condition":"full-information","relevant_dimensions":["wings","legs"],"bee_group":{"antennae":"X","wings":"1","pattern":"X","legs":"M"},"action":"harvest","summary":"good-harvest","bonus":1.2600000000000011},{"rt":935.1999999284744,"stimulus":"\n                    <p><b>Action: <em>harvest</em></b></p>\n                    <p>This is the bee that you just saw.</p>\n                    <img src=\"bees-with-color/bee-A2DF.svg\" width=\"200\">\n                    <p><span class=\"greenText\"><b>Successful harvest!</b></span><br>Your pay has increased by $0.02. Your bonus pay is now $0.72.</p>\n            ","response":0,"trial_type":"html-button-response","trial_index":106,"time_elapsed":517616,"internal_node_id":"0.0-4.0-1.49","subject_id":"601941db6605160008690742","study_id":"6197b3f67c2b5cd3b6d9596a","session_id":"619be7863b3526a319543d0a","condition":"full-information","relevant_dimensions":["wings","legs"],"bee_group":{"antennae":"X","wings":"1","pattern":"X","legs":"M"},"bonus":1.2600000000000011},{"rt":975.6000000238419,"stimulus":"bees-with-color/bee-B2DM.svg","response":0,"trial_type":"image-button-response","trial_index":107,"time_elapsed":518593,"internal_node_id":"0.0-4.0-0.50","subject_id":"601941db6605160008690742","study_id":"6197b3f67c2b5cd3b6d9596a","session_id":"619be7863b3526a319543d0a","condition":"full-information","relevant_dimensions":["wings","legs"],"bee_group":{"antennae":"X","wings":"1","pattern":"X","legs":"M"},"action":"harvest","summary":"good-harvest","bonus":1.2600000000000011},{"rt":3753,"stimulus":"\n                    <p><b>Action: <em>harvest</em></b></p>\n                    <p>This is the bee that you just saw.</p>\n                    <img src=\"bees-with-color/bee-B2DM.svg\" width=\"200\">\n                    <p><span class=\"greenText\"><b>Successful harvest!</b></span><br>Your pay has increased by $0.02. Your bonus pay is now $0.74.</p>\n            ","response":0,"trial_type":"html-button-response","trial_index":108,"time_elapsed":522348,"internal_node_id":"0.0-4.0-1.50","subject_id":"601941db6605160008690742","study_id":"6197b3f67c2b5cd3b6d9596a","session_id":"619be7863b3526a319543d0a","condition":"full-information","relevant_dimensions":["wings","legs"],"bee_group":{"antennae":"X","wings":"1","pattern":"X","legs":"M"},"bonus":1.2600000000000011},{"rt":1535.3000000715256,"stimulus":"bees-with-color/bee-A1SF.svg","response":1,"trial_type":"image-button-response","trial_index":109,"time_elapsed":523885,"internal_node_id":"0.0-4.0-0.51","subject_id":"601941db6605160008690742","study_id":"6197b3f67c2b5cd3b6d9596a","session_id":"619be7863b3526a319543d0a","condition":"full-information","relevant_dimensions":["wings","legs"],"bee_group":{"antennae":"X","wings":"1","pattern":"X","legs":"M"},"action":"avoid","summary":"bad-avoid","bonus":1.2600000000000011},{"rt":2833.399999976158,"stimulus":"\n                    <p><b>Action: <em>avoid</em></b></p>\n                    <p>This is the bee that you just saw.</p>\n                    <img src=\"bees-with-color/bee-A1SF.svg\" width=\"200\">\n                    <p><span class=\"redText\">Bad choice,</span> the bee was friendly.<br>Your bonus pay is unchanged, and remains at $0.74.</p>\n            ","response":0,"trial_type":"html-button-response","trial_index":110,"time_elapsed":526720,"internal_node_id":"0.0-4.0-1.51","subject_id":"601941db6605160008690742","study_id":"6197b3f67c2b5cd3b6d9596a","session_id":"619be7863b3526a319543d0a","condition":"full-information","relevant_dimensions":["wings","legs"],"bee_group":{"antennae":"X","wings":"1","pattern":"X","legs":"M"},"bonus":1.2600000000000011},{"rt":1151.7000000476837,"stimulus":"bees-with-color/bee-A2SF.svg","response":0,"trial_type":"image-button-response","trial_index":111,"time_elapsed":527873,"internal_node_id":"0.0-4.0-0.52","subject_id":"601941db6605160008690742","study_id":"6197b3f67c2b5cd3b6d9596a","session_id":"619be7863b3526a319543d0a","condition":"full-information","relevant_dimensions":["wings","legs"],"bee_group":{"antennae":"X","wings":"1","pattern":"X","legs":"M"},"action":"harvest","summary":"good-harvest","bonus":1.2600000000000011},{"rt":946.5,"stimulus":"\n                    <p><b>Action: <em>harvest</em></b></p>\n                    <p>This is the bee that you just saw.</p>\n                    <img src=\"bees-with-color/bee-A2SF.svg\" width=\"200\">\n                    <p><span class=\"greenText\"><b>Successful harvest!</b></span><br>Your pay has increased by $0.02. Your bonus pay is now $0.76.</p>\n            ","response":0,"trial_type":"html-button-response","trial_index":112,"time_elapsed":528821,"internal_node_id":"0.0-4.0-1.52","subject_id":"601941db6605160008690742","study_id":"6197b3f67c2b5cd3b6d9596a","session_id":"619be7863b3526a319543d0a","condition":"full-information","relevant_dimensions":["wings","legs"],"bee_group":{"antennae":"X","wings":"1","pattern":"X","legs":"M"},"bonus":1.2600000000000011},{"rt":4718.700000047684,"stimulus":"bees-with-color/bee-A1DM.svg","response":1,"trial_type":"image-button-response","trial_index":113,"time_elapsed":533541,"internal_node_id":"0.0-4.0-0.53","subject_id":"601941db6605160008690742","study_id":"6197b3f67c2b5cd3b6d9596a","session_id":"619be7863b3526a319543d0a","condition":"full-information","relevant_dimensions":["wings","legs"],"bee_group":{"antennae":"X","wings":"1","pattern":"X","legs":"M"},"action":"avoid","summary":"good-avoid","bonus":1.2600000000000011},{"rt":690.5,"stimulus":"\n                    <p><b>Action: <em>avoid</em></b></p>\n                    <p>This is the bee that you just saw.</p>\n                    <img src=\"bees-with-color/bee-A1DM.svg\" width=\"200\">\n                    <p><span class=\"greenText\">Good choice!</span>  This bee would have stung you.<br>Your bonus pay is unchanged, and remains at $0.76.</p>\n            ","response":0,"trial_type":"html-button-response","trial_index":114,"time_elapsed":534233,"internal_node_id":"0.0-4.0-1.53","subject_id":"601941db6605160008690742","study_id":"6197b3f67c2b5cd3b6d9596a","session_id":"619be7863b3526a319543d0a","condition":"full-information","relevant_dimensions":["wings","legs"],"bee_group":{"antennae":"X","wings":"1","pattern":"X","legs":"M"},"bonus":1.2600000000000011},{"rt":968.3000000715256,"stimulus":"bees-with-color/bee-B2SF.svg","response":0,"trial_type":"image-button-response","trial_index":115,"time_elapsed":535203,"internal_node_id":"0.0-4.0-0.54","subject_id":"601941db6605160008690742","study_id":"6197b3f67c2b5cd3b6d9596a","session_id":"619be7863b3526a319543d0a","condition":"full-information","relevant_dimensions":["wings","legs"],"bee_group":{"antennae":"X","wings":"1","pattern":"X","legs":"M"},"action":"harvest","summary":"good-harvest","bonus":1.2600000000000011},{"rt":887.3999999761581,"stimulus":"\n                    <p><b>Action: <em>harvest</em></b></p>\n                    <p>This is the bee that you just saw.</p>\n                    <img src=\"bees-with-color/bee-B2SF.svg\" width=\"200\">\n                    <p><span class=\"greenText\"><b>Successful harvest!</b></span><br>Your pay has increased by $0.02. Your bonus pay is now $0.78.</p>\n            ","response":0,"trial_type":"html-button-response","trial_index":116,"time_elapsed":536092,"internal_node_id":"0.0-4.0-1.54","subject_id":"601941db6605160008690742","study_id":"6197b3f67c2b5cd3b6d9596a","session_id":"619be7863b3526a319543d0a","condition":"full-information","relevant_dimensions":["wings","legs"],"bee_group":{"antennae":"X","wings":"1","pattern":"X","legs":"M"},"bonus":1.2600000000000011},{"rt":1950.5,"stimulus":"bees-with-color/bee-A1SM.svg","response":1,"trial_type":"image-button-response","trial_index":117,"time_elapsed":538043,"internal_node_id":"0.0-4.0-0.55","subject_id":"601941db6605160008690742","study_id":"6197b3f67c2b5cd3b6d9596a","session_id":"619be7863b3526a319543d0a","condition":"full-information","relevant_dimensions":["wings","legs"],"bee_group":{"antennae":"X","wings":"1","pattern":"X","legs":"M"},"action":"avoid","summary":"good-avoid","bonus":1.2600000000000011},{"rt":706.3000000715256,"stimulus":"\n                    <p><b>Action: <em>avoid</em></b></p>\n                    <p>This is the bee that you just saw.</p>\n                    <img src=\"bees-with-color/bee-A1SM.svg\" width=\"200\">\n                    <p><span class=\"greenText\">Good choice!</span>  This bee would have stung you.<br>Your bonus pay is unchanged, and remains at $0.78.</p>\n            ","response":0,"trial_type":"html-button-response","trial_index":118,"time_elapsed":538751,"internal_node_id":"0.0-4.0-1.55","subject_id":"601941db6605160008690742","study_id":"6197b3f67c2b5cd3b6d9596a","session_id":"619be7863b3526a319543d0a","condition":"full-information","relevant_dimensions":["wings","legs"],"bee_group":{"antennae":"X","wings":"1","pattern":"X","legs":"M"},"bonus":1.2600000000000011},{"rt":2346,"stimulus":"bees-with-color/bee-B1DM.svg","response":1,"trial_type":"image-button-response","trial_index":119,"time_elapsed":541099,"internal_node_id":"0.0-4.0-0.56","subject_id":"601941db6605160008690742","study_id":"6197b3f67c2b5cd3b6d9596a","session_id":"619be7863b3526a319543d0a","condition":"full-information","relevant_dimensions":["wings","legs"],"bee_group":{"antennae":"X","wings":"1","pattern":"X","legs":"M"},"action":"avoid","summary":"good-avoid","bonus":1.2600000000000011},{"rt":906.8000000715256,"stimulus":"\n                    <p><b>Action: <em>avoid</em></b></p>\n                    <p>This is the bee that you just saw.</p>\n                    <img src=\"bees-with-color/bee-B1DM.svg\" width=\"200\">\n                    <p><span class=\"greenText\">Good choice!</span>  This bee would have stung you.<br>Your bonus pay is unchanged, and remains at $0.78.</p>\n            ","response":0,"trial_type":"html-button-response","trial_index":120,"time_elapsed":542007,"internal_node_id":"0.0-4.0-1.56","subject_id":"601941db6605160008690742","study_id":"6197b3f67c2b5cd3b6d9596a","session_id":"619be7863b3526a319543d0a","condition":"full-information","relevant_dimensions":["wings","legs"],"bee_group":{"antennae":"X","wings":"1","pattern":"X","legs":"M"},"bonus":1.2600000000000011},{"rt":999.2000000476837,"stimulus":"bees-with-color/bee-A2SM.svg","response":0,"trial_type":"image-button-response","trial_index":121,"time_elapsed":543008,"internal_node_id":"0.0-4.0-0.57","subject_id":"601941db6605160008690742","study_id":"6197b3f67c2b5cd3b6d9596a","session_id":"619be7863b3526a319543d0a","condition":"full-information","relevant_dimensions":["wings","legs"],"bee_group":{"antennae":"X","wings":"1","pattern":"X","legs":"M"},"action":"harvest","summary":"good-harvest","bonus":1.2600000000000011},{"rt":749.5999999046326,"stimulus":"\n                    <p><b>Action: <em>harvest</em></b></p>\n                    <p>This is the bee that you just saw.</p>\n                    <img src=\"bees-with-color/bee-A2SM.svg\" width=\"200\">\n                    <p><span class=\"greenText\"><b>Successful harvest!</b></span><br>Your pay has increased by $0.02. Your bonus pay is now $0.80.</p>\n            ","response":0,"trial_type":"html-button-response","trial_index":122,"time_elapsed":543759,"internal_node_id":"0.0-4.0-1.57","subject_id":"601941db6605160008690742","study_id":"6197b3f67c2b5cd3b6d9596a","session_id":"619be7863b3526a319543d0a","condition":"full-information","relevant_dimensions":["wings","legs"],"bee_group":{"antennae":"X","wings":"1","pattern":"X","legs":"M"},"bonus":1.2600000000000011},{"rt":3136.4000000953674,"stimulus":"bees-with-color/bee-A1DF.svg","response":0,"trial_type":"image-button-response","trial_index":123,"time_elapsed":546897,"internal_node_id":"0.0-4.0-0.58","subject_id":"601941db6605160008690742","study_id":"6197b3f67c2b5cd3b6d9596a","session_id":"619be7863b3526a319543d0a","condition":"full-information","relevant_dimensions":["wings","legs"],"bee_group":{"antennae":"X","wings":"1","pattern":"X","legs":"M"},"action":"harvest","summary":"good-harvest","bonus":1.2600000000000011},{"rt":781.1000000238419,"stimulus":"\n                    <p><b>Action: <em>harvest</em></b></p>\n                    <p>This is the bee that you just saw.</p>\n                    <img src=\"bees-with-color/bee-A1DF.svg\" width=\"200\">\n                    <p><span class=\"greenText\"><b>Successful harvest!</b></span><br>Your pay has increased by $0.02. Your bonus pay is now $0.82.</p>\n            ","response":0,"trial_type":"html-button-response","trial_index":124,"time_elapsed":547680,"internal_node_id":"0.0-4.0-1.58","subject_id":"601941db6605160008690742","study_id":"6197b3f67c2b5cd3b6d9596a","session_id":"619be7863b3526a319543d0a","condition":"full-information","relevant_dimensions":["wings","legs"],"bee_group":{"antennae":"X","wings":"1","pattern":"X","legs":"M"},"bonus":1.2600000000000011},{"rt":1059.8999999761581,"stimulus":"bees-with-color/bee-A2DM.svg","response":0,"trial_type":"image-button-response","trial_index":125,"time_elapsed":548741,"internal_node_id":"0.0-4.0-0.59","subject_id":"601941db6605160008690742","study_id":"6197b3f67c2b5cd3b6d9596a","session_id":"619be7863b3526a319543d0a","condition":"full-information","relevant_dimensions":["wings","legs"],"bee_group":{"antennae":"X","wings":"1","pattern":"X","legs":"M"},"action":"harvest","summary":"good-harvest","bonus":1.2600000000000011},{"rt":813.7000000476837,"stimulus":"\n                    <p><b>Action: <em>harvest</em></b></p>\n                    <p>This is the bee that you just saw.</p>\n                    <img src=\"bees-with-color/bee-A2DM.svg\" width=\"200\">\n                    <p><span class=\"greenText\"><b>Successful harvest!</b></span><br>Your pay has increased by $0.02. Your bonus pay is now $0.84.</p>\n            ","response":0,"trial_type":"html-button-response","trial_index":126,"time_elapsed":549556,"internal_node_id":"0.0-4.0-1.59","subject_id":"601941db6605160008690742","study_id":"6197b3f67c2b5cd3b6d9596a","session_id":"619be7863b3526a319543d0a","condition":"full-information","relevant_dimensions":["wings","legs"],"bee_group":{"antennae":"X","wings":"1","pattern":"X","legs":"M"},"bonus":1.2600000000000011},{"rt":1219.6000000238419,"stimulus":"bees-with-color/bee-B1SM.svg","response":1,"trial_type":"image-button-response","trial_index":127,"time_elapsed":550777,"internal_node_id":"0.0-4.0-0.60","subject_id":"601941db6605160008690742","study_id":"6197b3f67c2b5cd3b6d9596a","session_id":"619be7863b3526a319543d0a","condition":"full-information","relevant_dimensions":["wings","legs"],"bee_group":{"antennae":"X","wings":"1","pattern":"X","legs":"M"},"action":"avoid","summary":"good-avoid","bonus":1.2600000000000011},{"rt":769,"stimulus":"\n                    <p><b>Action: <em>avoid</em></b></p>\n                    <p>This is the bee that you just saw.</p>\n                    <img src=\"bees-with-color/bee-B1SM.svg\" width=\"200\">\n                    <p><span class=\"greenText\">Good choice!</span>  This bee would have stung you.<br>Your bonus pay is unchanged, and remains at $0.84.</p>\n            ","response":0,"trial_type":"html-button-response","trial_index":128,"time_elapsed":551547,"internal_node_id":"0.0-4.0-1.60","subject_id":"601941db6605160008690742","study_id":"6197b3f67c2b5cd3b6d9596a","session_id":"619be7863b3526a319543d0a","condition":"full-information","relevant_dimensions":["wings","legs"],"bee_group":{"antennae":"X","wings":"1","pattern":"X","legs":"M"},"bonus":1.2600000000000011},{"rt":5704.399999976158,"stimulus":"bees-with-color/bee-B1SF.svg","response":1,"trial_type":"image-button-response","trial_index":129,"time_elapsed":557253,"internal_node_id":"0.0-4.0-0.61","subject_id":"601941db6605160008690742","study_id":"6197b3f67c2b5cd3b6d9596a","session_id":"619be7863b3526a319543d0a","condition":"full-information","relevant_dimensions":["wings","legs"],"bee_group":{"antennae":"X","wings":"1","pattern":"X","legs":"M"},"action":"avoid","summary":"bad-avoid","bonus":1.2600000000000011},{"rt":845.5,"stimulus":"\n                    <p><b>Action: <em>avoid</em></b></p>\n                    <p>This is the bee that you just saw.</p>\n                    <img src=\"bees-with-color/bee-B1SF.svg\" width=\"200\">\n                    <p><span class=\"redText\">Bad choice,</span> the bee was friendly.<br>Your bonus pay is unchanged, and remains at $0.84.</p>\n            ","response":0,"trial_type":"html-button-response","trial_index":130,"time_elapsed":558100,"internal_node_id":"0.0-4.0-1.61","subject_id":"601941db6605160008690742","study_id":"6197b3f67c2b5cd3b6d9596a","session_id":"619be7863b3526a319543d0a","condition":"full-information","relevant_dimensions":["wings","legs"],"bee_group":{"antennae":"X","wings":"1","pattern":"X","legs":"M"},"bonus":1.2600000000000011},{"rt":1032.2000000476837,"stimulus":"bees-with-color/bee-B2DF.svg","response":0,"trial_type":"image-button-response","trial_index":131,"time_elapsed":559134,"internal_node_id":"0.0-4.0-0.62","subject_id":"601941db6605160008690742","study_id":"6197b3f67c2b5cd3b6d9596a","session_id":"619be7863b3526a319543d0a","condition":"full-information","relevant_dimensions":["wings","legs"],"bee_group":{"antennae":"X","wings":"1","pattern":"X","legs":"M"},"action":"harvest","summary":"good-harvest","bonus":1.2600000000000011},{"rt":870.3999999761581,"stimulus":"\n                    <p><b>Action: <em>harvest</em></b></p>\n                    <p>This is the bee that you just saw.</p>\n                    <img src=\"bees-with-color/bee-B2DF.svg\" width=\"200\">\n                    <p><span class=\"greenText\"><b>Successful harvest!</b></span><br>Your pay has increased by $0.02. Your bonus pay is now $0.86.</p>\n            ","response":0,"trial_type":"html-button-response","trial_index":132,"time_elapsed":560006,"internal_node_id":"0.0-4.0-1.62","subject_id":"601941db6605160008690742","study_id":"6197b3f67c2b5cd3b6d9596a","session_id":"619be7863b3526a319543d0a","condition":"full-information","relevant_dimensions":["wings","legs"],"bee_group":{"antennae":"X","wings":"1","pattern":"X","legs":"M"},"bonus":1.2600000000000011},{"rt":997.7999999523163,"stimulus":"bees-with-color/bee-B2SM.svg","response":0,"trial_type":"image-button-response","trial_index":133,"time_elapsed":561005,"internal_node_id":"0.0-4.0-0.63","subject_id":"601941db6605160008690742","study_id":"6197b3f67c2b5cd3b6d9596a","session_id":"619be7863b3526a319543d0a","condition":"full-information","relevant_dimensions":["wings","legs"],"bee_group":{"antennae":"X","wings":"1","pattern":"X","legs":"M"},"action":"harvest","summary":"good-harvest","bonus":1.2600000000000011},{"rt":553.8999999761581,"stimulus":"\n                    <p><b>Action: <em>harvest</em></b></p>\n                    <p>This is the bee that you just saw.</p>\n                    <img src=\"bees-with-color/bee-B2SM.svg\" width=\"200\">\n                    <p><span class=\"greenText\"><b>Successful harvest!</b></span><br>Your pay has increased by $0.02. Your bonus pay is now $0.88.</p>\n            ","response":0,"trial_type":"html-button-response","trial_index":134,"time_elapsed":561561,"internal_node_id":"0.0-4.0-1.63","subject_id":"601941db6605160008690742","study_id":"6197b3f67c2b5cd3b6d9596a","session_id":"619be7863b3526a319543d0a","condition":"full-information","relevant_dimensions":["wings","legs"],"bee_group":{"antennae":"X","wings":"1","pattern":"X","legs":"M"},"bonus":1.2600000000000011},{"rt":5096.600000023842,"stimulus":"You have completed the first part of this experiment.<br><br>You will now begin a shorter second part, in which you will receive no feedback.<br>The same rules regarding bonus pay apply.<br><br>Press any key to begin.","response":" ","trial_type":"html-keyboard-response","trial_index":135,"time_elapsed":566659,"internal_node_id":"0.0-5.0","subject_id":"601941db6605160008690742","study_id":"6197b3f67c2b5cd3b6d9596a","session_id":"619be7863b3526a319543d0a","condition":"full-information","relevant_dimensions":["wings","legs"],"bee_group":{"antennae":"X","wings":"1","pattern":"X","legs":"M"},"bonus":1.2600000000000011},{"rt":6928.799999952316,"stimulus":"bees-with-color/bee-A2DM.svg","response":0,"trial_type":"image-button-response","trial_index":136,"time_elapsed":573593,"internal_node_id":"0.0-6.0-0.0","subject_id":"601941db6605160008690742","study_id":"6197b3f67c2b5cd3b6d9596a","session_id":"619be7863b3526a319543d0a","condition":"full-information","relevant_dimensions":["wings","legs"],"bee_group":{"antennae":"X","wings":"1","pattern":"X","legs":"M"},"bonus":1.2600000000000011},{"rt":5387.5,"stimulus":"bees-with-color/bee-B2DM.svg","response":0,"trial_type":"image-button-response","trial_index":137,"time_elapsed":578983,"internal_node_id":"0.0-6.0-0.1","subject_id":"601941db6605160008690742","study_id":"6197b3f67c2b5cd3b6d9596a","session_id":"619be7863b3526a319543d0a","condition":"full-information","relevant_dimensions":["wings","legs"],"bee_group":{"antennae":"X","wings":"1","pattern":"X","legs":"M"},"bonus":1.2600000000000011},{"rt":7983.699999928474,"stimulus":"bees-with-color/bee-A1SF.svg","response":1,"trial_type":"image-button-response","trial_index":138,"time_elapsed":586969,"internal_node_id":"0.0-6.0-0.2","subject_id":"601941db6605160008690742","study_id":"6197b3f67c2b5cd3b6d9596a","session_id":"619be7863b3526a319543d0a","condition":"full-information","relevant_dimensions":["wings","legs"],"bee_group":{"antennae":"X","wings":"1","pattern":"X","legs":"M"},"bonus":1.2600000000000011},{"rt":4088.399999976158,"stimulus":"bees-with-color/bee-B1SM.svg","response":1,"trial_type":"image-button-response","trial_index":139,"time_elapsed":591060,"internal_node_id":"0.0-6.0-0.3","subject_id":"601941db6605160008690742","study_id":"6197b3f67c2b5cd3b6d9596a","session_id":"619be7863b3526a319543d0a","condition":"full-information","relevant_dimensions":["wings","legs"],"bee_group":{"antennae":"X","wings":"1","pattern":"X","legs":"M"},"bonus":1.2600000000000011},{"rt":870.3000000715256,"stimulus":"bees-with-color/bee-A2SM.svg","response":0,"trial_type":"image-button-response","trial_index":140,"time_elapsed":591933,"internal_node_id":"0.0-6.0-0.4","subject_id":"601941db6605160008690742","study_id":"6197b3f67c2b5cd3b6d9596a","session_id":"619be7863b3526a319543d0a","condition":"full-information","relevant_dimensions":["wings","legs"],"bee_group":{"antennae":"X","wings":"1","pattern":"X","legs":"M"},"bonus":1.2600000000000011},{"rt":3066.7000000476837,"stimulus":"bees-with-color/bee-A1SM.svg","response":1,"trial_type":"image-button-response","trial_index":141,"time_elapsed":595002,"internal_node_id":"0.0-6.0-0.5","subject_id":"601941db6605160008690742","study_id":"6197b3f67c2b5cd3b6d9596a","session_id":"619be7863b3526a319543d0a","condition":"full-information","relevant_dimensions":["wings","legs"],"bee_group":{"antennae":"X","wings":"1","pattern":"X","legs":"M"},"bonus":1.2600000000000011},{"rt":3307.7000000476837,"stimulus":"bees-with-color/bee-A1DF.svg","response":1,"trial_type":"image-button-response","trial_index":142,"time_elapsed":598312,"internal_node_id":"0.0-6.0-0.6","subject_id":"601941db6605160008690742","study_id":"6197b3f67c2b5cd3b6d9596a","session_id":"619be7863b3526a319543d0a","condition":"full-information","relevant_dimensions":["wings","legs"],"bee_group":{"antennae":"X","wings":"1","pattern":"X","legs":"M"},"bonus":1.2600000000000011},{"rt":2546.2000000476837,"stimulus":"bees-with-color/bee-B1SF.svg","response":0,"trial_type":"image-button-response","trial_index":143,"time_elapsed":600861,"internal_node_id":"0.0-6.0-0.7","subject_id":"601941db6605160008690742","study_id":"6197b3f67c2b5cd3b6d9596a","session_id":"619be7863b3526a319543d0a","condition":"full-information","relevant_dimensions":["wings","legs"],"bee_group":{"antennae":"X","wings":"1","pattern":"X","legs":"M"},"bonus":1.2600000000000011},{"rt":3222.5,"stimulus":"bees-with-color/bee-A1DM.svg","response":1,"trial_type":"image-button-response","trial_index":144,"time_elapsed":604086,"internal_node_id":"0.0-6.0-0.8","subject_id":"601941db6605160008690742","study_id":"6197b3f67c2b5cd3b6d9596a","session_id":"619be7863b3526a319543d0a","condition":"full-information","relevant_dimensions":["wings","legs"],"bee_group":{"antennae":"X","wings":"1","pattern":"X","legs":"M"},"bonus":1.2600000000000011},{"rt":3926.2000000476837,"stimulus":"bees-with-color/bee-B1DM.svg","response":1,"trial_type":"image-button-response","trial_index":145,"time_elapsed":608015,"internal_node_id":"0.0-6.0-0.9","subject_id":"601941db6605160008690742","study_id":"6197b3f67c2b5cd3b6d9596a","session_id":"619be7863b3526a319543d0a","condition":"full-information","relevant_dimensions":["wings","legs"],"bee_group":{"antennae":"X","wings":"1","pattern":"X","legs":"M"},"bonus":1.2600000000000011},{"rt":2282.7000000476837,"stimulus":"bees-with-color/bee-A2SF.svg","response":0,"trial_type":"image-button-response","trial_index":146,"time_elapsed":610300,"internal_node_id":"0.0-6.0-0.10","subject_id":"601941db6605160008690742","study_id":"6197b3f67c2b5cd3b6d9596a","session_id":"619be7863b3526a319543d0a","condition":"full-information","relevant_dimensions":["wings","legs"],"bee_group":{"antennae":"X","wings":"1","pattern":"X","legs":"M"},"bonus":1.2600000000000011},{"rt":655.2000000476837,"stimulus":"bees-with-color/bee-B2SF.svg","response":0,"trial_type":"image-button-response","trial_index":147,"time_elapsed":610957,"internal_node_id":"0.0-6.0-0.11","subject_id":"601941db6605160008690742","study_id":"6197b3f67c2b5cd3b6d9596a","session_id":"619be7863b3526a319543d0a","condition":"full-information","relevant_dimensions":["wings","legs"],"bee_group":{"antennae":"X","wings":"1","pattern":"X","legs":"M"},"bonus":1.2600000000000011},{"rt":806,"stimulus":"bees-with-color/bee-A2DF.svg","response":0,"trial_type":"image-button-response","trial_index":148,"time_elapsed":611765,"internal_node_id":"0.0-6.0-0.12","subject_id":"601941db6605160008690742","study_id":"6197b3f67c2b5cd3b6d9596a","session_id":"619be7863b3526a319543d0a","condition":"full-information","relevant_dimensions":["wings","legs"],"bee_group":{"antennae":"X","wings":"1","pattern":"X","legs":"M"},"bonus":1.2600000000000011},{"rt":882.1000000238419,"stimulus":"bees-with-color/bee-B2SM.svg","response":0,"trial_type":"image-button-response","trial_index":149,"time_elapsed":612649,"internal_node_id":"0.0-6.0-0.13","subject_id":"601941db6605160008690742","study_id":"6197b3f67c2b5cd3b6d9596a","session_id":"619be7863b3526a319543d0a","condition":"full-information","relevant_dimensions":["wings","legs"],"bee_group":{"antennae":"X","wings":"1","pattern":"X","legs":"M"},"bonus":1.2600000000000011},{"rt":2840.899999976158,"stimulus":"bees-with-color/bee-B1DF.svg","response":1,"trial_type":"image-button-response","trial_index":150,"time_elapsed":615492,"internal_node_id":"0.0-6.0-0.14","subject_id":"601941db6605160008690742","study_id":"6197b3f67c2b5cd3b6d9596a","session_id":"619be7863b3526a319543d0a","condition":"full-information","relevant_dimensions":["wings","legs"],"bee_group":{"antennae":"X","wings":"1","pattern":"X","legs":"M"},"bonus":1.2600000000000011},{"rt":1192.8999999761581,"stimulus":"bees-with-color/bee-B2DF.svg","response":0,"trial_type":"image-button-response","trial_index":151,"time_elapsed":616687,"internal_node_id":"0.0-6.0-0.15","subject_id":"601941db6605160008690742","study_id":"6197b3f67c2b5cd3b6d9596a","session_id":"619be7863b3526a319543d0a","condition":"full-information","relevant_dimensions":["wings","legs"],"bee_group":{"antennae":"X","wings":"1","pattern":"X","legs":"M"},"bonus":1.2600000000000011},{"rt":3841.2000000476837,"stimulus":"bees-with-color/bee-A1DM.svg","response":1,"trial_type":"image-button-response","trial_index":152,"time_elapsed":620530,"internal_node_id":"0.0-6.0-0.16","subject_id":"601941db6605160008690742","study_id":"6197b3f67c2b5cd3b6d9596a","session_id":"619be7863b3526a319543d0a","condition":"full-information","relevant_dimensions":["wings","legs"],"bee_group":{"antennae":"X","wings":"1","pattern":"X","legs":"M"},"bonus":1.2600000000000011},{"rt":903.8999999761581,"stimulus":"bees-with-color/bee-B2DF.svg","response":0,"trial_type":"image-button-response","trial_index":153,"time_elapsed":621436,"internal_node_id":"0.0-6.0-0.17","subject_id":"601941db6605160008690742","study_id":"6197b3f67c2b5cd3b6d9596a","session_id":"619be7863b3526a319543d0a","condition":"full-information","relevant_dimensions":["wings","legs"],"bee_group":{"antennae":"X","wings":"1","pattern":"X","legs":"M"},"bonus":1.2600000000000011},{"rt":4201.200000047684,"stimulus":"bees-with-color/bee-B1DF.svg","response":1,"trial_type":"image-button-response","trial_index":154,"time_elapsed":625639,"internal_node_id":"0.0-6.0-0.18","subject_id":"601941db6605160008690742","study_id":"6197b3f67c2b5cd3b6d9596a","session_id":"619be7863b3526a319543d0a","condition":"full-information","relevant_dimensions":["wings","legs"],"bee_group":{"antennae":"X","wings":"1","pattern":"X","legs":"M"},"bonus":1.2600000000000011},{"rt":1111.8999999761581,"stimulus":"bees-with-color/bee-A2DF.svg","response":0,"trial_type":"image-button-response","trial_index":155,"time_elapsed":626753,"internal_node_id":"0.0-6.0-0.19","subject_id":"601941db6605160008690742","study_id":"6197b3f67c2b5cd3b6d9596a","session_id":"619be7863b3526a319543d0a","condition":"full-information","relevant_dimensions":["wings","legs"],"bee_group":{"antennae":"X","wings":"1","pattern":"X","legs":"M"},"bonus":1.2600000000000011},{"rt":899.6999999284744,"stimulus":"bees-with-color/bee-A2DM.svg","response":0,"trial_type":"image-button-response","trial_index":156,"time_elapsed":627654,"internal_node_id":"0.0-6.0-0.20","subject_id":"601941db6605160008690742","study_id":"6197b3f67c2b5cd3b6d9596a","session_id":"619be7863b3526a319543d0a","condition":"full-information","relevant_dimensions":["wings","legs"],"bee_group":{"antennae":"X","wings":"1","pattern":"X","legs":"M"},"bonus":1.2600000000000011},{"rt":2373,"stimulus":"bees-with-color/bee-A1SM.svg","response":1,"trial_type":"image-button-response","trial_index":157,"time_elapsed":630029,"internal_node_id":"0.0-6.0-0.21","subject_id":"601941db6605160008690742","study_id":"6197b3f67c2b5cd3b6d9596a","session_id":"619be7863b3526a319543d0a","condition":"full-information","relevant_dimensions":["wings","legs"],"bee_group":{"antennae":"X","wings":"1","pattern":"X","legs":"M"},"bonus":1.2600000000000011},{"rt":850,"stimulus":"bees-with-color/bee-B2DM.svg","response":0,"trial_type":"image-button-response","trial_index":158,"time_elapsed":630881,"internal_node_id":"0.0-6.0-0.22","subject_id":"601941db6605160008690742