[{"success":true,"trial_type":"fullscreen","trial_index":0,"time_elapsed":30879,"internal_node_id":"0.0-0.0","subject_id":"60b9f1fe58782eeab6372f1c","study_id":"6197b3f67c2b5cd3b6d9596a","session_id":"619beef190be54af9b7ca6b3","condition":"contingent","relevant_dimensions":["wings","legs"],"bee_group":{"antennae":"X","wings":"1","pattern":"X","legs":"F"},"bonus":0.5600000000000008},{"success":true,"timeout":false,"failed_images":[],"failed_audio":[],"failed_video":[],"trial_type":"preload","trial_index":1,"time_elapsed":35261,"internal_node_id":"0.0-1.0","subject_id":"60b9f1fe58782eeab6372f1c","study_id":"6197b3f67c2b5cd3b6d9596a","session_id":"619beef190be54af9b7ca6b3","condition":"contingent","relevant_dimensions":["wings","legs"],"bee_group":{"antennae":"X","wings":"1","pattern":"X","legs":"F"},"bonus":0.5600000000000008},{"rt":4577.600000023842,"stimulus":"Welcome! Press any key to begin.","response":" ","trial_type":"html-keyboard-response","trial_index":2,"time_elapsed":39840,"internal_node_id":"0.0-2.0","subject_id":"60b9f1fe58782eeab6372f1c","study_id":"6197b3f67c2b5cd3b6d9596a","session_id":"619beef190be54af9b7ca6b3","condition":"contingent","relevant_dimensions":["wings","legs"],"bee_group":{"antennae":"X","wings":"1","pattern":"X","legs":"F"},"bonus":0.5600000000000008},{"view_history":[{"page_index":0,"viewing_time":3487.399999976158},{"page_index":1,"viewing_time":10675.700000047684},{"page_index":2,"viewing_time":8075.899999976158},{"page_index":3,"viewing_time":12864},{"page_index":4,"viewing_time":7956},{"page_index":5,"viewing_time":8639.799999952316},{"page_index":6,"viewing_time":7620.200000047684},{"page_index":7,"viewing_time":8451.899999976158},{"page_index":8,"viewing_time":4029.7999999523163},{"page_index":9,"viewing_time":2044.1000000238419},{"page_index":10,"viewing_time":2495.899999976158},{"page_index":11,"viewing_time":7540.600000023842},{"page_index":12,"viewing_time":6041.600000023842},{"page_index":13,"viewing_time":1417.7999999523163},{"page_index":14,"viewing_time":2346.100000023842}],"rt":93687.10000002384,"trial_type":"instructions","trial_index":3,"time_elapsed":133528,"internal_node_id":"0.0-3.0-0.0","subject_id":"60b9f1fe58782eeab6372f1c","study_id":"6197b3f67c2b5cd3b6d9596a","session_id":"619beef190be54af9b7ca6b3","condition":"contingent","relevant_dimensions":["wings","legs"],"bee_group":{"antennae":"X","wings":"1","pattern":"X","legs":"F"},"bonus":0.5600000000000008},{"rt":17101.800000071526,"response":{"Q0":["Two or six legs","Stripes or spots on body","Single or double wings","Antennae or no antennae"]},"question_order":[0],"trial_type":"survey-multi-select","trial_index":4,"time_elapsed":150634,"internal_node_id":"0.0-3.0-1.0","subject_id":"60b9f1fe58782eeab6372f1c","study_id":"6197b3f67c2b5cd3b6d9596a","session_id":"619beef190be54af9b7ca6b3","condition":"contingent","relevant_dimensions":["wings","legs"],"bee_group":{"antennae":"X","wings":"1","pattern":"X","legs":"F"},"correct":true,"bonus":0.5600000000000008},{"rt":20173.600000023842,"response":{"Q1":"No.","Q2":"Based on the four features of the bee.","Q3":"You do not learn if it was friendly or dangerous, and do not alter your bonus."},"question_order":[0,1,2],"trial_type":"survey-multi-choice","trial_index":5,"time_elapsed":170810,"internal_node_id":"0.0-3.0-2.0","subject_id":"60b9f1fe58782eeab6372f1c","study_id":"6197b3f67c2b5cd3b6d9596a","session_id":"619beef190be54af9b7ca6b3","condition":"contingent","relevant_dimensions":["wings","legs"],"bee_group":{"antennae":"X","wings":"1","pattern":"X","legs":"F"},"correct":true,"bonus":0.5600000000000008},{"rt":2388.2000000476837,"stimulus":"<p>Congrats, you got everything right<br>When you're ready, click the button below to continue to the experiment.</p>","response":0,"trial_type":"html-button-response","trial_index":6,"time_elapsed":173200,"internal_node_id":"0.0-3.0-3.0","subject_id":"60b9f1fe58782eeab6372f1c","study_id":"6197b3f67c2b5cd3b6d9596a","session_id":"619beef190be54af9b7ca6b3","condition":"contingent","relevant_dimensions":["wings","legs"],"bee_group":{"antennae":"X","wings":"1","pattern":"X","legs":"F"},"bonus":0.5600000000000008},{"rt":3751.2999999523163,"stimulus":"bees-with-color/bee-B1DF.svg","response":0,"trial_type":"image-button-response","trial_index":7,"time_elapsed":176953,"internal_node_id":"0.0-4.0-0.0","subject_id":"60b9f1fe58782eeab6372f1c","study_id":"6197b3f67c2b5cd3b6d9596a","session_id":"619beef190be54af9b7ca6b3","condition":"contingent","relevant_dimensions":["wings","legs"],"bee_group":{"antennae":"X","wings":"1","pattern":"X","legs":"F"},"action":"harvest","summary":"bad-harvest","bonus":0.5600000000000008},{"rt":4545.800000071526,"stimulus":"\n                    <p><b>Action: <em>harvest</em></b></p>\n                    <p>This is the bee that you just saw.</p>\n                    <img src=\"bees-with-color/bee-B1DF.svg\" width=\"200\">\n                    <p><span class=\"redText\">Bad choice, the bee was angry.</span><br><b>You have been stung!</b><br>Your pay has been decreased by $0.10. Your bonus pay is now $0.44.</p>\n            ","response":0,"trial_type":"html-button-response","trial_index":8,"time_elapsed":181501,"internal_node_id":"0.0-4.0-1.0","subject_id":"60b9f1fe58782eeab6372f1c","study_id":"6197b3f67c2b5cd3b6d9596a","session_id":"619beef190be54af9b7ca6b3","condition":"contingent","relevant_dimensions":["wings","legs"],"bee_group":{"antennae":"X","wings":"1","pattern":"X","legs":"F"},"bonus":0.5600000000000008},{"rt":3786.100000023842,"stimulus":"bees-with-color/bee-A1DF.svg","response":1,"trial_type":"image-button-response","trial_index":9,"time_elapsed":185289,"internal_node_id":"0.0-4.0-0.1","subject_id":"60b9f1fe58782eeab6372f1c","study_id":"6197b3f67c2b5cd3b6d9596a","session_id":"619beef190be54af9b7ca6b3","condition":"contingent","relevant_dimensions":["wings","legs"],"bee_group":{"antennae":"X","wings":"1","pattern":"X","legs":"F"},"action":"avoid","summary":"good-avoid","bonus":0.5600000000000008},{"rt":5250.200000047684,"stimulus":"\n                    <p><b>Action: <em>avoid</em></b></p>\n                    <p>This is the bee that you just saw.</p>\n                    <img src=\"bees-with-color/bee-A1DF.svg\" width=\"200\">\n                    <p><br>Your bonus pay is unchanged, and remains at $0.44.</p>\n            ","response":0,"trial_type":"html-button-response","trial_index":10,"time_elapsed":190541,"internal_node_id":"0.0-4.0-1.1","subject_id":"60b9f1fe58782eeab6372f1c","study_id":"6197b3f67c2b5cd3b6d9596a","session_id":"619beef190be54af9b7ca6b3","condition":"contingent","relevant_dimensions":["wings","legs"],"bee_group":{"antennae":"X","wings":"1","pattern":"X","legs":"F"},"bonus":0.5600000000000008},{"rt":1748.2000000476837,"stimulus":"bees-with-color/bee-B2SM.svg","response":0,"trial_type":"image-button-response","trial_index":11,"time_elapsed":192291,"internal_node_id":"0.0-4.0-0.2","subject_id":"60b9f1fe58782eeab6372f1c","study_id":"6197b3f67c2b5cd3b6d9596a","session_id":"619beef190be54af9b7ca6b3","condition":"contingent","relevant_dimensions":["wings","legs"],"bee_group":{"antennae":"X","wings":"1","pattern":"X","legs":"F"},"action":"harvest","summary":"good-harvest","bonus":0.5600000000000008},{"rt":4164.299999952316,"stimulus":"\n                    <p><b>Action: <em>harvest</em></b></p>\n                    <p>This is the bee that you just saw.</p>\n                    <img src=\"bees-with-color/bee-B2SM.svg\" width=\"200\">\n                    <p><span class=\"greenText\"><b>Successful harvest!</b></span><br>Your pay has increased by $0.02. Your bonus pay is now $0.46.</p>\n            ","response":0,"trial_type":"html-button-response","trial_index":12,"time_elapsed":196457,"internal_node_id":"0.0-4.0-1.2","subject_id":"60b9f1fe58782eeab6372f1c","study_id":"6197b3f67c2b5cd3b6d9596a","session_id":"619beef190be54af9b7ca6b3","condition":"contingent","relevant_dimensions":["wings","legs"],"bee_group":{"antennae":"X","wings":"1","pattern":"X","legs":"F"},"bonus":0.5600000000000008},{"rt":2071.2999999523163,"stimulus":"bees-with-color/bee-A1SM.svg","response":0,"trial_type":"image-button-response","trial_index":13,"time_elapsed":198530,"internal_node_id":"0.0-4.0-0.3","subject_id":"60b9f1fe58782eeab6372f1c","study_id":"6197b3f67c2b5cd3b6d9596a","session_id":"619beef190be54af9b7ca6b3","condition":"contingent","relevant_dimensions":["wings","legs"],"bee_group":{"antennae":"X","wings":"1","pattern":"X","legs":"F"},"action":"harvest","summary":"good-harvest","bonus":0.5600000000000008},{"rt":1521.1999999284744,"stimulus":"\n                    <p><b>Action: <em>harvest</em></b></p>\n                    <p>This is the bee that you just saw.</p>\n                    <img src=\"bees-with-color/bee-A1SM.svg\" width=\"200\">\n                    <p><span class=\"greenText\"><b>Successful harvest!</b></span><br>Your pay has increased by $0.02. Your bonus pay is now $0.48.</p>\n            ","response":0,"trial_type":"html-button-response","trial_index":14,"time_elapsed":200053,"internal_node_id":"0.0-4.0-1.3","subject_id":"60b9f1fe58782eeab6372f1c","study_id":"6197b3f67c2b5cd3b6d9596a","session_id":"619beef190be54af9b7ca6b3","condition":"contingent","relevant_dimensions":["wings","legs"],"bee_group":{"antennae":"X","wings":"1","pattern":"X","legs":"F"},"bonus":0.5600000000000008},{"rt":3120.5,"stimulus":"bees-with-color/bee-A2DF.svg","response":1,"trial_type":"image-button-response","trial_index":15,"time_elapsed":203175,"internal_node_id":"0.0-4.0-0.4","subject_id":"60b9f1fe58782eeab6372f1c","study_id":"6197b3f67c2b5cd3b6d9596a","session_id":"619beef190be54af9b7ca6b3","condition":"contingent","relevant_dimensions":["wings","legs"],"bee_group":{"antennae":"X","wings":"1","pattern":"X","legs":"F"},"action":"avoid","summary":"bad-avoid","bonus":0.5600000000000008},{"rt":1530.5,"stimulus":"\n                    <p><b>Action: <em>avoid</em></b></p>\n                    <p>This is the bee that you just saw.</p>\n                    <img src=\"bees-with-color/bee-A2DF.svg\" width=\"200\">\n                    <p><br>Your bonus pay is unchanged, and remains at $0.48.</p>\n            ","response":0,"trial_type":"html-button-response","trial_index":16,"time_elapsed":204707,"internal_node_id":"0.0-4.0-1.4","subject_id":"60b9f1fe58782eeab6372f1c","study_id":"6197b3f67c2b5cd3b6d9596a","session_id":"619beef190be54af9b7ca6b3","condition":"contingent","relevant_dimensions":["wings","legs"],"bee_group":{"antennae":"X","wings":"1","pattern":"X","legs":"F"},"bonus":0.5600000000000008},{"rt":1346.2999999523163,"stimulus":"bees-with-color/bee-B2DF.svg","response":0,"trial_type":"image-button-response","trial_index":17,"time_elapsed":206055,"internal_node_id":"0.0-4.0-0.5","subject_id":"60b9f1fe58782eeab6372f1c","study_id":"6197b3f67c2b5cd3b6d9596a","session_id":"619beef190be54af9b7ca6b3","condition":"contingent","relevant_dimensions":["wings","legs"],"bee_group":{"antennae":"X","wings":"1","pattern":"X","legs":"F"},"action":"harvest","summary":"good-harvest","bonus":0.5600000000000008},{"rt":1748.1000000238419,"stimulus":"\n                    <p><b>Action: <em>harvest</em></b></p>\n                    <p>This is the bee that you just saw.</p>\n                    <img src=\"bees-with-color/bee-B2DF.svg\" width=\"200\">\n                    <p><span class=\"greenText\"><b>Successful harvest!</b></span><br>Your pay has increased by $0.02. Your bonus pay is now $0.50.</p>\n            ","response":0,"trial_type":"html-button-response","trial_index":18,"time_elapsed":207805,"internal_node_id":"0.0-4.0-1.5","subject_id":"60b9f1fe58782eeab6372f1c","study_id":"6197b3f67c2b5cd3b6d9596a","session_id":"619beef190be54af9b7ca6b3","condition":"contingent","relevant_dimensions":["wings","legs"],"bee_group":{"antennae":"X","wings":"1","pattern":"X","legs":"F"},"bonus":0.5600000000000008},{"rt":1980.1000000238419,"stimulus":"bees-with-color/bee-B1DM.svg","response":0,"trial_type":"image-button-response","trial_index":19,"time_elapsed":209787,"internal_node_id":"0.0-4.0-0.6","subject_id":"60b9f1fe58782eeab6372f1c","study_id":"6197b3f67c2b5cd3b6d9596a","session_id":"619beef190be54af9b7ca6b3","condition":"contingent","relevant_dimensions":["wings","legs"],"bee_group":{"antennae":"X","wings":"1","pattern":"X","legs":"F"},"action":"harvest","summary":"good-harvest","bonus":0.5600000000000008},{"rt":2328.5,"stimulus":"\n                    <p><b>Action: <em>harvest</em></b></p>\n                    <p>This is the bee that you just saw.</p>\n                    <img src=\"bees-with-color/bee-B1DM.svg\" width=\"200\">\n                    <p><span class=\"greenText\"><b>Successful harvest!</b></span><br>Your pay has increased by $0.02. Your bonus pay is now $0.52.</p>\n            ","response":0,"trial_type":"html-button-response","trial_index":20,"time_elapsed":212117,"internal_node_id":"0.0-4.0-1.6","subject_id":"60b9f1fe58782eeab6372f1c","study_id":"6197b3f67c2b5cd3b6d9596a","session_id":"619beef190be54af9b7ca6b3","condition":"contingent","relevant_dimensions":["wings","legs"],"bee_group":{"antennae":"X","wings":"1","pattern":"X","legs":"F"},"bonus":0.5600000000000008},{"rt":2610.2000000476837,"stimulus":"bees-with-color/bee-B2DM.svg","response":0,"trial_type":"image-button-response","trial_index":21,"time_elapsed":214729,"internal_node_id":"0.0-4.0-0.7","subject_id":"60b9f1fe58782eeab6372f1c","study_id":"6197b3f67c2b5cd3b6d9596a","session_id":"619beef190be54af9b7ca6b3","condition":"contingent","relevant_dimensions":["wings","legs"],"bee_group":{"antennae":"X","wings":"1","pattern":"X","legs":"F"},"action":"harvest","summary":"good-harvest","bonus":0.5600000000000008},{"rt":1390.1999999284744,"stimulus":"\n                    <p><b>Action: <em>harvest</em></b></p>\n                    <p>This is the bee that you just saw.</p>\n                    <img src=\"bees-with-color/bee-B2DM.svg\" width=\"200\">\n                    <p><span class=\"greenText\"><b>Successful harvest!</b></span><br>Your pay has increased by $0.02. Your bonus pay is now $0.54.</p>\n            ","response":0,"trial_type":"html-button-response","trial_index":22,"time_elapsed":216121,"internal_node_id":"0.0-4.0-1.7","subject_id":"60b9f1fe58782eeab6372f1c","study_id":"6197b3f67c2b5cd3b6d9596a","session_id":"619beef190be54af9b7ca6b3","condition":"contingent","relevant_dimensions":["wings","legs"],"bee_group":{"antennae":"X","wings":"1","pattern":"X","legs":"F"},"bonus":0.5600000000000008},{"rt":1688.1000000238419,"stimulus":"bees-with-color/bee-A1SF.svg","response":0,"trial_type":"image-button-response","trial_index":23,"time_elapsed":217811,"internal_node_id":"0.0-4.0-0.8","subject_id":"60b9f1fe58782eeab6372f1c","study_id":"6197b3f67c2b5cd3b6d9596a","session_id":"619beef190be54af9b7ca6b3","condition":"contingent","relevant_dimensions":["wings","legs"],"bee_group":{"antennae":"X","wings":"1","pattern":"X","legs":"F"},"action":"harvest","summary":"bad-harvest","bonus":0.5600000000000008},{"rt":1390.1000000238419,"stimulus":"\n                    <p><b>Action: <em>harvest</em></b></p>\n                    <p>This is the bee that you just saw.</p>\n                    <img src=\"bees-with-color/bee-A1SF.svg\" width=\"200\">\n                    <p><span class=\"redText\">Bad choice, the bee was angry.</span><br><b>You have been stung!</b><br>Your pay has been decreased by $0.10. Your bonus pay is now $0.44.</p>\n            ","response":0,"trial_type":"html-button-response","trial_index":24,"time_elapsed":219203,"internal_node_id":"0.0-4.0-1.8","subject_id":"60b9f1fe58782eeab6372f1c","study_id":"6197b3f67c2b5cd3b6d9596a","session_id":"619beef190be54af9b7ca6b3","condition":"contingent","relevant_dimensions":["wings","legs"],"bee_group":{"antennae":"X","wings":"1","pattern":"X","legs":"F"},"bonus":0.5600000000000008},{"rt":2334.399999976158,"stimulus":"bees-with-color/bee-A2SM.svg","response":0,"trial_type":"image-button-response","trial_index":25,"time_elapsed":221539,"internal_node_id":"0.0-4.0-0.9","subject_id":"60b9f1fe58782eeab6372f1c","study_id":"6197b3f67c2b5cd3b6d9596a","session_id":"619beef190be54af9b7ca6b3","condition":"contingent","relevant_dimensions":["wings","legs"],"bee_group":{"antennae":"X","wings":"1","pattern":"X","legs":"F"},"action":"harvest","summary":"good-harvest","bonus":0.5600000000000008},{"rt":1006.7999999523163,"stimulus":"\n                    <p><b>Action: <em>harvest</em></b></p>\n                    <p>This is the bee that you just saw.</p>\n                    <img src=\"bees-with-color/bee-A2SM.svg\" width=\"200\">\n                    <p><span class=\"greenText\"><b>Successful harvest!</b></span><br>Your pay has increased by $0.02. Your bonus pay is now $0.46.</p>\n            ","response":0,"trial_type":"html-button-response","trial_index":26,"time_elapsed":222547,"internal_node_id":"0.0-4.0-1.9","subject_id":"60b9f1fe58782eeab6372f1c","study_id":"6197b3f67c2b5cd3b6d9596a","session_id":"619beef190be54af9b7ca6b3","condition":"contingent","relevant_dimensions":["wings","legs"],"bee_group":{"antennae":"X","wings":"1","pattern":"X","legs":"F"},"bonus":0.5600000000000008},{"rt":2358.5,"stimulus":"bees-with-color/bee-B1SM.svg","response":0,"trial_type":"image-button-response","trial_index":27,"time_elapsed":224907,"internal_node_id":"0.0-4.0-0.10","subject_id":"60b9f1fe58782eeab6372f1c","study_id":"6197b3f67c2b5cd3b6d9596a","session_id":"619beef190be54af9b7ca6b3","condition":"contingent","relevant_dimensions":["wings","legs"],"bee_group":{"antennae":"X","wings":"1","pattern":"X","legs":"F"},"action":"harvest","summary":"good-harvest","bonus":0.5600000000000008},{"rt":972.7999999523163,"stimulus":"\n                    <p><b>Action: <em>harvest</em></b></p>\n                    <p>This is the bee that you just saw.</p>\n                    <img src=\"bees-with-color/bee-B1SM.svg\" width=\"200\">\n                    <p><span class=\"greenText\"><b>Successful harvest!</b></span><br>Your pay has increased by $0.02. Your bonus pay is now $0.48.</p>\n            ","response":0,"trial_type":"html-button-response","trial_index":28,"time_elapsed":225881,"internal_node_id":"0.0-4.0-1.10","subject_id":"60b9f1fe58782eeab6372f1c","study_id":"6197b3f67c2b5cd3b6d9596a","session_id":"619beef190be54af9b7ca6b3","condition":"contingent","relevant_dimensions":["wings","legs"],"bee_group":{"antennae":"X","wings":"1","pattern":"X","legs":"F"},"bonus":0.5600000000000008},{"rt":1526.7000000476837,"stimulus":"bees-with-color/bee-A1DM.svg","response":1,"trial_type":"image-button-response","trial_index":29,"time_elapsed":227409,"internal_node_id":"0.0-4.0-0.11","subject_id":"60b9f1fe58782eeab6372f1c","study_id":"6197b3f67c2b5cd3b6d9596a","session_id":"619beef190be54af9b7ca6b3","condition":"contingent","relevant_dimensions":["wings","legs"],"bee_group":{"antennae":"X","wings":"1","pattern":"X","legs":"F"},"action":"avoid","summary":"bad-avoid","bonus":0.5600000000000008},{"rt":866.6000000238419,"stimulus":"\n                    <p><b>Action: <em>avoid</em></b></p>\n                    <p>This is the bee that you just saw.</p>\n                    <img src=\"bees-with-color/bee-A1DM.svg\" width=\"200\">\n                    <p><br>Your bonus pay is unchanged, and remains at $0.48.</p>\n            ","response":0,"trial_type":"html-button-response","trial_index":30,"time_elapsed":228277,"internal_node_id":"0.0-4.0-1.11","subject_id":"60b9f1fe58782eeab6372f1c","study_id":"6197b3f67c2b5cd3b6d9596a","session_id":"619beef190be54af9b7ca6b3","condition":"contingent","relevant_dimensions":["wings","legs"],"bee_group":{"antennae":"X","wings":"1","pattern":"X","legs":"F"},"bonus":0.5600000000000008},{"rt":1689,"stimulus":"bees-with-color/bee-A2DM.svg","response":0,"trial_type":"image-button-response","trial_index":31,"time_elapsed":229967,"internal_node_id":"0.0-4.0-0.12","subject_id":"60b9f1fe58782eeab6372f1c","study_id":"6197b3f67c2b5cd3b6d9596a","session_id":"619beef190be54af9b7ca6b3","condition":"contingent","relevant_dimensions":["wings","legs"],"bee_group":{"antennae":"X","wings":"1","pattern":"X","legs":"F"},"action":"harvest","summary":"good-harvest","bonus":0.5600000000000008},{"rt":820.5,"stimulus":"\n                    <p><b>Action: <em>harvest</em></b></p>\n                    <p>This is the bee that you just saw.</p>\n                    <img src=\"bees-with-color/bee-A2DM.svg\" width=\"200\">\n                    <p><span class=\"greenText\"><b>Successful harvest!</b></span><br>Your pay has increased by $0.02. Your bonus pay is now $0.50.</p>\n            ","response":0,"trial_type":"html-button-response","trial_index":32,"time_elapsed":230789,"internal_node_id":"0.0-4.0-1.12","subject_id":"60b9f1fe58782eeab6372f1c","study_id":"6197b3f67c2b5cd3b6d9596a","session_id":"619beef190be54af9b7ca6b3","condition":"contingent","relevant_dimensions":["wings","legs"],"bee_group":{"antennae":"X","wings":"1","pattern":"X","legs":"F"},"bonus":0.5600000000000008},{"rt":1775.1000000238419,"stimulus":"bees-with-color/bee-A2SF.svg","response":1,"trial_type":"image-button-response","trial_index":33,"time_elapsed":232565,"internal_node_id":"0.0-4.0-0.13","subject_id":"60b9f1fe58782eeab6372f1c","study_id":"6197b3f67c2b5cd3b6d9596a","session_id":"619beef190be54af9b7ca6b3","condition":"contingent","relevant_dimensions":["wings","legs"],"bee_group":{"antennae":"X","wings":"1","pattern":"X","legs":"F"},"action":"avoid","summary":"bad-avoid","bonus":0.5600000000000008},{"rt":821,"stimulus":"\n                    <p><b>Action: <em>avoid</em></b></p>\n                    <p>This is the bee that you just saw.</p>\n                    <img src=\"bees-with-color/bee-A2SF.svg\" width=\"200\">\n                    <p><br>Your bonus pay is unchanged, and remains at $0.50.</p>\n            ","response":0,"trial_type":"html-button-response","trial_index":34,"time_elapsed":233387,"internal_node_id":"0.0-4.0-1.13","subject_id":"60b9f1fe58782eeab6372f1c","study_id":"6197b3f67c2b5cd3b6d9596a","session_id":"619beef190be54af9b7ca6b3","condition":"contingent","relevant_dimensions":["wings","legs"],"bee_group":{"antennae":"X","wings":"1","pattern":"X","legs":"F"},"bonus":0.5600000000000008},{"rt":1546.2999999523163,"stimulus":"bees-with-color/bee-B1SF.svg","response":0,"trial_type":"image-button-response","trial_index":35,"time_elapsed":234934,"internal_node_id":"0.0-4.0-0.14","subject_id":"60b9f1fe58782eeab6372f1c","study_id":"6197b3f67c2b5cd3b6d9596a","session_id":"619beef190be54af9b7ca6b3","condition":"contingent","relevant_dimensions":["wings","legs"],"bee_group":{"antennae":"X","wings":"1","pattern":"X","legs":"F"},"action":"harvest","summary":"bad-harvest","bonus":0.5600000000000008},{"rt":801,"stimulus":"\n                    <p><b>Action: <em>harvest</em></b></p>\n                    <p>This is the bee that you just saw.</p>\n                    <img src=\"bees-with-color/bee-B1SF.svg\" width=\"200\">\n                    <p><span class=\"redText\">Bad choice, the bee was angry.</span><br><b>You have been stung!</b><br>Your pay has been decreased by $0.10. Your bonus pay is now $0.40.</p>\n            ","response":0,"trial_type":"html-button-response","trial_index":36,"time_elapsed":235737,"internal_node_id":"0.0-4.0-1.14","subject_id":"60b9f1fe58782eeab6372f1c","study_id":"6197b3f67c2b5cd3b6d9596a","session_id":"619beef190be54af9b7ca6b3","condition":"contingent","relevant_dimensions":["wings","legs"],"bee_group":{"antennae":"X","wings":"1","pattern":"X","legs":"F"},"bonus":0.5600000000000008},{"rt":936.8999999761581,"stimulus":"bees-with-color/bee-B2SF.svg","response":1,"trial_type":"image-button-response","trial_index":37,"time_elapsed":236675,"internal_node_id":"0.0-4.0-0.15","subject_id":"60b9f1fe58782eeab6372f1c","study_id":"6197b3f67c2b5cd3b6d9596a","session_id":"619beef190be54af9b7ca6b3","condition":"contingent","relevant_dimensions":["wings","legs"],"bee_group":{"antennae":"X","wings":"1","pattern":"X","legs":"F"},"action":"avoid","summary":"bad-avoid","bonus":0.5600000000000008},{"rt":986.8999999761581,"stimulus":"\n                    <p><b>Action: <em>avoid</em></b></p>\n                    <p>This is the bee that you just saw.</p>\n                    <img src=\"bees-with-color/bee-B2SF.svg\" width=\"200\">\n                    <p><br>Your bonus pay is unchanged, and remains at $0.40.</p>\n            ","response":0,"trial_type":"html-button-response","trial_index":38,"time_elapsed":237663,"internal_node_id":"0.0-4.0-1.15","subject_id":"60b9f1fe58782eeab6372f1c","study_id":"6197b3f67c2b5cd3b6d9596a","session_id":"619beef190be54af9b7ca6b3","condition":"contingent","relevant_dimensions":["wings","legs"],"bee_group":{"antennae":"X","wings":"1","pattern":"X","legs":"F"},"bonus":0.5600000000000008},{"rt":1018.8999999761581,"stimulus":"bees-with-color/bee-B2DM.svg","response":0,"trial_type":"image-button-response","trial_index":39,"time_elapsed":238683,"internal_node_id":"0.0-4.0-0.16","subject_id":"60b9f1fe58782eeab6372f1c","study_id":"6197b3f67c2b5cd3b6d9596a","session_id":"619beef190be54af9b7ca6b3","condition":"contingent","relevant_dimensions":["wings","legs"],"bee_group":{"antennae":"X","wings":"1","pattern":"X","legs":"F"},"action":"harvest","summary":"good-harvest","bonus":0.5600000000000008},{"rt":754.7999999523163,"stimulus":"\n                    <p><b>Action: <em>harvest</em></b></p>\n                    <p>This is the bee that you just saw.</p>\n                    <img src=\"bees-with-color/bee-B2DM.svg\" width=\"200\">\n                    <p><span class=\"greenText\"><b>Successful harvest!</b></span><br>Your pay has increased by $0.02. Your bonus pay is now $0.42.</p>\n            ","response":0,"trial_type":"html-button-response","trial_index":40,"time_elapsed":239439,"internal_node_id":"0.0-4.0-1.16","subject_id":"60b9f1fe58782eeab6372f1c","study_id":"6197b3f67c2b5cd3b6d9596a","session_id":"619beef190be54af9b7ca6b3","condition":"contingent","relevant_dimensions":["wings","legs"],"bee_group":{"antennae":"X","wings":"1","pattern":"X","legs":"F"},"bonus":0.5600000000000008},{"rt":1178.6999999284744,"stimulus":"bees-with-color/bee-A2SM.svg","response":0,"trial_type":"image-button-response","trial_index":41,"time_elapsed":240619,"internal_node_id":"0.0-4.0-0.17","subject_id":"60b9f1fe58782eeab6372f1c","study_id":"6197b3f67c2b5cd3b6d9596a","session_id":"619beef190be54af9b7ca6b3","condition":"contingent","relevant_dimensions":["wings","legs"],"bee_group":{"antennae":"X","wings":"1","pattern":"X","legs":"F"},"action":"harvest","summary":"good-harvest","bonus":0.5600000000000008},{"rt":1136.8999999761581,"stimulus":"\n                    <p><b>Action: <em>harvest</em></b></p>\n                    <p>This is the bee that you just saw.</p>\n                    <img src=\"bees-with-color/bee-A2SM.svg\" width=\"200\">\n                    <p><span class=\"greenText\"><b>Successful harvest!</b></span><br>Your pay has increased by $0.02. Your bonus pay is now $0.44.</p>\n            ","response":0,"trial_type":"html-button-response","trial_index":42,"time_elapsed":241757,"internal_node_id":"0.0-4.0-1.17","subject_id":"60b9f1fe58782eeab6372f1c","study_id":"6197b3f67c2b5cd3b6d9596a","session_id":"619beef190be54af9b7ca6b3","condition":"contingent","relevant_dimensions":["wings","legs"],"bee_group":{"antennae":"X","wings":"1","pattern":"X","legs":"F"},"bonus":0.5600000000000008},{"rt":1244.8999999761581,"stimulus":"bees-with-color/bee-A2SF.svg","response":1,"trial_type":"image-button-response","trial_index":43,"time_elapsed":243003,"internal_node_id":"0.0-4.0-0.18","subject_id":"60b9f1fe58782eeab6372f1c","study_id":"6197b3f67c2b5cd3b6d9596a","session_id":"619beef190be54af9b7ca6b3","condition":"contingent","relevant_dimensions":["wings","legs"],"bee_group":{"antennae":"X","wings":"1","pattern":"X","legs":"F"},"action":"avoid","summary":"bad-avoid","bonus":0.5600000000000008},{"rt":1270.6999999284744,"stimulus":"\n                    <p><b>Action: <em>avoid</em></b></p>\n                    <p>This is the bee that you just saw.</p>\n                    <img src=\"bees-with-color/bee-A2SF.svg\" width=\"200\">\n                    <p><br>Your bonus pay is unchanged, and remains at $0.44.</p>\n            ","response":0,"trial_type":"html-button-response","trial_index":44,"time_elapsed":244275,"internal_node_id":"0.0-4.0-1.18","subject_id":"60b9f1fe58782eeab6372f1c","study_id":"6197b3f67c2b5cd3b6d9596a","session_id":"619beef190be54af9b7ca6b3","condition":"contingent","relevant_dimensions":["wings","legs"],"bee_group":{"antennae":"X","wings":"1","pattern":"X","legs":"F"},"bonus":0.5600000000000008},{"rt":1602.7000000476837,"stimulus":"bees-with-color/bee-B1DM.svg","response":0,"trial_type":"image-button-response","trial_index":45,"time_elapsed":245879,"internal_node_id":"0.0-4.0-0.19","subject_id":"60b9f1fe58782eeab6372f1c","study_id":"6197b3f67c2b5cd3b6d9596a","session_id":"619beef190be54af9b7ca6b3","condition":"contingent","relevant_dimensions":["wings","legs"],"bee_group":{"antennae":"X","wings":"1","pattern":"X","legs":"F"},"action":"harvest","summary":"good-harvest","bonus":0.5600000000000008},{"rt":710.6000000238419,"stimulus":"\n                    <p><b>Action: <em>harvest</em></b></p>\n                    <p>This is the bee that you just saw.</p>\n                    <img src=\"bees-with-color/bee-B1DM.svg\" width=\"200\">\n                    <p><span class=\"greenText\"><b>Successful harvest!</b></span><br>Your pay has increased by $0.02. Your bonus pay is now $0.46.</p>\n            ","response":0,"trial_type":"html-button-response","trial_index":46,"time_elapsed":246591,"internal_node_id":"0.0-4.0-1.19","subject_id":"60b9f1fe58782eeab6372f1c","study_id":"6197b3f67c2b5cd3b6d9596a","session_id":"619beef190be54af9b7ca6b3","condition":"contingent","relevant_dimensions":["wings","legs"],"bee_group":{"antennae":"X","wings":"1","pattern":"X","legs":"F"},"bonus":0.5600000000000008},{"rt":1384.1999999284744,"stimulus":"bees-with-color/bee-A1DF.svg","response":1,"trial_type":"image-button-response","trial_index":47,"time_elapsed":247977,"internal_node_id":"0.0-4.0-0.20","subject_id":"60b9f1fe58782eeab6372f1c","study_id":"6197b3f67c2b5cd3b6d9596a","session_id":"619beef190be54af9b7ca6b3","condition":"contingent","relevant_dimensions":["wings","legs"],"bee_group":{"antennae":"X","wings":"1","pattern":"X","legs":"F"},"action":"avoid","summary":"good-avoid","bonus":0.5600000000000008},{"rt":875.3000000715256,"stimulus":"\n                    <p><b>Action: <em>avoid</em></b></p>\n                    <p>This is the bee that you just saw.</p>\n                    <img src=\"bees-with-color/bee-A1DF.svg\" width=\"200\">\n                    <p><br>Your bonus pay is unchanged, and remains at $0.46.</p>\n            ","response":0,"trial_type":"html-button-response","trial_index":48,"time_elapsed":248854,"internal_node_id":"0.0-4.0-1.20","subject_id":"60b9f1fe58782eeab6372f1c","study_id":"6197b3f67c2b5cd3b6d9596a","session_id":"619beef190be54af9b7ca6b3","condition":"contingent","relevant_dimensions":["wings","legs"],"bee_group":{"antennae":"X","wings":"1","pattern":"X","legs":"F"},"bonus":0.5600000000000008},{"rt":1477.5,"stimulus":"bees-with-color/bee-A1SF.svg","response":0,"trial_type":"image-button-response","trial_index":49,"time_elapsed":250333,"internal_node_id":"0.0-4.0-0.21","subject_id":"60b9f1fe58782eeab6372f1c","study_id":"6197b3f67c2b5cd3b6d9596a","session_id":"619beef190be54af9b7ca6b3","condition":"contingent","relevant_dimensions":["wings","legs"],"bee_group":{"antennae":"X","wings":"1","pattern":"X","legs":"F"},"action":"harvest","summary":"bad-harvest","bonus":0.5600000000000008},{"rt":932.2999999523163,"stimulus":"\n                    <p><b>Action: <em>harvest</em></b></p>\n                    <p>This is the bee that you just saw.</p>\n                    <img src=\"bees-with-color/bee-A1SF.svg\" width=\"200\">\n                    <p><span class=\"redText\">Bad choice, the bee was angry.</span><br><b>You have been stung!</b><br>Your pay has been decreased by $0.10. Your bonus pay is now $0.36.</p>\n            ","response":0,"trial_type":"html-button-response","trial_index":50,"time_elapsed":251267,"internal_node_id":"0.0-4.0-1.21","subject_id":"60b9f1fe58782eeab6372f1c","study_id":"6197b3f67c2b5cd3b6d9596a","session_id":"619beef190be54af9b7ca6b3","condition":"contingent","relevant_dimensions":["wings","legs"],"bee_group":{"antennae":"X","wings":"1","pattern":"X","legs":"F"},"bonus":0.5600000000000008},{"rt":1360.5,"stimulus":"bees-with-color/bee-A1SM.svg","response":0,"trial_type":"image-button-response","trial_index":51,"time_elapsed":252629,"internal_node_id":"0.0-4.0-0.22","subject_id":"60b9f1fe58782eeab6372f1c","study_id":"6197b3f67c2b5cd3b6d9596a","session_id":"619beef190be54af9b7ca6b3","condition":"contingent","relevant_dimensions":["wings","legs"],"bee_group":{"antennae":"X","wings":"1","pattern":"X","legs":"F"},"action":"harvest","summary":"good-harvest","bonus":0.5600000000000008},{"rt":826.6999999284744,"stimulus":"\n                    <p><b>Action: <em>harvest</em></b></p>\n                    <p>This is the bee that you just saw.</p>\n                    <img src=\"bees-with-color/bee-A1SM.svg\" width=\"200\">\n                    <p><span class=\"greenText\"><b>Successful harvest!</b></span><br>Your pay has increased by $0.02. Your bonus pay is now $0.38.</p>\n            ","response":0,"trial_type":"html-button-response","trial_index":52,"time_elapsed":253457,"internal_node_id":"0.0-4.0-1.22","subject_id":"60b9f1fe58782eeab6372f1c","study_id":"6197b3f67c2b5cd3b6d9596a","session_id":"619beef190be54af9b7ca6b3","condition":"contingent","relevant_dimensions":["wings","legs"],"bee_group":{"antennae":"X","wings":"1","pattern":"X","legs":"F"},"bonus":0.5600000000000008},{"rt":1144.6000000238419,"stimulus":"bees-with-color/bee-B2DF.svg","response":0,"trial_type":"image-button-response","trial_index":53,"time_elapsed":254603,"internal_node_id":"0.0-4.0-0.23","subject_id":"60b9f1fe58782eeab6372f1c","study_id":"6197b3f67c2b5cd3b6d9596a","session_id":"619beef190be54af9b7ca6b3","condition":"contingent","relevant_dimensions":["wings","legs"],"bee_group":{"antennae":"X","wings":"1","pattern":"X","legs":"F"},"action":"harvest","summary":"good-harvest","bonus":0.5600000000000008},{"rt":632.4000000953674,"stimulus":"\n                    <p><b>Action: <em>harvest</em></b></p>\n                    <p>This is the bee that you just saw.</p>\n                    <img src=\"bees-with-color/bee-B2DF.svg\" width=\"200\">\n                    <p><span class=\"greenText\"><b>Successful harvest!</b></span><br>Your pay has increased by $0.02. Your bonus pay is now $0.40.</p>\n            ","response":0,"trial_type":"html-button-response","trial_index":54,"time_elapsed":255237,"internal_node_id":"0.0-4.0-1.23","subject_id":"60b9f1fe58782eeab6372f1c","study_id":"6197b3f67c2b5cd3b6d9596a","session_id":"619beef190be54af9b7ca6b3","condition":"contingent","relevant_dimensions":["wings","legs"],"bee_group":{"antennae":"X","wings":"1","pattern":"X","legs":"F"},"bonus":0.5600000000000008},{"rt":1241.1000000238419,"stimulus":"bees-with-color/bee-B1DF.svg","response":0,"trial_type":"image-button-response","trial_index":55,"time_elapsed":256479,"internal_node_id":"0.0-4.0-0.24","subject_id":"60b9f1fe58782eeab6372f1c","study_id":"6197b3f67c2b5cd3b6d9596a","session_id":"619beef190be54af9b7ca6b3","condition":"contingent","relevant_dimensions":["wings","legs"],"bee_group":{"antennae":"X","wings":"1","pattern":"X","legs":"F"},"action":"harvest","summary":"bad-harvest","bonus":0.5600000000000008},{"rt":690.5999999046326,"stimulus":"\n                    <p><b>Action: <em>harvest</em></b></p>\n                    <p>This is the bee that you just saw.</p>\n                    <img src=\"bees-with-color/bee-B1DF.svg\" width=\"200\">\n                    <p><span class=\"redText\">Bad choice, the bee was angry.</span><br><b>You have been stung!</b><br>Your pay has been decreased by $0.10. Your bonus pay is now $0.30.</p>\n            ","response":0,"trial_type":"html-button-response","trial_index":56,"time_elapsed":257171,"internal_node_id":"0.0-4.0-1.24","subject_id":"60b9f1fe58782eeab6372f1c","study_id":"6197b3f67c2b5cd3b6d9596a","session_id":"619beef190be54af9b7ca6b3","condition":"contingent","relevant_dimensions":["wings","legs"],"bee_group":{"antennae":"X","wings":"1","pattern":"X","legs":"F"},"bonus":0.5600000000000008},{"rt":1532.7999999523163,"stimulus":"bees-with-color/bee-B1SM.svg","response":0,"trial_type":"image-button-response","trial_index":57,"time_elapsed":258705,"internal_node_id":"0.0-4.0-0.25","subject_id":"60b9f1fe58782eeab6372f1c","study_id":"6197b3f67c2b5cd3b6d9596a","session_id":"619beef190be54af9b7ca6b3","condition":"contingent","relevant_dimensions":["wings","legs"],"bee_group":{"antennae":"X","wings":"1","pattern":"X","legs":"F"},"action":"harvest","summary":"good-harvest","bonus":0.5600000000000008},{"rt":754.5,"stimulus":"\n                    <p><b>Action: <em>harvest</em></b></p>\n                    <p>This is the bee that you just saw.</p>\n                    <img src=\"bees-with-color/bee-B1SM.svg\" width=\"200\">\n                    <p><span class=\"greenText\"><b>Successful harvest!</b></span><br>Your pay has increased by $0.02. Your bonus pay is now $0.32.</p>\n            ","response":0,"trial_type":"html-button-response","trial_index":58,"time_elapsed":259461,"internal_node_id":"0.0-4.0-1.25","subject_id":"60b9f1fe58782eeab6372f1c","study_id":"6197b3f67c2b5cd3b6d9596a","session_id":"619beef190be54af9b7ca6b3","condition":"contingent","relevant_dimensions":["wings","legs"],"bee_group":{"antennae":"X","wings":"1","pattern":"X","legs":"F"},"bonus":0.5600000000000008},{"rt":1440.2999999523163,"stimulus":"bees-with-color/bee-B2SF.svg","response":1,"trial_type":"image-button-response","trial_index":59,"time_elapsed":260903,"internal_node_id":"0.0-4.0-0.26","subject_id":"60b9f1fe58782eeab6372f1c","study_id":"6197b3f67c2b5cd3b6d9596a","session_id":"619beef190be54af9b7ca6b3","condition":"contingent","relevant_dimensions":["wings","legs"],"bee_group":{"antennae":"X","wings":"1","pattern":"X","legs":"F"},"action":"avoid","summary":"bad-avoid","bonus":0.5600000000000008},{"rt":822.3999999761581,"stimulus":"\n                    <p><b>Action: <em>avoid</em></b></p>\n                    <p>This is the bee that you just saw.</p>\n                    <img src=\"bees-with-color/bee-B2SF.svg\" width=\"200\">\n                    <p><br>Your bonus pay is unchanged, and remains at $0.32.</p>\n            ","response":0,"trial_type":"html-button-response","trial_index":60,"time_elapsed":261727,"internal_node_id":"0.0-4.0-1.26","subject_id":"60b9f1fe58782eeab6372f1c","study_id":"6197b3f67c2b5cd3b6d9596a","session_id":"619beef190be54af9b7ca6b3","condition":"contingent","relevant_dimensions":["wings","legs"],"bee_group":{"antennae":"X","wings":"1","pattern":"X","legs":"F"},"bonus":0.5600000000000008},{"rt":2986.5,"stimulus":"bees-with-color/bee-B1SF.svg","response":1,"trial_type":"image-button-response","trial_index":61,"time_elapsed":264715,"internal_node_id":"0.0-4.0-0.27","subject_id":"60b9f1fe58782eeab6372f1c","study_id":"6197b3f67c2b5cd3b6d9596a","session_id":"619beef190be54af9b7ca6b3","condition":"contingent","relevant_dimensions":["wings","legs"],"bee_group":{"antennae":"X","wings":"1","pattern":"X","legs":"F"},"action":"avoid","summary":"good-avoid","bonus":0.5600000000000008},{"rt":1122.5,"stimulus":"\n                    <p><b>Action: <em>avoid</em></b></p>\n                    <p>This is the bee that you just saw.</p>\n                    <img src=\"bees-with-color/bee-B1SF.svg\" width=\"200\">\n                    <p><br>Your bonus pay is unchanged, and remains at $0.32.</p>\n            ","response":0,"trial_type":"html-button-response","trial_index":62,"time_elapsed":265839,"internal_node_id":"0.0-4.0-1.27","subject_id":"60b9f1fe58782eeab6372f1c","study_id":"6197b3f67c2b5cd3b6d9596a","session_id":"619beef190be54af9b7ca6b3","condition":"contingent","relevant_dimensions":["wings","legs"],"bee_group":{"antennae":"X","wings":"1","pattern":"X","legs":"F"},"bonus":0.5600000000000008},{"rt":1456.1999999284744,"stimulus":"bees-with-color/bee-A2DF.svg","response":0,"trial_type":"image-button-response","trial_index":63,"time_elapsed":267297,"internal_node_id":"0.0-4.0-0.28","subject_id":"60b9f1fe58782eeab6372f1c","study_id":"6197b3f67c2b5cd3b6d9596a","session_id":"619beef190be54af9b7ca6b3","condition":"contingent","relevant_dimensions":["wings","legs"],"bee_group":{"antennae":"X","wings":"1","pattern":"X","legs":"F"},"action":"harvest","summary":"good-harvest","bonus":0.5600000000000008},{"rt":790.8000000715256,"stimulus":"\n                    <p><b>Action: <em>harvest</em></b></p>\n                    <p>This is the bee that you just saw.</p>\n                    <img src=\"bees-with-color/bee-A2DF.svg\" width=\"200\">\n                    <p><span class=\"greenText\"><b>Successful harvest!</b></span><br>Your pay has increased by $0.02. Your bonus pay is now $0.34.</p>\n            ","response":0,"trial_type":"html-button-response","trial_index":64,"time_elapsed":268089,"internal_node_id":"0.0-4.0-1.28","subject_id":"60b9f1fe58782eeab6372f1c","study_id":"6197b3f67c2b5cd3b6d9596a","session_id":"619beef190be54af9b7ca6b3","condition":"contingent","relevant_dimensions":["wings","legs"],"bee_group":{"antennae":"X","wings":"1","pattern":"X","legs":"F"},"bonus":0.5600000000000008},{"rt":1854.9000000953674,"stimulus":"bees-with-color/bee-A1DM.svg","response":0,"trial_type":"image-button-response","trial_index":65,"time_elapsed":269945,"internal_node_id":"0.0-4.0-0.29","subject_id":"60b9f1fe58782eeab6372f1c","study_id":"6197b3f67c2b5cd3b6d9596a","session_id":"619beef190be54af9b7ca6b3","condition":"contingent","relevant_dimensions":["wings","legs"],"bee_group":{"antennae":"X","wings":"1","pattern":"X","legs":"F"},"action":"harvest","summary":"good-harvest","bonus":0.5600000000000008},{"rt":796.7000000476837,"stimulus":"\n                    <p><b>Action: <em>harvest</em></b></p>\n                    <p>This is the bee that you just saw.</p>\n                    <img src=\"bees-with-color/bee-A1DM.svg\" width=\"200\">\n                    <p><span class=\"greenText\"><b>Successful harvest!</b></span><br>Your pay has increased by $0.02. Your bonus pay is now $0.36.</p>\n            ","response":0,"trial_type":"html-button-response","trial_index":66,"time_elapsed":270743,"internal_node_id":"0.0-4.0-1.29","subject_id":"60b9f1fe58782eeab6372f1c","study_id":"6197b3f67c2b5cd3b6d9596a","session_id":"619beef190be54af9b7ca6b3","condition":"contingent","relevant_dimensions":["wings","legs"],"bee_group":{"antennae":"X","wings":"1","pattern":"X","legs":"F"},"bonus":0.5600000000000008},{"rt":1569.1999999284744,"stimulus":"bees-with-color/bee-A2DM.svg","response":1,"trial_type":"image-button-response","trial_index":67,"time_elapsed":272313,"internal_node_id":"0.0-4.0-0.30","subject_id":"60b9f1fe58782eeab6372f1c","study_id":"6197b3f67c2b5cd3b6d9596a","session_id":"619beef190be54af9b7ca6b3","condition":"contingent","relevant_dimensions":["wings","legs"],"bee_group":{"antennae":"X","wings":"1","pattern":"X","legs":"F"},"action":"avoid","summary":"bad-avoid","bonus":0.5600000000000008},{"rt":1254.8000000715256,"stimulus":"\n                    <p><b>Action: <em>avoid</em></b></p>\n                    <p>This is the bee that you just saw.</p>\n                    <img src=\"bees-with-color/bee-A2DM.svg\" width=\"200\">\n                    <p><br>Your bonus pay is unchanged, and remains at $0.36.</p>\n            ","response":0,"trial_type":"html-button-response","trial_index":68,"time_elapsed":273569,"internal_node_id":"0.0-4.0-1.30","subject_id":"60b9f1fe58782eeab6372f1c","study_id":"6197b3f67c2b5cd3b6d9596a","session_id":"619beef190be54af9b7ca6b3","condition":"contingent","relevant_dimensions":["wings","legs"],"bee_group":{"antennae":"X","wings":"1","pattern":"X","legs":"F"},"bonus":0.5600000000000008},{"rt":1386.6000000238419,"stimulus":"bees-with-color/bee-B2SM.svg","response":0,"trial_type":"image-button-response","trial_index":69,"time_elapsed":274957,"internal_node_id":"0.0-4.0-0.31","subject_id":"60b9f1fe58782eeab6372f1c","study_id":"6197b3f67c2b5cd3b6d9596a","session_id":"619beef190be54af9b7ca6b3","condition":"contingent","relevant_dimensions":["wings","legs"],"bee_group":{"antennae":"X","wings":"1","pattern":"X","legs":"F"},"action":"harvest","summary":"good-harvest","bonus":0.5600000000000008},{"rt":645,"stimulus":"\n                    <p><b>Action: <em>harvest</em></b></p>\n                    <p>This is the bee that you just saw.</p>\n                    <img src=\"bees-with-color/bee-B2SM.svg\" width=\"200\">\n                    <p><span class=\"greenText\"><b>Successful harvest!</b></span><br>Your pay has increased by $0.02. Your bonus pay is now $0.38.</p>\n            ","response":0,"trial_type":"html-button-response","trial_index":70,"time_elapsed":275603,"internal_node_id":"0.0-4.0-1.31","subject_id":"60b9f1fe58782eeab6372f1c","study_id":"6197b3f67c2b5cd3b6d9596a","session_id":"619beef190be54af9b7ca6b3","condition":"contingent","relevant_dimensions":["wings","legs"],"bee_group":{"antennae":"X","wings":"1","pattern":"X","legs":"F"},"bonus":0.5600000000000008},{"rt":1420.9000000953674,"stimulus":"bees-with-color/bee-A2SF.svg","response":1,"trial_type":"image-button-response","trial_index":71,"time_elapsed":277025,"internal_node_id":"0.0-4.0-0.32","subject_id":"60b9f1fe58782eeab6372f1c","study_id":"6197b3f67c2b5cd3b6d9596a","session_id":"619beef190be54af9b7ca6b3","condition":"contingent","relevant_dimensions":["wings","legs"],"bee_group":{"antennae":"X","wings":"1","pattern":"X","legs":"F"},"action":"avoid","summary":"bad-avoid","bonus":0.5600000000000008},{"rt":1092.8000000715256,"stimulus":"\n                    <p><b>Action: <em>avoid</em></b></p>\n                    <p>This is the bee that you just saw.</p>\n                    <img src=\"bees-with-color/bee-A2SF.svg\" width=\"200\">\n                    <p><br>Your bonus pay is unchanged, and remains at $0.38.</p>\n            ","response":0,"trial_type":"html-button-response","trial_index":72,"time_elapsed":278119,"internal_node_id":"0.0-4.0-1.32","subject_id":"60b9f1fe58782eeab6372f1c","study_id":"6197b3f67c2b5cd3b6d9596a","session_id":"619beef190be54af9b7ca6b3","condition":"contingent","relevant_dimensions":["wings","legs"],"bee_group":{"antennae":"X","wings":"1","pattern":"X","legs":"F"},"bonus":0.5600000000000008},{"rt":1510.8000000715256,"stimulus":"bees-with-color/bee-B2DM.svg","response":0,"trial_type":"image-button-response","trial_index":73,"time_elapsed":279631,"internal_node_id":"0.0-4.0-0.33","subject_id":"60b9f1fe58782eeab6372f1c","study_id":"6197b3f67c2b5cd3b6d9596a","session_id":"619beef190be54af9b7ca6b3","condition":"contingent","relevant_dimensions":["wings","legs"],"bee_group":{"antennae":"X","wings":"1","pattern":"X","legs":"F"},"action":"harvest","summary":"good-harvest","bonus":0.5600000000000008},{"rt":893.0999999046326,"stimulus":"\n                    <p><b>Action: <em>harvest</em></b></p>\n                    <p>This is the bee that you just saw.</p>\n                    <img src=\"bees-with-color/bee-B2DM.svg\" width=\"200\">\n                    <p><span class=\"greenText\"><b>Successful harvest!</b></span><br>Your pay has increased by $0.02. Your bonus pay is now $0.40.</p>\n            ","response":0,"trial_type":"html-button-response","trial_index":74,"time_elapsed":280525,"internal_node_id":"0.0-4.0-1.33","subject_id":"60b9f1fe58782eeab6372f1c","study_id":"6197b3f67c2b5cd3b6d9596a","session_id":"619beef190be54af9b7ca6b3","condition":"contingent","relevant_dimensions":["wings","legs"],"bee_group":{"antennae":"X","wings":"1","pattern":"X","legs":"F"},"bonus":0.5600000000000008},{"rt":1578.7000000476837,"stimulus":"bees-with-color/bee-A1DM.svg","response":1,"trial_type":"image-button-response","trial_index":75,"time_elapsed":282105,"internal_node_id":"0.0-4.0-0.34","subject_id":"60b9f1fe58782eeab6372f1c","study_id":"6197b3f67c2b5cd3b6d9596a","session_id":"619beef190be54af9b7ca6b3","condition":"contingent","relevant_dimensions":["wings","legs"],"bee_group":{"antennae":"X","wings":"1","pattern":"X","legs":"F"},"action":"avoid","summary":"bad-avoid","bonus":0.5600000000000008},{"rt":926.8000000715256,"stimulus":"\n                    <p><b>Action: <em>avoid</em></b></p>\n                    <p>This is the bee that you just saw.</p>\n                    <img src=\"bees-with-color/bee-A1DM.svg\" width=\"200\">\n                    <p><br>Your bonus pay is unchanged, and remains at $0.40.</p>\n            ","response":0,"trial_type":"html-button-response","trial_index":76,"time_elapsed":283033,"internal_node_id":"0.0-4.0-1.34","subject_id":"60b9f1fe58782eeab6372f1c","study_id":"6197b3f67c2b5cd3b6d9596a","session_id":"619beef190be54af9b7ca6b3","condition":"contingent","relevant_dimensions":["wings","legs"],"bee_group":{"antennae":"X","wings":"1","pattern":"X","legs":"F"},"bonus":0.5600000000000008},{"rt":1366.8999999761581,"stimulus":"bees-with-color/bee-B1SF.svg","response":0,"trial_type":"image-button-response","trial_index":77,"time_elapsed":284401,"internal_node_id":"0.0-4.0-0.35","subject_id":"60b9f1fe58782eeab6372f1c","study_id":"6197b3f67c2b5cd3b6d9596a","session_id":"619beef190be54af9b7ca6b3","condition":"contingent","relevant_dimensions":["wings","legs"],"bee_group":{"antennae":"X","wings":"1","pattern":"X","legs":"F"},"action":"harvest","summary":"bad-harvest","bonus":0.5600000000000008},{"rt":791,"stimulus":"\n                    <p><b>Action: <em>harvest</em></b></p>\n                    <p>This is the bee that you just saw.</p>\n                    <img src=\"bees-with-color/bee-B1SF.svg\" width=\"200\">\n                    <p><span class=\"redText\">Bad choice, the bee was angry.</span><br><b>You have been stung!</b><br>Your pay has been decreased by $0.10. Your bonus pay is now $0.30.</p>\n            ","response":0,"trial_type":"html-button-response","trial_index":78,"time_elapsed":285193,"internal_node_id":"0.0-4.0-1.35","subject_id":"60b9f1fe58782eeab6372f1c","study_id":"6197b3f67c2b5cd3b6d9596a","session_id":"619beef190be54af9b7ca6b3","condition":"contingent","relevant_dimensions":["wings","legs"],"bee_group":{"antennae":"X","wings":"1","pattern":"X","legs":"F"},"bonus":0.5600000000000008},{"rt":844.8000000715256,"stimulus":"bees-with-color/bee-A2DF.svg","response":0,"trial_type":"image-button-response","trial_index":79,"time_elapsed":286039,"internal_node_id":"0.0-4.0-0.36","subject_id":"60b9f1fe58782eeab6372f1c","study_id":"6197b3f67c2b5cd3b6d9596a","session_id":"619beef190be54af9b7ca6b3","condition":"contingent","relevant_dimensions":["wings","legs"],"bee_group":{"antennae":"X","wings":"1","pattern":"X","legs":"F"},"action":"harvest","summary":"good-harvest","bonus":0.5600000000000008},{"rt":660.5,"stimulus":"\n                    <p><b>Action: <em>harvest</em></b></p>\n                    <p>This is the bee that you just saw.</p>\n                    <img src=\"bees-with-color/bee-A2DF.svg\" width=\"200\">\n                    <p><span class=\"greenText\"><b>Successful harvest!</b></span><br>Your pay has increased by $0.02. Your bonus pay is now $0.32.</p>\n            ","response":0,"trial_type":"html-button-response","trial_index":80,"time_elapsed":286701,"internal_node_id":"0.0-4.0-1.36","subject_id":"60b9f1fe58782eeab6372f1c","study_id":"6197b3f67c2b5cd3b6d9596a","session_id":"619beef190be54af9b7ca6b3","condition":"contingent","relevant_dimensions":["wings","legs"],"bee_group":{"antennae":"X","wings":"1","pattern":"X","legs":"F"},"bonus":0.5600000000000008},{"rt":1091.0999999046326,"stimulus":"bees-with-color/bee-A1DF.svg","response":0,"trial_type":"image-button-response","trial_index":81,"time_elapsed":287793,"internal_node_id":"0.0-4.0-0.37","subject_id":"60b9f1fe58782eeab6372f1c","study_id":"6197b3f67c2b5cd3b6d9596a","session_id":"619beef190be54af9b7ca6b3","condition":"contingent","relevant_dimensions":["wings","legs"],"bee_group":{"antennae":"X","wings":"1","pattern":"X","legs":"F"},"action":"harvest","summary":"bad-harvest","bonus":0.5600000000000008},{"rt":688.6000000238419,"stimulus":"\n                    <p><b>Action: <em>harvest</em></b></p>\n                    <p>This is the bee that you just saw.</p>\n                    <img src=\"bees-with-color/bee-A1DF.svg\" width=\"200\">\n                    <p><span class=\"redText\">Bad choice, the bee was angry.</span><br><b>You have been stung!</b><br>Your pay has been decreased by $0.10. Your bonus pay is now $0.22.</p>\n            ","response":0,"trial_type":"html-button-response","trial_index":82,"time_elapsed":288483,"internal_node_id":"0.0-4.0-1.37","subject_id":"60b9f1fe58782eeab6372f1c","study_id":"6197b3f67c2b5cd3b6d9596a","session_id":"619beef190be54af9b7ca6b3","condition":"contingent","relevant_dimensions":["wings","legs"],"bee_group":{"antennae":"X","wings":"1","pattern":"X","legs":"F"},"bonus":0.5600000000000008},{"rt":724.8000000715256,"stimulus":"bees-with-color/bee-A1SM.svg","response":0,"trial_type":"image-button-response","trial_index":83,"time_elapsed":289209,"internal_node_id":"0.0-4.0-0.38","subject_id":"60b9f1fe58782eeab6372f1c","study_id":"6197b3f67c2b5cd3b6d9596a","session_id":"619beef190be54af9b7ca6b3","condition":"contingent","relevant_dimensions":["wings","legs"],"bee_group":{"antennae":"X","wings":"1","pattern":"X","legs":"F"},"action":"harvest","summary":"good-harvest","bonus":0.5600000000000008},{"rt":726.6000000238419,"stimulus":"\n                    <p><b>Action: <em>harvest</em></b></p>\n                    <p>This is the bee that you just saw.</p>\n                    <img src=\"bees-with-color/bee-A1SM.svg\" width=\"200\">\n                    <p><span class=\"greenText\"><b>Successful harvest!</b></span><br>Your pay has increased by $0.02. Your bonus pay is now $0.24.</p>\n            ","response":0,"trial_type":"html-button-response","trial_index":84,"time_elapsed":289937,"internal_node_id":"0.0-4.0-1.38","subject_id":"60b9f1fe58782eeab6372f1c","study_id":"6197b3f67c2b5cd3b6d9596a","session_id":"619beef190be54af9b7ca6b3","condition":"contingent","relevant_dimensions":["wings","legs"],"bee_group":{"antennae":"X","wings":"1","pattern":"X","legs":"F"},"bonus":0.5600000000000008},{"rt":948.7000000476837,"stimulus":"bees-with-color/bee-B1SM.svg","response":1,"trial_type":"image-button-response","trial_index":85,"time_elapsed":290887,"internal_node_id":"0.0-4.0-0.39","subject_id":"60b9f1fe58782eeab6372f1c","study_id":"6197b3f67c2b5cd3b6d9596a","session_id":"619beef190be54af9b7ca6b3","condition":"contingent","relevant_dimensions":["wings","legs"],"bee_group":{"antennae":"X","wings":"1","pattern":"X","legs":"F"},"action":"avoid","summary":"bad-avoid","bonus":0.5600000000000008},{"rt":548.7000000476837,"stimulus":"\n                    <p><b>Action: <em>avoid</em></b></p>\n                    <p>This is the bee that you just saw.</p>\n                    <img src=\"bees-with-color/bee-B1SM.svg\" width=\"200\">\n                    <p><br>Your bonus pay is unchanged, and remains at $0.24.</p>\n            ","response":0,"trial_type":"html-button-response","trial_index":86,"time_elapsed":291437,"internal_node_id":"0.0-4.0-1.39","subject_id":"60b9f1fe58782eeab6372f1c","study_id":"6197b3f67c2b5cd3b6d9596a","session_id":"619beef190be54af9b7ca6b3","condition":"contingent","relevant_dimensions":["wings","legs"],"bee_group":{"antennae":"X","wings":"1","pattern":"X","legs":"F"},"bonus":0.5600000000000008},{"rt":1458.8000000715256,"stimulus":"bees-with-color/bee-B2SF.svg","response":0,"trial_type":"image-button-response","trial_index":87,"time_elapsed":292897,"internal_node_id":"0.0-4.0-0.40","subject_id":"60b9f1fe58782eeab6372f1c","study_id":"6197b3f67c2b5cd3b6d9596a","session_id":"619beef190be54af9b7ca6b3","condition":"contingent","relevant_dimensions":["wings","legs"],"bee_group":{"antennae":"X","wings":"1","pattern":"X","legs":"F"},"action":"harvest","summary":"good-harvest","bonus":0.5600000000000008},{"rt":856.6000000238419,"stimulus":"\n                    <p><b>Action: <em>harvest</em></b></p>\n                    <p>This is the bee that you just saw.</p>\n                    <img src=\"bees-with-color/bee-B2SF.svg\" width=\"200\">\n                    <p><span class=\"greenText\"><b>Successful harvest!</b></span><br>Your pay has increased by $0.02. Your bonus pay is now $0.26.</p>\n            ","response":0,"trial_type":"html-button-response","trial_index":88,"time_elapsed":293755,"internal_node_id":"0.0-4.0-1.40","subject_id":"60b9f1fe58782eeab6372f1c","study_id":"6197b3f67c2b5cd3b6d9596a","session_id":"619beef190be54af9b7ca6b3","condition":"contingent","relevant_dimensions":["wings","legs"],"bee_group":{"antennae":"X","wings":"1","pattern":"X","legs":"F"},"bonus":0.5600000000000008},{"rt":1238.7000000476837,"stimulus":"bees-with-color/bee-B2DF.svg","response":1,"trial_type":"image-button-response","trial_index":89,"time_elapsed":294995,"internal_node_id":"0.0-4.0-0.41","subject_id":"60b9f1fe58782eeab6372f1c","study_id":"6197b3f67c2b5cd3b6d9596a","session_id":"619beef190be54af9b7ca6b3","condition":"contingent","relevant_dimensions":["wings","legs"],"bee_group":{"antennae":"X","wings":"1","pattern":"X","legs":"F"},"action":"avoid","summary":"bad-avoid","bonus":0.5600000000000008},{"rt":1062.7000000476837,"stimulus":"\n                    <p><b>Action: <em>avoid</em></b></p>\n                    <p>This is the bee that you just saw.</p>\n                    <img src=\"bees-with-color/bee-B2DF.svg\" width=\"200\">\n                    <p><br>Your bonus pay is unchanged, and remains at $0.26.</p>\n            ","response":0,"trial_type":"html-button-response","trial_index":90,"time_elapsed":296059,"internal_node_id":"0.0-4.0-1.41","subject_id":"60b9f1fe58782eeab6372f1c","study_id":"6197b3f67c2b5cd3b6d9596a","session_id":"619beef190be54af9b7ca6b3","condition":"contingent","relevant_dimensions":["wings","legs"],"bee_group":{"antennae":"X","wings":"1","pattern":"X","legs":"F"},"bonus":0.5600000000000008},{"rt":1270.5,"stimulus":"bees-with-color/bee-B1DF.svg","response":1,"trial_type":"image-button-response","trial_index":91,"time_elapsed":297331,"internal_node_id":"0.0-4.0-0.42","subject_id":"60b9f1fe58782eeab6372f1c","study_id":"6197b3f67c2b5cd3b6d9596a","session_id":"619beef190be54af9b7ca6b3","condition":"contingent","relevant_dimensions":["wings","legs"],"bee_group":{"antennae":"X","wings":"1","pattern":"X","legs":"F"},"action":"avoid","summary":"good-avoid","bonus":0.5600000000000008},{"rt":696.5,"stimulus":"\n                    <p><b>Action: <em>avoid</em></b></p>\n                    <p>This is the bee that you just saw.</p>\n                    <img src=\"bees-with-color/bee-B1DF.svg\" width=\"200\">\n                    <p><br>Your bonus pay is unchanged, and remains at $0.26.</p>\n            ","response":0,"trial_type":"html-button-response","trial_index":92,"time_elapsed":298029,"internal_node_id":"0.0-4.0-1.42","subject_id":"60b9f1fe58782eeab6372f1c","study_id":"6197b3f67c2b5cd3b6d9596a","session_id":"619beef190be54af9b7ca6b3","condition":"contingent","relevant_dimensions":["wings","legs"],"bee_group":{"antennae":"X","wings":"1","pattern":"X","legs":"F"},"bonus":0.5600000000000008},{"rt":1456.6000000238419,"stimulus":"bees-with-color/bee-B2SM.svg","response":1,"trial_type":"image-button-response","trial_index":93,"time_elapsed":299486,"internal_node_id":"0.0-4.0-0.43","subject_id":"60b9f1fe58782eeab6372f1c","study_id":"6197b3f67c2b5cd3b6d9596a","session_id":"619beef190be54af9b7ca6b3","condition":"contingent","relevant_dimensions":["wings","legs"],"bee_group":{"antennae":"X","wings":"1","pattern":"X","legs":"F"},"action":"avoid","summary":"bad-avoid","bonus":0.5600000000000008},{"rt":928.5,"stimulus":"\n                    <p><b>Action: <em>avoid</em></b></p>\n                    <p>This is the bee that you just saw.</p>\n                    <img src=\"bees-with-color/bee-B2SM.svg\" width=\"200\">\n                    <p><br>Your bonus pay is unchanged, and remains at $0.26.</p>\n            ","response":0,"trial_type":"html-button-response","trial_index":94,"time_elapsed":300416,"internal_node_id":"0.0-4.0-1.43","subject_id":"60b9f1fe58782eeab6372f1c","study_id":"6197b3f67c2b5cd3b6d9596a","session_id":"619beef190be54af9b7ca6b3","condition":"contingent","relevant_dimensions":["wings","legs"],"bee_group":{"antennae":"X","wings":"1","pattern":"X","legs":"F"},"bonus":0.5600000000000008},{"rt":1678.5,"stimulus":"bees-with-color/bee-A1SF.svg","response":1,"trial_type":"image-button-response","trial_index":95,"time_elapsed":302096,"internal_node_id":"0.0-4.0-0.44","subject_id":"60b9f1fe58782eeab6372f1c","study_id":"6197b3f67c2b5cd3b6d9596a","session_id":"619beef190be54af9b7ca6b3","condition":"contingent","relevant_dimensions":["wings","legs"],"bee_group":{"antennae":"X","wings":"1","pattern":"X","legs":"F"},"action":"avoid","summary":"good-avoid","bonus":0.5600000000000008},{"rt":578.5,"stimulus":"\n                    <p><b>Action: <em>avoid</em></b></p>\n                    <p>This is the bee that you just saw.</p>\n                    <img src=\"bees-with-color/bee-A1SF.svg\" width=\"200\">\n                    <p><br>Your bonus pay is unchanged, and remains at $0.26.</p>\n            ","response":0,"trial_type":"html-button-response","trial_index":96,"time_elapsed":302676,"internal_node_id":"0.0-4.0-1.44","subject_id":"60b9f1fe58782eeab6372f1c","study_id":"6197b3f67c2b5cd3b6d9596a","session_id":"619beef190be54af9b7ca6b3","condition":"contingent","relevant_dimensions":["wings","legs"],"bee_group":{"antennae":"X","wings":"1","pattern":"X","legs":"F"},"bonus":0.5600000000000008},{"rt":860.8999999761581,"stimulus":"bees-with-color/bee-A2DM.svg","response":0,"trial_type":"image-button-response","trial_index":97,"time_elapsed":303538,"internal_node_id":"0.0-4.0-0.45","subject_id":"60b9f1fe58782eeab6372f1c","study_id":"6197b3f67c2b5cd3b6d9596a","session_id":"619beef190be54af9b7ca6b3","condition":"contingent","relevant_dimensions":["wings","legs"],"bee_group":{"antennae":"X","wings":"1","pattern":"X","legs":"F"},"action":"harvest","summary":"good-harvest","bonus":0.5600000000000008},{"rt":1244.3999999761581,"stimulus":"\n                    <p><b>Action: <em>harvest</em></b></p>\n                    <p>This is the bee that you just saw.</p>\n                    <img src=\"bees-with-color/bee-A2DM.svg\" width=\"200\">\n                    <p><span class=\"greenText\"><b>Successful harvest!</b></span><br>Your pay has increased by $0.02. Your bonus pay is now $0.28.</p>\n            ","response":0,"trial_type":"html-button-response","trial_index":98,"time_elapsed":304784,"internal_node_id":"0.0-4.0-1.45","subject_id":"60b9f1fe58782eeab6372f1c","study_id":"6197b3f67c2b5cd3b6d9596a","session_id":"619beef190be54af9b7ca6b3","condition":"contingent","relevant_dimensions":["wings","legs"],"bee_group":{"antennae":"X","wings":"1","pattern":"X","legs":"F"},"bonus":0.5600000000000008},{"rt":1616.8999999761581,"stimulus":"bees-with-color/bee-B1DM.svg","response":1,"trial_type":"image-button-response","trial_index":99,"time_elapsed":306402,"internal_node_id":"0.0-4.0-0.46","subject_id":"60b9f1fe58782eeab6372f1c","study_id":"6197b3f67c2b5cd3b6d9596a","session_id":"619beef190be54af9b7ca6b3","condition":"contingent","relevant_dimensions":["wings","legs"],"bee_group":{"antennae":"X","wings":"1","pattern":"X","legs":"F"},"action":"avoid","summary":"bad-avoid","bonus":0.5600000000000008},{"rt":594.2999999523163,"stimulus":"\n                    <p><b>Action: <em>avoid</em></b></p>\n                    <p>This is the bee that you just saw.</p>\n                    <img src=\"bees-with-color/bee-B1DM.svg\" width=\"200\">\n                    <p><br>Your bonus pay is unchanged, and remains at $0.28.</p>\n            ","response":0,"trial_type":"html-button-response","trial_index":100,"time_elapsed":306998,"internal_node_id":"0.0-4.0-1.46","subject_id":"60b9f1fe58782eeab6372f1c","study_id":"6197b3f67c2b5cd3b6d9596a","session_id":"619beef190be54af9b7ca6b3","condition":"contingent","relevant_dimensions":["wings","legs"],"bee_group":{"antennae":"X","wings":"1","pattern":"X","legs":"F"},"bonus":0.5600000000000008},{"rt":2299,"stimulus":"bees-with-color/bee-A2SM.svg","response":1,"trial_type":"image-button-response","trial_index":101,"time_elapsed":309298,"internal_node_id":"0.0-4.0-0.47","subject_id":"60b9f1fe58782eeab6372f1c","study_id":"6197b3f67c2b5cd3b6d9596a","session_id":"619beef190be54af9b7ca6b3","condition":"contingent","relevant_dimensions":["wings","legs"],"bee_group":{"antennae":"X","wings":"1","pattern":"X","legs":"F"},"action":"avoid","summary":"bad-avoid","bonus":0.5600000000000008},{"rt":1189.1000000238419,"stimulus":"\n                    <p><b>Action: <em>avoid</em></b></p>\n                    <p>This is the bee that you just saw.</p>\n                    <img src=\"bees-with-color/bee-A2SM.svg\" width=\"200\">\n                    <p><br>Your bonus pay is unchanged, and remains at $0.28.</p>\n            ","response":0,"trial_type":"html-button-response","trial_index":102,"time_elapsed":310488,"internal_node_id":"0.0-4.0-1.47","subject_id":"60b9f1fe58782eeab6372f1c","study_id":"6197b3f67c2b5cd3b6d9596a","session_id":"619beef190be54af9b7ca6b3","condition":"contingent","relevant_dimensions":["wings","legs"],"bee_group":{"antennae":"X","wings":"1","pattern":"X","legs":"F"},"bonus":0.5600000000000008},{"rt":1536.7000000476837,"stimulus":"bees-with-color/bee-A2DF.svg","response":1,"trial_type":"image-button-response","trial_index":103,"time_elapsed":312026,"internal_node_id":"0.0-4.0-0.48","subject_id":"60b9f1fe58782eeab6372f1c","study_id":"6197b3f67c2b5cd3b6d9596a","session_id":"619beef190be54af9b7ca6b3","condition":"contingent","relevant_dimensions":["wings","legs"],"bee_group":{"antennae":"X","wings":"1","pattern":"X","legs":"F"},"action":"avoid","summary":"bad-avoid","bonus":0.5600000000000008},{"rt":614.7000000476837,"stimulus":"\n                    <p><b>Action: <em>avoid</em></b></p>\n                    <p>This is the bee that you just saw.</p>\n                    <img src=\"bees-with-color/bee-A2DF.svg\" width=\"200\">\n                    <p><br>Your bonus pay is unchanged, and remains at $0.28.</p>\n            ","response":0,"trial_type":"html-button-response","trial_index":104,"time_elapsed":312642,"internal_node_id":"0.0-4.0-1.48","subject_id":"60b9f1fe58782eeab6372f1c","study_id":"6197b3f67c2b5cd3b6d9596a","session_id":"619beef190be54af9b7ca6b3","condition":"contingent","relevant_dimensions":["wings","legs"],"bee_group":{"antennae":"X","wings":"1","pattern":"X","legs":"F"},"bonus":0.5600000000000008},{"rt":933.2000000476837,"stimulus":"bees-with-color/bee-B2DM.svg","response":0,"trial_type":"image-button-response","trial_index":105,"time_elapsed":313576,"internal_node_id":"0.0-4.0-0.49","subject_id":"60b9f1fe58782eeab6372f1c","study_id":"6197b3f67c2b5cd3b6d9596a","session_id":"619beef190be54af9b7ca6b3","condition":"contingent","relevant_dimensions":["wings","legs"],"bee_group":{"antennae":"X","wings":"1","pattern":"X","legs":"F"},"action":"harvest","summary":"good-harvest","bonus":0.5600000000000008},{"rt":826.7999999523163,"stimulus":"\n                    <p><b>Action: <em>harvest</em></b></p>\n                    <p>This is the bee that you just saw.</p>\n                    <img src=\"bees-with-color/bee-B2DM.svg\" width=\"200\">\n                    <p><span class=\"greenText\"><b>Successful harvest!</b></span><br>Your pay has increased by $0.02. Your bonus pay is now $0.30.</p>\n            ","response":0,"trial_type":"html-button-response","trial_index":106,"time_elapsed":314404,"internal_node_id":"0.0-4.0-1.49","subject_id":"60b9f1fe58782eeab6372f1c","study_id":"6197b3f67c2b5cd3b6d9596a","session_id":"619beef190be54af9b7ca6b3","condition":"contingent","relevant_dimensions":["wings","legs"],"bee_group":{"antennae":"X","wings":"1","pattern":"X","legs":"F"},"bonus":0.5600000000000008},{"rt":3583.100000023842,"stimulus":"bees-with-color/bee-A2SF.svg","response":1,"trial_type":"image-button-response","trial_index":107,"time_elapsed":317988,"internal_node_id":"0.0-4.0-0.50","subject_id":"60b9f1fe58782eeab6372f1c","study_id":"6197b3f67c2b5cd3b6d9596a","session_id":"619beef190be54af9b7ca6b3","condition":"contingent","relevant_dimensions":["wings","legs"],"bee_group":{"antennae":"X","wings":"1","pattern":"X","legs":"F"},"action":"avoid","summary":"bad-avoid","bonus":0.5600000000000008},{"rt":922.7000000476837,"stimulus":"\n                    <p><b>Action: <em>avoid</em></b></p>\n                    <p>This is the bee that you just saw.</p>\n                    <img src=\"bees-with-color/bee-A2SF.svg\" width=\"200\">\n                    <p><br>Your bonus pay is unchanged, and remains at $0.30.</p>\n            ","response":0,"trial_type":"html-button-response","trial_index":108,"time_elapsed":318912,"internal_node_id":"0.0-4.0-1.50","subject_id":"60b9f1fe58782eeab6372f1c","study_id":"6197b3f67c2b5cd3b6d9596a","session_id":"619beef190be54af9b7ca6b3","condition":"contingent","relevant_dimensions":["wings","legs"],"bee_group":{"antennae":"X","wings":"1","pattern":"X","legs":"F"},"bonus":0.5600000000000008},{"rt":1268.6000000238419,"stimulus":"bees-with-color/bee-B1DM.svg","response":1,"trial_type":"image-button-response","trial_index":109,"time_elapsed":320182,"internal_node_id":"0.0-4.0-0.51","subject_id":"60b9f1fe58782eeab6372f1c","study_id":"6197b3f67c2b5cd3b6d9596a","session_id":"619beef190be54af9b7ca6b3","condition":"contingent","relevant_dimensions":["wings","legs"],"bee_group":{"antennae":"X","wings":"1","pattern":"X","legs":"F"},"action":"avoid","summary":"bad-avoid","bonus":0.5600000000000008},{"rt":820.6000000238419,"stimulus":"\n                    <p><b>Action: <em>avoid</em></b></p>\n                    <p>This is the bee that you just saw.</p>\n                    <img src=\"bees-with-color/bee-B1DM.svg\" width=\"200\">\n                    <p><br>Your bonus pay is unchanged, and remains at $0.30.</p>\n            ","response":0,"trial_type":"html-button-response","trial_index":110,"time_elapsed":321004,"internal_node_id":"0.0-4.0-1.51","subject_id":"60b9f1fe58782eeab6372f1c","study_id":"6197b3f67c2b5cd3b6d9596a","session_id":"619beef190be54af9b7ca6b3","condition":"contingent","relevant_dimensions":["wings","legs"],"bee_group":{"antennae":"X","wings":"1","pattern":"X","legs":"F"},"bonus":0.5600000000000008},{"rt":1367.1000000238419,"stimulus":"bees-with-color/bee-B1SF.svg","response":1,"trial_type":"image-button-response","trial_index":111,"time_elapsed":322372,"internal_node_id":"0.0-4.0-0.52","subject_id":"60b9f1fe58782eeab6372f1c","study_id":"6197b3f67c2b5cd3b6d9596a","session_id":"619beef190be54af9b7ca6b3","condition":"contingent","relevant_dimensions":["wings","legs"],"bee_group":{"antennae":"X","wings":"1","pattern":"X","legs":"F"},"action":"avoid","summary":"good-avoid","bonus":0.5600000000000008},{"rt":1006.5,"stimulus":"\n                    <p><b>Action: <em>avoid</em></b></p>\n                    <p>This is the bee that you just saw.</p>\n                    <img src=\"bees-with-color/bee-B1SF.svg\" width=\"200\">\n                    <p><br>Your bonus pay is unchanged, and remains at $0.30.</p>\n            ","response":0,"trial_type":"html-button-response","trial_index":112,"time_elapsed":323380,"internal_node_id":"0.0-4.0-1.52","subject_id":"60b9f1fe58782eeab6372f1c","study_id":"6197b3f67c2b5cd3b6d9596a","session_id":"619beef190be54af9b7ca6b3","condition":"contingent","relevant_dimensions":["wings","legs"],"bee_group":{"antennae":"X","wings":"1","pattern":"X","legs":"F"},"bonus":0.5600000000000008},{"rt":1082.7999999523163,"stimulus":"bees-with-color/bee-B1DF.svg","response":1,"trial_type":"image-button-response","trial_index":113,"time_elapsed":324464,"internal_node_id":"0.0-4.0-0.53","subject_id":"60b9f1fe58782eeab6372f1c","study_id":"6197b3f67c2b5cd3b6d9596a","session_id":"619beef190be54af9b7ca6b3","condition":"contingent","relevant_dimensions":["wings","legs"],"bee_group":{"antennae":"X","wings":"1","pattern":"X","legs":"F"},"action":"avoid","summary":"good-avoid","bonus":0.5600000000000008},{"rt":638.6999999284744,"stimulus":"\n                    <p><b>Action: <em>avoid</em></b></p>\n                    <p>This is the bee that you just saw.</p>\n                    <img src=\"bees-with-color/bee-B1DF.svg\" width=\"200\">\n                    <p><br>Your bonus pay is unchanged, and remains at $0.30.</p>\n            ","response":0,"trial_type":"html-button-response","trial_index":114,"time_elapsed":325104,"internal_node_id":"0.0-4.0-1.53","subject_id":"60b9f1fe58782eeab6372f1c","study_id":"6197b3f67c2b5cd3b6d9596a","session_id":"619beef190be54af9b7ca6b3","condition":"contingent","relevant_dimensions":["wings","legs"],"bee_group":{"antennae":"X","wings":"1","pattern":"X","legs":"F"},"bonus":0.5600000000000008},{"rt":1184.8999999761581,"stimulus":"bees-with-color/bee-B2DF.svg","response":0,"trial_type":"image-button-response","trial_index":115,"time_elapsed":326290,"internal_node_id":"0.0-4.0-0.54","subject_id":"60b9f1fe58782eeab6372f1c","study_id":"6197b3f67c2b5cd3b6d9596a","session_id":"619beef190be54af9b7ca6b3","condition":"contingent","relevant_dimensions":["wings","legs"],"bee_group":{"antennae":"X","wings":"1","pattern":"X","legs":"F"},"action":"harvest","summary":"good-harvest","bonus":0.5600000000000008},{"rt":816.8999999761581,"stimulus":"\n                    <p><b>Action: <em>harvest</em></b></p>\n                    <p>This is the bee that you just saw.</p>\n                    <img src=\"bees-with-color/bee-B2DF.svg\" width=\"200\">\n                    <p><span class=\"greenText\"><b>Successful harvest!</b></span><br>Your pay has increased by $0.02. Your bonus pay is now $0.32.</p>\n            ","response":0,"trial_type":"html-button-response","trial_index":116,"time_elapsed":327108,"internal_node_id":"0.0-4.0-1.54","subject_id":"60b9f1fe58782eeab6372f1c","study_id":"6197b3f67c2b5cd3b6d9596a","session_id":"619beef190be54af9b7ca6b3","condition":"contingent","relevant_dimensions":["wings","legs"],"bee_group":{"antennae":"X","wings":"1","pattern":"X","legs":"F"},"bonus":0.5600000000000008},{"rt":1925.3000000715256,"stimulus":"bees-with-color/bee-A1SM.svg","response":1,"trial_type":"image-button-response","trial_index":117,"time_elapsed":329034,"internal_node_id":"0.0-4.0-0.55","subject_id":"60b9f1fe58782eeab6372f1c","study_id":"6197b3f67c2b5cd3b6d9596a","session_id":"619beef190be54af9b7ca6b3","condition":"contingent","relevant_dimensions":["wings","legs"],"bee_group":{"antennae":"X","wings":"1","pattern":"X","legs":"F"},"action":"avoid","summary":"bad-avoid","bonus":0.5600000000000008},{"rt":608.5,"stimulus":"\n                    <p><b>Action: <em>avoid</em></b></p>\n                    <p>This is the bee that you just saw.</p>\n                    <img src=\"bees-with-color/bee-A1SM.svg\" width=\"200\">\n                    <p><br>Your bonus pay is unchanged, and remains at $0.32.</p>\n            ","response":0,"trial_type":"html-button-response","trial_index":118,"time_elapsed":329644,"internal_node_id":"0.0-4.0-1.55","subject_id":"60b9f1fe58782eeab6372f1c","study_id":"6197b3f67c2b5cd3b6d9596a","session_id":"619beef190be54af9b7ca6b3","condition":"contingent","relevant_dimensions":["wings","legs"],"bee_group":{"antennae":"X","wings":"1","pattern":"X","legs":"F"},"bonus":0.5600000000000008},{"rt":1012.7999999523163,"stimulus":"bees-with-color/bee-A1SF.svg","response":1,"trial_type":"image-button-response","trial_index":119,"time_elapsed":330658,"internal_node_id":"0.0-4.0-0.56","subject_id":"60b9f1fe58782eeab6372f1c","study_id":"6197b3f67c2b5cd3b6d9596a","session_id":"619beef190be54af9b7ca6b3","condition":"contingent","relevant_dimensions":["wings","legs"],"bee_group":{"antennae":"X","wings":"1","pattern":"X","legs":"F"},"action":"avoid","summary":"good-avoid","bonus":0.5600000000000008},{"rt":614.2999999523163,"stimulus":"\n                    <p><b>Action: <em>avoid</em></b></p>\n                    <p>This is the bee that you just saw.</p>\n                    <img src=\"bees-with-color/bee-A1SF.svg\" width=\"200\">\n                    <p><br>Your bonus pay is unchanged, and remains at $0.32.</p>\n            ","response":0,"trial_type":"html-button-response","trial_index":120,"time_elapsed":331274,"internal_node_id":"0.0-4.0-1.56","subject_id":"60b9f1fe58782eeab6372f1c","study_id":"6197b3f67c2b5cd3b6d9596a","session_id":"619beef190be54af9b7ca6b3","condition":"contingent","relevant_dimensions":["wings","legs"],"bee_group":{"antennae":"X","wings":"1","pattern":"X","legs":"F"},"bonus":0.5600000000000008},{"rt":1228.8999999761581,"stimulus":"bees-with-color/bee-A1DF.svg","response":1,"trial_type":"image-button-response","trial_index":121,"time_elapsed":332504,"internal_node_id":"0.0-4.0-0.57","subject_id":"60b9f1fe58782eeab6372f1c","study_id":"6197b3f67c2b5cd3b6d9596a","session_id":"619beef190be54af9b7ca6b3","condition":"contingent","relevant_dimensions":["wings","legs"],"bee_group":{"antennae":"X","wings":"1","pattern":"X","legs":"F"},"action":"avoid","summary":"good-avoid","bonus":0.5600000000000008},{"rt":563.5,"stimulus":"\n                    <p><b>Action: <em>avoid</em></b></p>\n                    <p>This is the bee that you just saw.</p>\n                    <img src=\"bees-with-color/bee-A1DF.svg\" width=\"200\">\n                    <p><br>Your bonus pay is unchanged, and remains at $0.32.</p>\n            ","response":0,"trial_type":"html-button-response","trial_index":122,"time_elapsed":333069,"internal_node_id":"0.0-4.0-1.57","subject_id":"60b9f1fe58782eeab6372f1c","study_id":"6197b3f67c2b5cd3b6d9596a","session_id":"619beef190be54af9b7ca6b3","condition":"contingent","relevant_dimensions":["wings","legs"],"bee_group":{"antennae":"X","wings":"1","pattern":"X","legs":"F"},"bonus":0.5600000000000008},{"rt":998.1000000238419,"stimulus":"bees-with-color/bee-A2DM.svg","response":0,"trial_type":"image-button-response","trial_index":123,"time_elapsed":334068,"internal_node_id":"0.0-4.0-0.58","subject_id":"60b9f1fe58782eeab6372f1c","study_id":"6197b3f67c2b5cd3b6d9596a","session_id":"619beef190be54af9b7ca6b3","condition":"contingent","relevant_dimensions":["wings","legs"],"bee_group":{"antennae":"X","wings":"1","pattern":"X","legs":"F"},"action":"harvest","summary":"good-harvest","bonus":0.5600000000000008},{"rt":810.6000000238419,"stimulus":"\n                    <p><b>Action: <em>harvest</em></b></p>\n                    <p>This is the bee that you just saw.</p>\n                    <img src=\"bees-with-color/bee-A2DM.svg\" width=\"200\">\n                    <p><span class=\"greenText\"><b>Successful harvest!</b></span><br>Your pay has increased by $0.02. Your bonus pay is now $0.34.</p>\n            ","response":0,"trial_type":"html-button-response","trial_index":124,"time_elapsed":334880,"internal_node_id":"0.0-4.0-1.58","subject_id":"60b9f1fe58782eeab6372f1c","study_id":"6197b3f67c2b5cd3b6d9596a","session_id":"619beef190be54af9b7ca6b3","condition":"contingent","relevant_dimensions":["wings","legs"],"bee_group":{"antennae":"X","wings":"1","pattern":"X","legs":"F"},"bonus":0.5600000000000008},{"rt":1451,"stimulus":"bees-with-color/bee-B1SM.svg","response":1,"trial_type":"image-button-response","trial_index":125,"time_elapsed":336332,"internal_node_id":"0.0-4.0-0.59","subject_id":"60b9f1fe58782eeab6372f1c","study_id":"6197b3f67c2b5cd3b6d9596a","session_id":"619beef190be54af9b7ca6b3","condition":"contingent","relevant_dimensions":["wings","legs"],"bee_group":{"antennae":"X","wings":"1","pattern":"X","legs":"F"},"action":"avoid","summary":"bad-avoid","bonus":0.5600000000000008},{"rt":618.7999999523163,"stimulus":"\n                    <p><b>Action: <em>avoid</em></b></p>\n                    <p>This is the bee that you just saw.</p>\n                    <img src=\"bees-with-color/bee-B1SM.svg\" width=\"200\">\n                    <p><br>Your bonus pay is unchanged, and remains at $0.34.</p>\n            ","response":0,"trial_type":"html-button-response","trial_index":126,"time_elapsed":336952,"internal_node_id":"0.0-4.0-1.59","subject_id":"60b9f1fe58782eeab6372f1c","study_id":"6197b3f67c2b5cd3b6d9596a","session_id":"619beef190be54af9b7ca6b3","condition":"contingent","relevant_dimensions":["wings","legs"],"bee_group":{"antennae":"X","wings":"1","pattern":"X","legs":"F"},"bonus":0.5600000000000008},{"rt":1542.6999999284744,"stimulus":"bees-with-color/bee-A1DM.svg","response":0,"trial_type":"image-button-response","trial_index":127,"time_elapsed":338496,"internal_node_id":"0.0-4.0-0.60","subject_id":"60b9f1fe58782eeab6372f1c","study_id":"6197b3f67c2b5cd3b6d9596a","session_id":"619beef190be54af9b7ca6b3","condition":"contingent","relevant_dimensions":["wings","legs"],"bee_group":{"antennae":"X","wings":"1","pattern":"X","legs":"F"},"action":"harvest","summary":"good-harvest","bonus":0.5600000000000008},{"rt":774.5,"stimulus":"\n                    <p><b>Action: <em>harvest</em></b></p>\n                    <p>This is the bee that you just saw.</p>\n                    <img src=\"bees-with-color/bee-A1DM.svg\" width=\"200\">\n                    <p><span class=\"greenText\"><b>Successful harvest!</b></span><br>Your pay has increased by $0.02. Your bonus pay is now $0.36.</p>\n            ","response":0,"trial_type":"html-button-response","trial_index":128,"time_elapsed":339272,"internal_node_id":"0.0-4.0-1.60","subject_id":"60b9f1fe58782eeab6372f1c","study_id":"6197b3f67c2b5cd3b6d9596a","session_id":"619beef190be54af9b7ca6b3","condition":"contingent","relevant_dimensions":["wings","legs"],"bee_group":{"antennae":"X","wings":"1","pattern":"X","legs":"F"},"bonus":0.5600000000000008},{"rt":1162.7999999523163,"stimulus":"bees-with-color/bee-A2SM.svg","response":1,"trial_type":"image-button-response","trial_index":129,"time_elapsed":340436,"internal_node_id":"0.0-4.0-0.61","subject_id":"60b9f1fe58782eeab6372f1c","study_id":"6197b3f67c2b5cd3b6d9596a","session_id":"619beef190be54af9b7ca6b3","condition":"contingent","relevant_dimensions":["wings","legs"],"bee_group":{"antennae":"X","wings":"1","pattern":"X","legs":"F"},"action":"avoid","summary":"bad-avoid","bonus":0.5600000000000008},{"rt":922.5,"stimulus":"\n                    <p><b>Action: <em>avoid</em></b></p>\n                    <p>This is the bee that you just saw.</p>\n                    <img src=\"bees-with-color/bee-A2SM.svg\" width=\"200\">\n                    <p><br>Your bonus pay is unchanged, and remains at $0.36.</p>\n            ","response":0,"trial_type":"html-button-response","trial_index":130,"time_elapsed":341360,"internal_node_id":"0.0-4.0-1.61","subject_id":"60b9f1fe58782eeab6372f1c","study_id":"6197b3f67c2b5cd3b6d9596a","session_id":"619beef190be54af9b7ca6b3","condition":"contingent","relevant_dimensions":["wings","legs"],"bee_group":{"antennae":"X","wings":"1","pattern":"X","legs":"F"},"bonus":0.5600000000000008},{"rt":1324.6999999284744,"stimulus":"bees-with-color/bee-B2SF.svg","response":1,"trial_type":"image-button-response","trial_index":131,"time_elapsed":342686,"internal_node_id":"0.0-4.0-0.62","subject_id":"60b9f1fe58782eeab6372f1c","study_id":"6197b3f67c2b5cd3b6d9596a","session_id":"619beef190be54af9b7ca6b3","condition":"contingent","relevant_dimensions":["wings","legs"],"bee_group":{"antennae":"X","wings":"1","pattern":"X","legs":"F"},"action":"avoid","summary":"bad-avoid","bonus":0.5600000000000008},{"rt":2374.7000000476837,"stimulus":"\n                    <p><b>Action: <em>avoid</em></b></p>\n                    <p>This is the bee that you just saw.</p>\n                    <img src=\"bees-with-color/bee-B2SF.svg\" width=\"200\">\n                    <p><br>Your bonus pay is unchanged, and remains at $0.36.</p>\n            ","response":0,"trial_type":"html-button-response","trial_index":132,"time_elapsed":345062,"internal_node_id":"0.0-4.0-1.62","subject_id":"60b9f1fe58782eeab6372f1c","study_id":"6197b3f67c2b5cd3b6d9596a","session_id":"619beef190be54af9b7ca6b3","condition":"contingent","relevant_dimensions":["wings","legs"],"bee_group":{"antennae":"X","wings":"1","pattern":"X","legs":"F"},"bonus":0.5600000000000008},{"rt":1814.2999999523163,"stimulus":"bees-with-color/bee-B2SM.svg","response":1,"trial_type":"image-button-response","trial_index":133,"time_elapsed":346878,"internal_node_id":"0.0-4.0-0.63","subject_id":"60b9f1fe58782eeab6372f1c","study_id":"6197b3f67c2b5cd3b6d9596a","session_id":"619beef190be54af9b7ca6b3","condition":"contingent","relevant_dimensions":["wings","legs"],"bee_group":{"antennae":"X","wings":"1","pattern":"X","legs":"F"},"action":"avoid","summary":"bad-avoid","bonus":0.5600000000000008},{"rt":830.6000000238419,"stimulus":"\n                    <p><b>Action: <em>avoid</em></b></p>\n                    <p>This is the bee that you just saw.</p>\n                    <img src=\"bees-with-color/bee-B2SM.svg\" width=\"200\">\n                    <p><br>Your bonus pay is unchanged, and remains at $0.36.</p>\n            ","response":0,"trial_type":"html-button-response","trial_index":134,"time_elapsed":347710,"internal_node_id":"0.0-4.0-1.63","subject_id":"60b9f1fe58782eeab6372f1c","study_id":"6197b3f67c2b5cd3b6d9596a","session_id":"619beef190be54af9b7ca6b3","condition":"contingent","relevant_dimensions":["wings","legs"],"bee_group":{"antennae":"X","wings":"1","pattern":"X","legs":"F"},"bonus":0.5600000000000008},{"rt":7618.399999976158,"stimulus":"You have completed the first part of this experiment.<br><br>You will now begin a shorter second part, in which you will receive no feedback.<br>The same rules regarding bonus pay apply.<br><br>Press any key to begin.","response":" ","trial_type":"html-keyboard-response","trial_index":135,"time_elapsed":355330,"internal_node_id":"0.0-5.0","subject_id":"60b9f1fe58782eeab6372f1c","study_id":"6197b3f67c2b5cd3b6d9596a","session_id":"619beef190be54af9b7ca6b3","condition":"contingent","relevant_dimensions":["wings","legs"],"bee_group":{"antennae":"X","wings":"1","pattern":"X","legs":"F"},"bonus":0.5600000000000008},{"rt":2258.5999999046326,"stimulus":"bees-with-color/bee-A1SM.svg","response":0,"trial_type":"image-button-response","trial_index":136,"time_elapsed":357596,"internal_node_id":"0.0-6.0-0.0","subject_id":"60b9f1fe58782eeab6372f1c","study_id":"6197b3f67c2b5cd3b6d9596a","session_id":"619beef190be54af9b7ca6b3","condition":"contingent","relevant_dimensions":["wings","legs"],"bee_group":{"antennae":"X","wings":"1","pattern":"X","legs":"F"},"bonus":0.5600000000000008},{"rt":1771.4000000953674,"stimulus":"bees-with-color/bee-A2DF.svg","response":1,"trial_type":"image-button-response","trial_index":137,"time_elapsed":359370,"internal_node_id":"0.0-6.0-0.1","subject_id":"60b9f1fe58782eeab6372f1c","study_id":"6197b3f67c2b5cd3b6d9596a","session_id":"619beef190be54af9b7ca6b3","condition":"contingent","relevant_dimensions":["wings","legs"],"bee_group":{"antennae":"X","wings":"1","pattern":"X","legs":"F"},"bonus":0.5600000000000008},{"rt":1273.8000000715256,"stimulus":"bees-with-color/bee-B1SM.svg","response":0,"trial_type":"image-button-response","trial_index":138,"time_elapsed":360646,"internal_node_id":"0.0-6.0-0.2","subject_id":"60b9f1fe58782eeab6372f1c","study_id":"6197b3f67c2b5cd3b6d9596a","session_id":"619beef190be54af9b7ca6b3","condition":"contingent","relevant_dimensions":["wings","legs"],"bee_group":{"antennae":"X","wings":"1","pattern":"X","legs":"F"},"bonus":0.5600000000000008},{"rt":1073.8999999761581,"stimulus":"bees-with-color/bee-B1DF.svg","response":1,"trial_type":"image-button-response","trial_index":139,"time_elapsed":361722,"internal_node_id":"0.0-6.0-0.3","subject_id":"60b9f1fe58782eeab6372f1c","study_id":"6197b3f67c2b5cd3b6d9596a","session_id":"619beef190be54af9b7ca6b3","condition":"contingent","relevant_dimensions":["wings","legs"],"bee_group":{"antennae":"X","wings":"1","pattern":"X","legs":"F"},"bonus":0.5600000000000008},{"rt":823.8999999761581,"stimulus":"bees-with-color/bee-A1DF.svg","response":1,"trial_type":"image-button-response","trial_index":140,"time_elapsed":362548,"internal_node_id":"0.0-6.0-0.4","subject_id":"60b9f1fe58782eeab6372f1c","study_id":"6197b3f67c2b5cd3b6d9596a","session_id":"619beef190be54af9b7ca6b3","condition":"contingent","relevant_dimensions":["wings","legs"],"bee_group":{"antennae":"X","wings":"1","pattern":"X","legs":"F"},"bonus":0.5600000000000008},{"rt":1078.6000000238419,"stimulus":"bees-with-color/bee-A1DM.svg","response":0,"trial_type":"image-button-response","trial_index":141,"time_elapsed":363629,"internal_node_id":"0.0-6.0-0.5","subject_id":"60b9f1fe58782eeab6372f1c","study_id":"6197b3f67c2b5cd3b6d9596a","session_id":"619beef190be54af9b7ca6b3","condition":"contingent","relevant_dimensions":["wings","legs"],"bee_group":{"antennae":"X","wings":"1","pattern":"X","legs":"F"},"bonus":0.5600000000000008},{"rt":1435.5,"stimulus":"bees-with-color/bee-A2SM.svg","response":0,"trial_type":"image-button-response","trial_index":142,"time_elapsed":365066,"internal_node_id":"0.0-6.0-0.6","subject_id":"60b9f1fe58782eeab6372f1c","study_id":"6197b3f67c2b5cd3b6d9596a","session_id":"619beef190be54af9b7ca6b3","condition":"contingent","relevant_dimensions":["wings","legs"],"bee_group":{"antennae":"X","wings":"1","pattern":"X","legs":"F"},"bonus":0.5600000000000008},{"rt":834.3999999761581,"stimulus":"bees-with-color/bee-B2DF.svg","response":1,"trial_type":"image-button-response","trial_index":143,"time_elapsed":365902,"internal_node_id":"0.0-6.0-0.7","subject_id":"60b9f1fe58782eeab6372f1c","study_id":"6197b3f67c2b5cd3b6d9596a","session_id":"619beef190be54af9b7ca6b3","condition":"contingent","relevant_dimensions":["wings","legs"],"bee_group":{"antennae":"X","wings":"1","pattern":"X","legs":"F"},"bonus":0.5600000000000008},{"rt":1068.2000000476837,"stimulus":"bees-with-color/bee-B1SF.svg","response":1,"trial_type":"image-button-response","trial_index":144,"time_elapsed":366972,"internal_node_id":"0.0-6.0-0.8","subject_id":"60b9f1fe58782eeab6372f1c","study_id":"6197b3f67c2b5cd3b6d9596a","session_id":"619beef190be54af9b7ca6b3","condition":"contingent","relevant_dimensions":["wings","legs"],"bee_group":{"antennae":"X","wings":"1","pattern":"X","legs":"F"},"bonus":0.5600000000000008},{"rt":1620.3999999761581,"stimulus":"bees-with-color/bee-A1SF.svg","response":1,"trial_type":"image-button-response","trial_index":145,"time_elapsed":368594,"internal_node_id":"0.0-6.0-0.9","subject_id":"60b9f1fe58782eeab6372f1c","study_id":"6197b3f67c2b5cd3b6d9596a","session_id":"619beef190be54af9b7ca6b3","condition":"contingent","relevant_dimensions":["wings","legs"],"bee_group":{"antennae":"X","wings":"1","pattern":"X","legs":"F"},"bonus":0.5600000000000008},{"rt":1030.0999999046326,"stimulus":"bees-with-color/bee-A2DM.svg","response":0,"trial_type":"image-button-response","trial_index":146,"time_elapsed":369626,"internal_node_id":"0.0-6.0-0.10","subject_id":"60b9f1fe58782eeab6372f1c","study_id":"6197b3f67c2b5cd3b6d9596a","session_id":"619beef190be54af9b7ca6b3","condition":"contingent","relevant_dimensions":["wings","legs"],"bee_group":{"antennae":"X","wings":"1","pattern":"X","legs":"F"},"bonus":0.5600000000000008},{"rt":1002.3000000715256,"stimulus":"bees-with-color/bee-A2SF.svg","response":0,"trial_type":"image-button-response","trial_index":147,"time_elapsed":370630,"internal_node_id":"0.0-6.0-0.11","subject_id":"60b9f1fe58782eeab6372f1c","study_id":"6197b3f67c2b5cd3b6d9596a","session_id":"619beef190be54af9b7ca6b3","condition":"contingent","relevant_dimensions":["wings","legs"],"bee_group":{"antennae":"X","wings":"1","pattern":"X","legs":"F"},"bonus":0.5600000000000008},{"rt":698.3000000715256,"stimulus":"bees-with-color/bee-B1DM.svg","response":1,"trial_type":"image-button-response","trial_index":148,"time_elapsed":371330,"internal_node_id":"0.0-6.0-0.12","subject_id":"60b9f1fe58782eeab6372f1c","study_id":"6197b3f67c2b5cd3b6d9596a","session_id":"619beef190be54af9b7ca6b3","condition":"contingent","relevant_dimensions":["wings","legs"],"bee_group":{"antennae":"X","wings":"1","pattern":"X","legs":"F"},"bonus":0.5600000000000008},{"rt":734.2999999523163,"stimulus":"bees-with-color/bee-B2DM.svg","response":0,"trial_type":"image-button-response","trial_index":149,"time_elapsed":372066,"internal_node_id":"0.0-6.0-0.13","subject_id":"60b9f1fe58782eeab6372f1c","study_id":"6197b3f67c2b5cd3b6d9596a","session_id":"619beef190be54af9b7ca6b3","condition":"contingent","relevant_dimensions":["wings","legs"],"bee_group":{"antennae":"X","wings":"1","pattern":"X","legs":"F"},"bonus":0.5600000000000008},{"rt":1250.1000000238419,"stimulus":"bees-with-color/bee-B2SF.svg","response":0,"trial_type":"image-button-response","trial_index":150,"time_elapsed":373318,"internal_node_id":"0.0-6.0-0.14","subject_id":"60b9f1fe58782eeab6372f1c","study_id":"6197b3f67c2b5cd3b6d9596a","session_id":"619beef190be54af9b7ca6b3","condition":"contingent","relevant_dimensions":["wings","legs"],"bee_group":{"antennae":"X","wings":"1","pattern":"X","legs":"F"},"bonus":0.5600000000000008},{"rt":658.2999999523163,"stimulus":"bees-with-color/bee-B2SM.svg","response":0,"trial_type":"image-button-response","trial_index":151,"time_elapsed":373978,"internal_node_id":"0.0-6.0-0.15","subject_id":"60b9f1fe58782eeab6372f1c","study_id":"6197b3f67c2b5cd3b6d9596a","session_id":"619beef190be54af9b7ca6b3","condition":"contingent","relevant_dimensions":["wings","legs"],"bee_group":{"antennae":"X","wings":"1","pattern":"X","legs":"F"},"bonus":0.5600000000000008},{"rt":1416,"stimulus":"bees-with-color/bee-A1SM.svg","response":1,"trial_type":"image-button-response","trial_index":152,"time_elapsed":375396,"internal_node_id":"0.0-6.0-0.16","subject_id":"60b9f1fe58782eeab6372f1c","study_id":"6197b3f67c2b5cd3b6d9596a","session_id":"619beef190be54af9b7ca6b3","condition":"contingent","relevant_dimensions":["wings","legs"],"bee_group":{"antennae":"X","wings":"1","pattern":"X","legs":"F"},"bonus":0.5600000000000008},{"rt":992.5,"stimulus":"bees-with-color/bee-B1SM.svg","response":1,"trial_type":"image-button-response","trial_index":153,"time_elapsed":376390,"internal_node_id":"0.0-6.0-0.17","subject_id":"60b9f1fe58782eeab6372f1c","study_id":"6197b3f67c2b5cd3b6d9596a","session_id":"619beef190be54af9b7ca6b3","condition":"contingent","relevant_dimensions":["wings","legs"],"bee_group":{"antennae":"X","wings":"1","pattern":"X","legs":"F"},"bonus":0.5600000000000008},{"rt":1738.6999999284744,"stimulus":"bees-with-color/bee-A1SF.svg","response":0,"trial_type":"image-button-response","trial_index":154,"time_elapsed":378130,"internal_node_id":"0.0-6.0-0.18","subject_id":"60b9f1fe58782eeab6372f1c","study_id":"6197b3f67c2b5cd3b6d9596a","session_id":"619beef190be54af9b7ca6b3","condition":"contingent","relevant_dimensions":["wings","legs"],"bee_group":{"antennae":"X","wings":"1","pattern":"X","legs":"F"},"bonus":0.5600000000000008},{"rt":718.5,"stimulus":"bees-with-color/bee-A2SM.svg","response":0,"trial_type":"image-button-response","trial_index":155,"time_elapsed":378850,"internal_node_id":"0.0-6.0-0.19","subject_id":"60b9f1fe58782eeab6372f1c","study_id":"6197b3f67c2b5cd3b6d9596a","session_id":"619beef190be54af9b7ca6b3","condition":"contingent","relevant_dimensions":["wings","legs"],"bee_group":{"antennae":"X","wings":"1","pattern":"X","legs":"F"},"bonus":0.5600000000000008},{"rt":1008.5,"stimulus":"bees-with-color/bee-A1DF.svg","response":1,"trial_type":"image-button-response","trial_index":156,"time_elapsed":379860,"internal_node_id":"0.0-6.0-0.20","subject_id":"60b9f1fe58782eeab6372f1c","study_id":"6197b3f67c2b5cd3b6d9596a","session_id":"619beef190be54af9b7ca6b3","condition":"contingent","relevant_dimensions":["wings","legs"],"bee_group":{"antennae":"X","wings":"1","pattern":"X","legs":"F"},"bonus":0.5600000000000008},{"rt":2096.600000023842,"stimulus":"bees-with-color/bee-B2SF.svg","response":1,"trial_type":"image-button-response","trial_index":157,"time_elapsed":381958,"internal_node_id":"0.0-6.0-0.21","subject_id":"60b9f1fe58782eeab6372f1c","study_id":"6197b3f67c2b5cd3b6d9596a","session_id":"619beef190be54af9b7ca6b3","condition":"contingent","relevant_dimensions":["wings","legs"],"bee_group":{"antennae":"X","wings":"1","pattern":"X","legs":"F"},"bonus":0.5600000000000008},{"rt":1162.3999999761581,"stimulus":"bees-with-color/bee-A2SF.svg","response":0,"trial_type":"image-button-response","trial_index":158,"time_elapsed":383122,"internal_node_id":"0.0-6.0-0.22","subject_id":"60b9f1fe58782eeab6372f1c","study_id":"6197b3f67c2b5cd3b6d9596a","session_id":"619beef190be54af9b7ca6b3","condition":"contingent","relevant_dimensions":["wings","legs"],"bee_group":{"antennae":"X","wings":"1","pattern":"X","legs":"F"},"bonus":0.5600000000000008},{"rt":1552.9000000953674,"stimulus":"bees-with-color/bee-B1DM.svg","response":0,"trial_type":"image-button-response","trial_index":159,"time_elapsed":384676,"internal_node_id":"0.0-6.0-0.23","subject_id":"60b9f1fe58782eeab6372f1c","study_id":"6197b3f67c2b5cd3b6d9596a","session_id":"619beef190be54af9b7ca6b3","condition":"contingent","relevant_dimensions":["wings","legs"],"bee_group":{"antennae":"X","wings":"1","pattern":"X","legs":"F"},"bonus":0.5600000000000008},{"rt":996.5,"stimulus":"bees-with-color/bee-B2SM.svg","response":1,"trial_type":"image-button-response","trial_index":160,"time_elapsed":385674,"internal_node_id":"0.0-6.0-0.24","subject_id":"60b9f1fe58782eeab6372f1c","study_id":"6197b3f67c2b5cd3b6d9596a","session_id":"619beef190be54af9b7ca6b3","condition":"contingent","relevant_dimensions":["wings","legs"],"bee_group":{"antennae":"X","wings":"1","pattern":"X","legs":"F"},"bonus":0.5600000000000008},{"rt":886.7999999523163,"stimulus":"bees-with-color/bee-A1DM.svg","response":0,"trial_type":"image-button-response","trial_index":161,"time_elapsed":386562,"internal_node_id":"0.0-6.0-0.25","subject_id":"60b9f1fe58782eeab6372f1c","study_id":"6197b3f67c2b5cd3b6d9596a","session_id":"619beef190be54af9b7ca6b3","condition":"contingent","relevant_dimensions":["wings","legs"],"bee_group":{"antennae":"X","wings":"1","pattern":"X","legs":"F"},"bonus":0.5600000000000008},{"rt":1738.5,"stimulus":"bees-with-color/bee-A2DF.svg","response":1,"trial_type":"image-button-response","trial_index":162,"time_elapsed":388302,"internal_node_id":"0.0-6.0-0.26","subject_id":"60b9f1fe58782eeab6372f1c","study_id":"6197b3f67c2b5cd3b6d9596a","session_id":"619beef190be54af9b7ca6b3","condition":"contingent","relevant_dimensions":["wings","legs"],"bee_group":{"antennae":"X","wings":"1","pattern":"X","legs":"F"},"bonus":0.5600000000000008},{"rt":1406.6000000238419,"stimulus":"bees-with-color/bee-B2DM.svg","response":0,"trial_type":"image-button-response","trial_index":163,"time_elapsed":389710,"internal_node_id":"0.0-6.0-0.27","subject_id":"60b9f1fe58782eeab6372f1c","study_id":"6197b3f67c2b5cd3b6d9596a","session_id":"619beef190be54af9b7ca6b3","condition":"contingent","relevant_dimensions":["wings","legs"],"bee_group":{"antennae":"X","wings":"1","pattern":"X","legs":"F"},"bonus":0.5600000000000008},{"rt":962.7000000476837,"stimulus":"bees-with-color/bee-B1SF.svg","response":1,"trial_type":"image-button-response","trial_index":164,"time_elapsed":390674,"internal_node_id":"0.0-6.0-0.28","subject_id":"60b9f1fe58782eeab6372f1c","study_id":"6197b3f67c2b5cd3b6d9596a","session_id":"619beef190be54af9b7ca6b3","condition":"contingent","relevant_dimensions":["wings","legs"],"bee_group":{"antennae":"X","wings":"1","pattern":"X","legs":"F"},"bonus":0.5600000000000008},{"rt":1474.7000000476837,"stimulus":"bees-with-color/bee-B2DF.svg","response":1,"trial_type":"image